,timestamp,acc_x_dashboard,acc_y_dashboard,acc_z_dashboard,acc_x_above_suspension,acc_y_above_suspension,acc_z_above_suspension,acc_x_below_suspension,acc_y_below_suspension,acc_z_below_suspension,gyro_x_dashboard,gyro_y_dashboard,gyro_z_dashboard,gyro_x_above_suspension,gyro_y_above_suspension,gyro_z_above_suspension,gyro_x_below_suspension,gyro_y_below_suspension,gyro_z_below_suspension,mag_x_dashboard,mag_y_dashboard,mag_z_dashboard,mag_x_above_suspension,mag_y_above_suspension,mag_z_above_suspension,temp_dashboard,temp_above_suspension,temp_below_suspension,timestamp_gps,latitude,longitude,speed
88506,1577396315.48,-0.6838073522056022,-1.65813063756431,10.20846711276915,8.697784260372998,-3.550484271686833,9.183982382872044,-3.1122869727157965,-0.6227260122903956,10.818346189322122,-1.2208892077934452,2.361018483231707,-1.3295615591653962,-6.973452684355945,3.834422041730183,1.7696473656631098,-5.489442406631097,-19.7353828244093,9.29074171112805,20.03796332196029,-25.92801720848596,7.616681111547183,-10.387567409442411,-28.50690049892636,-26.185071499013805,29.29065205019917,37.86884116572318,44.3863479797526,1577396315.0,-27.682441722514785,-51.12803726968772,9.565235
88507,1577396315.49,2.0647361536537727,1.6530502584317837,10.826171141089462,3.88304472179878,-0.6175872379954266,14.398553598692358,3.986520949647484,-8.667243590415396,6.082615305533061,0.6406830578315549,-6.397526438643292,-2.763887731040396,-2.945132371855945,-13.438527177019816,0.7625672875381098,-6.160829125381097,-5.666779308784299,-0.5664360232469513,20.36780633960573,-27.023567231379733,7.97094534929356,-19.80716956654457,-27.43979727169382,-4.08079036348267,28.955192140653548,37.91676400994399,44.3863479797526,1577396315.0,-27.682441722514785,-51.12803726968772,9.565235
88508,1577396315.5,-0.8071087377036495,-1.2511163553377476,8.187760911597275,-1.843885649294969,-1.371760760944646,8.554307346250953,-2.550846683409156,3.251092273842416,5.5798329569002485,-1.922793504668445,4.070002858231708,-2.184053746665396,-0.0307036609184452,2.8120831745426838,-2.5943663062118905,-3.643128930068597,8.6307060427782,1.1730659298780486,19.543198795492145,-25.745425538003666,8.85660594365951,-19.951641992266996,-29.802668703423013,-4.250823295294447,29.146883517536764,38.0126096983856,44.50615509030461,1577396315.0,-27.682441722514785,-51.12803726968772,9.565235
88509,1577396315.51,1.3177452356850228,1.0640766500333452,10.239591734351182,-0.1535792772246564,4.707117254192073,6.643734421446265,6.167638662049828,6.813664344154916,13.595620115103372,-2.655215379668445,-5.909245188643292,-1.1464560904153962,3.738217237519055,-0.7432146770198171,-0.2139952124618902,6.870176733993903,-0.1430976681592987,-0.7495414919969513,19.543198795492145,-25.745425538003666,8.85660594365951,-20.09611441798942,-32.165540135152206,-4.420856227106225,29.09896067331596,37.91676400994399,44.3863479797526,1577396315.0,-27.682441722514785,-51.12803726968772,9.565235
88510,1577396315.52,2.2419070765053357,5.117460060677877,16.61295655368712,4.223021357540968,3.105396343547542,12.08575479498142,-12.368270590879858,-14.05898572908727,9.776868467154154,-14.679141160918444,-1.9419600323932928,-4.717012731040397,-5.325503465605945,1.5150861042301829,-1.1905577124618902,-5.275819359756097,8.5544120974657,3.8891303830030486,21.027492374896607,-25.92801720848596,7.262416873800799,-19.05591295278796,-31.250880226095745,-4.420856227106225,29.146883517536764,37.91676400994399,44.290502291310986,1577396315.0,-27.682441722514785,-51.12803726968772,9.565235
88511,1577396315.53,0.7072238123451791,-1.1517569864412638,9.820606443823838,0.7035449171112801,-3.483446625202458,9.27735624761814,-2.717243698790015,-8.837231908286489,7.643634787954936,0.5491303234565557,6.038386647294208,-2.6265586294778966,3.860287550019055,-1.6282244426448171,-0.1529600562118902,-4.055116234756097,3.702117175590701,-11.64431688262195,20.120424076371656,-27.11486306662088,8.236643527603347,-18.478023249898254,-31.250880226095745,-12.582436954071568,29.09896067331596,37.91676400994399,44.19465660286938,1577396315.0,-27.682441722514785,-51.12803726968772,9.565235
88512,1577396315.54,0.0631835657631468,6.020074086556783,17.64485746921446,-0.2960342760039535,2.603811095744806,12.855490628721656,6.815270211122094,9.69748024381312,11.539000889029154,8.514218214081556,8.220393483231707,-1.6042197622903962,-0.183291551543445,-1.4298601848323171,-0.4276182593368907,7.587339819931404,8.2339775271532,-5.6170952029344505,19.70812030431486,-27.38875057234432,8.67947382478632,-19.05591295278796,-33.68997331691297,-25.504939771766697,29.29065205019917,37.9886482762752,44.482193668194206,1577396315.0,-27.682441722514785,-51.12803726968772,9.565235
88513,1577396315.55,0.7407426355873665,0.1399148092130326,8.281134776343368,5.0131079053925305,-3.368524945514958,14.556570908262673,-7.019624082090796,-8.085452586997427,14.493445737661968,-8.789248582793444,3.520686451981707,-4.289766637290397,3.921322706269055,10.365183760480184,-4.1812803687118905,0.6751083746189026,-0.6618964962842988,-5.693389148246951,19.70812030431486,-27.38875057234432,8.67947382478632,-20.03832544770045,-33.53752999873689,-22.444346999154693,29.00311498487435,37.86884116572318,44.050888070206966,1577396315.0,-27.682441722514785,-51.12803726968772,9.565235
88514,1577396315.56,-0.1020163487876334,-4.229503220572123,9.581186277808214,-3.4049051317168435,-2.451545709675114,5.214396030332984,2.0855248314834216,7.953304334389291,9.812781492056498,0.7017182140815549,11.638362233231708,-2.153536168540396,6.240658643769055,5.177195479230183,1.1287782250381098,-0.3930068597560974,-13.8149726681593,-8.28738328887195,20.03796332196029,-26.29320054945055,9.388002300279082,-20.03832544770045,-33.53752999873689,-10.882107635953789,29.146883517536764,37.91676400994399,44.43427082397341,1577396315.0,-27.682441722514785,-51.12803726968772,9.565235
88515,1577396315.57,0.6653252832924441,-0.7998093423982949,8.628294017066025,-3.345050090212937,-0.4739351383860517,12.234195297911109,6.407058828065453,10.505523304115853,4.722708762564311,1.5256928234565548,8.662898366044208,-2.931734410727896,2.7921723156440548,-3.428761552019817,-1.6178038062118902,9.006407202743903,-2.4624336056592986,11.21334913300305,19.790581058726215,-26.93227139613858,8.76803988422292,-18.766968101343103,-33.232643362384735,-9.521844181459564,29.05103782909516,37.91676400994399,44.09881091442777,1577396315.0,-27.682441722514785,-51.12803726968772,9.565235
88516,1577396315.58,1.1501511194740852,4.921135524545065,6.7416631088629,3.315618928341749,1.2115828303639482,7.382345633604468,1.4378932824111563,-8.687594304526725,4.598210276236186,22.18609321408156,-1.6367842511432926,-2.977510777915396,0.8848236828315548,12.287791182355184,-3.5861875952743905,3.238584937118903,22.7298271365282,-1.298857898246951,21.19241388371933,-26.475792219932845,8.85660594365951,-18.70917913105413,-32.47042677150436,-9.521844181459567,29.146883517536764,38.0126096983856,44.33842513553179,1577396315.0,-27.682441722514785,-51.12803726968772,9.565235
88517,1577396315.59,-0.3510133214438834,3.3026552022794395,9.439928379858994,-0.7066398607207501,2.233906939250666,6.571908371641578,-9.322846079161108,7.330811902748666,5.7115140482088425,10.742001417206556,0.3468583269817073,-5.449434606040397,7.583432081269055,-3.398243973894817,-0.5802061499618902,13.706114233993905,28.3298027224657,-5.266143054496951,21.19241388371933,-26.475792219932845,8.85660594365951,-19.34485780423281,-30.793550271567515,-13.602634544942235,29.146883517536764,37.772995477281576,44.3863479797526,1577396315.0,-27.682441722514785,-51.12803726968772,9.565235
88518,1577396315.6,-0.0086424840415396,-1.7850233255525911,4.450412120093368,-0.9867614549590312,-0.4787235417063642,11.456079758360326,6.182003872010766,-3.462249181235708,13.059318943228371,17.089657667206556,-1.2705733136432926,-3.801485387290396,-2.060122606230945,6.397898604230183,-5.2188780249618905,13.400938452743905,21.3107597537157,-15.24539110137195,20.36780633960573,-26.65838389041514,7.97094534929356,-19.402646774521777,-30.336220317039285,-24.824808044519585,29.19480636175757,37.9646868541648,44.482193668194206,1577396315.0,-27.682441722514785,-51.12803726968772,9.565235
88519,1577396315.61,0.6976470057045541,1.7224821065763145,11.125446348608994,0.9309940748261244,0.2802383845631669,13.966400199034156,6.026380764100609,1.5751511117330408,13.831448978628764,0.0913666515815547,6.465632741044207,-3.145357457602896,3.1736420422065548,6.840403487042683,-3.4183409155868905,10.181333960556405,8.3713066287157,-8.37893602324695,20.120424076371656,-26.01931304372711,6.996718695491016,-20.125008903133903,-29.345338748894783,-25.33490683995492,29.146883517536764,37.91676400994399,44.43427082397341,1577396315.0,-27.682441722514785,-51.12803726968772,9.565235
88520,1577396315.62,-2.103568936678258,-4.526384226431498,10.696884251441023,-3.42645294665825,-3.071643939655583,10.148845651915014,-4.764286118223609,4.208772937904915,22.09743021031822,-15.777773973418444,15.819270436356708,-2.641817418540396,4.562191846894055,4.200632979230183,-3.6319639624618905,1.4380478277439026,-11.7702949337843,-8.98928758574695,20.03796332196029,-27.38875057234432,9.0337380625327,-19.229279863654867,-28.354457180750284,-24.484742180896028,29.19480636175757,37.91676400994399,44.24257944709018,1577396315.0,-27.682441722514785,-51.12803726968772,9.565235
88521,1577396315.63,-1.2368679357016958,-2.445822983755716,11.297828868140243,0.1959741651581551,-1.5656910954173016,17.62114903326267,10.620853749940451,2.784222950111947,13.62913893834556,-13.244814989043444,3.246028248856707,-3.496309606040396,8.010678175019056,-0.6516619426448171,-1.4652159155868902,6.076719702743903,-22.2073066525343,8.03952100800305,20.03796332196029,-27.38875057234432,9.0337380625327,-18.478023249898254,-28.811787135278514,-88.7571904057481,29.09896067331596,37.9646868541648,44.43427082397341,1577396315.0,-27.682441722514785,-51.12803726968772,9.565235
88522,1577396315.64,-0.7508449986899771,4.171750404916159,15.205165977515245,2.798471369747999,0.557965777141291,9.717889353086887,-6.207989719297828,-3.629843297446645,17.957855539908063,-4.486270067168445,3.368098561356707,-2.855440465415396,6.027035596894055,9.602244307355184,-7.0499327124618905,-4.543397484756097,-17.9348457150343,13.80734327362805,19.87304181313758,-26.110608878968257,9.210870181405893,-20.09611441798942,-4.420856227106227,-85.35653176951254,29.146883517536764,37.772995477281576,44.09881091442777,1577396315.0,-27.682441722514785,-51.12803726968772,9.565235
88523,1577396315.65,-0.548534958406774,2.2527977743009235,8.712091075171493,-2.059363798709031,2.8683703791920725,7.628948404600562,5.769004085633813,0.0440591500631194,10.69863610631431,20.03460395626906,-4.078190501143292,-4.121919957602897,5.904965284394056,-0.4075213176448171,-2.0908262671493905,-5.672547875381097,-39.0987861447218,-3.6334526248094514,20.120424076371656,-26.93227139613858,9.476568359715682,-19.951641992267,-3.887304613489959,-88.58715747393632,29.12292209542636,37.91676400994399,44.45823224608381,1577396315.0,-27.682441722514785,-51.12803726968772,9.565235
88524,1577396315.66,1.5954726282631475,1.370534462533346,5.791165049780869,2.530320783810499,1.6521159358326971,9.81365741949314,-10.153634055235328,-6.981725621665396,12.834263987173683,13.427548292206556,-7.068913157393292,-4.198213902915397,2.5785492687690548,0.7216290729801829,-6.0123350562118905,-8.205506859756097,-39.7854316525343,-4.503203601371951,18.553669742555822,-27.93652558379121,9.210870181405893,-19.922747507122512,-3.963526272577997,-88.41712454212454,29.146883517536764,37.91676400994399,44.57803935663581,1577396315.0,-27.682441722514785,-51.12803726968772,9.565235
88525,1577396315.67,-1.9431574254477892,-1.8089653421541536,10.201284507788682,-0.8383209520293439,-2.9327802433665204,6.71077206793064,9.292071828553736,-1.0728359243997705,1.7682639139314986,2.1360443859565548,-7.648747141768292,-4.137178746665397,5.843930128144055,-3.032033036394817,-3.3573057593368905,-5.306336937881097,-17.0803535275343,-5.205107898246951,18.553669742555822,-27.93652558379121,9.210870181405893,-21.020737942612943,-28.20201386257421,-90.11745386024232,28.955192140653548,37.9646868541648,44.19465660286938,1577396315.0,-27.682441722514785,-51.12803726968772,9.565235
88526,1577396315.68,-0.8190797460044302,-1.2259772379061074,10.702869755591417,0.1672437452362801,-1.8506010929758956,14.063365366270483,-8.547124741270483,6.933374427162729,0.8560730814119673,-8.194155809355944,-2.3844649152057924,-3.145357457602896,-1.2666655749809452,-1.9944353801448167,-1.0074522437118902,3.604795874618903,14.7189628787157,11.73214796112805,19.873041813137576,-28.119117254273508,8.679473824786319,-10.792090201465204,-27.43979727169382,-23.80461045364892,29.07499925120556,37.91676400994399,44.482193668194206,1577396315.0,-27.682441722514785,-51.12803726968772,9.565235
88527,1577396315.69,1.7080001062904917,5.1509788839200645,7.625123521460556,-0.6946688524199695,1.2834088801686354,12.918936972715796,1.3193803002334217,-6.686041716636099,20.250303629507677,0.6406830578315549,1.4149735613567074,-2.245088902915396,3.738217237519055,2.995188643292683,-5.081548923399391,4.917051733993904,28.4366142459032,-2.672148913871951,20.53272784842845,-27.206158901862025,8.502341705913125,-20.50063721001221,-30.03133368068713,-11.5622393632009,29.29065205019917,37.82091832150238,44.3863479797526,1577396315.0,-27.682441722514785,-51.12803726968772,9.565235
88528,1577396315.7,1.1405743128334602,0.0537235494474076,10.019325181616804,1.6516487745331552,-0.2225439640696454,6.660493833067359,-3.8904025122665775,11.290821448647105,14.031364817251813,9.033017042206556,-2.247135813643293,-3.160616246665396,3.0057953625190548,7.191355635480183,-6.1954405249618905,16.4221786871189,6.204558581840701,-10.54568407012195,20.53272784842845,-26.84097556089744,8.148077468166749,-20.44284823972324,-31.250880226095745,-3.740724499859112,29.09896067331596,37.772995477281576,44.57803935663581,1577396315.0,-27.682441722514785,-51.12803726968772,9.565235
88529,1577396315.71,0.8532701136147103,-0.8871977029939976,9.535696446265243,1.9916254102753423,0.4933223323170723,6.124192661192359,0.7136472802138907,1.3788265756002285,9.508717881216652,17.150692823456556,-3.528874094893293,-3.496309606040396,3.646664503144055,-1.1704607707698171,-2.5638487280868905,8.121397437118903,3.5190117068407014,-8.71462938262195,20.53272784842845,-26.84097556089744,8.148077468166749,-20.44284823972324,-31.250880226095745,-3.740724499859112,29.19480636175757,37.725072633060776,44.3863479797526,1577396315.0,-27.682441722514785,-51.12803726968772,9.565235
88530,1577396315.72,1.5811074183022102,3.773115828500143,11.033269584692976,-1.2884308641387188,3.5339584407155105,12.38024159918064,1.6425975243545154,2.7411273202291344,3.5591267557283737,12.252621534394056,-0.2787520245807924,-3.2369101919778966,4.379086378144055,-6.816212723894817,-0.6717588843368902,5.405332983993903,7.486296863090701,-8.74514696074695,20.45026709401709,-26.3844963846917,8.413775646476534,-19.98053647741148,-33.38508668056082,-4.420856227106225,29.07499925120556,37.9646868541648,44.43427082397341,1577396315.0,-27.682441722514785,-51.12803726968772,9.565235
88531,1577396315.73,0.1972588587318978,-3.4058978494783725,6.559703782691025,2.7685438489960457,1.2032031245534005,8.717113059141578,4.28938745965725,-1.4056299551614893,0.6010906046053272,-7.324404832793445,-1.3621260480182926,-5.022188512290397,-1.0988188952934452,7.038767744855184,-4.6085264624618905,-0.3777480706935974,16.6110527224657,-1.9702446169969516,19.87304181313758,-26.475792219932845,9.210870181405893,-19.113701923076924,-30.945993589743598,-13.942700408565791,29.00311498487435,37.84487974361278,44.242579447090186,1577396315.0,-27.682441722514785,-51.12803726968772,9.565235
88532,1577396315.74,0.4151312098061165,-0.8010064432283726,7.045726719702744,1.8431849073456552,-3.275151080768864,2.868078403379859,-2.2551627783798582,6.995623670326791,6.554273032583842,4.577450635956555,3.093440358231707,-3.770967809165396,-0.7173491687309451,-9.562794755144816,2.196893459413109,5.161192358993903,28.6654960818407,-0.3222953982469513,20.03796332196029,-26.65838389041514,8.67947382478632,-18.998123982498985,-32.927756726032584,-20.40395181741336,29.19480636175757,38.0605325426064,44.290502291310986,1577396315.0,-27.682441722514785,-51.12803726968772,9.565235
88533,1577396315.75,-0.1594771886313834,2.0121805074552213,7.536538060034775,-4.573275541873094,4.776549102336604,12.23898370123142,2.638585414979516,-4.798213707602895,9.175923850454934,-7.904238817168445,-2.430241282393293,-4.747530309165397,2.4564789562690548,-12.034718583269816,-7.59924911871189,11.478331030868905,30.5270683474657,-8.22634813262195,20.03796332196029,-26.65838389041514,8.67947382478632,-20.03832544770045,-33.53752999873689,-17.683424908424907,29.19480636175757,37.86884116572318,44.290502291310986,1577396315.0,-27.682441722514785,-51.12803726968772,9.565235
88534,1577396315.76,1.051988851407679,2.3880701680997523,9.51893703464415,-0.7138224657012194,-0.9180595463450366,4.851674478819311,-1.2843140051864992,-0.8082766409525055,10.881792533316265,5.248837354706557,-13.065617258955792,-5.647798863852897,5.294613721894055,8.595164229230184,-2.8079893530868905,15.155699194931405,32.8616630740282,-12.57510301543445,20.36780633960573,-26.65838389041514,8.32520958703994,-19.25817434879935,-33.003978385120625,-16.493194385742463,29.170844939647168,37.86884116572319,44.31446371342139,1577396315.0,-27.682441722514785,-51.12803726968772,9.565235
88535,1577396315.77,0.3911891932045541,-0.3293487161775913,10.510136521948835,-1.1806917894316875,1.008075689250666,6.689224252989233,2.083130629823265,11.230966407143198,12.573296006216657,4.943661573456555,5.809504811356708,-2.580782262290396,-3.708071824980945,-4.069630692644817,-1.3431456030868902,11.142637671493905,-4.293488293159299,-10.20999071074695,20.202884830783017,-27.571342242826617,8.502341705913125,-18.24686736874237,-33.68997331691297,-6.461251408847564,29.146883517536764,37.772995477281576,44.19465660286938,1577396315.0,-27.682441722514785,-51.12803726968772,9.565235
88536,1577396315.78,0.6689165857826791,-0.2503400613924351,10.773498704566023,-2.408917241091844,2.9186486140553543,12.203070676329077,4.939413210389672,3.67007756436976,15.384088755240091,-12.756533739043444,13.713557545731708,-3.130098668540396,-3.036685106230945,-0.6821795207698171,-1.1905577124618902,14.255430640243905,-30.8132636837843,-1.3904106326219514,19.04843426902399,-28.484300595238096,9.388002300279082,-18.13128942816443,-31.250880226095745,-23.46454459002536,29.19480636175757,37.91676400994399,44.3863479797526,1577396315.0,-27.682441722514785,-51.12803726968772,9.565235
88537,1577396315.79,-0.6694421422446646,1.5548879903653774,14.055949180640244,0.4904609693573738,2.6911994563405104,14.606849143125952,-1.6159109351181395,0.2152445687642909,18.84371015416588,-4.455752489043445,2.849299733231707,-2.580782262290396,-5.050845262480945,10.426218916730184,-3.6624815405868905,-10.707948266006095,-36.9778144650343,-2.0007621951219514,20.36780633960573,-27.38875057234432,8.67947382478632,-18.940335012210014,-33.38508668056082,-26.185071499013805,29.19480636175757,37.91676400994399,44.24257944709018,1577396315.0,-27.682441722514785,-51.12803726968772,9.565235
88538,1577396315.8,-0.9004826024497428,1.246035976205221,12.253115330542588,0.99084911633003,-0.0070658146555834,9.084623013975564,5.973708327577172,2.8380924874654627,8.146417136587749,-8.377261278105944,-2.872746165205793,-3.8014853872903966,-1.175112840605945,-2.009694169207317,-1.7093565405868905,-15.544984398818595,-43.5238349728468,11.09127882050305,20.03796332196029,-27.753933913308916,8.67947382478632,-20.26948132885633,-28.811787135278514,-22.444346999154693,29.218767783867968,37.89280258783359,44.3623865576422,1577396315.0,-27.682441722514785,-51.12803726968772,9.565235
88539,1577396315.81,-1.1961665074790395,1.4399663106778773,10.435916270483991,-2.6028475755645,3.1891934016530104,18.54770507574314,2.1573508812881093,7.484040808998666,7.8878433572908735,2.0139740734565548,11.485774342606708,-1.2074912466653962,0.0150727062690548,-6.022755692644817,-3.6929991187118905,-10.372254906631095,-36.0012519650343,1.9054878048780488,20.03796332196029,-27.023567231379733,8.67947382478632,-19.63380265567766,-28.811787135278514,-20.0638859537898,29.09896067331596,38.0605325426064,44.290502291310986,1577396315.0,-27.682441722514785,-51.12803726968772,9.565235
88540,1577396315.82,0.7120122156654916,2.184563026986471,7.60357570651915,6.282034785275343,1.1469393855397283,5.317346701719703,10.034274343202172,4.055544031654915,-0.6570623678067816,-4.150576707793445,-9.113590891768292,-4.015108434165397,-3.463931199980945,13.111765791730184,-3.4793760718368905,-4.055116234756097,3.1528007693407014,3.8891303830030486,18.718591251378545,-28.484300595238096,8.325209587039938,-19.46043574481075,-27.43979727169382,-20.40395181741336,29.00311498487435,38.0605325426064,44.3863479797526,1577396315.0,-27.682441722514785,-51.12803726968772,9.565235
88541,1577396315.83,0.0931110865151009,1.8769081136563923,6.316692314185166,0.5144029859589363,0.7997801448170722,-0.802232741639672,6.323261769959984,-17.808305528891957,5.962905222525248,3.860287550019055,2.238948170731708,-1.802584020102896,-7.736392137480945,-0.7126970988948171,-2.5943663062118905,-4.879090844131097,27.9941093630907,1.6613471798780486,19.04843426902399,-26.29320054945055,9.388002300279082,-18.998123982498985,-28.049570544398133,-91.137651451113,29.146883517536764,37.772995477281576,44.3863479797526,1577396315.0,-27.682441722514785,-51.12803726968772,9.565235
88542,1577396315.84,1.147756917813929,2.4168005880216272,6.0377678207769625,-3.294771855349656,3.5387468440358223,10.704300437071264,-1.2759342993759528,5.180818811928353,7.801652097525248,-0.7631255359184451,-7.709782298018292,-3.954073277915396,-3.875918504668445,-6.312672684832318,-2.3807432593368905,5.252745093368903,11.9876396365282,-17.51895067168445,19.04843426902399,-25.92801720848596,8.67947382478632,-19.77827508140008,-27.668462248957937,-88.24709161031276,29.29065205019917,37.91676400994399,44.31446371342139,1577396315.0,-27.682441722514785,-51.12803726968772,9.565235
88543,1577396315.85,0.1062791956459593,1.514186562142721,9.260363255347276,2.932546662716749,-0.9599580753977704,11.968438913633763,4.982508840272485,14.056124366127571,9.333941160025248,3.9976166515815534,-8.716862376143293,-2.855440465415396,-1.8464995593559448,1.7287091511051829,-2.9910948218368905,2.506163062118903,3.763152331840701,3.3398139767530486,19.543198795492145,-27.93652558379121,8.502341705913125,-19.17149089336589,-2.591536408993305,-83.3161365877712,29.146883517536764,37.91676400994399,44.482193668194206,1577396315.0,-27.682441722514785,-51.12803726968772,9.565235
88544,1577396315.86,0.2307776819740853,-0.3030124979158726,10.45028148044493,6.298794196896437,-2.3892964665110514,10.55346573248142,-11.738595554258763,-16.996671166098988,8.510335788931497,-11.169619676543444,4.405696217606708,-1.939913121665396,-2.578921434355945,-0.4075213176448171,-4.1507627905868905,-5.184266625381097,10.0192558474657,-3.3740532107469514,19.04843426902399,-26.65838389041514,8.325209587039938,-21.020737942612943,-3.81108295440192,-91.47771731473654,29.09896067331596,37.91676400994399,44.050888070206966,1577396315.0,-27.682441722514785,-51.12803726968772,9.565235
88545,1577396315.87,1.2303568750893197,-1.6425683267732945,6.898483317603135,-2.3945520311309063,-1.9942531925852705,7.804922226622046,-7.124968955137671,11.379406910072884,5.433786655630717,-9.094424364043444,0.7283280535442085,-2.321382848227896,-1.4192534656059452,-10.325734208269816,-0.8548643530868902,-1.8273330316310967,13.5592949099657,-2.8857719607469514,19.87304181313758,-26.110608878968257,8.85660594365951,-20.03832544770045,-3.048866363521536,-87.05686108763032,29.07499925120556,37.9646868541648,44.43427082397341,1577396315.0,-27.682441722514785,-51.12803726968772,9.565235
88546,1577396315.88,-0.8250652501548209,3.925147633920065,13.091085911597276,0.0451394605683119,1.428258080608089,9.92857909918064,-1.6853427832626715,-4.388805223716177,8.111701212515483,4.424862745331555,-0.7517744855182926,-3.954073277915396,1.0831879406440548,-6.968800614519817,-2.9148008765243905,-1.9494033441310967,30.7406913943407,-0.8258354373094514,20.36780633960573,-27.023567231379733,9.0337380625327,-15.87751958689459,-28.811787135278514,-12.242371090448012,29.146883517536764,37.9646868541648,44.26654086920058,1577396315.0,-27.682441722514785,-51.12803726968772,9.565235
88547,1577396315.89,0.7335600306068978,2.598759914193502,8.221279734839463,1.601370539669874,3.8332336482350415,8.39629003668064,12.41650499505764,-3.2778956534036765,11.991505002798686,6.774716260956555,-0.7212569073932926,-2.641817418540396,-1.4497710437309452,3.346140791730183,-3.7540342749618905,7.541563452743903,17.0993339724657,-19.02957078887195,18.883512760201263,-27.206158901862025,9.210870181405893,-19.7493805962556,-28.20201386257421,1.0201975908706693,29.09896067331596,38.0605325426064,44.3863479797526,1577396315.0,-27.682441722514785,-51.12803726968772,9.565235
88548,1577396315.9,1.4877335535561165,2.802267055306784,7.134312181128525,-1.2908250657988751,0.0767312434498848,4.668518051817359,1.7766728173232655,11.527847413002572,13.032982724966654,4.607968214081555,-16.590397532393293,-5.266329137290397,0.7780121593940549,-2.391163895769817,-2.1060850562118905,15.415098608993905,11.7587578005907,0.8068549923780487,19.04843426902399,-25.56283386752137,9.742266538025468,-19.17149089336589,-31.250880226095745,-17.343359044801353,29.146883517536764,37.725072633060776,44.290502291310986,1577396315.0,-27.682441722514785,-51.12803726968772,9.565235
88549,1577396315.91,-0.4671321019614615,-1.4630032022615755,7.03495281223204,-0.1918865037871568,-2.190577728718083,8.337632096006812,-4.705628177549781,-4.008127159751333,13.790747550406108,-6.393618699980944,10.219294850419208,-3.252168981040396,-3.387637254668445,-2.940480302019817,-4.959478610899391,-9.807679711318595,-24.5266425900343,-11.21707078887195,19.543198795492145,-28.3017089247558,7.085284754927611,-19.17149089336589,-30.94599358974359,-1.7003293181177797,29.24272920597837,37.94072543205439,44.31446371342139,1577396315.0,-27.682441722514785,-51.12803726968772,9.565235
88550,1577396315.92,0.8389049036537728,-0.0085256937166538,11.125446348608994,1.2039330640839363,-1.570479498737614,8.894283981993139,0.5173227440810781,16.17738703702601,10.430485520376813,-15.228457567168444,-1.6062666730182926,-4.625459996665397,-0.5037261218559451,-6.877247880144817,-2.3502256812118905,-8.266542016006097,-40.1516425900343,2.1801460080030486,19.04843426902399,-26.65838389041514,8.67947382478632,-19.17149089336589,-30.94599358974359,-1.7003293181177797,28.907269296432744,38.0605325426064,44.43427082397341,1577396315.0,-27.682441722514785,-51.12803726968772,9.565235
88551,1577396315.93,-1.610363394686071,0.9659143819669388,12.427892051733991,-2.4951085008574685,-2.1522705021555826,10.852740940000952,-2.319806223204077,4.85760158780726,5.115357834829936,-10.406680223418444,4.466731373856708,-3.557344762290396,0.4423188000190549,-7.090870927019817,-5.2493956030868905,-4.818055687881097,-24.3435371212843,18.72067335175305,19.543198795492145,-26.110608878968257,10.273662894645032,-19.113701923076928,-32.31798345332828,-25.84500563539025,29.09896067331596,38.0605325426064,44.290502291310986,1577396315.0,-27.682441722514785,-51.12803726968772,9.565235
88552,1577396315.94,0.6473687708412728,4.370469142709127,11.460634581030869,-4.367374199099656,5.255389434367854,9.85196464605564,-1.4219806006454832,-17.72450847078649,3.0228255838533733,-3.509707567168445,-6.122868235518292,-4.503389684165397,-4.989810106230945,-5.107228348894817,-1.1295225562118902,-17.1471572503811,2.1152031130907014,-0.7495414919969513,19.213355777846708,-24.64987551510989,7.793813230420372,-20.558426180301183,-32.165540135152206,-20.0638859537898,29.338574894419985,37.91676400994399,44.43427082397341,1577396315.0,-27.682441722514785,-51.12803726968772,9.565235
88553,1577396315.95,1.080719271329554,0.6546681661466274,10.530487236060166,-1.0669672105742658,-0.9970682011301928,8.690776840879858,6.555499330995141,5.62973162320765,9.41654111730064,-0.1069976062309452,-8.625309641768293,-4.686495152915397,-2.014346239043445,4.902537276105184,-5.356207126524391,6.244566382431403,4.144622058403201,-7.72280809355945,19.87304181313758,-27.571342242826617,8.148077468166749,-20.5295316951567,-32.24176179424024,-14.11273334037757,29.266690628088774,37.86884116572318,44.3623865576422,1577396315.0,-27.682441722514785,-51.12803726968772,9.565235
88554,1577396315.96,4.28176689095846,0.7360710225919389,9.710473167456652,4.302030012326124,0.6944352717701973,5.951810141661109,1.592319289491234,-1.3625343252786768,1.3732206400057174,-7.080264207793445,3.429133717606707,-5.266329137290397,-8.896060106230944,7.374461104230183,-1.8314268530868905,2.292540015243903,8.1576835818407,-6.944609851371951,19.87304181313758,-27.571342242826617,8.148077468166749,-19.113701923076928,-33.53752999873689,-25.84500563539025,29.29065205019917,37.725072633060776,44.3863479797526,1577396315.0,-27.682441722514785,-51.12803726968772,9.565235
88555,1577396315.97,2.562730098966273,0.3841233785489701,13.320929270972275,-0.0195039842559063,1.0918727473561347,9.397066330625952,-8.49205810308689,-0.0193871939310206,3.736297678579936,-0.3969145984184451,5.809504811356708,-4.839083043540397,-6.698794481230945,-0.4990740520198171,-3.6624815405868905,-2.651307641006097,23.9047538943407,-6.334258288871951,18.883512760201263,-25.745425538003666,9.565134419152278,-19.17149089336589,-31.250880226095745,-9.861910045083125,29.09896067331596,37.91676400994399,44.43427082397341,1577396315.0,-27.682441722514785,-51.12803726968772,9.565235
88556,1577396315.98,-0.1774337010825557,0.7025521993497514,6.959535459937119,1.057886762814405,1.2355248469655096,10.74500186529392,2.6050665917373284,-3.23719422518102,19.54760544225181,-3.021426317168445,12.202937428544208,-4.076143590415397,-6.698794481230945,8.289988447980184,-5.3714659155868905,-4.421327172256097,8.5238945193407,-8.31790086699695,18.965973514612624,-26.56708805517399,8.590907765349726,-18.824757071632074,-4.115969590754073,-24.824808044519585,29.12292209542636,37.9646868541648,44.290502291310986,1577396315.0,-27.682441722514785,-51.12803726968772,9.565235
88557,1577396315.99,-3.7962695104087274,-1.3851916483064974,10.50774232028868,-1.1747062852812973,0.7363338008229324,12.753737058165015,0.4706358117080314,-2.479429399741568,14.755610819449076,-11.779971239043444,17.101008717606707,-2.306124059165396,-3.982730028105945,-1.8571062785823167,-4.257574314024391,-4.772279320693596,-10.6564033322218,-3.145171374809451,20.202884830783017,-26.475792219932845,9.210870181405893,-18.9692294973545,-17.30231661298472,-24.31470924908425,29.19480636175757,37.89280258783359,44.50615509030461,1577396315.0,-27.682441722514785,-51.12803726968772,9.565235
88558,1577396316.0,-0.987870963045446,3.771918727670065,8.398450657691026,0.5598928175019051,-0.9623522770579266,16.96513777837986,8.262565114686547,13.58446663907679,16.06883043004478,-10.559268114043444,-2.277653391768293,-5.479952184165397,1.0831879406440548,6.489451338605183,-5.2188780249618905,-8.907411156631097,-36.9167793087843,-3.892852038871952,20.202884830783017,-26.475792219932845,9.210870181405893,-18.651390160765164,-28.65934381710244,-4.08079036348267,29.146883517536764,37.91676400994399,44.24257944709018,1577396316.0,-27.68238179261704,-51.12797330974056,9.132694
88559,1577396316.01,0.7622904505287728,-2.17527819615806,10.10072803806212,2.348361457638624,-3.464293011921208,7.103421140196265,3.945819521424828,8.96844583829554,16.25318395787681,-3.112979051543445,-3.742497141768293,-4.106661168540397,-1.9990874499809448,14.790232588605184,-6.8973448218368905,-3.414247094131097,-50.1919257931593,11.70163038300305,20.69764935725117,-27.38875057234432,8.67947382478632,-18.5936011904762,-30.336220317039285,-3.0605927726120044,29.09896067331596,37.86884116572318,44.290502291310986,1577396316.0,-27.68238179261704,-51.12797330974056,9.132694
88560,1577396316.02,0.4235109156166634,-0.4694095132967319,10.941092820776962,-0.0625996141387188,0.931461236125666,11.149621945860329,-16.301943918516578,-9.706327110923208,10.83271139928306,-2.700991746855945,2.666194264481708,-2.916475621665396,-7.278628465605945,-4.527394364519817,-1.7398741187118902,-23.2811904535061,-55.7461250119093,-7.463408679496951,19.378277286669427,-27.388750572344325,9.91939865689865,-18.5936011904762,-30.336220317039285,-3.0605927726120044,29.027076406984754,37.91676400994399,44.290502291310986,1577396316.0,-27.68238179261704,-51.12797330974056,9.132694
88561,1577396316.03,1.8420753992592416,0.7001579976895952,11.187695591773055,0.006832234005812,-0.3195091313059741,11.860699838926733,5.0794740075088125,3.016460511147104,3.6273615030428266,3.0515717297065548,-4.078190501143292,-2.306124059165396,0.5338715343940549,4.109080244855184,-2.7469541968368905,-17.6812148675686,-41.0976875119093,8.69564893769055,18.223826724910392,-25.745425538003666,8.148077468166749,-21.020737942612943,-27.897127226222054,-47.94928677092138,28.955192140653548,37.89280258783359,44.33842513553179,1577396316.0,-27.68238179261704,-51.12797330974056,9.132694
88562,1577396316.04,-1.9120328038657584,0.8318390889981889,9.18135460056212,2.927758259396436,-2.7795513371165206,8.01321777105564,-7.819287436582984,-1.8365862539896145,8.718631333365092,6.530575635956555,4.344661061356708,-3.954073277915396,-3.860659715605945,-2.543751786394817,-3.6014463843368905,-13.210389672256095,-2.7676093869092986,-0.3528129763719513,18.223826724910392,-25.745425538003666,8.148077468166749,-20.789582061457065,-30.336220317039285,-86.03666349675964,29.09896067331596,38.0605325426064,44.24257944709018,1577396316.0,-27.68238179261704,-51.12797330974056,9.132694
88563,1577396316.05,-1.9144270055259145,-0.7674876199861851,9.712867369116807,-9.706443901248091,1.807739043742853,11.918160678770484,11.214615761659203,-4.479784886802114,4.818476828970561,-7.446475145293445,15.575129811356708,-1.3600791372903962,6.149105909394055,-1.6282244426448171,-1.4652159155868902,-1.7662978753810974,23.8437187380907,-2.7942192263719514,19.543198795492145,-26.110608878968257,8.502341705913125,-20.674004120879125,-29.42156040798282,-85.35653176951254,29.09896067331596,38.10845538682721,44.290502291310986,1577396316.0,-27.68238179261704,-51.12797330974056,9.132694
88564,1577396316.06,-0.503045126863805,1.6638241659024866,8.809056242407822,0.85677382336128,1.2618610652272284,4.496135532286109,-8.235878525450172,-6.675267809165396,9.348306369986185,3.295712354706555,-5.726139719893292,-4.549166051352897,0.6254242687690549,10.487254072980184,-6.6226866187118905,-1.3085342035060974,5.655242175590701,-1.0241996951219514,18.965973514612628,-26.567088055173997,8.236643527603341,-20.674004120879125,-4.420856227106227,-88.7571904057481,29.09896067331596,37.772995477281576,44.3863479797526,1577396316.0,-27.68238179261704,-51.12797330974056,9.132694
88565,1577396316.07,-1.2823577672446649,-1.804176938833841,10.383243833960556,-0.4863733079863754,0.6716903559987137,12.52030239629978,8.181162258241233,9.903381586586557,20.110242832388533,-11.963076707793444,-1.6062666730182926,-2.977510777915396,-7.888980028105944,9.510691572980184,-3.1742002905868905,-1.4306045160060972,-32.5375068478468,-13.24648973418445,19.543198795492145,-26.110608878968257,10.627927132391417,-15.241840913715915,-16.61632168119237,-89.4373221329952,29.146883517536764,37.9646868541648,44.33842513553179,1577396316.0,-27.68238179261704,-51.12797330974056,9.132694
88566,1577396316.08,0.0224821375404906,3.317020412240377,12.25072112888243,0.0738698804901863,2.4493850886647284,12.250954709532202,-2.054049838926733,1.644582959877572,6.652435300650248,3.5703705578315548,-6.428044016768292,-2.611299840415396,-5.447573778105945,-5.381886552019817,-3.9371397437118905,-9.304139672256095,-14.1201484494093,7.612274914253049,19.543198795492145,-26.110608878968257,10.627927132391417,-10.849879171754177,-27.897127226222054,-24.824808044519585,29.146883517536764,37.91676400994399,44.290502291310986,1577396316.0,-27.68238179261704,-51.12797330974056,9.132694
88567,1577396316.09,-2.031742886873571,0.9515491720060014,12.954616416968369,-3.2828008470488745,1.0152582942311348,12.86626453619236,7.343191677186547,-5.636184288657583,9.132828220572122,-1.4345122546684452,5.626399342606708,-1.7568076529153962,-0.0764800281059451,-0.8347674113948171,-0.4581358374618902,-2.254579125381097,8.8901054568407,-3.3130180544969514,19.04843426902399,-27.75393391330892,9.388002300279082,-20.789582061457065,-32.47042677150436,-16.663227317554238,29.00311498487435,38.0605325426064,44.43427082397341,1577396316.0,-27.68238179261704,-51.12797330974056,9.132694
88568,1577396316.1,0.1625429346596322,-1.3923742532869667,9.12987926486876,-0.0207010850859849,-1.435207104938786,6.660493833067359,-3.1625652075790778,6.163638593422494,10.089311783804543,-1.4497710437309452,-2.826969798018292,-3.679415074790396,7.095150831269056,1.7897443073551829,-3.3725645483993905,8.731748999618905,12.9947197146532,8.39047315644055,20.03796332196029,-26.84097556089744,9.388002300279084,-20.26948132885633,-32.31798345332828,-23.1244787264018,29.19480636175757,37.84487974361278,44.170695180758976,1577396316.0,-27.68238179261704,-51.12797330974056,9.132694
88569,1577396316.11,-1.6534590245688834,-0.0061314920564976,3.844679100073837,-2.7369228685332496,0.4071310725514473,9.05948389654392,6.483673281190453,-15.550573363364617,9.463228049673685,13.610653760956556,26.653010670731707,1.2644325814596038,1.9987152843940548,-5.992238114519817,-0.4886534155868902,-4.207704125381097,-4.842804699409299,-14.29934617949695,20.36780633960573,-26.29320054945055,8.67947382478632,-18.478023249898254,-4.420856227106227,-20.74401768103691,29.19480636175757,37.91676400994399,44.24257944709018,1577396316.0,-27.68238179261704,-51.12797330974056,9.132694
88570,1577396316.12,-0.9447753331626334,4.600312502084127,3.526250279273056,-5.274776628298875,5.341580694133479,9.969280527403296,10.132436611268576,9.097732727943978,5.57265035191978,12.481503370331556,-2.125065501143293,-3.557344762290396,2.7311371593940548,-4.405324052019817,-2.2891905249618905,21.7627548589939,-7.467316418159299,-12.49880907012195,20.36780633960573,-26.29320054945055,8.67947382478632,-19.17149089336589,-4.420856227106227,-20.74401768103691,29.19480636175757,37.9646868541648,44.24257944709018,1577396316.0,-27.68238179261704,-51.12797330974056,9.132694
88571,1577396316.13,-1.362563522859899,1.1215374898770956,8.84257506565001,2.4177933057831558,-0.1243816960032392,8.990052048399388,-4.682883261778296,2.8919620248189783,7.808834702505717,16.54034126095656,-14.911930735518292,-3.358980504477896,-3.860659715605945,5.940134932355183,-3.7540342749618905,6.870176733993903,4.892302722465701,0.6542671017530487,19.873041813137576,-26.29320054945055,8.85660594365951,-19.17149089336589,-4.420856227106227,-20.74401768103691,29.027076406984754,37.725072633060776,44.19465660286938,1577396316.0,-27.68238179261704,-51.12797330974056,9.132694
88572,1577396316.14,-1.7037372594321645,-0.959023752798685,9.437534178198838,-0.9460600267363752,-0.6523031620676929,9.144478055479468,4.637743801209985,4.041178821693979,10.34788556310142,-11.841006395293444,3.337580983231707,-2.916475621665396,0.3355072765815548,-11.317555497332316,-1.9687559546493905,1.7279648199314028,-8.3065498165968,-10.59146043730945,19.213355777846708,-26.475792219932845,9.565134419152278,-19.17149089336589,-32.47042677150436,-26.185071499013805,29.00311498487435,37.91676400994399,44.26654086920058,1577396316.0,-27.68238179261704,-51.12797330974056,9.132694
88573,1577396316.15,-0.2289090367759146,-2.778617014517435,6.0736808456793066,-2.0713348070098125,2.7199298762623854,19.7208638892197,-7.144122568418921,5.863166285072885,13.983480784048686,-11.322207567168444,7.640559498856708,0.6845985970846037,5.874447706269055,-2.665822098894817,-2.4112608374618905,3.421690405868903,-4.049347668159299,12.73922803925305,20.36780633960573,-25.92801720848596,7.616681111547183,-21.020737942612943,-33.68997331691297,-23.46454459002536,29.146883517536764,38.0605325426064,44.24257944709018,1577396316.0,-27.68238179261704,-51.12797330974056,9.132694
88574,1577396316.16,-2.3190470860923207,1.11196068323647,11.695266343726182,2.5255323804901866,-2.0995980656321453,10.974845224668922,-2.7962523535751718,-2.667374230063833,12.16149332066978,4.577450635956555,-2.155583079268293,-1.4821494497903962,1.7545746593940548,8.869822432355184,-3.4488584937118905,-4.848573266006097,-6.155060558784299,1.8749702267530488,20.36780633960573,-25.92801720848596,7.616681111547183,-20.09611441798942,-33.68997331691297,-9.861910045083125,29.146883517536764,37.9646868541648,44.3863479797526,1577396316.0,-27.68238179261704,-51.12797330974056,9.132694
88575,1577396316.17,-0.3809408421958365,2.362931050668111,11.14579706272032,-1.415323552127,-2.5497079777415204,6.296575180723609,9.76133535394436,9.406584742104137,6.602157065786967,12.145810010956556,-9.632389719893292,-2.260347691977896,7.491879346894055,-11.241261552019816,0.3048036156631097,2.414610327743903,2.0236503787157014,7.032440929878049,18.96597351461262,-25.65412970276252,7.882379289856965,-19.113701923076928,-33.232643362384735,-9.521844181459564,29.146883517536764,37.9646868541648,44.43427082397341,1577396316.0,-27.68238179261704,-51.12797330974056,9.132694
88576,1577396316.18,0.3588674707924447,0.737268123422018,7.995027677954697,-0.1715357896758287,-0.2620482914622242,8.183206088926733,2.475779702088891,1.6230351449361662,8.404990915884623,10.467343214081556,-10.715763743330792,-3.1758750357278966,3.1889008312690548,-5.198781083269816,-1.6788389624618905,-1.4763808831935972,-7.0400703244093,5.247162609565549,18.47120898814447,-25.471538032280225,8.768039884222915,-18.56470670533171,-30.41244197612732,-16.493194385742463,29.12292209542636,37.91676400994399,44.410309401863,1577396316.0,-27.68238179261704,-51.12797330974056,9.132694
88577,1577396316.19,-0.8502043675864615,-3.150915372671732,6.784758738745713,0.4503580915497569,0.881781551677424,9.126521543028296,-1.1669981238388432,-2.2687396536478177,9.306407840933453,3.799252393769055,3.307063405106708,0.2268349252096037,1.0374115734565548,-2.1775408488948167,-2.6706602515243905,-3.421876488662347,-11.5719306759718,4.354523449409299,18.96597351461262,-26.384496384691698,8.945172003096104,-18.2902090964591,-29.00234128299861,-19.978869487883912,29.12292209542636,37.89280258783359,44.3983286908078,1577396316.0,-27.68238179261704,-51.12797330974056,9.132694
88578,1577396316.2,-0.4174524175132198,1.302898265633932,9.90919190524962,0.7613050321625497,1.4536964732472482,9.598179270079076,-2.9883870368027106,-4.21462705293981,9.757116303457863,10.062985303925306,-7.862370188643293,-1.1159385122903962,-0.0383330554496952,-0.6669207317073169,-3.1665708960556405,-4.394624291396722,-13.83786085175305,3.9082038693311736,19.089664646229664,-26.43014430231227,8.900888973377807,-18.1529602920228,-28.29729093643426,-21.721707038954637,29.11094138437116,37.880821876778384,44.3923383352802,1577396316.0,-27.68238179261704,-51.12797330974056,9.132694
88579,1577396316.21,0.0152995325600218,5.756711903939596,13.033625071753525,1.0722519727753426,2.025611394817072,10.069836997129858,-4.8097759497665775,-6.160514452231802,10.20782476598228,16.326718214081556,-19.031803782393293,-2.458711949790396,-1.1140776843559452,0.8436993854801829,-3.6624815405868905,-5.367372094131097,-16.1037910275343,3.4618842892530486,19.213355777846708,-26.475792219932845,8.85660594365951,-18.01571148758649,-27.592240589869903,-23.46454459002536,29.09896067331596,37.86884116572318,44.3863479797526,1577396316.0,-27.68238179261704,-51.12797330974056,9.132694
88580,1577396316.22,-0.3438307164634146,-2.855231467642435,9.224450230444932,2.609329438595655,-3.5935799015696457,7.903084494688453,7.386287307069359,8.161599878822885,2.484130210318217,-0.8851958484184451,-17.627995188643293,-2.092501012290396,2.9752777843940548,-2.085988114519817,-1.6788389624618902,-0.3624892816310974,8.7375175662157,6.208466320503049,19.213355777846708,-26.475792219932845,8.85660594365951,-17.784555606430608,-28.20201386257421,-23.46454459002536,29.00311498487435,37.725072633060776,44.482193668194206,1577396316.0,-27.68238179261704,-51.12797330974056,9.132694
88581,1577396316.23,0.0955052881752572,-1.2331598428865755,9.682939848364851,1.821637092404249,1.7335187922780104,11.183140769102517,2.8097708336806875,-3.2132522085794584,12.846234995474466,-3.463931199980945,4.237849537919208,-0.1393760122903963,1.6782807140815548,-9.135548661394816,-1.8924620093368905,0.5225204839939026,10.7059013552782,3.950165539253049,19.460738041080784,-27.48004640758547,8.413775646476534,-19.171490893365892,-28.20201386257421,-56.11086749788673,29.146883517536764,37.91676400994399,44.24257944709018,1577396316.0,-27.68238179261704,-51.12797330974056,9.132694
88582,1577396316.24,2.8189096766029915,4.075982338509909,8.508583934058212,2.731433723263624,4.374323223430354,12.830351511290017,4.889134975526391,0.0931402840963221,9.705042417349466,20.29400337033156,-6.977360423018292,-1.1769736685403962,-0.9004546374809451,2.064402510480183,0.2437684594131097,12.515928687118905,8.7680351443407,-2.0923149294969514,19.213355777846708,-26.475792219932845,7.793813230420372,-20.558426180301183,-28.20201386257421,-87.39692695125387,29.19480636175757,37.86884116572318,44.24257944709018,1577396316.0,-27.68238179261704,-51.12797330974056,9.132694
88583,1577396316.25,-0.8825260899985709,2.1630152120450648,13.270651036108994,-1.405746745486375,2.990474663860041,6.351641818907202,-5.250309055235328,-7.580276036704459,0.6022877054354048,3.6619232922065534,-16.865055735518293,-2.092501012290396,4.775814893769055,-6.144826005144817,-1.0074522437118902,4.581358374618903,26.0409843630907,-7.341338366996951,18.38874823373311,-27.023567231379733,8.67947382478632,-21.020737942612943,-28.811787135278514,-87.39692695125387,29.338574894419985,37.9646868541648,44.290502291310986,1577396316.0,-27.68238179261704,-51.12797330974056,9.132694
88584,1577396316.26,-0.6933841588462272,1.631502443490377,5.084875560034775,-0.5366515428496564,-2.403661676471989,6.042789804747046,-3.062008737852515,3.291793702065072,16.334586814322122,15.441708448456556,7.426936451981708,-0.0173056997903963,7.278256300019055,-7.914845536394817,-0.9158995093368902,8.487608374618903,18.4115898318407,-16.92385789824695,19.70812030431486,-26.29320054945055,9.388002300279082,-19.86495853683354,-3.81108295440192,-86.71679522400676,29.09896067331596,37.9646868541648,44.24257944709018,1577396316.0,-27.68238179261704,-51.12797330974056,9.132694
88585,1577396316.27,1.541603090909632,-1.659327738394388,7.410842472876572,1.5235589857147958,-1.0509377384837086,7.885127982237281,-5.188059812071265,1.322562836586557,5.729470560660014,4.150204542206557,-4.917423899580793,-0.9786094107278962,1.403622510956555,-2.269093583269817,-1.7703916968368905,11.5393661871189,20.2273857302782,-3.0536186404344514,20.03796332196029,-26.840975560897437,9.033738062532702,-15.93530855718356,-16.006548408488065,-57.1310650887574,29.07499925120556,37.94072543205439,44.33842513553179,1577396316.0,-27.68238179261704,-51.12797330974056,9.132694
88586,1577396316.28,0.2978153284584603,1.8709226095060023,10.907573997534774,1.0985881910370614,2.5212111384694165,8.317281381895484,10.644795766542016,-2.540481542075552,5.484064890493999,-17.517275926543444,-2.369206126143293,-3.282686559165396,3.2804535656440548,-5.015675614519817,-3.4793760718368905,3.787901343368903,15.5429374880907,-0.2002250857469513,19.543198795492145,-26.475792219932845,9.565134419152278,-20.84737103174604,-28.354457180750284,-4.08079036348267,28.955192140653548,37.9646868541648,44.57803935663581,1577396316.0,-27.68238179261704,-51.12797330974056,9.132694
88587,1577396316.29,1.9641796839272103,1.4495431173185025,8.309865196265244,2.5638396070526865,0.2946035945241035,5.662111740782202,-1.8170238745712648,6.899855603920541,7.150429245962748,11.443905714081556,-14.942448313643292,-2.611299840415396,3.890805128144055,-0.132863114519817,-0.6717588843368902,5.496885718368903,12.6132499880907,-0.0476371951219513,18.883512760201263,-26.110608878968257,9.210870181405893,-21.020737942612943,-28.811787135278514,-4.420856227106225,29.19480636175757,37.91676400994399,44.3863479797526,1577396316.0,-27.68238179261704,-51.12797330974056,9.132694
88588,1577396316.3,0.8233425928627571,2.591577309213033,10.790258116187118,2.5734164136933115,3.3783353328053543,10.122509433653295,0.0863664452529531,5.896685108315072,7.131275632681498,9.353451612519056,-4.230778391768292,-3.2369101919778966,-0.2290679187309451,3.651316572980183,-5.7376768530868905,5.466368140243903,26.2851249880907,-5.022002429496951,20.03796332196029,-27.023567231379733,8.325209587039938,-20.558426180301183,-31.250880226095745,-3.740724499859112,29.24272920597837,37.86884116572318,44.3863479797526,1577396316.0,-27.68238179261704,-51.12797330974056,9.132694
88589,1577396316.31,1.923478255704554,-0.4466645975252476,9.966652745093368,0.9046578565644052,1.1265886714284004,7.986881552793921,-2.848924790098609,-5.351274291098989,8.698280619253763,-18.768496629668444,-14.454167063643292,-4.594942418540397,-0.0764800281059452,-0.9415789348323168,-2.3807432593368905,5.145933569931403,30.0845634646532,-11.56802293730945,19.543198795492145,-27.571342242826617,8.502341705913125,-18.88254604192104,-4.26841290893015,-2.720526908988449,29.146883517536764,38.0126096983856,44.19465660286938,1577396316.0,-27.68238179261704,-51.12797330974056,9.132694
88590,1577396316.32,-0.4348103795493521,2.6705859639981897,14.14692884372618,-0.6467848192168438,0.7351366999928535,8.48487549810642,2.67449843988186,1.201655652748666,12.120791892447125,6.042294385956555,10.173518483231708,-2.458711949790396,2.1513031750190548,0.2943829792301829,-5.2493956030868905,4.825498999618903,6.113005847465701,-7.066680163871951,18.553669742555822,-26.84097556089744,9.919398656898656,-19.17149089336589,-4.420856227106227,-4.420856227106225,29.19480636175757,37.725072633060776,44.3863479797526,1577396316.0,-27.68238179261704,-51.12797330974056,9.132694
88591,1577396316.33,0.8173570887123666,-0.3820211527010289,8.879685191382432,2.9684596876190925,-3.0860091496165203,10.031529770567358,-4.441068894102515,2.719579505287728,17.627455710806498,-17.364688035918444,-8.716862376143293,-4.961153356040397,-5.264468309355945,-0.163380692644817,-3.5098936499618905,-3.170106469131097,-18.6367500119093,-2.9773246951219514,18.883512760201263,-27.206158901862025,8.85660594365951,-18.88254604192104,-4.26841290893015,-20.40395181741336,28.955192140653548,37.86884116572318,44.290502291310986,1577396316.0,-27.68238179261704,-51.12797330974056,9.132694
88592,1577396316.34,-1.429601169344274,-0.5939079996248575,10.634635008276964,-2.064152202029344,-2.3031052067454265,15.423271909239231,2.878005580995141,5.688389563881478,11.184659043326027,-10.635562059355944,4.802424733231708,-2.565523473227896,8.010678175019056,-10.661427567644816,-4.3033506812118905,-6.496522484756097,-34.8415839962843,0.2270210080030487,18.553669742555822,-26.475792219932845,9.565134419152278,-19.17149089336589,-4.420856227106227,-20.74401768103691,29.07499925120556,37.91676400994399,44.290502291310986,1577396316.0,-27.68238179261704,-51.12797330974056,9.132694
88593,1577396316.35,0.5851195276772103,1.6338966451505337,9.732020982398057,2.932546662716749,1.219962536174495,9.38030691900486,0.1641779992080325,0.7120414132467132,11.45879513341392,16.998104932831556,-7.435124094893292,-3.587862340415396,-0.5647612781059452,6.687815596417684,-5.4019834937118905,-13.210389672256095,-46.4382636837843,6.086396008003049,18.553669742555822,-26.475792219932845,9.565134419152278,-20.558426180301183,-32.927756726032584,-13.942700408565791,29.29065205019917,37.82091832150238,44.33842513553179,1577396316.0,-27.68238179261704,-51.12797330974056,9.132694
88594,1577396316.36,0.2427486902748665,4.47102561243569,10.134246861304304,-0.3092023851348126,5.547482036906916,14.144768222715795,-4.302205197813453,-4.925106395591177,6.130499338736186,7.629208448456555,-5.543034251143292,-3.954073277915396,-3.555483934355945,-8.982960770769816,-3.5404112280868905,-21.3585830316311,-43.6611640744093,0.2575385861280487,20.53272784842845,-27.206158901862025,9.210870181405893,-19.17149089336589,-32.47042677150436,-9.18177831783601,29.146883517536764,37.725072633060776,44.43427082397341,1577396316.0,-27.68238179261704,-51.12797330974056,9.132694
88595,1577396316.37,-0.0230076940024771,-0.1952734232088413,10.031296189917589,1.534332893185499,2.3344634089772285,8.40826104498142,8.487620070741235,20.407941370522103,1.9406464334627485,0.3660248547065549,-10.700504954268292,-3.679415074790396,1.0221527843940548,1.6981915729801829,-6.9888975562118905,0.4309677496189026,-34.7500312619093,2.2106635861280486,21.027492374896607,-27.023567231379733,9.388002300279082,-19.17149089336589,-33.68997331691297,-9.18177831783601,29.146883517536764,37.86884116572318,44.24257944709018,1577396316.0,-27.68238179261704,-51.12797330974056,9.132694
88596,1577396316.38,1.0483975489174449,-0.384415354361185,8.233250743140244,-0.7389615831328601,-2.4958384403880047,8.113774240782202,-6.824496646788062,-8.430217626059926,9.994740818228372,0.9306000500190548,1.2776444597942085,-2.9622519888528966,3.4940766125190548,-0.9110613567073172,-2.9300596655868905,-7.915589867568597,4.236174792778201,-0.2460014529344505,18.883512760201263,-27.93652558379121,7.793813230420372,-19.17149089336589,-32.47042677150436,-12.582436954071568,29.12292209542636,37.725072633060776,44.33842513553179,1577396316.0,-27.68238179261704,-51.12797330974056,9.132694
88597,1577396316.39,-0.6455001256431021,1.0042216085294389,7.455135203589463,-4.503843693728562,0.146163091594416,12.313203952696265,4.158903469178735,6.009212586342416,11.467174839224466,3.0210541515815548,15.361506764481708,-1.1769736685403962,-0.8699370593559451,-7.975880692644817,-4.8831846655868905,12.546446265243905,3.915740222465701,-14.11624071074695,18.883512760201263,-27.93652558379121,7.793813230420372,-19.51822471509972,-30.64110695339144,-26.185071499013805,29.29065205019917,37.91676400994399,44.3863479797526,1577396316.0,-27.68238179261704,-51.12797330974056,9.132694
88598,1577396316.4,-0.2887640782798209,-0.75791081334556,9.607522496069931,-4.068098991580125,1.0487771174733225,13.462420749571264,-4.4721935156845465,9.897396082436163,18.03925839635337,-13.824648973418444,-12.958805735518292,-3.984590856040396,3.1889008312690548,-3.337208817644817,-4.7611143530868905,9.982969702743905,-4.903839855659299,-0.4443657107469513,18.718591251378545,-26.65838389041514,9.0337380625327,-18.5936011904762,-28.811787135278514,-5.100987954353339,29.29065205019917,37.725072633060776,44.290502291310986,1577396316.0,-27.68238179261704,-51.12797330974056,9.132694
88599,1577396316.41,-0.6478943273032584,3.5396811666349084,12.0663676010504,1.3571619703339364,-0.0238252262766767,14.331515952207983,0.7615313134170156,-9.600982237876334,8.57976763707603,12.420468214081556,-6.367008860518292,-2.611299840415396,2.0597504406440548,2.461131026105183,-3.9371397437118905,-0.8202529535060974,2.1152031130907014,0.7763374142530487,18.883512760201263,-26.475792219932845,9.565134419152278,-18.5936011904762,-28.811787135278514,-5.100987954353339,29.09896067331596,37.772995477281576,44.290502291310986,1577396316.0,-27.68238179261704,-51.12797330974056,9.132694
88600,1577396316.42,0.6090615442787728,-0.0109198953768105,9.778707914771102,-0.1308343614531725,1.0787046382252758,7.770206302549781,2.874414278504907,9.655581714760384,10.096494388785011,3.082089307831556,0.0874589129192084,-2.9927695669778966,2.4259613781440548,-5.336110184832317,-3.8303282202743913,2.628233374618903,6.1282646365282005,-2.5043022341844514,19.625659549903503,-26.567088055174,9.299436240842486,-20.905160002035004,-28.20201386257421,-25.504939771766697,29.146883517536764,37.9886482762752,44.3623865576422,1577396316.0,-27.68238179261704,-51.12797330974056,9.132694
88601,1577396316.43,1.1549395227943977,-1.8616377786775915,9.255574852026964,1.476872053341749,1.451002996379572,7.737884580137671,2.020881386659203,-16.65190612703649,7.126487229361186,-13.763613817168444,-8.228581126143293,-3.832002965415396,-1.4497710437309452,2.735789229230183,-6.0123350562118905,-1.3695693597560974,19.6628105349657,-0.9631645388719512,19.213355777846708,-26.110608878968257,8.502341705913125,-20.905160002035004,-28.811787135278514,-22.10428113553113,29.338574894419985,38.0605325426064,44.3863479797526,1577396316.0,-27.68238179261704,-51.12797330974056,9.132694
88602,1577396316.44,0.7311658289467415,1.925989247689596,11.700054747046494,1.2733649122284676,1.678452154094416,5.238338046934547,-3.6988663794540777,1.2543280892721032,-4.664955946908345,8.453183057831556,1.903254811356708,-2.031465856040396,-3.158755418730945,7.252390791730183,-3.7235166968368905,7.144834937118903,31.2594902224657,-10.08792039824695,18.553669742555822,-26.475792219932845,8.502341705913125,-21.020737942612943,-28.811787135278514,-91.47771731473654,29.146883517536764,37.9646868541648,44.24257944709018,1577396316.0,-27.68238179261704,-51.12797330974056,9.132694
88603,1577396316.45,3.18402542977682,1.8433892904142053,9.157412583960555,2.899027839474561,2.679228448039729,5.662111740782202,5.300937661073266,-4.563581944907583,-0.8270506856778753,7.018856885956557,-16.117375071455793,-6.075044957602897,0.6559418468940549,-2.665822098894817,-1.4041807593368902,12.821104468368905,62.5400078005907,-8.59255907012195,19.378277286669423,-26.65838389041514,7.616681111547179,-20.558426180301183,-27.287353953517748,-91.47771731473654,29.027076406984754,38.10845538682721,44.290502291310986,1577396316.0,-27.68238179261704,-51.12797330974056,9.132694
88604,1577396316.46,1.597866829923304,1.1526621114591264,11.826947435034777,2.6356656568573738,1.4665653071705878,7.934209116270484,1.6114729027724843,-2.9738320425638336,11.934044162954937,-0.6105376452934451,-2.430241282393293,-5.724092809165397,-6.912417528105945,-1.8571062785823167,-5.478277439024391,21.0913681402439,66.2936699099657,-18.23611375762195,18.883512760201263,-26.475792219932845,7.439548992673988,-20.03832544770045,-3.2013096816976123,-89.77738799661877,29.09896067331596,38.0605325426064,44.33842513553179,1577396316.0,-27.68238179261704,-51.12797330974056,9.132694
88605,1577396316.47,0.3217573450600228,-2.48173600865806,12.1429820541754,1.0315505445526862,0.5627541804616035,10.009981955625951,-2.2216439551376705,11.487145984779916,21.17805677281822,-13.916201707793444,10.143000905106708,-4.320284215415397,-1.7244292468559452,8.076365401105184,-4.6695616187118905,18.2532333746189,17.5265800662157,-7.799102038871951,18.883512760201263,-26.475792219932845,7.439548992673988,-10.849879171754177,-27.287353953517748,-23.46454459002536,29.09896067331596,37.91676400994399,44.24257944709018,1577396316.0,-27.68238179261704,-51.12797330974056,9.132694
88606,1577396316.48,0.956220785001429,-0.7914296365877476,8.22846233981993,1.323643147091749,-1.3717607609446454,12.181522861387672,-4.249532761290015,-2.157409276450552,15.52534665318931,-18.890566942168444,20.427424733231707,-2.428194371665396,-4.257388231230945,4.749949385480183,-5.4019834937118905,-6.710145531631097,-21.0781562619093,-10.57620164824695,19.378277286669423,-26.65838389041514,9.0337380625327,-10.734301231176234,-28.811787135278514,-3.740724499859112,29.43442058286159,37.91676400994399,44.19465660286938,1577396316.0,-27.68238179261704,-51.12797330974056,9.132694
88607,1577396316.49,-0.5198045384848995,0.4751030416349077,16.36874798435118,3.78727665539253,-2.267192181843083,16.62516114263767,8.446918642518577,9.011541468178354,16.533305552115092,-11.779971239043444,3.841121022294208,-5.342623082602897,3.921322706269055,-5.778615067644817,-4.7000791968368905,-6.343934594131097,-51.1990058712843,-2.7942192263719514,18.718591251378548,-26.293200549450557,9.56513441915227,-10.734301231176234,-28.811787135278514,-3.740724499859112,29.027076406984754,37.91676400994399,44.290502291310986,1577396316.0,-27.68238179261704,-51.12797330974056,9.132694
88608,1577396316.5,-0.7364797887290396,3.910782423959127,8.19015511325743,3.871073713497999,6.040687578899104,15.915280350401344,-6.221157828428687,-4.512106609214224,9.864256827749855,14.190487745331556,7.274348561356708,-1.878877965415396,-4.211611864043445,8.930857588605184,-5.905523532774391,-18.3678603753811,-40.8077705197218,13.34957960175305,18.553669742555822,-26.84097556089744,8.85660594365951,-20.385059269434272,-29.116673771630676,-1.3602634544942227,29.146883517536764,37.84487974361279,44.07484949231737,1577396316.0,-27.68238179261704,-51.12797330974056,9.132694
88609,1577396316.51,-1.526566336580602,0.1566742208341263,9.41119795993712,5.151971601681593,0.3736122493092598,7.199189206602515,13.915275234315452,-0.225288536704458,14.347399436392436,-6.134219285918445,-6.336491282393292,-6.090303746665397,3.5551117687690548,4.475291182355183,-6.4700987280868905,-12.172792016006095,-40.6094062619093,-9.01980516387195,18.553669742555822,-26.84097556089744,8.85660594365951,-18.5936011904762,-31.250880226095745,-4.420856227106225,29.19480636175757,37.91676400994399,44.3863479797526,1577396316.0,-27.68238179261704,-51.12797330974056,9.132694
88610,1577396316.52,-0.9543521398032584,-0.2431574564119663,9.042490904273055,-3.0912647142363747,0.0360298152272285,9.32045187750095,-7.0627197119736085,-1.812644237388052,9.058607969107278,4.577450635956555,2.055842701981707,-2.794405309165396,3.4025238781440548,-6.114308427019817,-3.9676573218368905,-15.010926781631095,-50.6496894650343,-1.878691882621952,18.553669742555822,-25.745425538003666,9.565134419152278,-18.5936011904762,-31.250880226095745,-4.420856227106225,29.09896067331596,37.9646868541648,44.43427082397341,1577396316.0,-27.68238179261704,-51.12797330974056,9.132694
88611,1577396316.53,-0.3988973546470084,-1.4139220682283724,10.810608830298449,0.7203043287323738,-0.2871874088938642,8.961321628477513,2.3800116356826404,3.945410755287728,13.31071011754478,-7.858462449980944,-3.5593916730182924,-4.533907262290397,-5.233950731230945,-1.8418474895198167,-2.8690245093368905,-8.815858422256097,-65.1760566525343,-11.00344774199695,18.30628747932175,-26.749679725656293,8.945172003096108,-19.05591295278796,-31.250880226095745,-20.74401768103691,29.146883517536764,37.9646868541648,44.290502291310986,1577396316.0,-27.68238179261704,-51.12797330974056,9.132694
88612,1577396316.54,-0.9974477696860709,0.97788539026772,12.899549778784774,1.0890113843964364,2.304535888225276,13.5426265051865,0.9422935387588132,-4.633013793052115,6.557864335074076,-17.883486864043444,-0.8128096417682926,-1.909395543540396,-0.656314012480945,-2.299611161394817,-3.6167051733993913,-8.220765648818597,-19.7506416134718,11.68637159394055,19.543198795492145,-27.571342242826617,7.439548992673988,-18.88254604192105,-32.1655401351522,-20.74401768103691,29.09896067331596,37.91676400994399,44.33842513553179,1577396316.0,-27.68238179261704,-51.12797330974056,9.132694
88613,1577396316.55,-1.660641629549352,3.075206044564596,12.779839695776962,-2.1096420335723125,1.4557913996998846,10.953297409727517,6.885899160096703,-9.359167870200553,0.0899285501619673,2.5022553234565548,-4.169743235518292,-2.885958043540396,3.738217237519055,-1.2009783488948171,-6.9583799780868905,1.4380478277439026,3.793669909965701,-8.89773485137195,19.543198795492145,-27.571342242826617,7.439548992673988,-21.020737942612943,-33.08020004420866,-25.504939771766697,29.09896067331596,37.86884116572318,44.24257944709018,1577396316.0,-27.68238179261704,-51.12797330974056,9.132694
88614,1577396316.56,2.373588167813929,-0.6070761087557164,12.08552121433165,-0.2014633104277813,-0.6989900944407391,5.738726193907203,-5.856042075254859,13.802338990151007,3.4825123026033733,8.544735792206556,-9.296696360518292,-4.045626012290397,4.989437940644055,0.3249005573551829,-1.6788389624618902,13.370420874618905,20.8529960818407,-0.8716118044969513,19.543198795492145,-27.571342242826617,7.439548992673988,-19.17149089336589,-33.68997331691297,-26.185071499013805,29.146883517536764,37.772995477281576,44.24257944709018,1577396316.0,-27.68238179261704,-51.12797330974056,9.132694
88615,1577396316.57,0.6365948633705697,0.6905811910489711,10.78307551120665,0.9800752088593272,1.9705447566334795,9.650851706602516,0.1917113182998283,-11.394239281333364,15.01418459874595,2.0750092297065548,-2.3539473370807933,-3.435274449790396,3.2957123547065548,-3.1388445598323167,-4.501714939024391,5.985166968368904,19.4644462771532,-11.15603563262195,18.553669742555837,-26.840975560897437,7.793813230420371,-20.09611441798942,-32.165540135152206,-20.403951817413358,29.146883517536764,37.91676400994399,44.33842513553179,1577396316.0,-27.68238179261704,-51.12797330974056,9.132694
88616,1577396316.58,3.3647876551186164,-1.12182946568931,6.847007981909775,3.114505988888624,1.9537853450123843,6.808934335997046,0.3114214013076407,22.512444629799447,1.9047334085604049,2.9600189953315548,-9.052555735518292,-4.472872106040397,1.9071625500190548,6.519968916730183,-3.8150694312118905,19.2603134527439,6.936980456840701,-8.10427782012195,19.87304181313758,-26.84097556089744,7.085284754927611,-18.70917913105413,-31.250880226095745,-13.26256868131868,29.09896067331596,37.9646868541648,44.09881091442777,1577396316.0,-27.68238179261704,-51.12797330974056,9.132694
88617,1577396316.59,1.214794564298304,-1.246327952017435,3.222186668433212,1.3356141553925305,-2.8370121769602705,2.202490341856421,-1.275934299375952,1.5847279183736658,10.689059299673684,18.24932563595656,2.727229420731707,-1.4211142935403962,8.895687940644056,1.3624982136051829,-4.1202452124618905,1.9263290777439024,13.5898124880907,13.22750928925305,19.87304181313758,-26.84097556089744,7.085284754927611,-19.80716956654457,-31.098436907919663,-16.323161453930688,28.955192140653548,37.772995477281576,44.19465660286938,1577396316.0,-27.68238179261704,-51.12797330974056,9.132694
88618,1577396316.6,1.0879018763100228,2.853742391000143,11.231988322485948,0.3851160963104988,3.1413093684498854,9.942944309141575,-1.9056093359970456,-5.973766722739614,10.643569468130718,4.241757276581556,1.4912675066692074,-3.4657920279153966,-1.8159819812309448,-4.710499833269817,-2.8995420874618905,3.116514624618903,7.608367175590701,-13.23123094512195,19.543198795492145,-27.023567231379733,7.97094534929356,-19.402646774521777,-30.031333680687133,-26.185071499013805,29.09896067331596,38.0605325426064,44.290502291310986,1577396316.0,-27.68238179261704,-51.12797330974056,9.132694
88619,1577396316.61,0.9179135584389292,0.4296132100919388,7.483865623511337,1.5810198255585464,1.1672900996510571,7.554728153135718,5.364384005067406,-5.077138201011099,7.640043485464702,2.4412201672065548,-10.669987376143292,-4.869600621665397,4.516415479706555,5.345042158917684,-5.447759860899391,4.718687476181404,30.6949150271532,-3.5266411013719514,18.718591251378545,-25.56283386752137,8.67947382478632,-18.766968101343103,-4.420856227106227,-25.164873908143143,28.907269296432744,37.9886482762752,44.33842513553179,1577396316.0,-27.68238179261704,-51.12797330974056,9.132694
88620,1577396316.62,-2.340594901033727,-1.363643833365091,10.615481394995712,-3.864591850466844,-5.085167535846989,4.206437131407203,-1.8433600928329832,7.670788538490854,8.34274167272056,-7.019229051543445,9.776789967606708,-4.839083043540397,2.4869965343940548,-14.933888505144816,-2.6248838843368905,-4.573915062881097,19.1134941287157,-16.13040086699695,18.223826724910392,-28.3017089247558,7.085284754927611,-18.1890783984534,-29.87889036251105,-24.484742180896028,29.09896067331596,37.91676400994399,44.19465660286938,1577396316.0,-27.68238179261704,-51.12797330974056,9.132694
88621,1577396316.63,-0.1068047521079458,-1.04521501256431,8.719273680151963,-5.183796965212937,7.00076244462176,20.087176743223605,2.1765044945693592,20.515680445229133,21.814914414419786,-8.667178270293444,12.675959889481708,-3.069063512290396,8.041195753144056,-13.438527177019816,-1.4346983374618902,14.316465796493905,-18.7588203244093,-5.784941882621951,18.718591251378545,-27.38875057234432,9.388002300279082,-18.1890783984534,-28.049570544398133,-24.484742180896028,29.43442058286159,37.725072633060776,44.3863479797526,1577396316.0,-27.68238179261704,-51.12797330974056,9.132694
88622,1577396316.64,0.5432209986244755,1.5680560994962367,11.51689832004454,1.3188547437714364,2.755842901164729,11.398618918516576,1.9777857567763903,-15.126799669516958,16.104743454947123,11.672787550019056,-4.246037180830793,-3.6641562857278966,6.149105909394055,16.865427901105182,-9.76599716558689,-4.116151391006097,-37.7407539181593,-16.13040086699695,19.2133557778467,-27.02356723137973,8.67947382478632,-18.1890783984534,-28.049570544398133,-25.84500563539025,29.05103782909516,37.725072633060776,44.290502291310986,1577396316.0,-27.68238179261704,-51.12797330974056,9.132694
88623,1577396316.65,0.716800618985804,-0.7914296365877476,11.697660545386338,2.594964228634717,-2.517386255329411,13.814368393614233,0.3114214013076408,8.02991878751429,9.42132952062095,-6.775088426543445,8.281428639481707,-1.7262900747903962,-2.075381395293445,-4.145924637957316,-0.6259825171493903,-12.081239281631095,-41.8453681759718,13.09018018769055,17.729062198442236,-26.65838389041514,9.388002300279082,-20.731793091168093,-4.26841290893015,-90.11745386024234,29.09896067331596,37.91676400994399,44.24257944709018,1577396316.0,-27.68238179261704,-51.12797330974056,9.132694
88624,1577396316.66,0.5228702845131478,0.8916941305020951,7.323454112280869,-3.1654849657012183,-0.1626889225657392,15.423271909239231,-4.979764267637671,-19.88168416658727,9.858271323599467,9.368710401581556,-1.8198897198932928,-3.740450231040396,-0.0459624499809451,-1.0178728801448171,-5.7071592749618905,-19.3139052972561,-33.0715644650343,4.194306164253049,17.893983707264955,-26.475792219932845,9.565134419152278,-20.84737103174604,-3.048866363521536,-84.33633417864186,29.00311498487435,37.91676400994399,44.09881091442777,1577396316.0,-27.68238179261704,-51.12797330974056,9.132694
88625,1577396316.67,-0.1211699620688833,-0.4586356058260288,10.862084165991806,3.191120442013624,-1.1802246281321451,8.341223398497046,5.904276479432641,0.4067807015767908,-1.43757210901772,7.842831495331555,-1.6673018292682926,-4.137178746665397,0.3507660656440549,14.057810713605184,-6.2564756812118905,0.0037216558689026,0.8334648318407012,-8.74514696074695,17.3992191807968,-28.119117254273505,9.742266538025468,-20.96294897232397,-4.26841290893015,-89.77738799661877,29.29065205019917,38.0605325426064,44.290502291310986,1577396316.0,-27.68238179261704,-51.12797330974056,9.132694
88626,1577396316.68,0.8676353235756478,2.7855076436856896,6.516608152808213,1.0746461744354987,1.412695769817072,4.400367465879859,-9.717889353086887,-2.6913162466653957,2.6182055032869678,15.365414503144056,1.0029862566692074,-3.1758750357278966,6.973080518769055,1.3319806354801829,-4.6695616187118905,2.963926733993903,29.8251640505907,5.048798351753049,18.55366974255583,-27.93652558379121,9.210870181405896,-11.485557844932847,-32.31798345332828,-19.04368836291913,29.09896067331596,37.91676400994399,44.290502291310986,1577396316.0,-27.68238179261704,-51.12797330974056,9.132694
88627,1577396316.69,1.1597279261147102,-0.7938238382479038,5.827078074683213,-1.1028802354766094,2.1058171504323067,11.439320346739231,7.804075496766624,-2.4638670889505523,3.911074399771342,-6.012148973418445,-9.632389719893292,-4.991670934165397,1.3731049328315548,-1.7655535442073167,-4.0897276343368905,14.1638779058689,37.4087822146532,-14.29934617949695,18.883512760201263,-27.571342242826617,8.502341705913125,-20.78958206145706,-31.86065349880005,-12.582436954071568,29.09896067331596,37.91676400994399,44.3863479797526,1577396316.0,-27.68238179261704,-51.12797330974056,9.132694
88628,1577396316.7,1.3057742273842414,-0.5208848489900914,10.646606016577744,-1.28124825915825,1.4438203913991037,11.26214942388767,-8.274185752012672,6.023577796303353,13.791944651236186,7.873349073456555,-1.8198897198932928,-2.275606481040396,3.860287550019055,2.888377119855183,-3.3573057593368905,13.584043921493905,44.4125663943407,-3.0383598513719514,18.223826724910392,-26.84097556089744,9.210870181405893,-20.558426180301183,-30.64110695339144,-4.420856227106225,29.09896067331596,37.91676400994399,43.95504238176535,1577396316.0,-27.68238179261704,-51.12797330974056,9.132694
88629,1577396316.71,1.1788815393959602,1.370534462533346,14.482117076148056,4.658766059689405,-2.370142853229801,6.026030393125953,-3.4067737769150157,-13.766893126548208,26.61050033971275,-11.535830614043444,-3.956120188643293,-5.540987340415397,2.1207855968940548,3.132517744855183,-4.0897276343368905,10.440733374618905,11.6977226443407,-20.12820360137195,19.378277286669423,-27.023567231379733,8.67947382478632,-20.674004120879125,-31.250880226095745,-20.0638859537898,29.19480636175757,37.91676400994399,44.09881091442777,1577396316.0,-27.68238179261704,-51.12797330974056,9.132694
88630,1577396316.72,1.272255404142054,0.2584277913907675,11.138614457739854,-0.8754310777617658,3.203558611613947,15.390950186827125,-1.3609284583114998,11.895357367836557,8.34992427770103,-1.236147996855945,7.442195241044208,-2.824922887290396,0.9763764172065548,6.458933760480184,-0.8853819312118902,7.556822241806404,-6.5517890744093,-1.8329155154344503,18.96597351461262,-27.11486306662088,8.945172003096108,-19.17149089336589,-30.64110695339144,-4.420856227106225,29.12292209542636,37.725072633060776,44.33842513553179,1577396316.0,-27.68238179261704,-51.12797330974056,9.132694
88631,1577396316.73,0.6449745691811165,0.3745465719083451,5.810318663062119,1.4529300367401865,-3.674982758014958,4.127428476622047,0.9267312279677968,-22.943868089927115,13.784762046255716,19.50054633908156,11.089045826981708,-1.1464560904153962,8.315853956269056,11.891062666730184,-4.2423155249618905,-9.792420922256095,1.4743339724657012,5.964325695503049,18.05890521608768,-26.65838389041514,8.325209587039938,-18.70917913105413,-30.64110695339144,-4.420856227106225,29.09896067331596,37.91676400994399,44.290502291310986,1577396316.0,-27.68238179261704,-51.12797330974056,9.132694
88632,1577396316.74,1.1214206995522102,-2.9007212991854034,11.850889451636338,0.2845596265839363,-2.7029368839915207,3.708443186094703,6.498038491151391,11.594885059486948,-1.3274388326505324,-8.941836473418444,-2.460758860518293,-4.839083043540397,4.104428175019055,-3.978077958269817,2.441034084413109,6.778623999618903,7.394744128715701,-7.646514148246951,18.883512760201263,-26.475792219932845,9.210870181405893,-18.70917913105413,-31.86065349880005,-26.185071499013805,29.146883517536764,37.725072633060776,44.09881091442777,1577396316.0,-27.68238179261704,-51.12797330974056,9.132694
88633,1577396316.75,0.2714791101967416,2.888458315072409,9.195719810523055,-3.378568913455125,6.059841192180354,14.695434604551734,3.574718264100609,11.183082373940072,6.949316306509624,22.30816352658156,11.180598561356708,-0.5055869497903963,7.766537550019055,-4.069630692644817,-4.5169737280868905,5.985166968368903,5.899382800590701,3.7365424923780486,19.04843426902399,-27.75393391330892,8.67947382478632,-18.70917913105413,-31.86065349880005,-26.185071499013805,29.19480636175757,37.725072633060776,44.3863479797526,1577396316.0,-27.68238179261704,-51.12797330974056,9.132694
88634,1577396316.76,0.3277428492104134,1.879302315316549,8.090795744360946,3.564615900997999,2.406289458781916,5.738726193907203,3.887161580751001,-0.8394012625345367,1.647356730093608,4.607968214081555,-3.0100752667682924,-3.2826865591653966,-0.381655809355945,12.623484541730182,-2.2586729468368905,13.706114233993905,18.2895195193407,-3.2825004763719514,19.04843426902399,-27.75393391330892,8.67947382478632,-20.558426180301183,-33.08020004420867,-11.902305226824458,29.146883517536764,37.84487974361278,44.3623865576422,1577396316.0,-27.68238179261704,-51.12797330974056,9.132694
88635,1577396316.77,-0.8873144933188833,2.871698903451315,6.49266613620665,1.5486981031464364,0.2371427546803535,8.065890207579077,2.459020290467797,-11.427758104575553,7.021142356314311,2.6548432140815548,8.922297780106707,-2.184053746665396,-0.5342436999809451,-6.144826005144817,-1.5262510718368902,10.166075171493905,42.5509941287157,-12.74294969512195,19.04843426902399,-26.65838389041514,8.325209587039938,-19.7493805962556,-32.47042677150436,-26.185071499013805,29.09896067331596,37.91676400994399,44.24257944709018,1577396316.0,-27.68238179261704,-51.12797330974056,9.132694
88636,1577396316.78,0.9227019617592416,0.3194799337247513,7.704132176245713,-0.2493473436309063,-0.4739351383860517,12.950061594297829,-1.3477603491806396,-2.885246581138052,2.3380839090486862,-0.3053618640434451,-1.7283369855182926,-4.259249059165397,-1.7549468249809452,11.189158369855184,-5.6156065405868905,13.217832983993905,50.9128105349657,-13.93313524199695,18.883512760201263,-26.84097556089744,6.731020517181234,-19.17149089336589,-31.250880226095745,-26.185071499013805,29.19480636175757,37.9646868541648,44.3863479797526,1577396316.0,-27.68238179261704,-51.12797330974056,9.132694
88637,1577396316.79,1.8947478357826792,-1.0081048868318887,8.721667881812118,1.4457474317597176,0.3257282161061348,5.8799840918564215,-5.717178378965796,6.052308216225229,13.04255953160728,-2.350039598418445,1.1250565691692076,-3.9693320669778966,-1.4192534656059452,9.449656416730184,-1.4957334937118902,18.8330673589939,56.1007988162157,-8.47048875762195,18.30628747932175,-27.11486306662088,8.236643527603347,-19.113701923076928,-31.098436907919663,-25.84500563539025,29.218767783867968,37.91676400994399,44.19465660286938,1577396316.0,-27.68238179261704,-51.12797330974056,9.132694
88638,1577396316.8,-0.3845321446860709,1.4399663106778773,11.546825840796494,1.3176576429413591,-1.2987376103098798,9.92259359503025,-2.520919162657202,-5.673294414390005,18.29424087316001,0.1218842297065548,10.600764576981708,-3.069063512290396,-0.2595854968559452,-0.9110613567073172,-2.9910948218368905,8.762266577743905,23.8132011599657,-7.4023735232469505,17.729062198442236,-27.38875057234432,8.67947382478632,-19.547119200244204,-31.174658567007704,-14.11273334037757,29.29065205019917,37.86884116572319,44.218618024979776,1577396316.0,-27.68238179261704,-51.12797330974056,9.132694
88639,1577396316.81,-2.0101950719321646,2.44074260462319,12.056790794409777,-4.2596351243926245,6.842745135051448,16.610795932676734,-0.289523215391577,15.923601661049446,17.225229831900247,2.6548432140815548,3.673274342606707,-4.381319371665397,-3.586001512480945,1.4540509479801829,0.4268739281631097,1.8347763433689024,-38.7173164181593,-12.10208055449695,19.04843426902399,-29.21466727716728,10.096530775771845,-18.478023249898254,-29.72644704433498,-4.420856227106225,29.09896067331596,37.9646868541648,44.43427082397341,1577396316.0,-27.68238179261704,-51.12797330974056,9.132694
88640,1577396316.82,-2.26876885122904,8.426246755013814,14.283398338355088,-3.2828008470488745,2.9976572688405105,14.788808469297829,7.297701845643578,6.507206531654916,9.97798140660728,0.8237885265815549,0.4384110613567073,-3.404756871665396,3.1583832531440548,14.607127119855184,-6.8363096655868905,-13.881776391006095,-54.7085273556593,9.44332960175305,18.883512760201263,-26.475792219932845,9.919398656898656,-18.70917913105413,-3.81108295440192,-24.14467631727247,29.29065205019917,37.725072633060776,44.290502291310986,1577396316.0,-27.68238179261704,-51.12797330974056,9.132694
88641,1577396316.83,-0.4372045812095084,-5.237462119497904,8.196140617407822,9.466322993283155,-4.158611493366521,6.131375266172827,-4.778651328184546,-9.59619383455602,13.155087009634624,-17.257876512480944,7.976252858231707,-3.6794150747903966,-8.835024949980944,15.431101729230184,-6.8363096655868905,-10.189149437881095,-56.1733711056593,6.879853039253049,18.306287479321757,-26.567088055174,9.476568359715678,-18.70917913105413,-27.897127226222054,-26.185071499013805,29.31461347230958,37.9646868541648,44.43427082397341,1577396316.0,-27.68238179261704,-51.12797330974056,9.132694
88642,1577396316.84,-1.5481141515220085,3.266742177377096,10.268322154273056,-1.008309269900438,2.503254626018245,11.478824674131811,0.103125856874047,-1.993406462729849,0.2216096414705615,-7.751650926543445,3.154475514481707,-3.496309606040396,2.6090668468940548,-10.203663895769816,-2.7316954077743905,-10.250184594131095,-12.1365058712843,10.54196241425305,16.904454654328646,-26.84097556089744,8.85660594365951,-18.593601190476196,-28.354457180750284,-26.185071499013805,29.09896067331596,37.91676400994399,44.170695180758976,1577396316.0,-27.68238179261704,-51.12797330974056,9.132694
88643,1577396316.85,2.507663460782679,4.693686366830221,8.704908470191025,3.7824882520722176,-0.2009961491282391,0.1027754858993895,3.110243142030297,-2.8182089346536765,8.136840329947123,13.030819776581556,-13.965885813643292,-4.839083043540397,1.4493988781440548,7.710154463605183,-5.1883604468368905,-2.559754906631097,6.082488269340701,-8.16531297637195,19.87304181313758,-27.93652558379121,8.148077468166749,-19.17149089336589,-28.20201386257421,-26.185071499013805,29.09896067331596,37.91676400994399,44.482193668194206,1577396316.0,-27.68238179261704,-51.12797330974056,9.132694
88644,1577396316.86,0.5204760828529915,1.9475370626310025,2.9564302841558687,2.319631037716749,3.9840683528248855,3.01412470464939,-3.471417221739234,-1.989815160239614,6.075432700552592,40.46612251095655,-6.214420969893292,-3.496309606040396,-4.684634324980945,8.442576338605184,-5.9818174780868905,1.9873642339939024,-4.934357433784299,-16.06936571074695,17.729062198442236,-27.023567231379733,9.0337380625327,-20.09611441798942,-4.420856227106227,-84.67640004226544,29.19480636175757,37.772995477281576,44.290502291310986,1577396316.0,-27.68238179261704,-51.12797330974056,9.132694
88645,1577396316.87,0.7287716272865853,-0.3305458170076694,6.692581974829697,1.612144447140577,1.1182089656178544,12.39221260748142,1.5169019371963124,3.986112183510385,9.380628092398297,3.524594190644056,-8.426945383955792,-4.884859410727897,-2.945132371855945,-2.5742693645198167,-4.04395126714939,4.184629858993903,-0.2956855587842995,-6.669951648246951,18.38874823373311,-27.02356723137973,8.502341705913128,-15.212946428571431,-15.625440113047876,-85.52656470132432,29.09896067331596,37.74903405517118,44.218618024979776,1577396316.0,-27.68238179261704,-51.12797330974056,9.132694
88646,1577396316.88,1.1453627161537727,-2.204008616079935,12.128616844214465,-1.7169929613066877,-0.3039468205149579,11.688317319395484,-0.7635751441025146,-5.372822106040396,15.862929087271342,-14.373965379668444,4.283625905106708,-3.069063512290396,1.3578461437690548,-3.520314286394817,-1.4957334937118902,-1.4611220941310974,4.434539050590701,1.2951362423780486,19.04843426902399,-26.65838389041514,8.325209587039938,-10.618723290598291,-27.897127226222054,-20.74401768103691,29.00311498487435,37.91676400994399,44.3863479797526,1577396316.0,-27.68238179261704,-51.12797330974056,9.132694
88647,1577396316.89,-2.773945401522008,3.99218528040444,15.248261607398057,-1.4679959886504377,0.5531773738209785,17.080059458067357,0.1581924950576407,2.9829416879049155,15.956302952017436,-12.115664598418444,4.710871998856708,-3.069063512290396,2.0597504406440548,-1.1399431926448171,-2.6554014624618905,-0.7897353753810974,-18.4231269650343,-1.4514457888719514,18.05890521608768,-26.65838389041514,10.096530775771845,-20.84737103174604,-27.43979727169382,-26.185071499013805,29.09896067331596,37.91676400994399,44.43427082397341,1577396316.0,-27.68238179261704,-51.12797330974056,9.132694
88648,1577396316.9,-0.0541323155845084,-0.9063513162752476,12.157347264136336,1.1704142408417488,0.1246152766530098,7.383542734434546,1.9706031517959215,12.270049927651009,14.060095237173686,-9.277529832793444,5.382258717606708,-3.557344762290396,-1.9990874499809448,7.893259932355183,-7.72131943121189,-2.071473656631097,-31.9729316525343,-3.4350883669969514,19.04843426902399,-27.023567231379733,9.0337380625327,-20.84737103174604,-32.31798345332828,-3.40065863623556,29.19480636175757,37.91676400994399,44.290502291310986,1577396316.0,-27.68238179261704,-51.12797330974056,9.132694
88649,1577396316.91,0.1074762964760374,0.9347897603849086,11.929898106421494,-2.070137706179734,0.9278699336354316,11.80563320074314,-0.8677229163193114,-8.171643846763052,8.050649070181498,4.714779737519056,-2.9642988995807924,-3.358980504477896,0.5338715343940548,-3.276173661394817,-3.1131651343368905,-10.768983422256095,-16.7446601681593,1.798676281440549,18.965973514612628,-26.201904714209405,8.945172003096108,-19.60490817053317,-29.95511202159909,-2.8905598408002247,29.12292209542636,37.820918321502376,44.31446371342139,1577396316.0,-27.68238179261704,-51.12797330974056,9.132694
88650,1577396316.92,0.8963657434975227,0.2117408590177201,8.429575279273056,2.9445176710175303,2.389530047160822,8.341223398497046,5.45177236566311,15.65305687345179,8.68750671178306,9.734921339081556,-3.040592844893293,-3.770967809165396,-7.278628465605945,6.977732588605183,-4.7611143530868905,2.475645483993903,-15.4324043087843,-5.449248523246951,19.04843426902399,-25.92801720848596,8.67947382478632,-19.17149089336589,-30.031333680687133,-7.141383136094671,29.09896067331596,37.9646868541648,44.3863479797526,1577396316.0,-27.68238179261704,-51.12797330974056,9.132694
88651,1577396316.93,0.304997933438929,2.914794533334127,9.605128294409775,-0.1918865037871563,2.399106853801447,7.373965927793921,3.256289443299828,7.23264963468226,7.037901767935405,9.918026807831556,-2.002995188643293,-4.625459996665397,-0.7478667468559451,-3.856007645769817,-0.9464170874618902,5.222227515243903,-8.5354316525343,4.865692883003049,19.87304181313758,-26.110608878968257,9.210870181405893,-18.70917913105413,-31.250880226095745,-7.141383136094671,29.00311498487435,37.9646868541648,44.24257944709018,1577396316.0,-27.68238179261704,-51.12797330974056,9.132694
88652,1577396316.94,0.3014066309486947,2.091189162240377,7.485062724341415,0.7131217237519051,1.860411480266291,8.884707175352514,2.6266144066787342,-6.6082301626810205,6.482446982779154,5.691342237519056,-3.208439524580793,-4.411836949790397,-1.9075347156059448,-7.090870927019817,-5.1578428687118905,-1.2169814691310974,2.3593437380907014,-7.677031726371951,17.811522952853593,-26.74967972565629,8.59090776534973,-19.113701923076928,-31.098436907919663,-6.801317272471119,29.09896067331596,37.91676400994399,44.3863479797526,1577396316.0,-27.68238179261704,-51.12797330974056,9.132694
88653,1577396316.95,1.8516522058998663,-1.7874175272127475,1.1583848373785253,2.634468556027296,0.5088846431080888,8.015611972715796,0.4251459801650631,5.2143376351705415,3.9972656595369673,-7.965273973418445,2.086360280106707,-3.648897496665396,-2.807803270293445,4.582102705792684,-4.1812803687118905,5.802061499618904,14.1391288943407,-4.518462390434451,19.04843426902399,-26.65838389041514,8.325209587039938,-19.86495853683354,-31.403323544271814,-12.922502817695126,29.146883517536764,37.89280258783359,44.290502291310986,1577396316.0,-27.68238179261704,-51.12797330974056,9.132694
88654,1577396316.96,1.741518929532679,0.1447032125333451,5.582869505347275,1.5606691114472178,-0.1938135441477704,9.631698093321264,2.7535070946670155,-7.233116795981802,9.369854184927592,9.979061964081556,15.636164967606708,-1.1464560904153962,-5.661196824980945,-1.1704607707698171,-5.4019834937118905,-1.0643935785060974,14.1086113162157,-6.303740710746951,19.04843426902399,-26.65838389041514,8.325209587039938,-20.96294897232397,-31.70821018062397,-25.84500563539025,29.146883517536764,37.725072633060776,44.482193668194206,1577396316.0,-27.68238179261704,-51.12797330974056,9.132694
88655,1577396316.97,2.7566604334389293,-1.2582989603182162,12.77505129245665,2.310054231076124,1.4222725764576971,8.609373984434546,-2.015742612364233,4.235109156166635,14.742442710318215,-16.845889207793444,-13.538639719893292,-7.494112340415397,-1.5718413562309452,2.979929854230183,-2.9910948218368905,3.787901343368903,6.570769519340701,-10.20999071074695,19.04843426902399,-26.65838389041514,8.325209587039938,-19.17149089336589,-32.47042677150436,-7.141383136094671,29.146883517536764,37.9646868541648,44.43427082397341,1577396316.0,-27.68238179261704,-51.12797330974056,9.132694
88656,1577396316.98,0.7563049463783822,1.5441140828946736,16.019194541968368,0.3922987012909676,3.356787517863948,15.583683420469702,1.475003408143578,-2.2148701162943016,9.944462583365093,2.7311371593940548,0.1637528582317071,-4.076143590415397,-0.0154448718559451,3.712351729230183,-2.6859190405868905,0.8887314214939026,9.4394218630907,-8.68411180449695,18.718591251378548,-27.02356723137973,7.97094534929356,-19.17149089336589,-32.47042677150436,-7.141383136094671,29.12292209542636,37.9646868541648,44.290502291310986,1577396316.0,-27.68238179261704,-51.12797330974056,9.132694
88657,1577396316.99,-0.0230076940024771,-2.436246177115091,9.674560142554308,0.324063953976515,-0.5577321964915204,12.7872558814072,-0.5864042212509525,7.096180140053353,12.961156675161966,-9.704775926543444,6.663996998856708,-3.496309606040396,-2.502627489043445,2.796824385480183,-2.4570372046493905,0.4767441168064028,0.8029472537157013,-1.5429985232469514,18.718591251378545,-27.38875057234432,8.325209587039938,-19.142596408221408,-32.39420511241632,-20.573984749225133,29.19480636175757,37.9886482762752,44.24257944709018,1577396316.0,-27.68238179261704,-51.12797330974056,9.132694
88658,1577396317.0,-1.8306299474204455,-0.2024560281893101,14.932226988257431,-2.3107549730254378,2.643315423137385,16.70895820074314,-0.6199230444931395,0.3541082650533533,13.320286924185403,-3.906436082793445,12.218196217606708,-1.6042197622903962,1.6935395031440548,2.918894697980183,-2.1366026343368905,-3.841493187881097,-12.8994453244093,-2.6721489138719514,18.718591251378545,-27.38875057234432,8.325209587039938,-20.558426180301183,-30.031333680687133,-11.222173499577346,29.09896067331596,37.86884116572318,44.482193668194206,1577396317.0,-27.682326571745907,-51.12790735208923,8.902807
88659,1577396317.01,-0.0254018956626334,4.4566604024747525,9.851731065405868,2.8224133863495613,-0.0453730412180829,8.08983222418064,6.708728237245141,-4.6018891714700825,1.686861057486186,-0.3663970202934451,4.893977467606708,-3.526827184165396,0.1066254406440548,14.637644697980184,-4.7000791968368905,-3.414247094131097,-13.4182441525343,-2.9162895388719514,18.718591251378545,-27.38875057234432,8.325209587039938,-19.17149089336589,-30.94599358974359,-26.185071499013805,29.146883517536764,37.91676400994399,44.43427082397341,1577396317.0,-27.682326571745907,-51.12790735208923,8.902807
88660,1577396317.02,0.0871255823647103,0.1219582967618617,6.159872105444931,0.8304376050995613,1.5204348445241045,6.312137491514624,0.5364763573623287,1.9773769906392915,1.2822409769197805,6.866268995331556,-4.703800852705792,-4.655977574790397,-1.526064989043445,0.2486066120426828,-3.1284239233993905,-0.5913711175685973,22.1957695193407,0.6390083126905487,17.64660144403088,-27.48004640758547,9.122304121969297,-18.680284645909644,-29.802668703423016,-24.654775112707803,29.146883517536764,37.74903405517118,44.26654086920058,1577396317.0,-27.682326571745907,-51.12790735208923,8.902807
88661,1577396317.03,1.7151827112709603,3.6426318380216274,3.7728530502691497,1.6324951612519052,-2.475487726276677,3.768298227598609,2.0520060082412344,-6.466972264731802,-0.3769407735685004,14.526181104706556,-4.383366282393292,-4.289766637290397,-1.2971831531059452,4.414256026105183,-5.6461241187118905,8.304502905868903,56.6501152224657,-15.48953172637195,17.893983707264955,-27.571342242826617,9.565134419152278,-18.07350045787546,-28.65934381710244,-20.40395181741336,29.19480636175757,37.86884116572318,44.3863479797526,1577396317.0,-27.682326571745907,-51.12790735208923,8.902807
88662,1577396317.04,1.1525453211342416,0.2739901021817826,7.91003351901915,-0.8383209520293439,4.249824737102229,4.1154574683212655,-4.268686374571265,1.3524903573385094,5.843195139517436,0.3965424328315549,-1.0569502667682926,-3.740450231040396,-3.189272996855945,0.8436993854801829,-4.4864561499618905,25.1502060308689,64.1269218630907,-15.21487352324695,17.729062198442236,-27.38875057234432,9.0337380625327,-18.07350045787546,-28.65934381710244,-20.40395181741336,29.146883517536764,37.91676400994399,44.24257944709018,1577396317.0,-27.682326571745907,-51.12790735208923,8.902807
88663,1577396317.05,2.7901792566811165,-0.9135339212557164,9.504571824683213,0.3539914747284676,1.8053448420826967,9.739437168028296,0.0169345971084219,4.826476966225228,12.283597605337748,-13.672061082793444,-5.146305735518292,-4.991670934165397,-0.2290679187309451,3.376658369855183,-0.9769346655868902,23.1055282964939,48.9596855349657,-13.32278367949695,17.729062198442236,-27.38875057234432,9.0337380625327,-21.020737942612943,-4.420856227106227,-88.07705867850099,29.19480636175757,37.772995477281576,44.19465660286938,1577396317.0,-27.682326571745907,-51.12790735208923,8.902807
88664,1577396317.06,2.914677743009242,0.1925872457364706,11.170936180151962,1.621721253781202,-0.0046716129954272,9.620924185850562,0.6262589196181881,3.9418194527974943,19.542817038931503,-2.670474168730945,13.499934498856708,-3.404756871665396,-1.007266160918445,3.590281416730184,-3.3267881812118905,9.052183569931405,6.5402519412157005,-9.49282762480945,18.14136597049903,-27.480046407585476,8.236643527603343,-20.96294897232397,-15.701661772135914,-85.01646590588899,29.027076406984754,37.9886482762752,44.242579447090186,1577396317.0,-27.682326571745907,-51.12790735208923,8.902807
88665,1577396317.07,0.534841292813929,-1.1098584573885288,15.260232615698838,-2.0952768236113752,2.099831646281916,16.167868625547825,-2.329383029844702,10.728184058510385,8.912561667837746,-10.986514207793444,4.710871998856708,-4.320284215415397,-0.0154448718559451,4.200632979230183,0.0606629906631097,3.482725562118903,8.6154472537157,5.323456554878049,17.729062198442236,-27.75393391330892,10.096530775771845,-20.09611441798942,-3.2013096816976128,-25.504939771766697,29.09896067331596,37.91676400994399,44.19465660286938,1577396317.0,-27.682326571745907,-51.12790735208923,8.902807
88666,1577396317.08,1.0591714563881478,-0.8895919046541538,11.604286680640245,1.5582749097870614,0.4502267024342598,9.28214465093845,-2.705272690489234,-5.363245299399771,2.024443491568217,-5.310244676543445,16.795832936356707,-2.275606481040396,-0.7783843249809451,17.109568526105182,-4.1507627905868905,4.276182593368903,35.5319511599657,2.2716987423780486,17.729062198442236,-26.29320054945055,9.388002300279082,-10.849879171754177,-4.420856227106227,-26.185071499013805,29.146883517536764,37.725072633060776,44.43427082397341,1577396317.0,-27.682326571745907,-51.12790735208923,8.902807
88667,1577396317.09,0.2463399927651009,3.060840834603658,7.075654240454697,0.6748144971894051,0.7518961116139472,3.643799741270484,0.2994503930068594,-12.114893981040396,6.640464292349467,12.038998487519056,13.148982350419208,-3.3437217154153966,-3.341860887480945,6.519968916730183,-0.6717588843368902,3.177549780868903,41.8490898318407,-8.43997117949695,17.811522952853593,-26.93227139613858,8.945172003096104,-10.792090201465204,-27.43979727169382,-14.282766272189347,29.146883517536764,37.86884116572318,44.19465660286938,1577396317.0,-27.682326571745907,-51.12790735208923,8.902807
88668,1577396317.1,0.7383484339272103,-1.418710471548685,-2.758529078637099,-0.9652136400176254,1.92505492509051,6.248691147520484,-0.227273972227515,5.086247846352181,12.944397263540871,18.79864204220656,6.572444264481708,-3.862520543540396,-0.9004546374809451,4.124339033917684,-3.0368711890243905,9.845640601181405,4.2209160037157005,-12.14785692168445,17.893983707264955,-27.93652558379121,9.210870181405893,-15.704152676027675,-29.26911708980674,-7.481448999718228,29.19480636175757,37.9886482762752,44.24257944709018,1577396317.0,-27.682326571745907,-51.12790735208923,8.902807
88669,1577396317.11,0.850875911954554,2.081612355599752,3.748911033667587,3.203091450314405,1.965756353313166,5.180877207090797,3.2419242333388905,0.6797196908346034,12.57569020787681,24.71905219845656,4.588801686356708,-2.672334996665396,0.9611176281440548,6.275828291730183,-3.8761045874618905,2.963926733993903,-27.5173652462843,-10.63723680449695,17.893983707264955,-27.93652558379121,8.85660594365951,-20.96294897232397,-28.354457180750284,-0.6801317272471106,29.146883517536764,37.9646868541648,44.24257944709018,1577396317.0,-27.682326571745907,-51.12790735208923,8.902807
88670,1577396317.12,1.8875652308022104,4.423141579232564,5.3626029526129,0.8926868482636239,-0.916862445514958,15.80873837652439,1.302620888612328,16.68016938565882,15.458309006704935,20.56866157345656,4.283625905106708,-4.717012731040397,0.4728363781440549,0.0502423542301829,-3.6624815405868905,1.6821884527439026,-52.3281562619093,10.60299757050305,17.3992191807968,-26.29320054945055,7.616681111547183,-19.05591295278796,-30.031333680687133,-4.420856227106225,29.29065205019917,37.9646868541648,44.09881091442777,1577396317.0,-27.682326571745907,-51.12790735208923,8.902807
88671,1577396317.13,-0.835839157625524,-0.5364471597811069,10.593933580054308,1.467295246701124,-0.9982653019602704,13.831127805235328,4.7981553124404535,0.8209775887838222,17.63703251744712,-12.603945848418444,3.307063405106708,-3.8320029654153966,1.7545746593940548,2.339060713605183,-6.9888975562118905,-20.2904677972561,-70.6387031369093,13.56320264862805,16.98691540874,-25.83672137324481,9.1223041219693,-19.05591295278796,-30.031333680687133,-4.420856227106225,29.07499925120556,37.9646868541648,44.3863479797526,1577396317.0,-27.682326571745907,-51.12790735208923,8.902807
88672,1577396317.14,-4.10033312124857,1.0544998433927202,17.055883860816024,0.4234233228729988,0.4645919123951981,17.0776652564072,1.9586321434951413,8.385457734047494,7.174371262564311,-22.918887254668444,15.727717701981708,-3.862520543540396,-0.763125535918445,2.812083174542683,-2.9453184546493905,-19.2070937738186,-72.5460517697218,11.09127882050305,17.729062198442236,-26.29320054945055,8.67947382478632,-18.824757071632074,-32.47042677150436,-4.420856227106225,29.146883517536764,37.94072543205439,44.290502291310986,1577396317.0,-27.682326571745907,-51.12790735208923,8.902807
88673,1577396317.15,-1.7588038976157585,0.2356828756192826,10.589145176733991,-1.7768480028105935,3.071877520305354,15.91647745123142,-9.20553019781345,-27.4593324209818,1.349278623404155,-0.7326079577934451,13.560969655106708,-0.3835166372903963,-1.3277007312309452,0.4774884479801829,-1.2821104468368902,-17.2997451410061,2.5729667849657014,12.92233350800305,17.069376163151365,-28.119117254273505,10.096530775771845,-19.05591295278796,-33.68997331691297,-19.38375422654269,29.29065205019917,37.9646868541648,44.24257944709018,1577396317.0,-27.682326571745907,-51.12790735208923,8.902807
88674,1577396317.16,-2.3286238927329457,4.569187880502096,11.4151447494879,-4.020214958376999,4.599378179485042,12.310809751036109,3.4143067528701407,-9.222698375571646,-9.015220363412253,-2.197451707793445,-11.768620188643292,-3.496309606040396,2.3344086437690548,9.480173994855184,-2.2586729468368905,-4.665467797256097,46.7013847537157,-23.91238328887195,18.05890521608768,-26.65838389041514,9.742266538025468,-11.254401963776964,-38.41571618037136,-25.84500563539025,29.146883517536764,37.91676400994399,44.24257944709018,1577396317.0,-27.682326571745907,-51.12790735208923,8.902807
88675,1577396317.17,2.067130355313929,-2.2925940775057163,5.120788584937119,3.022329224972608,-1.6016041203196454,-0.93151963128811,2.1465769738174063,6.229479139076791,-4.436309688363423,10.619931104706556,-12.729923899580792,-4.182955113852897,1.6172455578315548,6.214793135480184,-2.2128965796493905,32.7643417730564,89.5480644412157,-9.32498094512195,18.05890521608768,-26.65838389041514,9.742266538025468,-20.50063721001221,-39.02548945307566,-25.84500563539025,29.09896067331596,37.91676400994399,44.26654086920058,1577396317.0,-27.682326571745907,-51.12790735208923,8.902807
88676,1577396317.18,-0.1379293736899771,2.3258209249356896,9.8062412338629,-1.2573062425566877,5.360734307414729,8.685988437559546,-2.4969771460556403,-9.311283836997427,16.12629126988853,17.669491651581556,9.196955983231708,-3.038545934165396,-0.1069976062309451,-8.708302567644816,-1.6788389624618902,30.0330185308689,78.2870781130907,-19.94509813262195,18.38874823373311,-27.023567231379733,8.325209587039938,-20.03832544770045,-32.927756726032584,-25.84500563539025,28.955192140653548,37.91676400994399,44.43427082397341,1577396317.0,-27.682326571745907,-51.12790735208923,8.902807
88677,1577396317.19,2.055159347013148,4.198086623177877,10.210861314429309,2.058663056759717,4.280949358684261,9.933367502500952,-2.839347983457984,1.9941364022603845,19.820544431509628,0.1829193859565548,-9.998600657393292,-5.510469762290397,-2.884097215605945,15.370066572980184,-5.0662901343368905,23.4717392339939,48.5934745974657,-14.97073289824695,18.223826724910392,-27.571342242826617,9.565134419152278,-19.86495853683354,-33.68997331691297,-26.185071499013805,29.146883517536764,37.772995477281576,44.24257944709018,1577396317.0,-27.682326571745907,-51.12790735208923,8.902807
88678,1577396317.2,0.5300528894936165,-0.3904008585115762,9.05326481174376,1.6923502027558115,-1.2161376530344892,1.1729836279892332,-1.4722588355087645,4.994071082436166,17.27550806676353,-1.9075347156059443,11.699397389481708,-4.137178746665397,-7.522769090605945,9.419138838605184,-1.3431456030868902,13.278868140243905,21.0361015505907,-7.829619616996951,19.213355777846708,-27.206158901862025,8.148077468166749,-19.17149089336589,-32.47042677150436,-23.46454459002536,29.05103782909516,38.0605325426064,44.09881091442777,1577396317.0,-27.682326571745907,-51.12790735208923,8.902807
88679,1577396317.21,0.3768239832436165,1.6578386617520962,16.17721185153868,-1.8809957750273905,-0.2680337956126147,14.07773057623142,-0.6462592627548583,3.3432690377584318,9.501535276236185,-18.066592332793444,8.098323170731707,-3.954073277915396,-1.617617723418445,-2.223317216082317,-1.3584043921493902,-3.139588891006097,-0.2346504025342988,-1.9244682498094516,19.213355777846708,-27.206158901862025,8.148077468166749,-19.807169566544573,-31.09843690791967,-20.74401768103691,29.09896067331596,37.86884116572319,44.3863479797526,1577396317.0,-27.682326571745907,-51.12790735208923,8.902807
88680,1577396317.22,-0.6239523107016959,-0.2024560281893101,12.514083311499618,1.8934631422089363,-0.1842367375071454,16.12237879400486,-7.429032565977515,0.3229836434713221,13.487881040396342,-13.824648973418444,18.108088795731707,-2.885958043540396,-0.4426909656059451,16.743357588605182,-5.1273252905868905,-3.597352562881097,2.0541679568407014,0.4406440548780487,18.05890521608768,-27.75393391330892,9.0337380625327,-18.651390160765164,-29.87889036251105,-19.72382009016624,29.09896067331596,37.772995477281576,44.290502291310986,1577396317.0,-27.682326571745907,-51.12790735208923,8.902807
88681,1577396317.23,-1.1171578526938837,-1.06436862584556,12.686465831030867,-0.1320314622832501,-0.7827871525462079,7.335658701231421,6.555499330995141,2.657330262123666,8.472028562368997,-13.977236864043444,15.330989186356708,-2.458711949790396,-0.5037261218559451,13.233836104230184,-0.9769346655868902,-1.5221572503810974,10.9653007693407,-5.083037585746951,18.718591251378545,-27.75393391330892,9.0337380625327,-18.70917913105413,-29.116673771630666,-18.703622499295577,29.146883517536764,37.86884116572318,44.290502291310986,1577396317.0,-27.682326571745907,-51.12790735208923,8.902807
88682,1577396317.24,-0.8142913426841177,2.814238063607565,7.378520750464463,-1.8630392625762189,4.862740362102229,12.952455795957984,-1.7188616065048583,-7.211568981040395,15.72406539098228,8.498959425019056,10.738093678544208,-3.191133824790396,-4.379458543730945,2.155955244855183,-1.0379698218368902,-9.090516625381095,-8.4133613400343,1.9054878048780488,18.058905216087677,-28.119117254273508,8.67947382478632,-18.70917913105413,-29.116673771630666,-18.703622499295577,29.05103782909516,37.772995477281576,44.57803935663581,1577396317.0,-27.682326571745907,-51.12790735208923,8.902807
88683,1577396317.25,-0.0900453404868521,-2.982124155630716,5.374573960913682,1.8826892347382336,0.639368633586604,7.701971555235327,-0.8904678320907967,2.064765351234995,26.38185408116783,-0.8241606921684451,-0.1414229230182926,-4.228731481040397,-3.326602098418445,13.050730635480184,-4.6695616187118905,-15.819642601943595,-87.0876777462843,-14.80288621855945,18.38874823373311,-27.75393391330892,7.97094534929356,-18.70917913105413,-28.354457180750284,-18.023490772048465,28.955192140653548,37.9646868541648,44.43427082397341,1577396317.0,-27.682326571745907,-51.12790735208923,8.902807
88684,1577396317.26,-0.3342539098227896,-0.4275109842439976,9.210085020483994,0.1768205518769051,1.0942669490162908,13.476785959532204,-2.774704538633765,-2.1382556631693017,11.340282151236185,1.2205170422065548,2.025325123856707,-2.855440465415396,-4.562564012480945,-2.360646317644817,0.6710145531631098,-75.2221084222561,-136.0073554806593,14.44821241425305,17.893983707264955,-28.3017089247558,9.210870181405893,-20.789582061457065,-28.20201386257421,-86.03666349675964,29.19480636175757,37.91676400994399,44.19465660286938,1577396317.0,-27.682326571745907,-51.12790735208923,8.902807
88685,1577396317.27,-0.9806883580649772,1.696145888314596,13.591474058569933,-1.54939884509575,0.979345269328791,18.00422129888767,4.70478144769436,6.3970732552877285,7.219861094107279,-8.606143114043444,3.917414967606707,-2.580782262290396,-5.111880418730945,1.5761212604801829,-0.4581358374618902,-37.2887588128811,-162.4050605587843,20.06344678925305,18.38874823373311,-26.29320054945055,8.67947382478632,-20.558426180301183,-28.50690049892636,-86.03666349675964,29.19480636175757,37.91676400994399,44.19465660286938,1577396317.0,-27.682326571745907,-51.12790735208923,8.902807
88686,1577396317.28,-4.155399759432164,1.4674996297696736,15.318890556372663,-4.029791765017625,0.6537338435475409,13.948443686582984,17.350954616639672,28.378238697182255,-4.566793678841939,-11.963076707793444,6.694514576981708,-2.061983434165396,-2.548403856230945,4.536326338605183,-3.1742002905868905,-15.316102562881095,-120.2297675900343,33.58273389862805,18.30628747932175,-26.567088055173997,9.476568359715678,-20.3272702991453,-3.81108295440192,-83.3161365877712,29.05103782909516,37.772995477281576,44.19465660286938,1577396317.0,-27.682326571745907,-51.12790735208923,8.902807
88687,1577396317.29,-3.384466824861852,-1.0428208109041537,12.310576170386335,-0.875431077761766,1.3672059382741042,13.647971378233374,4.972932033631859,-14.177498711265004,-0.623543544564595,-13.244814989043444,7.671077076981708,0.1047646127096036,-3.235049364043445,-1.8876238567073167,-3.9523985327743913,-8.403871117568599,22.3025810427782,19.89560010956555,17.893983707264955,-27.206158901862025,9.919398656898656,-13.01696555759056,-29.95511202159909,-90.2874867920541,29.09896067331596,37.820918321502376,44.3623865576422,1577396317.0,-27.682326571745907,-51.12790735208923,8.902807
88688,1577396317.3,-1.2847519689048208,3.161397304330221,9.044885105933211,-4.551727726931687,0.7566845149342597,6.713166269590796,-2.836953781797828,6.112163257729135,-2.2683600850919388,1.8308686047065548,0.2858231707317073,-1.0243857779153962,0.5949066906440549,1.7287091511051829,1.4644715844131098,10.837461890243905,92.9965507693407,-20.09768602324695,17.3992191807968,-27.023567231379733,10.096530775771845,-11.54334681522182,-33.68997331691297,-24.824808044519585,29.29065205019917,37.772995477281576,44.09881091442777,1577396317.0,-27.682326571745907,-51.12790735208923,8.902807
88689,1577396317.31,2.7662372400795543,-1.9885304666658723,8.467882505835556,1.7138980176972176,4.182787090617854,0.3828970801376708,7.027157058045922,-3.6466027090677393,15.424790183462749,1.7698334484565548,-16.956608469893293,-3.801485387290396,3.5245941906440548,9.022410322980184,-5.0357725562118905,39.5545029058689,99.2526542849657,-19.88406297637195,17.564140689619517,-26.475792219932845,7.793813230420372,-20.44284823972324,-29.42156040798282,-4.420856227106225,29.29065205019917,38.0605325426064,44.24257944709018,1577396317.0,-27.682326571745907,-51.12790735208923,8.902807
88690,1577396317.32,2.6345561487709603,0.0034453145841269,9.322612498511338,5.213023744015578,2.09743744462176,6.325305600645484,-3.4271244910263428,-1.2799343680032866,19.488947501577982,17.94414985470656,-9.723942454268292,-2.962251988852896,-3.799624559355945,-3.718678544207317,-0.5191709937118902,22.9681991949314,11.4230644412157,-25.45352098418445,18.38874823373311,-27.206158901862025,8.502341705913128,-19.633802655677652,-32.165540135152206,-20.0638859537898,29.05103782909516,37.94072543205439,44.24257944709018,1577396317.0,-27.682326571745907,-51.12790735208923,8.902807
88691,1577396317.33,-1.9455516271079456,-3.180842893423685,10.007354173316024,-6.479060063357469,1.719153582317072,1.6637949683212645,6.004832949159203,19.026487012611945,10.600473838247904,-8.300967332793444,20.915705983231707,-0.7192099966653963,2.5480316906440548,7.679636885480183,1.3729188500381098,-9.395692406631095,-29.2873847775343,8.77194288300305,18.718591251378545,-28.119117254273505,8.67947382478632,-19.05591295278796,-30.64110695339144,-3.0605927726120044,29.146883517536764,37.725072633060776,44.3863479797526,1577396317.0,-27.682326571745907,-51.12790735208923,8.902807
88692,1577396317.34,-0.7604218053306021,1.6650212667325648,9.272334263648055,-3.6084122728301247,-3.6725885563548015,4.89117880621189,-0.2871290137314208,-1.9515079336771144,5.517583713736186,-7.202334520293445,19.328791920731707,0.3489052377096037,5.935482862519055,-14.140431473894816,4.0584657250381095,-18.2152724847561,-25.9304511837843,19.05636671112805,18.553669742555822,-27.571342242826617,8.502341705913125,-19.113701923076928,-31.098436907919663,-19.04368836291913,29.146883517536764,37.91676400994399,44.050888070206966,1577396317.0,-27.682326571745907,-51.12790735208923,8.902807
88693,1577396317.35,-2.496218008943883,3.1590031026700647,12.7942049057379,-4.896492765994188,-3.2176902409251142,14.25729570074314,-5.827311655332984,-7.97531931063024,12.795956760611183,-11.322207567168444,13.438899342606708,0.0132118783346036,8.621029737519056,-10.661427567644816,-1.8924620093368905,-8.449647484756097,-23.7331855587843,1.7834174923780486,18.883512760201263,-26.475792219932845,8.85660594365951,-19.113701923076928,-31.098436907919663,-19.04368836291913,29.19480636175757,37.91676400994399,44.19465660286938,1577396317.0,-27.682326571745907,-51.12790735208923,8.902807
88694,1577396317.36,-1.0584999120200551,1.581224208627096,10.23360623020079,-5.362164988894579,-1.0557261418040211,12.841125418760718,3.5675356591201406,5.354398432289682,8.20986348058189,1.4493988781440543,-2.1555830792682933,-2.199312535727896,6.896786573456556,0.0655011432926829,-1.4194395483993905,-9.502503930068595,-15.0967109494093,2.927826672065549,17.811522952853597,-26.93227139613859,8.413775646476534,-16.368725834350837,-33.308865021472776,-22.95444579459003,29.027076406984754,37.89280258783359,44.26654086920058,1577396317.0,-27.682326571745907,-51.12790735208923,8.902807
88695,1577396317.37,0.0823371790443968,-2.6014460916658724,10.09354543308165,-0.8622629686309063,-4.639846027057927,7.527194834043922,-0.7085085059189208,-7.558728221763052,14.409648679556495,2.6853607922065548,-0.9653975323932926,-1.5126670279153962,5.233578565644055,0.4164532917301829,-0.9769346655868902,-48.7023330316311,-8.7185371212843,-1.2683403201219514,18.38874823373311,-27.023567231379733,7.97094534929356,-20.558426180301183,-33.38508668056082,-25.504939771766697,28.955192140653548,37.91676400994399,44.24257944709018,1577396317.0,-27.682326571745907,-51.12790735208923,8.902807
88696,1577396317.38,1.0160758265053351,-0.7842470316072788,3.229369273413681,-2.643549003787156,0.2969977961842598,10.151239853575172,2.030458193299828,3.787393445717416,9.616456955923685,7.262997510956555,14.293391530106708,0.2573525033346037,-0.0764800281059451,-3.184620927019817,-0.1224424780868902,11.386778296493905,9.7751152224657,-1.7566215701219514,18.38874823373311,-27.023567231379733,7.97094534929356,-20.558426180301183,-33.38508668056082,-25.504939771766697,29.146883517536764,37.86884116572318,44.24257944709018,1577396317.0,-27.682326571745907,-51.12790735208923,8.902807
88697,1577396317.39,-1.5624793614829455,2.384478865609518,11.82455323337462,-2.480743290896531,4.101384234172541,15.313138632872043,-1.2424154761337645,-7.462960155356802,8.558219822134623,7.110409620331556,0.0416825457317073,-0.5055869497903963,0.0761078625190548,0.7521466511051829,-2.0145323218368905,5.557920874618903,11.1789238162157,6.086396008003049,17.3992191807968,-27.93652558379121,8.856605943659513,-20.905160002035004,-33.68997331691297,-14.622832135812905,29.146883517536764,37.86884116572318,44.3863479797526,1577396317.0,-27.682326571745907,-51.12790735208923,8.902807
88698,1577396317.4,0.3265457483803353,-0.7770644266268101,7.943552342261338,-0.2301937303496568,-0.1997990482981615,7.967727939512671,0.0061606896377189,7.019565686928353,6.077826902212748,-2.807803270293445,-8.472721751143293,-1.2990439810403962,5.065731885956555,5.848582197980183,-1.9840147437118905,12.714292944931405,16.0769951052782,-2.9620659060594514,18.05890521608768,-27.75393391330892,9.388002300279082,-20.06721993284493,-33.1564217032967,-14.792865067624682,29.146883517536764,37.94072543205439,44.24257944709018,1577396317.0,-27.682326571745907,-51.12790735208923,8.902807
88699,1577396317.41,-0.1762366002524771,3.688121669564596,10.589145176733991,1.2997011304901864,-0.1842367375071454,8.961321628477513,1.8796234887099843,-9.919411058677117,8.450480747427592,9.490780714081556,4.527766530106708,-2.611299840415396,2.3344086437690548,-4.924122880144817,-0.2139952124618902,4.489805640243903,25.7358085818407,-0.3833305544969513,18.05890521608768,-27.75393391330892,9.388002300279082,-20.731793091168093,-32.31798345332828,-25.84500563539025,29.146883517536764,37.86884116572318,44.09881091442777,1577396317.0,-27.682326571745907,-51.12790735208923,8.902807
88700,1577396317.42,-1.440375076814977,-1.3349134134432163,9.133470567358994,-0.0793590257598126,1.0918727473561347,9.50001700201267,-3.3397361304306403,-4.144596654380239,9.829540903677591,-4.181094285918445,4.008967701981708,-0.7802451529153963,1.0221527843940548,0.4774884479801829,-4.3033506812118905,7.907774390243903,33.6093437380907,-16.46609422637195,18.05890521608768,-27.75393391330892,9.388002300279082,-20.03832544770045,-31.098436907919663,-25.84500563539025,29.146883517536764,37.86884116572318,44.290502291310986,1577396317.0,-27.682326571745907,-51.12790735208923,8.902807
88701,1577396317.43,0.8915773401772102,2.631081636605612,12.73075856174376,-2.717769255252,3.232289031535823,12.466432858946265,6.21073429193264,-2.964255235923208,7.047478574576029,2.5327729015815548,-7.969181712080792,-3.1300986685403966,4.226498487519055,-2.391163895769817,-1.4041807593368902,9.525206030868905,44.6567070193407,-9.66067430449695,17.48167993520816,-26.932271396138585,8.768039884222915,-19.113701923076928,-30.48866363521536,-25.164873908143136,28.955192140653548,37.9646868541648,44.24257944709018,1577396317.0,-27.682326571745907,-51.12790735208923,8.902807
88702,1577396317.44,2.6561039637123667,-2.778617014517435,5.9755185776129,0.2725886182831551,-2.3330327274973794,3.795831546690405,-1.35374585333103,4.930624738442026,9.37823389073814,0.2744721203315549,7.091243092606708,-2.397676793540396,2.5175141125190548,7.237132002667683,-1.1600401343368902,14.163877905868905,38.7210380740282,-2.8399955935594514,19.213355777846708,-28.666892265720392,8.502341705913125,-19.142596408221408,-30.41244197612732,-23.634577521837134,29.09896067331596,37.74903405517118,44.3623865576422,1577396317.0,-27.682326571745907,-51.12790735208923,8.902807
88703,1577396317.45,1.7080001062904917,-0.4873660257479039,7.5197786484136815,-0.5605935594512189,0.7997801448170722,6.210383920957984,-1.168195224668921,2.267075391518197,9.314787546743997,0.0913666515815548,15.361506764481708,-2.123018590415396,3.829769971894055,5.146677901105183,-0.9769346655868902,15.903379858993905,28.0551445193407,-8.77566453887195,17.564140689619517,-27.571342242826617,7.793813230420372,-18.651390160765164,-28.354457180750284,-21.764215271907577,29.09896067331596,37.91676400994399,44.3863479797526,1577396317.0,-27.682326571745907,-51.12790735208923,8.902807
88704,1577396317.46,2.0072753138100228,0.8222622823575639,8.640265025366807,3.701085395626905,1.5419826594655095,8.788939108946265,2.729565078065453,9.07139650968226,6.9684699197908735,10.619931104706556,12.279231373856708,-2.733370152915396,-0.7173491687309451,13.600047041730184,-1.3126280249618902,14.987852515243905,26.0409843630907,-1.5124809451219514,17.564140689619517,-27.571342242826617,7.793813230420372,-18.651390160765164,-28.354457180750284,-21.764215271907577,28.907269296432744,37.91676400994399,44.3863479797526,1577396317.0,-27.682326571745907,-51.12790735208923,8.902807
88705,1577396317.47,0.1062791956459603,2.273148488412252,5.574489799536728,-0.5845355760527816,1.1062379573170722,9.93576170416111,-3.2272086524032964,-6.166499956382193,12.86419150792564,13.305477979706556,11.089045826981708,-1.878877965415396,1.7545746593940548,6.458933760480183,0.1979920922256093,3.238584937118903,12.3538505740282,-13.20071336699695,17.481679935208163,-28.39300475999695,8.768039884222915,-20.789582061457065,-16.61632168119237,-88.07705867850099,29.09896067331596,37.89280258783359,44.122772336538176,1577396317.0,-27.682326571745907,-51.12790735208923,8.902807
88706,1577396317.48,-1.4882591100181022,0.1782220357755326,11.355289707983994,-1.4416597703887188,-0.4356279118235517,15.085689475157205,-3.691683774473609,21.15014388517054,16.535699753775248,-13.763613817168444,7.060725514481708,-3.404756871665396,5.630307081269055,5.970652510480183,-2.8385069312118905,12.119200171493905,-13.4792793087843,-1.2988578982469514,16.5746116366832,-27.206158901862025,10.273662894645032,-20.21169235856736,-4.420856227106227,-90.11745386024232,29.00311498487435,37.91676400994399,44.09881091442777,1577396317.0,-27.682326571745907,-51.12790735208923,8.902807
88707,1577396317.49,-0.9447753331626334,-2.0076840799471225,7.866937889136338,1.18238524914253,-0.6271640446360516,12.210253281309546,2.13101466302639,0.5169139779439783,6.080221103872905,-2.411074754668445,14.293391530106708,-0.9633506216653964,-0.2901030749809451,18.879588057355186,-2.0145323218368905,4.886534155868903,4.526091784965701,6.849335461128049,17.3992191807968,-26.65838389041514,10.096530775771845,-11.658924755799758,-28.811787135278514,-24.824808044519585,29.09896067331596,37.91676400994399,44.290502291310986,1577396317.0,-27.682326571745907,-51.12790735208923,8.902807
88708,1577396317.5,0.8867889368568977,3.017745204720846,10.14382366794493,1.48884306164253,1.819710052043635,13.33073965826267,2.102284243104516,-6.366415795005239,2.23992164098228,-4.852481004668445,1.7506669207317074,-1.2380088247903962,-5.142397996855945,9.205515791730184,1.0677430687881098,0.5225204839939026,26.0409843630907,3.7975776486280486,17.3992191807968,-26.65838389041514,10.096530775771845,-11.658924755799758,-28.811787135278514,-24.824808044519585,29.09896067331596,37.91676400994399,44.290502291310986,1577396317.0,-27.682326571745907,-51.12790735208923,8.902807
