,timestamp,acc_x_dashboard,acc_y_dashboard,acc_z_dashboard,acc_x_above_suspension,acc_y_above_suspension,acc_z_above_suspension,acc_x_below_suspension,acc_y_below_suspension,acc_z_below_suspension,gyro_x_dashboard,gyro_y_dashboard,gyro_z_dashboard,gyro_x_above_suspension,gyro_y_above_suspension,gyro_z_above_suspension,gyro_x_below_suspension,gyro_y_below_suspension,gyro_z_below_suspension,mag_x_dashboard,mag_y_dashboard,mag_z_dashboard,mag_x_above_suspension,mag_y_above_suspension,mag_z_above_suspension,temp_dashboard,temp_above_suspension,temp_below_suspension,timestamp_gps,latitude,longitude,speed
57949,1577396009.91,-3.561637747713414,2.428771596322409,7.091216551245712,-4.183020671267625,1.2810146785084784,9.045118686582985,-3.234391257383765,0.2846764169088221,7.243803110708842,4.821591260956555,3.947932545731707,33.0332314095846,-3.891177293730945,-6.388966630144817,31.79894424066311,2.811338843368903,15.3598320193407,32.69772413300305,16.244768619037774,-2.37369171626984,1.7713211887318916,-20.50063721001221,-3.963526272577997,-69.37343617920541,31.111720130589752,37.53338125617755,42.37358852247881,1577396007.0,-27.685822693812288,-51.13077042055954,1.3403306
57950,1577396009.92,-2.943933719393102,1.7619864339688924,8.4654883041754,-4.274000334353562,2.8899181941334797,7.632539707090796,-2.798646555235328,2.7076084969869467,6.676377317251811,-2.792544481230945,-1.6062666730182928,32.8806435189596,-4.226870653105945,-1.8113299113948167,33.14171767816311,7.968809546493903,19.1134941287157,30.53097608612805,16.079847110215056,-3.6518334096459095,0.7085284754927574,-20.50063721001221,-3.963526272577997,-69.37343617920541,31.111720130589752,37.38961272351514,42.37358852247881,1577396007.0,-27.685822693812288,-51.13077042055954,1.3403306
57951,1577396009.93,-2.6446585118735704,-0.6190471170564975,8.992212669409776,-2.0988681261016096,-1.0772739567454273,5.417903171446265,-2.6693596655868896,0.0189200326314788,7.326403067984232,-8.880801317168444,-0.9653975323932926,32.9111610970846,-6.103701707793445,-0.6669207317073171,32.50084853753811,3.833677710556403,24.3319999880907,31.37020948456555,16.079847110215056,-3.6518334096459095,0.8856605943659495,-15.241840913715915,-4.26841290893015,-67.33304099746408,31.063797286368946,37.74903405517118,42.51735705514122,1577396007.0,-27.685822693812288,-51.13077042055954,1.3403306
57952,1577396009.94,-1.7899285191977896,-0.81537165318931,6.736874705542587,-2.739317070193406,1.735912993938166,7.077084921934547,-3.797028647520484,1.941463965736947,8.352318479361186,-5.676455614043445,11.363704030106708,34.5285927377096,-9.231753465605944,-5.015675614519817,34.39293838128811,3.543760718368903,19.0829765505907,27.87594678925305,14.595553530810587,-3.1040583981990206,2.125585426478283,-9.231788003663006,-4.420856227106227,-26.185071499013805,30.92002875370653,37.53338125617755,42.46943421092042,1577396007.0,-27.685822693812288,-51.13077042055954,1.3403306
57953,1577396009.95,-1.8928791905845084,4.119077968392721,8.688149058569932,-2.2269579149199688,1.4533971980397284,8.719507260801734,-2.346142441465796,8.60452718595179,8.527095200552592,-0.6410552234184451,0.3468583269817073,31.782010706459605,-5.630679246855945,-0.7737322551448171,31.92101455316311,6.290342749618903,18.0453788943407,33.43014600800305,14.760475039633304,-3.286650068681319,0.5313963566195653,-21.020737942612943,17.53098159024883,-23.46454459002536,31.20756581903136,37.725072633060776,42.2777428340372,1577396007.0,-27.685822693812288,-51.13077042055954,1.3403306
57954,1577396009.96,-2.7224700658286487,0.4427813192227993,7.3162715073004,-1.7397378770781715,-1.3538042484934734,6.984908158018531,-3.945469150450172,-3.2383913260110986,10.68666509801353,-1.739688035918445,6.0231278582317085,31.7667519173971,-6.912417528105944,-2.253834794207317,32.21093154535061,-4.573915062881097,11.7892753787157,33.68954542206555,14.92539654845602,-4.0170167506105,1.9484533076050876,-20.96294897232397,17.53098159024883,-18.02349077204846,31.25548866325217,37.60526552250876,42.34962710036841,1577396007.0,-27.685822693812288,-51.13077042055954,1.3403306
57955,1577396009.97,-4.411579337068883,-0.2287922464510288,7.9148219223394625,-6.060074772830125,1.6185971125905096,12.99315722418064,-0.6630186743759521,-1.4008415518411768,8.215848984732279,-12.481875535918444,10.539729420731708,32.5449501595846,-7.003970262480945,-4.344288895769817,31.64635635003811,-0.8812881097560974,-0.9670722775342988,29.12716749237805,15.585082583746894,-4.199608421092795,1.4170569509855149,-20.905160002035004,16.00654840848806,-13.942700408565791,31.111720130589752,37.772995477281576,42.46943421092042,1577396007.0,-27.685822693812288,-51.13077042055954,1.3403306
57956,1577396009.98,-2.8290120397056016,0.7001579976895952,8.678572251929307,-2.001902958865281,-0.6942016911204266,8.62613339605564,-1.398038584043921,2.3029884164205408,11.007488120474466,-8.178897020293444,3.337580983231707,32.6975380502096,-5.172915574980945,3.987009932355183,31.28014541253811,-0.7897353753810974,1.0776054568407012,29.09664991425305,15.914925601392335,-2.37369171626984,1.062792713239138,-20.26948132885633,17.68342490842491,-10.20197590870668,31.20756581903136,37.58130410039836,42.37358852247881,1577396007.0,-27.685822693812288,-51.13077042055954,1.3403306
57957,1577396009.99,-3.013365567537633,1.3992648824552212,9.087980735816028,-1.4225061571074689,-1.120369586628239,7.637328110411109,-2.2264323584579837,4.618181421791634,12.764832139029156,-4.150576707793445,-2.064030344893293,31.568387659584605,-7.980532762480945,-3.794972489519817,32.47033095941311,-4.940126000381097,-8.7185371212843,35.10861280487805,14.595553530810587,-3.1040583981990206,1.7713211887318916,-20.789582061457065,17.53098159024883,-14.622832135812905,31.063797286368946,37.772995477281576,42.61320274358283,1577396007.0,-27.685822693812288,-51.13077042055954,1.3403306
57958,1577396010.0,-3.432350858064977,1.678189375863424,9.09037493747618,-3.786780296511765,-0.1914193424876147,10.36911220464939,-2.506553952696265,-2.066429613364615,9.700254014029154,-5.356021043730944,1.2166093035442072,31.202176722084605,-6.347842332793445,-6.511036942644816,30.83764052972561,-10.921571312881095,-15.2950752072218,36.54293897675305,14.26571051316515,-2.556283386752135,2.3027175453514714,-20.84737103174604,16.311435044840216,-11.222173499577346,31.135681552700152,37.58130410039836,42.565279899362025,1577396007.0,-27.685822693812288,-51.13077042055954,1.3403306
57959,1577396010.01,-4.071602701326696,0.5373522847989701,8.743215696753525,-3.5509514329863747,-0.1914193424876142,7.912661301329077,1.5635888695693592,8.044283997475228,4.102610532583842,-5.676455614043445,7.304866139481708,32.3313271127096,-8.438296434355944,-4.496876786394817,32.19567275628811,-1.8578506097560967,-4.781769543159299,35.87155225800305,13.93586749551971,-2.37369171626984,2.125585426478283,-19.05591295278796,15.396775135783756,-13.942700408565791,31.20756581903136,37.58130410039836,42.46943421092042,1577396007.0,-27.685822693812288,-51.13077042055954,1.3403306
57960,1577396010.02,-3.365313211580601,-0.1330241800447788,8.089598643530868,-3.361809501834031,1.5180406428639472,10.467274472715795,-2.944692856504859,0.9789948983541348,5.158453464712748,-11.383242723418444,-2.369206126143293,31.293729456459605,-9.201235887480944,-6.175343583269817,30.39513564691311,-5.733583031631097,13.1320488162157,39.16745069550305,13.93586749551971,-2.37369171626984,2.125585426478283,-19.05591295278796,15.396775135783756,-13.942700408565791,31.20756581903136,37.58130410039836,42.46943421092042,1577396007.0,-27.685822693812288,-51.13077042055954,1.3403306
57961,1577396010.03,-2.803872922273961,2.447925209603658,8.722864982642196,-3.5006731981230934,0.548388970500666,4.469799314024391,-4.522471750547828,-9.402263500083365,10.73694333287681,-2.105898973418445,-0.7059981183307926,31.537870081459605,-7.156558153105945,-3.642384598894817,29.47960830316311,-4.940126000381097,17.0688163943407,30.80563428925305,13.770945986696994,-3.1040583981990206,0.8856605943659459,-19.05591295278796,15.396775135783756,-13.942700408565791,31.23152724114176,37.58130410039836,42.37358852247881,1577396007.0,-27.685822693812288,-51.13077042055954,1.3403306
57962,1577396010.04,-2.544102042147008,0.3482103536466264,7.4695004135504,-1.5829176683379376,0.7890062373463691,8.031174283506811,-1.1538300147079832,0.7276037240377289,9.112477506460795,-11.749453660918444,-0.4160811261432927,30.713895472084605,-10.299868699980944,-7.853810380144816,30.33410049066311,1.8042587652439028,9.3631279177782,23.08468702362805,13.770945986696994,-2.556283386752136,2.3027175453514714,-20.905160002035004,16.00654840848806,-86.03666349675964,31.063797286368946,37.50941983406716,42.11001287926439,1577396007.0,-27.685822693812288,-51.13077042055954,1.3403306
57963,1577396010.05,-2.8002816197837266,-0.6525659402986851,6.748845713843369,-2.502291105837937,-0.8115175724680829,8.872736167051732,-2.7459741187118905,3.631770337807259,10.626810056509624,-8.026309129668444,3.703791920731707,31.385282190834605,-8.712954637480944,-7.182423661394817,30.76134658441311,-4.726502953506097,0.9555351443407012,28.63888624237805,13.770945986696994,-2.556283386752136,2.3027175453514714,-20.96294897232397,16.15899172666414,-80.2555438151592,31.111720130589752,37.86884116572318,42.61320274358283,1577396007.0,-27.685822693812288,-51.13077042055954,1.3403306
57964,1577396010.06,-2.3142586827720084,0.6019957296231888,9.861307872046494,-1.3602569139434064,-1.5561142887766766,9.605361875059543,0.0624244286513906,5.228702845131479,5.733061863150248,-13.702578660918444,-1.6673018292682926,30.134061487709605,-8.987612840605944,-6.724659989519817,30.15099502191311,-6.771180687881097,3.5190117068407014,31.44650342987805,13.770945986696994,-2.556283386752136,2.3027175453514714,-20.731793091168093,15.24433181760768,-91.137651451113,31.063797286368946,37.62922694461916,42.51735705514122,1577396007.0,-27.685822693812288,-51.13077042055954,1.3403306
57965,1577396010.07,-1.5983923863852896,1.0664708516935013,10.044464299048446,-0.3929994432402814,-0.1339585026438642,10.843164133360329,-1.668583371641577,-0.3737290396341455,11.917284751333842,-6.546206590605945,-5.344669993330792,29.477933558022105,-10.513491746855944,-7.701222489519817,28.80822158441311,-5.947206078506097,6.265593738090701,35.71896436737805,14.678014285221945,-1.9172125400640987,1.3284908915489242,-9.462943884818886,16.00654840848806,-80.59560967878276,31.159642974810552,37.58130410039836,42.46943421092042,1577396007.0,-27.685822693812288,-51.13077042055954,1.3403306
57966,1577396010.08,-3.080403214022008,1.236459169564596,11.723996763648056,-2.4568012742949685,0.2431282588307446,10.065048593809546,-1.5285225745224371,1.3632642648092137,8.500758982290874,-11.810488817168444,2.483088795731707,29.218534143959605,-11.413760301543444,-3.856007645769817,28.48778701410061,-3.444764672256097,1.8558036990282012,30.08847120331555,13.93586749551971,-0.9129583524114792,2.8341139019710444,-9.520732855107855,15.549218453959831,-79.91547795153565,31.111720130589752,37.82091832150238,42.325665678258005,1577396007.0,-27.685822693812288,-51.13077042055954,1.3403306
57967,1577396010.09,-1.8282357457602896,0.6067841329435013,10.536472740210556,-1.946836320681688,-1.541749078815739,8.654863815977516,-1.7140732031845458,-2.0879774283060204,8.04346646520103,-12.420840379668444,6.816584889481708,29.523709925209605,-9.720034715605944,-7.518117020769817,29.72374892816311,-5.336854516006097,11.8197929568407,33.55221632050305,14.10078900434243,-2.191100045787545,-0.53139635661958,-21.020737942612943,15.091888499431604,-25.504939771766697,31.111720130589752,37.86884116572318,42.46943421092042,1577396007.0,-27.685822693812288,-51.13077042055954,1.3403306
57968,1577396010.1,-1.220108524080602,-0.0779575418611851,9.494995018042587,-1.1112599412871564,-1.6016041203196454,7.874354074766577,-2.192913535215796,-5.516474205649771,12.70976550084556,-10.620303270293444,-3.223698313643293,28.180936487709605,-10.299868699980944,-9.318654130144816,28.93029189691311,-10.952088891006095,6.021453113090701,27.17404249237805,14.10078900434243,-2.191100045787545,-0.53139635661958,-20.84737103174604,11.585692181381836,-24.484742180896028,31.111720130589752,37.53338125617755,42.37358852247881,1577396007.0,-27.685822693812288,-51.13077042055954,1.3403306
57969,1577396010.11,-2.3633398168052118,0.2692016988614706,9.339371910132432,-2.304769468875046,0.0216646052662915,9.89625737676853,-0.752801236631812,1.7535191354146813,10.288030521597516,-10.009951707793444,3.871638600419208,28.974393518959605,-9.628481981230944,-5.809132645769817,27.17553115472561,-3.093812523818597,-0.6161201290967988,26.10592725800305,13.853406741108351,-2.464987551510986,0.2656981783097826,-20.41395375457876,15.320553476695718,-23.97464338546069,31.135681552700152,37.60526552250876,42.493395633030815,1577396007.0,-27.685822693812288,-51.13077042055954,1.3403306
57970,1577396010.12,-1.5600851598227896,-0.4825776224275914,9.758357200659775,1.06746356945503,-3.493023431843083,7.690000546934546,-4.400367465879859,-4.266700939048208,11.306763327993998,-15.625186082793444,-4.719059641768292,27.540067347084605,-10.238833543730944,-7.182423661394817,26.76354385003811,-15.865418969131095,0.2841484255907012,27.66232374237805,14.595553530810587,-2.37369171626984,1.7713211887318916,-20.3272702991453,15.396775135783756,-23.46454459002536,31.20756581903136,37.62922694461916,42.2777428340372,1577396007.0,-27.685822693812288,-51.13077042055954,1.3403306
57971,1577396010.13,-2.8816844762290392,-0.9159281229158726,11.156570970191025,-2.179073881716844,-2.116357477253239,11.609308664610328,1.9682089501357651,5.697966370522104,12.348241050161969,-9.979434129668444,-1.7893721417682926,27.662137659584605,-9.262271043730944,-13.652150223894816,25.42077041253811,-5.153749047256097,-8.7490546994093,31.44650342987805,12.616495424937966,-2.37369171626984,0.3542642377463768,-20.3272702991453,17.835868226600986,-23.46454459002536,31.111720130589752,37.53338125617755,42.61320274358283,1577396007.0,-27.685822693812288,-51.13077042055954,1.3403306
57972,1577396010.14,-1.1291288609946646,0.6163609395841264,10.711249461401962,-2.509473710818406,3.2658078547780103,13.943655283262672,-1.342971945860327,-0.5413231558450831,14.412042881216657,-10.101504442168444,-2.674381907393293,27.021268518959605,-11.642642137480944,-9.227101395769816,27.64855361566311,-11.348817406631095,-13.1130683712843,31.38546827362805,12.616495424937966,-2.37369171626984,0.3542642377463768,-21.020737942612943,17.835868226600986,-76.51481931530009,31.20756581903136,37.58130410039836,42.325665678258005,1577396007.0,-27.685822693812288,-51.13077042055954,1.3403306
57973,1577396010.15,-2.004209567781773,3.479826125131002,12.39796453098204,-0.9508484300566876,-0.2967642155344898,9.823234226133764,-0.6690041785263432,0.6737341866842133,11.329508243765485,-5.371279832793444,-3.879826243330793,26.273587854897105,-8.575625535918444,-3.321950028582317,24.59679580316311,-12.691590844131095,-16.8362129025343,26.97567823456555,13.11125995140612,-2.191100045787545,1.23992483211233,-20.50063721001221,20.732291271946444,-78.21514863341787,31.20756581903136,37.62922694461916,42.3017042561476,1577396007.0,-27.685822693812288,-51.13077042055954,1.3403306
57974,1577396010.16,-1.3278475987876333,-2.3596317239900912,8.022560997046494,-2.293995561404344,-1.168253619831364,10.543888925840797,0.8309631615615469,1.318971534096322,11.582096518911968,-20.233340379668444,7.701594655106708,27.784207972084605,-10.696597215605944,-12.278859208269816,26.54992080316311,-17.5133681878811,-20.4678046994093,32.39254835175305,12.286652407292529,-2.7388750572344303,1.4170569509855149,-20.61621515059015,21.34206454465076,-74.8144899971823,31.01587444214814,37.53338125617755,42.66112558780364,1577396007.0,-27.685822693812288,-51.13077042055954,1.3403306
57975,1577396010.17,-1.7875343175376333,-2.2207680277010287,9.492600816382431,-1.8774044725371564,-0.2345149723704266,13.486362766172826,-1.3094531226181396,-1.489427013266958,11.582096518911968,-13.763613817168444,4.222590748856708,26.807645472084605,-9.323306199980944,-8.036915848894816,24.50524306878811,-11.501405297256095,-18.5146796994093,30.04269483612805,13.606024477874277,-2.7388750572344303,0.7085284754927537,-20.385059269434272,20.42740463559429,-20.40395181741336,31.20756581903136,37.53338125617755,42.37358852247881,1577396007.0,-27.685822693812288,-51.13077042055954,1.3403306
57976,1577396010.18,-2.10237183584818,0.2033611532071732,11.040452189673449,-1.135201957888719,-1.7883518498118327,10.661204807188453,-2.3581134497665768,0.0572272591939784,11.517453074087747,-8.987612840605944,-2.796452219893293,26.288846643959605,-7.705874559355945,-3.398243973894817,24.38317275628811,-10.189149437881095,-18.7588203244093,28.57785108612805,13.358642214640197,-2.6475792219932828,0.7970945349293516,-20.905160002035004,19.0554147720096,-15.302963863060016,31.063797286368946,37.58130410039836,42.2777428340372,1577396007.0,-27.685822693812288,-51.13077042055954,1.3403306
57977,1577396010.19,-1.852177762361852,0.7360710225919389,12.36564280856993,-1.6607292222930157,-0.8534161015208178,12.076177988340795,0.3748677453017813,0.7730935555806971,12.120791892447125,-5.859561082793445,-5.817692454268292,25.312284143959605,-7.324404832793445,-10.814015458269816,24.87145400628811,-11.791322289443595,-16.0732734494093,27.47921827362805,12.286652407292529,-2.37369171626984,0.3542642377463768,-18.47802324989825,18.445641499305296,-82.97607072414766,31.111720130589752,37.43753556773595,42.42151136669962,1577396007.0,-27.685822693812288,-51.13077042055954,1.3403306
57978,1577396010.2,-2.2184906163657585,-0.0492271219393101,10.672942234839462,-0.2972313768340314,-2.212125543659489,11.008364047911108,-0.2344565772079833,-0.4120362661966456,10.195853757681498,-6.439395067168445,-3.467838938643293,24.640897425209605,-6.973452684355945,-3.611867020769817,23.49816299066311,-7.076356469131097,-20.2236640744093,28.36422803925305,13.606024477874277,-1.2781416933760694,0.0,-20.789582061457065,-3.81108295440192,-101.6796932234432,31.111720130589752,37.43753556773595,42.46943421092042,1577396007.0,-27.685822693812288,-51.13077042055954,1.3403306
57979,1577396010.21,-2.544102042147008,-2.6780605447908723,9.535696446265243,-0.7736775072051252,-1.8338416813548013,10.10096161871189,0.4694387108779532,-0.6227260122903956,8.608498056997904,-7.873721239043445,2.605159108231707,25.556424768959605,-6.698794481230945,-5.809132645769817,23.55919814691311,-8.602235375381097,-12.5027168087843,26.50265577362805,13.276181460228836,-3.4692417391636146,1.062792713239138,-20.789582061457065,-3.81108295440192,-101.6796932234432,31.20756581903136,37.62922694461916,42.37358852247881,1577396007.0,-27.685822693812288,-51.13077042055954,1.3403306
57980,1577396010.22,-1.73845318350443,0.4547523275235796,11.506124412573838,-1.6475611131621564,0.1964413264576973,12.27729092779392,-0.0764392676376708,0.5839516244283534,6.805664206900248,-5.966372606230945,-3.910343821455792,24.320462854897105,-7.309146043730945,-10.264699052019816,22.97936416253811,-3.292176781631097,0.2536308474657012,26.35006788300305,11.79188788082437,-2.5562833867521357,1.4170569509855149,-20.789582061457065,-4.420856227106227,-100.99956149619612,31.327372929583376,37.58130410039836,42.61320274358283,1577396007.0,-27.685822693812288,-51.13077042055954,1.3403306
57981,1577396010.23,-1.7516212926352897,-0.5137022440096226,8.2739521713629,-0.4911617113066881,-0.8641900089915209,9.442556162168922,-0.4846506506943119,1.8612582101217128,9.541039603628764,-3.112979051543445,0.8046219988567074,24.030545862709605,-3.875918504668445,-6.343190262957317,22.10961318597561,-0.6524062738185973,10.8737480349657,28.85250928925305,13.111259951406115,-2.191100045787545,1.2399248321123264,-20.96294897232397,-4.420856227106227,-88.07705867850098,31.20756581903136,37.653188366729566,42.493395633030815,1577396007.0,-27.685822693812288,-51.13077042055954,1.3403306
57982,1577396010.24,-0.9208333165610708,1.523763368783346,8.79109972995665,-3.227734208865281,0.8763945979420722,11.49917538824314,-2.559226389219703,-9.648866271079456,12.44161491490806,-2.136416551543445,-3.528874094893293,23.908475550209605,-6.729312059355945,-13.591115067644816,23.25402236566311,-8.388612328506097,14.0475761599657,19.91085889862805,13.770945986696994,-2.556283386752136,1.2399248321123264,-20.905160002035004,-4.115969590754073,-112.56180085939702,31.30341150747297,37.43753556773595,42.37358852247881,1577396007.0,-27.685822693812288,-51.13077042055954,1.3403306
57983,1577396010.25,-1.478682303377477,2.986620583138815,13.603445066870712,-2.6746736253691874,0.5412063655201973,13.335528061582984,2.3177623925185777,5.346018726479135,10.279650815786969,-3.540225145293445,-11.860172923018292,21.375516565834605,-3.769106981230945,-6.907765458269817,20.84313369378811,3.726866187118903,4.098845691215701,12.18991163300305,11.626966372001654,-1.643325034340656,1.062792713239138,-9.809677706552709,-2.896423045345459,-68.35323858833475,31.20756581903136,37.38961272351514,42.46943421092042,1577396007.0,-27.685822693812288,-51.13077042055954,1.3403306
57984,1577396010.26,-1.582830075594274,-0.761502115835795,12.036440080298446,-0.896978892703172,-1.5537200871165204,8.871539066221656,-2.5903510108017334,1.90794514249476,12.335072941031108,-8.087344285918444,-1.3468672589557928,21.863797815834605,-3.875918504668445,-3.520314286394817,21.30089736566311,2.323057593368903,4.022551745903201,20.71957471894055,11.626966372001654,-1.643325034340656,1.062792713239138,-20.905160002035004,-4.115969590754073,-93.17804663285432,30.89606733159613,37.67714978883997,42.46943421092042,1577396007.0,-27.685822693812288,-51.13077042055954,1.3403306
57985,1577396010.27,-0.1211699620688833,-0.9039571146150912,10.847718956030867,-0.9460600267363752,-0.0405846378977704,9.5311416235947,1.5372526513076403,4.546355371986947,7.7585564676424355,-3.814883348418445,3.001887623856707,22.840360315834605,-4.287905809355945,-6.938283036394817,21.45348525628811,8.701231421493903,7.638884753715701,23.32882764862805,11.626966372001654,-3.1040583981990206,1.7713211887318916,-20.558426180301183,-1.3719898635846908,-90.11745386024232,31.20756581903136,37.58130410039836,42.61320274358283,1577396007.0,-27.685822693812288,-51.13077042055954,1.3403306
57986,1577396010.28,0.783838265470179,0.1135785909513139,8.738427293433212,1.754599445919874,-0.6846248844798016,9.140886752989232,-2.9470870581650157,-0.4335840811380518,10.159940732779154,3.1736420422065548,-1.5757490948932926,21.650174768959605,-1.8770171374809448,0.7826642292301829,20.93468642816311,5.069639624618903,6.875945300590701,29.43234327362805,11.132201845533496,-2.191100045787545,2.6569817830978484,-21.020737942612943,-4.115969590754073,-69.71350204282896,31.39925719591458,37.62922694461916,42.46943421092042,1577396007.0,-27.685822693812288,-51.13077042055954,1.3403306
57987,1577396010.29,-1.4224185643638052,0.9228187520841268,10.735191478003523,0.1576669385956551,-0.3111294254954267,8.487269699766577,-3.270304282286109,-4.743147069419302,10.394572495474469,1.5562104015815543,2.452571217606708,20.978788050209605,-3.280825731230945,-1.9944353801448167,20.41588760003811,-0.8507705316310974,8.4933769412157,22.50485303925305,10.80235882788806,-1.4607333638583646,1.9484533076050947,-21.020737942612943,-4.115969590754073,-69.71350204282896,31.111720130589752,37.62922694461916,42.46943421092042,1577396007.0,-27.685822693812288,-51.13077042055954,1.3403306
57988,1577396010.3,-0.9950535680259146,1.0736534566739702,9.22684443210509,-2.050984092898484,0.1653167048756665,8.907452091124,-1.6051370276474364,-0.1654334952005523,8.85390372716392,-7.629580614043445,3.551204030106707,20.704129847084605,-2.868838426543445,-3.825490067644817,20.29381728753811,1.3464950933689028,11.4688408084032,18.33920362519055,10.80235882788806,-1.4607333638583646,1.9484533076050947,-11.196612993487996,-3.81108295440192,-95.5585076782192,31.063797286368946,37.53338125617756,42.2298199898164,1577396007.0,-27.685822693812288,-51.13077042055954,1.3403306
57989,1577396010.31,-1.1003984410727896,-0.0923227518221226,8.927569224585557,-0.955636833377,0.6728874568287909,11.53030000982517,-2.6047162207626715,-3.328173888266958,11.57970231725181,0.5491303234565549,2.605159108231707,20.795682581459605,-3.769106981230945,0.5385236042301829,19.68346572503811,-2.559754906631097,10.7211601443407,20.52121046112805,14.265710513165148,-3.4692417391636146,1.062792713239138,-12.641337250712253,-3.353752999873689,-89.77738799661877,31.111720130589752,37.62922694461916,42.37358852247881,1577396007.0,-27.685822693812288,-51.13077042055954,1.3403306
57990,1577396010.32,-1.7923227208579458,0.4966508565763138,11.0703797104254,-2.6842504320098124,0.7638671199147284,11.738595554258763,-0.3996564917587645,2.43706370938929,9.441680234732278,-3.784365770293445,-2.826969798018293,20.276883753334605,-0.9920073718559452,-3.245656083269817,21.39245010003811,9.769346655868905,13.3151542849657,17.86618116425305,11.791887880824373,-4.0170167506105,0.1771321188731884,-12.641337250712253,-3.353752999873689,-89.77738799661877,31.111720130589752,37.725072633060776,42.46943421092042,1577396007.0,-27.685822693812288,-51.13077042055954,1.3403306
57991,1577396010.33,-1.112369449373571,1.050908540902486,10.728008873023056,-0.8407151536895001,-0.3350714420969892,9.533535825254855,0.0552418236709219,5.77697502530726,10.727366526236183,1.0221527843940548,3.383357350419208,21.283963831459605,-1.6023589343559452,-2.299611161394817,20.62951064691311,9.403135718368905,21.7380058474657,22.38278272675305,12.451573916115247,-3.286650068681319,0.8856605943659495,-9.75188873626374,-3.963526272577997,-69.37343617920541,31.135681552700152,37.62922694461916,42.37358852247881,1577396007.0,-27.685822693812288,-51.13077042055954,1.3403306
57992,1577396010.34,-1.1746186925376334,1.5740416036466274,10.943487022437118,-1.509894517703172,1.853228875285822,10.664796109678688,0.233609847352563,-2.639840910972036,7.883054953970561,-4.059023973418445,-1.3316084698932926,20.856717737709605,-3.357119676543445,-0.8652849895198171,20.44640517816311,6.473448218368904,31.0763847537157,17.51522901581555,12.451573916115247,-3.286650068681319,0.8856605943659495,-16.686565170940177,-4.115969590754074,-47.269155043674274,31.30341150747297,37.653188366729566,42.42151136669962,1577396007.0,-27.685822693812288,-51.13077042055954,1.3403306
57993,1577396010.35,-0.5162132359946646,-0.4562414041658726,10.244380137671492,0.6532666822479989,-0.5050597599680829,6.701195261290015,-2.7675219336532964,2.3843912728658534,8.946080491079934,-3.448672410918445,2.910334889481707,21.039823206459605,-1.7854644031059452,2.461131026105183,21.30089736566311,11.691954077743905,38.5226738162157,16.43185499237805,12.121730898469808,-1.0955500228937742,0.1771321188731884,-20.385059269434272,20.42740463559429,-14.96289799943646,30.872105909485725,37.58130410039836,42.46943421092042,1577396007.0,-27.685822693812288,-51.13077042055954,1.3403306
57994,1577396010.36,-0.8130942418540397,0.7288884176114702,6.231698155249619,-0.6635442308379377,-0.2704279972727704,7.256650046446265,-0.6486534644150146,1.074762964760385,9.515900486197122,-1.7396880359184452,4.527766530106708,20.856717737709605,-3.860659715605945,-1.6892595988948171,21.20934463128811,6.168272437118903,32.9989921755907,15.97409132050305,11.462044863178935,-2.191100045787545,-0.1771321188731884,-19.113701923076928,21.0371779082986,-14.96289799943646,31.111720130589752,37.53338125617755,42.37358852247881,1577396007.0,-27.685822693812288,-51.13077042055954,1.3403306
57995,1577396010.37,-0.9842796605552114,0.2632161947110795,8.710893974341415,-1.6188306932402814,0.4538180049244941,8.152081467344702,-2.7124552954697023,-1.3912647452005518,11.145154715933453,-1.8312407702934448,6.053645436356707,20.933011683022105,-3.647036668730945,-2.818409989519817,20.67528701410061,4.535582007431403,20.9292900271532,18.12558057831555,12.20419165288117,-1.0042541876526268,0.6199624160561631,-19.34485780423281,20.57984795377037,-18.703622499295577,31.15964297481056,37.50941983406715,42.34962710036841,1577396007.0,-27.685822693812288,-51.13077042055954,1.3403306
57996,1577396010.38,-1.8856965856040395,1.0018274068692827,8.393662254370712,-1.6834741380645,0.7686555232350409,9.140886752989232,-0.5121839697861084,-0.330633409751333,9.365065781607278,-2.258486864043445,1.1403153582317074,20.765165003334605,-1.8464995593559448,-0.8042498332698171,20.99572158441311,4.856016577743903,6.723357409965701,17.04220655487805,12.616495424937966,-0.9129583524114792,0.3542642377463768,-19.17149089336589,20.274961317418214,-24.824808044519585,31.063797286368946,37.58130410039836,42.46943421092042,1577396007.0,-27.685822693812288,-51.13077042055954,1.3403306
57997,1577396010.39,-1.459528690096227,0.2692016988614701,9.317824095191028,-1.0753469163848126,0.7566845149342597,9.842387839415014,1.2571310570693592,8.003582569252572,7.610115964712748,-4.699893114043445,0.7130692644817074,20.521024378334605,-3.830142137480945,0.1417950886051829,21.72814345941311,8.151915015243903,8.6154472537157,16.27926710175305,11.462044863178935,-0.7303666819291804,1.9484533076050947,-19.17149089336589,16.311435044840216,-24.824808044519585,31.20756581903136,37.725072633060776,42.46943421092042,1577396007.0,-27.685822693812288,-51.13077042055954,1.3403306
57998,1577396010.4,-0.8609782750571646,1.1167490865567826,9.293882078589464,-1.374622123904344,-0.0022774113352704,10.258978928282202,-2.8225885718368904,2.4897361459127283,11.890948533072123,3.9976166515815534,3.917414967606707,20.948270472084605,-2.945132371855945,-1.5366717082698171,21.60607314691311,-1.0949111566310974,4.617644519340701,23.63400342987805,12.946338442583398,-2.0085083753052464,1.062792713239138,-19.51822471509972,16.616321681192368,-79.23534622428853,31.25548866325217,37.58130410039836,42.37358852247881,1577396007.0,-27.685822693812288,-51.13077042055954,1.3403306
57999,1577396010.41,-1.6247286046470084,-0.5005341348787632,10.480209001196885,-1.228575822634813,-0.774407446735661,8.478889993956031,-0.1111551917099369,-0.7137056753763336,8.664761796011577,-5.218691942168444,5.733210866044208,21.207669886147105,-2.975649949980945,0.8284405964176829,20.94994521722561,0.0647568121189028,13.2236015505907,21.61984327362805,11.95680938964709,-2.556283386752135,1.0627927132391344,-19.373752289377293,16.69254334028041,-82.12590606508877,31.135681552700152,37.58130410039836,42.49339563303082,1577396007.0,-27.685822693812288,-51.13077042055954,1.3403306
58000,1577396010.42,-1.651064822908727,0.0968191793302201,7.826236460913681,-1.9971145555449688,2.071101226360041,12.22701269293064,-0.9742648901962644,-0.4958333243021143,10.887778037466656,-1.0377837390434452,2.940852467606707,21.589139612709605,-3.341860887480945,-3.733937333269817,21.63659072503811,-0.6981826410060974,1.6879570193407012,18.56808546112805,11.95680938964709,-2.37369171626984,0.7085284754927537,-19.46043574481075,15.85410509031199,-79.57541208791208,31.111720130589752,37.725072633060776,42.37358852247881,1577396007.0,-27.685822693812288,-51.13077042055954,1.3403306
58001,1577396010.43,-1.938369022127477,1.7488183248380336,10.064815013159777,-3.294771855349656,0.7135888850514472,9.286933054258764,1.2092470238662345,2.0539914437642905,6.712290342154154,1.6172455578315548,2.269465748856707,21.467069300209605,-2.365298387480945,0.5690411823551829,21.23986220941311,2.689268530868903,1.9320976443407007,17.34738233612805,11.95680938964709,-2.0085083753052464,2.125585426478283,-19.46043574481075,18.293198181129217,-79.57541208791208,31.20756581903136,37.62922694461916,42.66112558780364,1577396007.0,-27.685822693812288,-51.13077042055954,1.3403306
58002,1577396010.44,-1.6534590245688834,-0.3724443460604043,9.34775161594298,-1.9923261522246565,-1.7308910099680828,7.299745676329078,-0.5026071631454833,7.088997535072885,9.479987461294778,-2.136416551543445,3.871638600419208,21.589139612709605,-0.2901030749809451,1.1183575886051829,21.20934463128811,1.8042587652439024,0.2536308474657012,19.97189405487805,12.698956179349324,-2.464987551510988,0.9742266538025436,-10.676512260887264,17.0736516357206,-79.57541208791208,31.135681552700152,37.725072633060776,42.18189714559559,1577396007.0,-27.685822693812288,-51.13077042055954,1.3403306
58003,1577396010.45,-1.756409695955602,0.9467607686856888,8.66420704196837,-1.4392655687285625,0.2323543513600415,8.956533225157202,-2.531693070127905,1.4686091378560882,7.546669620718608,-0.6410552234184451,6.267268483231708,21.375516565834605,-4.669375535918445,-3.413502762957317,22.33849502191311,1.3617538824314028,8.9816581912157,27.67758253144055,11.626966372001654,-2.0085083753052464,0.7085284754927537,-15.906414072039071,16.69254334028041,-53.2203076570865,31.20756581903136,37.62922694461916,42.34962710036841,1577396007.0,-27.685822693812288,-51.13077042055954,1.3403306
58004,1577396010.46,-1.84738935904154,3.7791013326505336,8.738427293433212,-2.044998588748094,1.7143651789967596,7.776191806700171,0.8285689599013907,-3.522104222739614,4.758621787466654,4.089169385956555,1.3844559832317074,21.772245081459605,-0.6563140124809451,0.0807599323551829,20.93468642816311,-0.4235244378810974,23.3859550662157,19.39206007050305,11.626966372001654,-2.0085083753052464,0.7085284754927537,-21.020737942612943,9.60392904509284,-25.504939771766697,30.92002875370653,37.772995477281576,42.46943421092042,1577396007.0,-27.685822693812288,-51.13077042055954,1.3403306
58005,1577396010.47,-1.3302418004477896,1.3585634542325649,6.253245970191025,-1.6715031297637188,-0.4954829533274579,5.547190061094702,-2.870472605040016,2.784222950111947,5.869531357779154,4.302792432831555,3.673274342606707,20.337918909584605,-2.914614793730945,5.940134932355183,19.34777236566311,10.776426733993905,31.5036308474657,20.03292921112805,12.616495424937966,-3.4692417391636146,1.4170569509855149,-21.020737942612943,18.14075486295314,-26.185071499013805,31.063797286368946,37.58130410039836,42.37358852247881,1577396007.0,-27.685822693812288,-51.13077042055954,1.3403306
58006,1577396010.48,-2.013786374422399,-0.1042937601229038,8.194943516577744,-3.1391487474395,0.0168762019459785,5.307769895079078,-2.571197397520484,-5.502108995688833,7.7394028543611855,-3.906436082793445,6.267268483231708,21.146634729897105,-2.548403856230945,-4.069630692644817,21.88073135003811,6.809141577743903,32.9684745974657,12.95285108612805,11.544505617590294,-1.7346208695818035,0.97422665380254,-21.020737942612943,18.75052813565745,-25.504939771766697,31.13568155270016,37.58130410039836,42.2777428340372,1577396007.0,-27.685822693812288,-51.13077042055954,1.3403306
58007,1577396010.49,0.0081169275795531,0.0968191793302201,7.605969908179306,-1.0394338914824692,0.8045685481373852,9.27735624761814,-0.5349288855575927,7.1668090890279625,9.76609455968345,-0.1527739734184451,-1.7283369855182926,20.459989222084605,-2.411074754668445,0.7674054401676829,20.69054580316311,13.797666968368905,27.9788505740282,13.21225050019055,11.132201845533496,-2.921466727716725,0.5313963566195653,-20.385059269434272,18.293198181129213,-21.084083544660466,31.30341150747297,37.58130410039836,42.2777428340372,1577396007.0,-27.685822693812288,-51.13077042055954,1.3403306
58008,1577396010.5,-0.7005667638266959,0.9204245504239702,8.59956359714415,0.9501476881073738,-1.5273838688548016,6.626975009825172,-3.464234616758765,-3.816591026938833,11.922073154654154,3.2041596203315548,0.1637528582317073,19.727567347084605,-2.212710496855945,1.4540509479801829,20.69054580316311,-0.3930068597560974,13.8339531130907,22.32174757050305,11.132201845533496,-2.921466727716725,0.5313963566195653,-20.09611441798942,17.53098159024883,-26.185071499013805,31.01587444214814,37.58130410039836,42.37358852247881,1577396007.0,-27.685822693812288,-51.13077042055954,1.3403306
58009,1577396010.51,-2.127510953279821,0.6570623678067827,9.75596299899962,-2.344273796267625,0.404736870891291,10.201518088438451,-4.199254526426734,-1.7408181875833642,9.278874521841653,-2.289004442168445,13.133723561356708,20.246366175209605,-5.722231981230945,-4.100148270769817,21.42296767816311,-4.146668969131097,4.526091784965701,18.35446241425305,11.297123354356218,-2.37369171626984,1.4170569509855149,-19.98053647741148,17.53098159024883,-85.35653176951254,31.01587444214814,37.53338125617755,42.37358852247881,1577396007.0,-27.685822693812288,-51.13077042055954,1.3403306
58010,1577396010.52,-2.151452969881383,1.1323113973477987,8.302682591284775,-2.135978251834031,0.7243627925221509,10.176378971006812,-0.9754619910263436,4.619378522621713,10.319155143179543,-3.204531785918445,6.297786061356708,19.391873987709605,-2.212710496855945,2.552683760480183,19.13414931878811,2.384092749618903,4.373503894340701,21.40622022675305,12.698956179349322,-3.0127625629578727,1.682755129295305,-20.789582061457065,17.53098159024883,-75.15455586080586,31.135681552700152,37.43753556773595,42.42151136669961,1577396007.0,-27.685822693812288,-51.13077042055954,1.3403306
58011,1577396010.53,-1.8928791905845084,0.6091783346036577,10.122275853003526,-1.9731725389434065,-0.1291700993235517,8.611768186094702,-1.924762949278296,-2.693710448325552,9.013118137564309,-3.143496629668445,-6.061833079268292,17.774442347084605,-1.8464995593559448,1.2709454792301829,19.16466689691311,-2.132508812881097,0.1925956912157012,17.83566358612805,12.121730898469808,-2.556283386752136,-0.1771321188731884,-20.905160002035004,18.14075486295314,-75.15455586080586,31.20756581903136,37.725072633060776,42.46943421092042,1577396007.0,-27.685822693812288,-51.13077042055954,1.3403306
58012,1577396010.54,-0.8657666783774771,0.0082337179044389,7.9674943588629,-1.8007900194121562,-0.7660277409251142,6.524024338438452,1.592319289491234,1.6996495980611657,9.25493250524009,1.6477631359565548,5.778987233231708,19.483426722084605,-0.3206206531059451,-0.071827958269817,19.68346572503811,2.048399390243903,0.7113945193407012,18.32394483612805,12.121730898469808,-2.556283386752136,-0.1771321188731884,-20.905160002035004,19.970074681066063,-17.343359044801353,31.25548866325217,37.62922694461916,42.46943421092042,1577396007.0,-27.685822693812288,-51.13077042055954,1.3403306
58013,1577396010.55,-1.3039055821860708,0.1303380025724076,7.076851341284775,-0.9101470018340314,0.845269976360041,10.237431113340795,-3.14819999761814,-1.2045170157083642,9.58772653600181,3.1126068859565548,9.990413014481708,19.666532190834605,-2.060122606230945,-0.193898270769817,21.23986220941311,0.8276962652439026,-1.5469062619092988,19.75827100800305,12.121730898469808,-2.556283386752136,-0.1771321188731884,-21.020737942612943,19.970074681066063,-72.43402895181741,31.111720130589752,37.86884116572318,42.325665678258005,1577396007.0,-27.685822693812288,-51.13077042055954,1.3403306
58014,1577396010.56,-2.4447426732505235,0.669033376107564,8.361340531958604,-2.068940605349656,-0.3386627445872235,9.552689438536108,-1.676963077452124,1.1896846444478846,9.529068595327985,-1.526064989043445,5.611140553544208,18.995145472084605,1.4188813000190548,0.8894757526676829,18.44750381097561,-1.0033584222560974,-6.4144599728468,19.43783643769055,11.462044863178932,-2.37369171626984,1.9484533076050876,-20.905160002035004,19.20785809018568,-86.03666349675964,31.063797286368946,37.74903405517117,42.49339563303082,1577396007.0,-27.685822693812288,-51.13077042055954,1.3403306
58015,1577396010.57,-1.181801297518102,0.4679204366544389,8.831801158179307,-0.6084775926543439,-1.3238767277415204,9.679582126524387,-2.317412021543921,1.8600611092916344,11.869400718130716,0.9763764172065548,-3.589909251143293,17.682889612709605,-0.5037261218559451,0.5080060261051829,19.13414931878811,-0.9728408441310974,-13.3266914181593,20.55172803925305,11.462044863178935,-2.191100045787545,0.8856605943659495,-20.674004120879125,20.274961317418214,-90.79758558748944,31.063797286368946,37.58130410039836,42.2777428340372,1577396007.0,-27.685822693812288,-51.13077042055954,1.3403306
58016,1577396010.58,-1.3661548253501334,0.0034453145841264,10.747162486304306,-2.155131865115281,0.222777544719416,12.962032602598608,-0.586404221250952,-2.933130614341177,13.262826084341654,1.8919037609565548,0.4689286394817073,17.804959925209605,0.0455902843940548,-1.8418474895198167,17.85241103753811,-8.297059594131097,-20.1321113400343,19.81930616425305,10.142672792597187,-1.825916704822951,1.5941890698587031,-20.905160002035004,19.970074681066063,-97.59890285996056,31.30341150747297,37.58130410039836,42.51735705514122,1577396007.0,-27.685822693812288,-51.13077042055954,1.3403306
58017,1577396010.59,-1.75760679678568,0.7217058126310014,11.732376469458602,-1.9803551439238751,0.8069627497975409,14.04660595464939,-1.5416906836532958,0.9837833016744472,12.513440964712748,1.6630219250190548,5.244929616044207,18.293241175209605,2.1513031750190548,2.644236494855183,18.46276260003811,-1.6747451410060974,-28.2803046994093,16.73703077362805,10.719898073476704,-2.464987551510986,2.0370193670416814,-20.789582061457065,21.799394499178984,-103.03995667793744,31.08775870847935,37.62922694461916,42.325665678258005,1577396007.0,-27.685822693812288,-51.13077042055954,1.3403306
58018,1577396010.6,-1.8258415441001328,-2.44342878209556,11.544431639136338,-0.8909933885527813,-1.6542765568430828,11.478824674131811,-0.6558360693954839,3.393547272621713,12.858206003775248,-2.472109910918445,1.842219655106708,17.255643518959605,2.2581146984565548,2.842600752667683,18.24913955316311,-3.017518578506097,-31.7745673947218,21.61984327362805,11.95680938964709,-2.37369171626984,0.3542642377463768,-20.78958206145706,-4.115969590754073,-69.71350204282896,31.20756581903136,37.60526552250876,42.445472788810015,1577396007.0,-27.685822693812288,-51.13077042055954,1.3403306
58019,1577396010.61,-1.354183817049352,0.2117408590177201,9.571609471167587,-3.1367545457793438,0.5747251887623848,12.193493869688451,-2.1402410986923583,-1.7264529776224269,10.229372580923686,0.4270600109565549,10.997493092606708,18.445829065834605,1.5714691906440548,-3.550831864519817,20.01915908441311,-6.862733422256097,-37.5576484494093,21.00949171112805,11.297123354356218,-1.643325034340656,1.4170569509855149,-20.905160002035004,22.71405440823544,-94.198244223725,31.01587444214814,37.725072633060776,42.46943421092042,1577396007.0,-27.685822693812288,-51.13077042055954,1.3403306
58020,1577396010.62,-1.9072444005454456,2.644249745736471,11.0703797104254,-0.8957817918730938,1.965756353313166,11.475233371641576,2.0998900414443598,0.3158010384908534,10.511888376822125,6.347470167206555,3.368098561356707,16.858915003334605,2.0902680187690548,2.735789229230183,16.50963760003811,-1.6747451410060974,-26.5713203244093,21.40622022675305,11.297123354356218,-1.643325034340656,0.3542642377463768,-20.905160002035004,22.71405440823544,-94.198244223725,31.111720130589752,37.725072633060776,42.66112558780364,1577396007.0,-27.685822693812288,-51.13077042055954,1.3403306
58021,1577396010.63,-1.3565780187095082,0.4200364034513139,8.818633049048447,0.8400144117401863,-1.9104561344798012,8.312492978575172,1.4917628197646715,7.914997107826791,4.057120701040874,4.852108839081555,0.3773759051067076,17.087796839272105,2.8226898937690548,2.918894697980183,17.27257705316311,-0.1488662347560974,-20.6203925900343,24.51901319550305,11.626966372001654,-2.373691716269838,0.8856605943659458,-20.905160002035004,-4.115969590754073,-69.71350204282896,31.20756581903136,37.772995477281576,42.46943421092042,1577396007.0,-27.685822693812288,-51.13077042055954,1.3403306
58022,1577396010.64,-2.618322293611852,1.511792360482565,10.081574424780868,-3.7784005907012186,0.2275659480397285,10.066245694639624,-0.7743490515732177,-5.972569621909536,5.651659006704936,0.4880951672065549,3.978450123856707,17.103055628334605,3.1126068859565548,-6.358449052019816,17.42516494378811,1.9568466558689028,5.1059257693407005,19.52938917206555,10.637437319065342,-2.0085083753052464,1.4170569509855149,-21.020737942612943,10.213702317797146,-69.03337031558186,31.20756581903136,37.55734267828796,42.42151136669962,1577396007.0,-27.685822693812288,-51.13077042055954,1.3403306
58023,1577396010.65,-1.133917264314977,-0.71960358678306,9.107134349097276,0.64608407726753,-2.3031052067454265,6.279815769102515,0.0193287987685781,7.737826184975228,12.003476011099467,-0.5189849109184451,-3.467838938643293,16.462186487709605,2.9752777843940548,3.956492354230183,15.31945205316311,15.964415015243905,13.8034355349657,14.32614210175305,9.977751283774465,-2.0085083753052464,0.7085284754927537,-10.734301231176234,-3.81108295440192,-96.91877113271345,31.20756581903136,37.43753556773595,42.37358852247881,1577396007.0,-27.685822693812288,-51.13077042055954,1.3403306
58024,1577396010.66,-0.4826944127524771,-0.3054066995760288,8.879685191382432,-1.0274628831816877,2.171657696086603,10.92456698980564,1.1996702172256093,3.773028235756478,12.776803147329936,7.476620557831555,-6.183903391768292,15.882352503334603,-2.121157762480945,-4.466359208269817,17.97448135003811,10.593321265243905,9.9887382693407,19.48361280487805,10.472515810242625,-1.825916704822951,1.9484533076050947,-12.58354828042328,-4.420856227106227,-82.6360048605241,31.20756581903136,37.725072633060776,42.46943421092042,1577396007.0,-27.685822693812288,-51.13077042055954,1.3403306
58025,1577396010.67,-1.6618387303794302,3.228434950814596,11.80420251926329,-3.535389122195359,1.1014495539967606,12.03547656011814,-2.8812465125107183,-7.468945659507193,10.204233463492043,5.233578565644056,3.841121022294207,16.660550745522105,2.3496674328315548,-1.4451189738948171,16.49437881097561,-2.6970840081935963,4.068328113090701,8.48202589081555,10.554976564653984,-2.099804210546395,1.8598872481684927,-11.485557844932847,5.640402772514843,-16.323161453930684,31.08775870847935,37.70111121095037,42.2777428340372,1577396007.0,-27.685822693812288,-51.13077042055954,1.3403306
58026,1577396010.68,-2.117934146639196,-0.73875720006431,10.021719383276965,-2.7417112718535623,-1.934398151081364,7.510435422422828,-1.9870121924423585,11.309975061928354,9.707436619009622,-3.967471239043445,-0.2024580792682926,15.912870081459603,3.0668305187690548,-1.4146013957698171,17.79137588128811,9.952452124618905,1.4438163943407012,9.44332960175305,10.142672792597187,-4.0170167506105,2.6569817830978484,-10.04083358770859,16.00654840848806,-12.582436954071568,31.25548866325217,37.58130410039836,42.66112558780364,1577396007.0,-27.685822693812288,-51.13077042055954,1.3403306
58027,1577396010.69,-1.5289605382407585,-1.840089963736185,11.700054747046494,-0.6898804490996564,-1.3166941227610516,9.5311416235947,2.4542318871474844,11.563760437904916,9.685888804068217,-0.3969145984184451,-0.3245283917682927,15.729764612709603,-1.9990874499809448,-3.367726395769817,15.19738174066311,9.464170874618905,-0.9060371212842988,23.20675733612805,11.462044863178935,-1.825916704822951,0.1771321188731884,-10.04083358770859,16.00654840848806,-12.582436954071568,31.063797286368946,37.725072633060776,42.37358852247881,1577396007.0,-27.685822693812288,-51.13077042055954,1.3403306
58028,1577396010.7,-0.1810250035727896,-0.6741137552400913,9.676954344214463,-0.2254053270293438,0.3999484675709785,9.440161960508764,-5.585497287657202,-10.34318475252477,10.447244931997904,-0.2443267077934451,0.1332352801067073,16.980985315834605,-1.0835601062309452,-0.9873553020198172,15.74669814691311,-5.397889672256097,-1.0281074337842988,26.04489210175305,10.637437319065342,-2.37369171626984,1.7713211887318916,-20.558426180301183,17.53098159024883,-15.302963863060016,31.063797286368946,37.58130410039836,42.51735705514122,1577396007.0,-27.685822693812288,-51.13077042055954,1.3403306
58029,1577396010.71,-1.0872303319419303,3.738399904427877,10.437113371314071,-1.4249003587676248,0.8835772029225409,7.121377652647437,-0.8653287146591552,-0.4323869803079745,8.000370835318217,9.734921339081556,-0.1414229230182928,15.806058558022103,1.1899994640815548,1.3777570026676829,15.945062404725611,2.887632788681403,5.456877917778201,17.56100538300305,10.96728033671078,-2.008508375305248,1.7713211887318916,-20.789582061457065,16.311435044840216,-22.10428113553113,31.01587444214814,37.70111121095037,42.3017042561476,1577396007.0,-27.685822693812288,-51.13077042055954,1.3403306
58030,1577396010.72,-2.1011747350181023,1.0114042135099075,7.361761338843369,-2.365821611209032,-0.5529437931712079,9.272567844297829,-2.2599511817001705,2.8368953866353843,13.46393902379478,3.3872650890815548,6.938655201981708,15.180448206459603,2.7006195812690548,-7.945363114519817,15.31945205316311,4.611875952743903,-2.7065742306592986,16.70651319550305,11.132201845533496,-2.556283386752136,1.2399248321123264,-20.3272702991453,16.311435044840216,-13.942700408565791,31.111720130589752,37.58130410039836,42.51735705514122,1577396007.0,-27.685822693812288,-51.13077042055954,1.3403306
58031,1577396010.73,-1.9072444005454456,-0.7124209818025913,8.736033091773056,-3.1199951341582497,3.3927005427662915,13.879011838438451,0.3545170311904532,-5.375216307700552,10.047413254751811,-9.399600145293444,1.5370438738567074,14.539579065834603,-3.219790574980945,-1.2620135051448171,14.55651260003811,-1.3695693597560974,-10.9463203244093,10.35885694550305,10.637437319065342,-0.9129583524114792,0.0,-20.3272702991453,16.311435044840216,-13.942700408565791,30.92002875370653,37.725072633060776,42.37358852247881,1577396007.0,-27.685822693812288,-51.13077042055954,1.3403306
58032,1577396010.74,-2.3082731786216173,2.232447060189596,11.733573570288682,-0.8838107835723126,2.38474164384051,12.665151596739234,0.996163076112328,-0.6131492056497706,7.162400254263529,-2.670474168730945,2.513606373856708,15.500882776772103,-1.5413237781059452,7.649119307355183,14.61754775628811,2.139952124618903,0.8639824099657012,7.520722179878049,10.472515810242625,-1.4607333638583646,1.5941890698587031,-19.17149089336589,18.75052813565745,-19.38375422654269,31.111720130589752,37.725072633060776,43.14035403001168,1577396007.0,-27.685822693812288,-51.13077042055954,1.3403306
58033,1577396010.75,-1.7468328893149772,1.0018274068692827,11.496547605933213,-1.4679959886504377,-0.4296424076731611,9.210318601133764,-2.540072775938452,6.760991907631478,8.337953269400249,-2.441592332793445,-5.970280344893292,13.959745081459603,-2.060122606230945,0.2486066120426828,15.838250881288111,-0.8507705316310972,11.5756523318407,18.53756788300305,10.472515810242625,-1.4607333638583646,1.5941890698587031,-19.633802655677652,16.616321681192375,-55.77080163426317,31.20756581903136,37.653188366729566,42.46943421092042,1577396007.0,-27.685822693812288,-51.13077042055954,1.3403306
58034,1577396010.76,-0.930410123201696,0.3506045553067826,9.325006700171494,-0.9628194383574687,1.161304595500666,9.926184897520484,0.6059082055068594,-0.4192188711771143,10.186276951040874,2.4717377453315548,6.236750905106708,15.729764612709603,-0.1985503406059451,0.2943829792301829,14.12926650628811,1.5296005621189026,12.3385917849657,17.77462842987805,10.967280336710775,-2.0085083753052464,1.062792713239138,-20.09611441798942,17.53098159024883,-91.47771731473654,31.111720130589752,37.58130410039836,42.46943421092042,1577396007.0,-27.685822693812288,-51.13077042055954,1.3403306
58035,1577396010.77,-0.4348103795493521,2.570029494271627,7.943552342261338,0.1840031568573738,0.6633106501881659,7.326081894590796,2.4374724755263903,-1.0848069327005518,6.092192112173686,5.065731885956555,6.480891530106708,14.417508753334603,-2.762026903105945,6.214793135480183,14.00719619378811,2.780821265243903,10.8737480349657,12.80026319550305,11.626966372001654,-1.2781416933760694,1.062792713239138,-20.09611441798942,17.53098159024883,-91.47771731473654,31.111720130589752,37.62922694461916,42.2777428340372,1577396007.0,-27.685822693812288,-51.13077042055954,1.3403306
58036,1577396010.78,-1.1446911717856805,0.3865175802091268,8.491824522437119,-0.1272430589629376,0.4861397273366035,8.362771213438453,-3.4594462134384525,4.941398645912728,11.706595005240091,-2.166934129668445,5.183894459794208,14.600614222084603,-2.182192918730945,1.5761212604801829,14.37340713128811,9.403135718368905,9.6225273318407,12.22042921112805,10.307594301419906,-2.7388750572344303,2.125585426478283,-21.020737942612943,17.53098159024883,-90.11745386024232,31.15964297481056,37.91676400994399,42.2777428340372,1577396007.0,-27.685822693812288,-51.13077042055954,1.3403306
58037,1577396010.79,-1.4140388585532584,1.9403544576505336,9.365708128394152,-2.2664622423125467,0.443044097453791,10.251796323301734,-0.6247114478134529,-1.8006732290872705,9.10888620397056,1.7698334484565548,5.656916920731708,14.631131800209603,-3.036685106230945,0.6605939167301829,15.51781631097561,-0.4387832269435971,6.616545886528201,11.28964307831555,10.307594301419906,-2.7388750572344303,2.125585426478283,-10.849879171754177,15.701661772135914,-56.11086749788673,31.20756581903136,37.74903405517118,42.54131847725163,1577396007.0,-27.685822693812288,-51.13077042055954,1.3403306
58038,1577396010.8,-3.061249600740758,2.953101759896627,10.8405363510504,-2.2125927049590315,0.0072993953053535,11.324398667051732,0.4215546776748282,6.440168885170541,10.75609694615806,1.6782807140815548,6.419856373856708,14.173368128334603,-1.9685698718559448,-0.8347674113948171,13.03063369378811,4.276182593368903,5.227996081840701,10.41989210175305,10.142672792597187,-1.4607333638583646,1.5941890698587031,-20.96294897232397,15.396775135783756,-26.185071499013805,31.20756581903136,37.725072633060776,42.46943421092042,1577396007.0,-27.685822693812288,-51.13077042055954,1.3403306
58039,1577396010.81,-2.096386331697789,0.5229870748380326,7.720891587866807,-2.873392363162156,1.5659246760670722,11.051459677793922,0.0696070336318594,5.54713166593226,12.52541197301353,-8.606143114043444,3.368098561356707,14.386991175209603,-4.776187059355945,-0.8958025676448171,14.28185439691311,3.604795874618903,-0.7839668087842988,14.87545850800305,10.472515810242625,-1.825916704822951,0.1771321188731884,-20.96294897232397,15.24433181760768,-25.84500563539025,30.92002875370653,37.58130410039836,42.2777428340372,1577396007.0,-27.685822693812288,-51.13077042055954,1.3403306
58040,1577396010.82,-2.122722549959508,1.2819490011075645,9.874475981177351,-2.199424595828172,0.5579657771412915,9.100185324766578,-1.31543862676853,-0.2157117300638336,9.588923636831888,-3.280825731230945,2.055842701981707,13.898709925209603,-2.639956590605945,0.7826642292301829,13.68676162347561,-4.894349633193596,-8.4286201290968,13.31906202362805,10.307594301419906,-1.6433250343406596,1.062792713239138,-20.558426180301183,15.396775135783756,-26.185071499013805,31.11172013058975,37.58130410039836,42.397549944589215,1577396007.0,-27.685822693812288,-51.13077042055954,1.3403306
58041,1577396010.83,0.0464241541420531,0.3649697652677201,9.15022997898009,0.9956375196503424,-0.1579005192454267,9.756196579649387,-0.442752121641577,4.687613269936166,8.076985288443217,-5.737490770293445,-5.726139719893292,13.196805628334603,-5.478091356230945,-1.5977068645198171,13.45787978753811,-2.987001000381097,0.4062187380907012,17.40841749237805,10.142672792597187,-1.0955500228937742,0.8856605943659495,-21.020737942612943,15.091888499431604,-15.302963863060016,31.111720130589752,37.58130410039836,42.46943421092042,1577396007.0,-27.685822693812288,-51.13077042055954,1.3403306
58042,1577396010.84,-1.2368679357016958,1.0640766500333452,10.376061228980088,-2.4137056444121563,-0.0286136295969892,13.132020920469705,-0.1027754858993895,-2.104736839927114,7.198313279165873,2.8989838390815548,2.574641530106707,13.410428675209603,-3.708071824980945,-3.947560380144817,14.09874892816311,-5.519959984756097,8.0661308474657,20.46017530487805,10.472515810242625,-2.556283386752136,0.1771321188731884,-20.905160002035004,17.53098159024883,-79.91547795153564,31.20756581903136,37.53338125617755,42.51735705514122,1577396007.0,-27.685822693812288,-51.13077042055954,1.3403306
58043,1577396010.85,-2.630293301912633,0.1973756490567826,9.995383165015244,-2.701009843630906,-0.0741034611399579,8.56867255621189,-2.116299082090796,-4.649773204673208,8.50315318395103,-7.843203660918445,11.485774342606708,14.478543909584603,-1.4192534656059452,0.6911114948551829,13.00011611566311,3.085997046493903,15.6039726443407,13.34957960175305,10.472515810242625,-2.921466727716725,0.8856605943659495,-21.020737942612943,16.616321681192368,-80.59560967878276,31.39925719591458,37.58130410039836,42.37358852247881,1577396007.0,-27.685822693812288,-51.13077042055954,1.3403306
58044,1577396010.86,-1.2811606664145865,1.3908851766446737,8.460699900855088,-1.6930509447051252,0.8536496821705878,8.238272727110328,-0.1506595191025151,0.9382934701314783,11.310354630484232,-1.0072661609184452,-1.3773848370807924,12.998441370522103,-4.669375535918445,-1.7197771770198171,13.57995010003811,0.5530380621189027,7.1200859255907005,10.99972608612805,10.225133547008545,-1.1868458581349182,1.1513587726757355,-20.96294897232397,16.463878363016292,-56.79099922513384,30.99191302003773,37.60526552250876,42.3017042561476,1577396007.0,-27.685822693812288,-51.13077042055954,1.3403306
58045,1577396010.87,-1.5912097814048207,1.351380849252096,10.29226417087462,-2.976343034548875,2.0782838313405096,11.432137741758766,-3.452263608457984,-4.2427589224466455,9.149587632193215,-3.906436082793445,-2.582829173018293,13.135770472084603,-2.456851121855945,-1.6282244426448171,12.87804580316311,-4.329774437881097,2.4814140505907014,6.635712414253049,10.472515810242625,-0.7303666819291804,1.9484533076050947,-19.86495853683354,19.970074681066063,-16.663227317554238,31.111720130589752,37.58130410039836,42.66112558780364,1577396007.0,-27.685822693812288,-51.13077042055954,1.3403306
58046,1577396010.88,-1.3685490270102896,1.6817806783536586,9.514148631323838,-0.0362633958770001,-0.9503812687571452,7.127363156797827,2.6625274315810783,4.376367054115853,9.98995241490806,0.4270600109565549,11.424739186356708,14.356473597084603,-2.151675340605945,4.383738447980183,12.72545791253811,2.567198218368903,7.028533191215701,3.7365424923780486,10.637437319065342,-2.37369171626984,1.4170569509855149,-18.5936011904762,16.616321681192368,-15.983095590307128,31.063797286368946,37.58130410039836,42.2777428340372,1577396007.0,-27.685822693812288,-51.13077042055954,1.3403306
58047,1577396010.89,-0.930410123201696,-0.440679093374857,9.861307872046494,1.668408186154249,-2.4084500797923014,9.370730112364232,-3.066797141172828,5.367566541420541,10.62202165318931,-5.966372606230944,-1.6978194073932926,12.189725550209603,-3.067202684355945,-2.238576005144817,12.72545791253811,4.794981421493903,7.883025378715701,14.93649366425305,10.307594301419906,-1.6433250343406578,1.5941890698587105,-21.020737942612943,17.226094953896677,-24.14467631727247,31.063797286368946,37.91676400994399,42.46943421092042,1577396007.0,-27.685822693812288,-51.13077042055954,1.3403306
58048,1577396010.9,-1.9527342320884145,0.783955055795064,10.62984660495665,-2.5812997606230934,0.0515921260182446,11.772114377500952,-0.0548914526962655,-2.63744670931188,10.855456315054544,-1.7396880359184452,6.572444264481708,11.976102503334603,-4.043765184355945,-3.566090653582317,12.77123427972561,-5.870912133193596,6.7538749880907005,15.48581007050305,9.64790826612903,-2.37369171626984,1.4170569509855149,-20.96294897232397,18.293198181129213,-83.99626831501831,31.063797286368946,37.62922694461916,42.82885554257645,1577396007.0,-27.685822693812288,-51.13077042055954,1.3403306
58049,1577396010.91,-0.5281842442954459,0.956337575326314,8.570833177222275,-0.4049704515410626,-0.0645266544993329,7.0244124854111085,-1.477047238829077,5.274192676674447,11.742508030142435,-6.744570848418445,0.2247880144817073,12.372831018959603,-2.456851121855945,4.231150557355183,10.71129775628811,2.231504858993903,4.037810534965701,11.97628858612805,9.64790826612903,-2.37369171626984,1.4170569509855149,-18.998123982498985,20.12251799924213,-96.57870526908988,31.111720130589752,37.58130410039836,42.46943421092042,1577396007.0,-27.685822693812288,-51.13077042055954,1.3403306
58050,1577396010.92,-1.900061795564977,2.493415041146627,10.165371482886338,-1.8486740526152812,0.9649800593678536,11.638039084532204,-3.296640500547828,-0.684975255454458,11.764055845083842,5.309872510956555,-1.4536787823932926,10.816434534584603,-5.417056199980945,-7.365529130144817,11.90148330316311,3.238584937118903,2.1457206912157014,9.16867139862805,9.64790826612903,-3.4692417391636146,2.47984966422466,-18.998123982498985,20.12251799924213,-96.57870526908988,31.20756581903136,37.58130410039836,43.09243118579087,1577396007.0,-27.685822693812288,-51.13077042055954,1.3403306
58051,1577396010.93,-1.04892310537943,-1.33251921178306,9.935528123511338,-0.8000137254668439,-0.1004396794016767,13.668322092344702,1.2379774437881093,-1.5516762564310205,8.026707053579935,-7.950015184355944,0.4994462176067075,11.289456995522103,-4.287905809355945,-3.215138505144817,11.59630752191311,-6.618592797256097,0.9555351443407012,11.24386671112805,8.988222230838156,-2.191100045787545,1.771321188731899,-18.998123982498985,20.12251799924213,-100.65949563257256,31.183604396920963,37.58130410039836,42.2777428340372,1577396007.0,-27.685822693812288,-51.13077042055954,1.3403306
58052,1577396010.94,-0.1163815587485709,1.1742099264005326,10.404791648901965,0.8926868482636243,0.2335514521901196,8.537547934629858,0.3353634179092036,3.579097901283822,8.12606642247642,-1.2819243640434452,-2.430241282393293,10.846952112709603,-2.975649949980945,2.537424971417683,10.92492080316311,5.191709937118904,7.0285331912157005,10.05368116425305,9.64790826612903,-2.7388750572344303,2.125585426478283,-15.415207824582826,20.12251799924213,-95.89857354184278,31.01587444214814,37.67714978883997,42.756971276245245,1577396007.0,-27.685822693812288,-51.13077042055954,1.3403306
58053,1577396010.95,0.266690706876429,2.05767033899819,10.364090220679309,0.1217539136933113,0.127009478313166,10.270949936582983,-0.2871290137314208,-3.65857371736852,9.180712253775248,3.1431244640815548,-5.939762766768292,10.175565393959603,-3.830142137480945,-4.557911942644817,9.97887588128811,0.2173447027439026,12.9794609255907,15.02804639862805,9.64790826612903,-2.7388750572344303,2.125585426478283,-9.867466676841678,21.0371779082986,-89.77738799661877,31.111720130589752,37.725072633060776,42.37358852247881,1577396007.0,-27.685822693812288,-51.13077042055954,1.3403306
58054,1577396010.96,-0.2576394566977896,0.2141350606778763,9.585974681128526,-0.4384892747832501,-1.429221600788395,10.852740940000952,2.257907351014672,-2.4949917105325827,10.677088291372904,1.6172455578315548,5.321223561356708,9.992459925209603,-1.4192534656059452,-0.5906267863948171,10.13146377191311,-4.818055687881097,4.861785144340701,9.41281202362805,10.142672792597187,-2.191100045787545,2.3027175453514714,-9.867466676841678,22.86649772641152,-84.33633417864186,31.01587444214814,37.62922694461916,42.46943421092042,1577396007.0,-27.685822693812288,-51.13077042055954,1.3403306
58055,1577396010.97,-1.915624106355993,-0.3437139261385293,8.753989604224229,-1.4081409471465314,-0.0681179569895678,11.181943668272435,0.4383140892959223,3.777816639076791,10.416120310415874,-4.409976121855944,9.059626881669208,10.526517542397103,-1.739688035918445,-1.9181414348323167,9.82628799066311,7.633116187118903,5.105925769340701,8.52780225800305,9.40052600289495,-1.004254187652623,2.391283604788062,-15.44410230972731,22.79027606732348,-89.94742092843055,31.15964297481056,37.58130410039836,42.18189714559559,1577396007.0,-27.685822693812288,-51.13077042055954,1.3403306
58056,1577396010.98,-0.9830825597251334,0.8174738790372514,11.458240379370713,-1.6379843065215314,1.3193219050709784,13.074560080625952,-3.543243271543921,-6.304166551841177,9.860665525259623,-1.9533110827934448,-9.479801829268292,8.375028284584603,0.5643891125190549,-1.3535662395198171,10.37560439691311,-5.092713891006097,4.770232409965701,8.61935499237805,9.153143739660877,-1.4607333638583646,0.8856605943659495,-10.849879171754177,23.628714317291905,-91.47771731473654,31.20756581903136,37.43753556773595,42.18189714559559,1577396007.0,-27.685822693812288,-51.13077042055954,1.3403306
58057,1577396010.99,-1.8737255773032584,1.0975954732755326,11.12065794528868,-0.1272430589629376,-1.848206891315739,8.09701482916111,1.072777529237328,1.0244847298971034,11.12001559850181,7.201962354706555,-4.413883860518292,8.954862268959603,2.5480316906440548,3.651316572980183,7.598504787538109,2.475645483993903,1.7184745974657012,8.31417921112805,9.153143739660877,-1.4607333638583646,0.8856605943659495,-11.7745026963777,20.274961317418214,-91.47771731473654,31.20756581903136,37.62922694461916,42.46943421092042,1577396007.0,-27.685822693812288,-51.13077042055954,1.3403306
58058,1577396011.0,-1.5995894872153678,-0.9446585428377476,8.205717424048446,-0.9436658250762188,-1.3334535343821454,8.202359702207984,3.0839069237685783,3.820912268959603,7.406608823599467,-2.594180223418445,6.587703053544208,10.251859339272103,1.2357758312690548,-6.633107255144817,11.04699111566311,6.198790015243903,5.838347644340701,9.56539991425305,10.142672792597187,-1.6433250343406596,1.2399248321123264,-12.23681445868946,-4.115969590754073,-74.47442413355876,31.135681552700152,37.725072633060776,42.46943421092042,1577396007.0,-27.685822693812288,-51.13077042055954,1.3403306
58059,1577396011.01,-1.8306299474204455,3.2140697408536583,9.8062412338629,-1.8355059434844216,1.5934579951588697,12.055827274229468,-2.364098953916968,1.0017398141256189,10.547801401724469,13.885311964081556,-6.916325266768292,8.436063440834603,0.6101654797065548,-2.925221512957317,8.68187881097561,3.406431616806403,1.1996757693407014,11.99154737519055,8.65837921319272,-3.1040583981990206,2.125585426478283,-11.803397181522184,19.74140970380195,-45.39879279374472,31.20756581903136,37.48545841195676,42.325665678258005,1577396007.0,-27.685822693812288,-51.13077042055954,1.3403306
58060,1577396011.02,-0.7029609654868522,-0.4825776224275914,8.748004100073837,0.6341130689667488,-0.7779987492258954,5.061167124082984,1.0009514794326406,-3.361692711509145,8.323588059439311,-3.174014207793445,-10.914128001143292,7.642606409584603,3.1278656750190548,4.841502119855183,8.08678603753811,1.2854599371189026,1.8405449099657007,7.703827648628049,9.812829774951748,-2.921466727716725,1.2399248321123264,-11.485557844932847,18.598084817481368,-21.764215271907577,31.30341150747297,37.53338125617755,42.37358852247881,1577396007.0,-27.685822693812288,-51.13077042055954,1.3403306
58061,1577396011.03,-1.9359748204673208,0.0920307760099076,8.846166368140246,-2.569328752322312,0.4598035090748847,9.660428513243138,-0.950322873594702,-0.0864248404153956,11.153534421743998,6.194882276581555,5.199153248856708,9.534696253334603,0.3202484875190549,-12.431447098894816,10.28405166253811,4.428770483993903,-3.3169257931592986,6.025360851753049,9.812829774951748,-2.921466727716725,1.2399248321123264,-11.485557844932847,18.598084817481368,-21.764215271907577,31.01587444214814,37.725072633060776,42.46943421092042,1577396007.0,-27.685822693812288,-51.13077042055954,1.3403306
58062,1577396011.04,-1.4511489842856802,2.6574178548673304,11.075168113745711,-4.111194621462937,3.8475988581959792,14.350669565489234,-4.409944272520484,3.514454456459603,13.059318943228371,3.738217237519055,-6.489079173018292,8.558133753334603,1.2052582531440548,-8.189503739519816,9.82628799066311,4.611875952743903,-4.385041027534299,3.8280952267530486,9.730369020540389,-2.099804210546397,1.3284908915489206,-20.789582061457065,18.44564149930529,-15.302963863060016,31.13568155270016,37.86884116572318,42.51735705514122,1577396007.0,-27.685822693812288,-51.13077042055954,1.3403306
58063,1577396011.05,-2.216096414705602,-2.06035651647056,9.557244261206652,0.2797712232636243,-2.458728314655583,8.75302608404392,0.2324127465224849,3.9549875619283537,10.10487409459556,-4.821963426543445,-1.8198897198932928,8.741239222084603,5.767636182831555,1.9881085651676829,7.5527284203506095,2.506163062118903,-9.9544990353468,7.841156750190549,9.48298675730631,-1.0955500228937742,2.3027175453514714,-20.50063721001221,17.378538272072756,-15.302963863060016,31.063797286368946,37.725072633060776,42.493395633030815,1577396007.0,-27.685822693812288,-51.13077042055954,1.3403306
58064,1577396011.06,-1.3086939855063833,-1.4618061014314976,9.025731492651964,-1.3506801073027814,0.6393686335866035,11.163987155821264,-5.623804514219702,3.073921350990853,7.36590739537681,-4.425234910918445,7.762629811356708,9.473661097084603,-1.3887358874809452,-12.645070145769816,8.81920791253811,-0.5761123285060974,0.1010429568407012,21.61984327362805,9.812829774951748,-1.0955500228937742,1.2399248321123264,-20.789582061457065,20.57984795377037,-11.902305226824456,31.111720130589752,37.62922694461916,42.46943421092042,1577396007.0,-27.685822693812288,-51.13077042055954,1.3403306
58065,1577396011.07,-1.833024149080602,3.621084023080221,9.94031652683165,-2.557357744021531,3.565083062297542,14.111249399473609,-0.3158594336532958,-4.333738585532583,6.384284714712749,9.460263135956556,-2.094547923018293,9.046415003334603,1.0526703625190548,-5.564992020769817,8.26989150628811,-3.353211937881097,10.1718437380907,17.01168897675305,9.977751283774465,-2.0085083753052464,2.8341139019710444,-20.558426180301183,17.226094953896677,-23.46454459002536,31.111720130589752,37.725072633060776,42.46943421092042,1577396007.0,-27.685822693812288,-51.13077042055954,1.3403306
58066,1577396011.08,-1.7408473851645865,2.422786092172018,8.847363468970322,-1.3434975023223126,2.485298113567073,4.656547043516578,1.752730800721703,-2.4614728872903955,8.486393772329937,8.056454542206556,-9.174626048018292,7.902005823647103,3.4635590343940548,5.299265791730183,6.7134950219131095,2.139952124618903,9.0426933474657,4.957245617378049,9.977751283774465,-2.191100045787543,1.594189069858711,-20.03832544770045,19.20785809018568,-25.164873908143136,31.111720130589752,37.53338125617755,42.66112558780364,1577396007.0,-27.685822693812288,-51.13077042055954,1.3403306
58067,1577396011.09,-1.0596970128501333,2.0456993306974085,6.942776048316025,-4.083661302371141,2.1501098811451973,7.297351474668921,-1.151435813047827,-2.2100817129739894,9.478790360464702,2.4717377453315548,-0.2940108136432927,9.748319300209603,0.6864594250190549,-11.699025223894816,8.69713760003811,4.840757788681403,3.5037529177782014,-1.2378227419969514,11.297123354356218,-2.0085083753052464,2.47984966422466,-20.41395375457876,16.997429976632567,-23.634577521837137,31.111720130589752,37.60526552250876,42.54131847725162,1577396007.0,-27.685822693812288,-51.13077042055954,1.3403306
58068,1577396011.1,-1.3278475987876333,0.9994332052091264,10.021719383276965,0.3132900465058114,0.2682673762623848,11.463262363340796,-2.674148068907203,10.483975489174448,8.804822593130718,-2.136416551543445,-8.625309641768293,7.703641565834603,1.4188813000190548,-0.102345536394817,8.45299697503811,12.058165015243905,-0.5703437619092988,-0.8410942263719513,8.328536195547285,-3.1040583981990206,2.125585426478283,-20.96294897232397,16.463878363016292,-82.97607072414765,31.20756581903136,37.725072633060776,42.46943421092042,1577396007.0,-27.685822693812288,-51.13077042055954,1.3403306
58069,1577396011.11,-0.3893205480063834,-2.010078281607279,8.226068138159775,1.6588313795136238,-2.310287811725895,3.854489487364234,-0.1602363257431396,11.24054321378382,7.315629160513529,-4.516787645293445,-1.5757490948932926,9.565213831459603,2.2428559093940548,2.857859541730183,8.51403213128811,9.281065405868905,5.319548816215701,13.59372022675305,9.812829774951748,-2.921466727716725,1.2399248321123264,-21.020737942612943,15.701661772135914,-80.59560967878276,31.111720130589752,37.62922694461916,42.325665678258005,1577396007.0,-27.685822693812288,-51.13077042055954,1.3403306
58070,1577396011.12,0.1661342371498665,2.1342847921231898,10.40000324558165,-1.1208367479277814,1.5886695918385572,11.879853452207984,-1.9103977393173583,-7.046369066489614,10.101282792105328,2.6395844250190548,-3.757755930830792,8.787015589272103,-2.227969285918445,-7.304493973894816,8.42247939691311,-6.069276391006097,7.410002917778201,16.56918409394055,9.400526002894953,-2.6475792219932828,1.3284908915489206,-20.991843457468452,17.149873294808643,-85.18649883770077,31.063797286368946,37.58130410039836,42.63716416569324,1577396007.0,-27.685822693812288,-51.13077042055954,1.3403306
58071,1577396011.13,-0.8729492833579459,-0.4466645975252476,9.686531150855089,-0.4911617113066876,0.538812163860041,5.314952500059547,0.4574677025771719,6.732261487709604,7.7944694925447795,-4.547305223418445,-2.613346751143293,8.863309534584603,-0.6563140124809451,6.123240401105183,9.21593642816311,4.367735327743903,2.0846855349657014,7.978485851753049,9.977751283774465,-2.7388750572344303,1.7713211887318916,-21.020737942612943,17.53098159024883,-90.11745386024232,31.20756581903136,37.62922694461916,42.37358852247881,1577396007.0,-27.685822693812288,-51.13077042055954,1.3403306
58072,1577396011.14,-0.990265164705602,-0.4610298074861851,9.102345945776964,-0.0171097825957501,0.0001167903248857,7.158487778379858,-0.2176971655868895,2.8081649667135093,11.914890549673686,-2.166934129668445,6.297786061356708,9.046415003334603,-0.7173491687309451,-2.269093583269817,8.17833877191311,6.565000952743903,0.7419120974657012,9.47384717987805,8.823300722015436,-1.825916704822951,1.5941890698587031,-21.020737942612943,17.53098159024883,-90.11745386024232,31.111720130589752,37.58130410039836,42.37358852247881,1577396007.0,-27.685822693812288,-51.13077042055954,1.3403306
58073,1577396011.15,-0.1834192052329459,2.206110841927877,10.340148204077744,-2.588482365603562,2.054341814738947,11.76732597418064,-2.274316391661108,-12.706261791098989,10.097691489615093,2.898983839081556,-3.361027415205793,8.710721643959603,-3.097720262480945,-7.426564286394817,9.91784072503811,-7.106874047256097,3.4579765505907014,1.3866889767530486,9.318065248483594,-1.643325034340656,1.4170569509855149,-21.020737942612943,15.091888499431604,-19.38375422654269,31.063797286368946,37.772995477281576,42.2777428340372,1577396007.0,-27.685822693812288,-51.13077042055954,1.3403306
58074,1577396011.16,-1.0477260045493522,0.99703900354897,9.650618125952745,0.3300494581269055,0.4143136775319165,6.960966141416968,0.6992820702529531,8.326799793373667,8.315208353628764,-1.9533110827934448,3.642756764481707,9.260038050209603,-0.473208543730945,2.995188643292683,8.95653701410061,8.228208960556405,5.441619128715701,1.3409126095655486,8.328536195547285,-1.2781416933760694,1.4170569509855149,-20.44284823972324,15.39677513578376,-20.0638859537898,31.063797286368946,37.60526552250876,42.34962710036841,1577396007.0,-27.685822693812288,-51.13077042055954,1.3403306
58075,1577396011.17,-0.4372045812095084,-0.3197719095369664,6.60758781589415,-0.8646571702910626,2.549941558391292,9.772955991270482,-2.432333701231421,-0.1462798819193018,7.631663779654154,-6.042666551543445,3.703791920731707,9.504178675209603,-1.5108061999809452,-7.792775223894817,8.84972549066311,0.0952743902439026,10.4159843630907,15.82150342987805,9.318065248483594,-3.834425080128205,1.4170569509855149,-20.905160002035004,19.970074681066063,-20.0638859537898,31.25548866325217,37.53338125617755,42.46943421092042,1577396007.0,-27.685822693812288,-51.13077042055954,1.3403306
58076,1577396011.18,-0.5066364293540396,3.317020412240377,8.544496958960556,-2.068940605349656,1.122997368938166,10.220671701719702,-2.5257075659775152,-6.215581090415395,5.3930852274080605,3.9976166515815534,1.933772389481708,9.046415003334603,-0.9614897937309452,-0.8958025676448171,8.36144424066311,-7.381532250381097,15.2377617068407,12.22042921112805,8.823300722015436,-2.556283386752136,1.5941890698587031,-21.020737942612943,19.0554147720096,-26.185071499013805,31.01587444214814,37.43753556773595,42.37358852247881,1577396007.0,-27.685822693812288,-51.13077042055954,1.3403306
58077,1577396011.19,0.0631835657631478,0.0597090535977992,8.49062742160704,-0.7521296922637188,-0.9072856388743328,5.544795859434546,-0.3517724585556395,1.1777136361471034,7.705884031118998,-4.944033739043445,-4.459660227705792,8.024076136147103,0.2897309093940549,3.193552901105183,7.415399318788109,-1.0949111566310974,18.8083183474657,8.13107374237805,9.153143739660877,-3.286650068681319,2.6569817830978484,-21.020737942612943,18.14075486295314,-81.95587313327698,31.08775870847935,37.62922694461916,42.61320274358283,1577396007.0,-27.685822693812288,-51.13077042055954,1.3403306
58078,1577396011.2,-1.2416563390220083,2.9267655416349085,9.061644517554308,0.3025161390351087,2.1632779902760566,8.508817514707983,3.1760836876845944,0.1601779305806976,10.690256400503763,0.2744721203315549,9.044368092606708,8.771756800209603,-6.210513231230945,-5.427662919207316,8.20885635003811,4.657652319931403,16.0464775271532,4.728363781440549,9.812829774951748,-1.825916704822951,0.8856605943659495,-20.905160002035004,17.835868226600986,-22.784412862778247,31.20756581903136,37.67714978883997,42.46943421092042,1577396007.0,-27.685822693812288,-51.13077042055954,1.3403306
58079,1577396011.21,-1.2272911290610709,1.868528407845846,9.854125267066024,-1.6571379198027814,1.968150554973322,10.02434716558689,-3.14819999761814,5.379537549721323,8.347530076040874,-3.936953660918445,2.971370045731707,8.588651331459603,-1.9380522937309448,-1.0178728801448171,8.78869033441311,6.381895483993903,12.3691093630907,3.9806831173780486,8.493457704370002,-3.286650068681319,2.3027175453514714,-20.789582061457065,20.57984795377037,-26.185071499013805,30.872105909485725,37.43753556773595,42.46943421092042,1577396007.0,-27.685822693812288,-51.13077042055954,1.3403306
58080,1577396011.22,0.1014907923256468,-0.4825776224275914,8.307470994605088,1.18238524914253,-2.171424115436833,5.544795859434546,-3.176930417540015,-0.5844187857278955,8.998752927603372,-7.904238817168445,-5.054753001143292,7.551053675209603,-3.555483934355945,6.153757979230183,7.812127834413109,0.0952743902439026,14.3222343630907,11.45748975800305,9.48298675730631,-2.191100045787545,1.5941890698587031,-20.84737103174604,20.42740463559429,-25.84500563539025,30.92002875370653,37.725072633060776,42.37358852247881,1577396007.0,-27.685822693812288,-51.13077042055954,1.3403306
58081,1577396011.23,-0.9160449132407584,-0.421525480093607,9.688925352515245,-1.4464481737090311,-0.0573440495188647,10.12011523199314,-1.5093689612411865,-3.074388512290396,10.278453714956887,-5.294985887480945,5.824763600419207,8.161405237709603,-4.669375535918445,-8.677784989519816,8.31566787347561,-1.5679336175685972,6.0367119021532005,2.3174751095655486,10.307594301419906,-2.37369171626984,1.062792713239138,-19.980536477411484,8.5368258178603,-21.76421527190758,31.20756581903136,37.653188366729566,42.397549944589215,1577396007.0,-27.685822693812288,-51.13077042055954,1.3403306
58082,1577396011.24,-0.9782941564048208,2.110342775521627,7.323454112280869,-0.972396244998094,1.589866692668635,6.660493833067359,-0.3637434668564208,6.006818384682259,9.065790574087748,1.9529389172065548,1.4454911394817074,8.680204065834603,-3.952212449980945,7.313425947980183,7.0491883812881095,6.259825171493903,-3.6526191525342986,2.1496284298780486,9.318065248483594,-2.7388750572344303,2.125585426478283,-21.020737942612943,-1.981763136288998,-57.47113095238095,31.20756581903136,37.772995477281576,42.46943421092042,1577396007.0,-27.685822693812288,-51.13077042055954,1.3403306
58083,1577396011.25,-0.6431059239829459,4.095135951791159,9.79427022556212,2.23583397961128,-1.0413609318430828,4.800199143125953,1.0847485375381094,-0.7448302969583643,7.559837729849467,0.2134369640815548,-10.364811594893292,5.964139612709603,-2.945132371855945,1.7897443073551829,6.8966004906631095,-9.456727562881095,-8.2912910275343,12.25094678925305,9.812829774951748,-2.556283386752136,1.5941890698587031,-21.020737942612943,-1.981763136288998,-57.47113095238095,31.01587444214814,37.725072633060776,41.702668703387545,1577396007.0,-27.685822693812288,-51.13077042055954,1.3403306
58084,1577396011.26,-1.0142071813071647,0.9898563985685014,6.315495213355088,-0.6803036424590314,-1.4962592472727705,7.397907944395484,-0.816247580625952,1.8792147225728844,11.558154502310405,0.7322357922065549,5.016047780106708,7.398465784584603,-4.715151903105945,-13.408009598894816,6.4998719750381095,-10.341737328506095,-23.5500800900343,11.48800733612805,8.823300722015436,-3.6518334096459095,1.2399248321123264,-19.17149089336589,-1.3719898635846908,-69.71350204282896,31.063797286368946,37.62922694461916,42.46943421092042,1577396007.0,-27.685822693812288,-51.13077042055954,1.3403306
58085,1577396011.27,-2.014983475252477,-0.7579108133455605,7.798703141821885,-3.218157402224656,0.150951494914729,10.606138169004858,-1.2507951819443115,-0.1678276968607086,11.756873240103372,-12.573428270293444,3.871638600419208,6.315091761147103,-4.699893114043445,-3.093068192644817,5.7369325219131095,-15.178773461318595,-32.0187080197218,14.11251905487805,9.812829774951748,-2.556283386752136,1.9484533076050947,-10.09862255799756,-1.829319818112921,-59.85159199774584,31.063797286368946,37.653188366729566,42.445472788810015,1577396007.0,-27.685822693812288,-51.13077042055954,1.3403306
58086,1577396011.28,-1.670218436189977,1.2196997579435014,12.229173313941024,-0.8622629686309063,0.6082440120045722,11.930131687071263,-3.193689829161109,-0.5556883658060205,9.18550065709556,-6.683535692168445,0.4689286394817073,6.818631800209603,-5.539126512480945,-6.297413895769817,7.751092678163109,-12.783143578506095,-26.5102851681593,10.17575147675305,9.812829774951748,-2.556283386752136,1.9484533076050947,-10.27198946886447,-4.420856227106227,-69.71350204282896,30.92002875370653,37.86884116572318,42.2777428340372,1577396007.0,-27.685822693812288,-51.13077042055954,1.3403306
58087,1577396011.29,-1.5074127232993522,2.3784933614591277,11.31219407810118,-2.624395390505906,0.4167078791920723,13.060194870665017,3.735129775331078,5.870348890053354,7.535895713247904,-6.256289598418445,-8.991520579268293,5.750516565834603,-2.456851121855945,-5.320851395769817,4.2415711937881095,-9.059999047256095,-11.2209785275343,7.093476086128049,9.153143739660877,-2.191100045787545,2.6569817830978484,-10.387567409442411,-4.420856227106227,-69.71350204282896,31.20756581903136,37.725072633060776,42.46943421092042,1577396007.0,-27.685822693812288,-51.13077042055954,1.3403306
58088,1577396011.3,-1.0513173070395865,-1.0619744241854037,9.624281907691024,-1.0561933031035626,-1.359789752643864,8.990052048399388,1.5180990380263906,-5.19804538484899,7.617298569693217,-3.250308153105945,0.3468583269817076,6.269315393959603,-1.3887358874809452,-1.5061541301448171,5.7674501000381095,-5.062196312881097,1.1081230349657012,6.879853039253049,10.390055055831262,-2.2823958810286906,1.5056230104221164,-21.020737942612943,-3.2013096816976128,-68.35323858833475,31.08775870847935,37.772995477281576,42.46943421092042,1577396007.0,-27.685822693812288,-51.13077042055954,1.3403306
58089,1577396011.31,-0.0996221471274771,2.553270082650533,6.827854368628525,0.1780176527069832,1.2510871577565252,8.853582553770483,-3.983776377012671,-1.3745053335794586,9.693071409048686,5.370907667206555,5.504329030106708,6.910184534584603,-5.020327684355945,-2.162282059832317,5.5538270531631095,-1.0949111566310972,3.9309990115282014,4.148529797065549,9.64790826612903,-2.7388750572344303,0.7085284754927537,-15.819730616605618,-3.048866363521536,-61.21185545224007,31.01587444214814,37.67714978883997,42.37358852247881,1577396007.0,-27.685822693812288,-51.13077042055954,1.3403306
58090,1577396011.32,0.1302212122475218,1.9906326925138147,8.7336388901129,-0.7664949022246563,-0.3015526188548016,7.464945590879859,2.777449111268578,1.4554410287252282,7.540684116568217,4.333310010956555,-8.045475657393293,3.980497034584604,-1.6939116687309452,-1.6892595988948171,4.4246766625381095,-1.9494033441310967,-1.7910468869092988,-2.5805961794969514,9.64790826612903,-2.7388750572344303,0.7085284754927537,-12.699126221001222,-4.420856227106227,-68.35323858833475,31.111720130589752,37.91676400994399,42.46943421092042,1577396007.0,-27.685822693812288,-51.13077042055954,1.3403306
58091,1577396011.33,-0.2576394566977896,-0.8991687112947788,7.687372764624619,-1.8821928758574689,-1.797928656452458,6.7227430762314215,2.229176931092797,10.895778174721322,11.366618369497903,0.2134369640815548,-1.9114424542682928,4.957059534584603,-4.074282762480945,-2.055470536394817,5.4012391625381095,-1.5526748285060974,-15.2798164181593,9.22970655487805,9.153143739660877,-5.112566773504274,1.9484533076050947,-12.467970339845342,-4.420856227106227,-68.35323858833475,31.063797286368946,37.62922694461916,42.37358852247881,1577396007.0,-27.685822693812288,-51.13077042055954,1.3403306
58092,1577396011.34,-1.402067850252477,-0.04922712193931,9.253180650366808,-0.3666632249785626,1.142150982219416,10.06265439214939,-3.801817050840796,-1.7791254141458643,13.200576841177591,-9.369082567168444,6.190974537919207,6.482938440834603,-7.034487840605945,-4.557911942644817,5.9505555687881095,-9.090516625381095,-26.1135566525343,14.47872999237805,9.812829774951748,-2.37369171626984,1.9484533076050876,-12.930282102157102,-4.420856227106227,-68.35323858833475,31.063797286368946,37.58130410039836,42.46943421092042,1577396007.0,-27.685822693812288,-51.13077042055954,1.3403306
58093,1577396011.35,-2.407632547518102,-0.5424326639314976,12.358460203589464,-2.2101985032988747,-2.076853149860661,11.329187070372043,-1.1442532080673593,-2.8277857412943024,10.205430564322125,-13.580508348418444,-5.970280344893292,4.621366175209603,-3.570742723418445,-2.406422684832317,4.9434754906631095,-14.919374047256095,-24.2825019650343,6.940888195503049,9.977751283774465,-1.643325034340656,1.4170569509855149,-12.179025488400493,-4.420856227106227,-41.147969498450266,31.111720130589752,37.58130410039836,42.42151136669962,1577396007.0,-27.685822693812288,-51.13077042055954,1.3403306
58094,1577396011.36,-1.1482824742759146,0.7073406026700639,12.382402220191024,-2.16231447009575,1.5276174495045722,11.475233371641576,0.8070211449599844,15.076054273354137,12.973127683462748,-2.990908739043445,-5.451481516768292,5.109647425209603,-2.060122606230945,-10.081593583269816,5.8895204125381095,-2.010438500381097,-17.0498359494093,16.76754835175305,9.977751283774465,-1.643325034340656,1.4170569509855149,-21.020737942612943,-3.2013096816976128,-13.942700408565791,31.20756581903136,37.725072633060776,42.51735705514122,1577396007.0,-27.685822693812288,-51.13077042055954,1.3403306
58095,1577396011.37,-1.5098069249595083,3.3098378072599086,12.391979026831647,-2.6196069871855934,2.530787945110041,14.834298300840796,-2.999759494688453,-14.0901103506693,11.31873433629478,7.049374464081555,-5.359928782393292,4.255155237709603,-3.341860887480945,-7.182423661394817,5.1876161156631095,-17.0556045160061,-14.5473945431593,12.06784132050305,10.142672792597187,-2.191100045787545,2.3027175453514714,-21.020737942612943,-3.2013096816976128,-11.222173499577346,31.20756581903136,37.725072633060776,42.2777428340372,1577396007.0,-27.685822693812288,-51.13077042055954,1.3403306
58096,1577396011.38,-0.8537956700766964,-1.011696189322123,9.183748802222276,-1.8151552293730937,-1.1155811833079263,10.608532370665015,-0.0740450659775145,-5.157343956626334,3.812912131704936,-9.384341356230944,1.5828202410442074,6.147245081459603,-1.4192534656059452,3.651316572980183,3.539666896913109,-9.243104516006095,-7.253693371284299,-0.6274711794969513,9.565447511717672,-2.099804210546395,1.1513587726757322,-20.905160002035004,23.0189410445876,-26.185071499013805,31.32737292958337,37.725072633060776,42.46943421092042,1577396007.0,-27.685822693812288,-51.13077042055954,1.3403306
58097,1577396011.39,1.0855076746498664,-0.1354183817049351,10.01693097995665,0.1528785352753431,0.2191862422291821,7.609794791319312,1.175728200624047,9.385036927162728,8.515124192251811,2.2275971203315548,-3.010075266768293,5.353788050209603,-2.060122606230945,-3.093068192644817,6.1794374047256095,7.205870093368904,0.7266533084032013,5.735443859565549,9.977751283774465,-1.2781416933760694,2.125585426478283,-20.934054487179488,23.09516270367564,-21.93424820371936,31.063797286368946,37.62922694461916,42.34962710036841,1577396007.0,-27.685822693812288,-51.13077042055954,1.3403306
58098,1577396011.4,0.7335600306068978,1.734453114877096,9.3082472885504,-0.1104836473418438,1.218765435344416,10.17757607183689,1.024893496034203,-3.273107250083364,7.162400254263529,7.537655714081555,-4.688542063643292,5.536893518959603,-5.081362840605945,1.2709454792301829,5.2181336937881095,-4.665467797256097,9.0121757693407,7.947968273628049,9.977751283774465,-1.2781416933760694,2.125585426478283,-20.84737103174604,21.951837817355063,-58.49132854325161,31.01587444214814,37.62922694461916,42.18189714559559,1577396007.0,-27.685822693812288,-51.13077042055954,1.3403306
58099,1577396011.41,0.237960286954554,1.9906326925138147,10.78307551120665,-1.7481175828887188,-0.9671406803782392,8.764997092344702,0.3593054345107657,-1.2093054190286767,10.581320224966657,3.5398529797065548,-0.4465987042682927,5.506375940834603,-1.9685698718559448,2.918894697980183,4.3636415062881095,-5.001161156631097,1.6879570193407012,4.224823742378049,9.812829774951748,-3.286650068681319,1.5941890698587031,-20.905160002035004,19.970074681066063,-60.19165786136941,31.063797286368946,37.58130410039836,42.18189714559559,1577396007.0,-27.685822693812288,-51.13077042055954,1.3403306
58100,1577396011.42,-1.2332766332114615,-1.6904523599764194,10.51492492526915,-0.231390831179735,-0.2955671147044115,11.39023921270603,4.747877077577172,4.549946674477182,10.368236277212748,-10.605044481230944,6.648738209794208,5.826810511147103,-3.082461473418445,-0.5906267863948171,5.3554627953506095,5.176451148056403,-4.858063488471799,0.5779731564405487,8.988222230838156,-1.825916704822955,1.5941890698587031,-20.70289860602361,20.65606961285841,-66.82294220202874,31.039835864258546,37.62922694461916,42.42151136669962,1577396007.0,-27.685822693812288,-51.13077042055954,1.3403306
58101,1577396011.43,-2.386084732576696,2.3258209249356896,10.287475767554309,0.8639564283417488,0.1964413264576973,14.003510324766577,-7.050748703672827,-4.2427589224466455,15.41760757848228,2.8989838390815548,5.290705983231708,5.628446253334603,-1.6939116687309452,1.6981915729801829,4.2415711937881095,-1.8883681878810967,-15.4324043087843,2.5158393673780486,9.153143739660877,-2.921466727716725,0.8856605943659495,-20.61621515059015,20.12251799924213,-69.37343617920541,31.20756581903136,37.62922694461916,42.46943421092042,1577396007.0,-27.685822693812288,-51.13077042055954,1.3403306
58102,1577396011.44,-1.7779575108970085,0.9587317769864702,10.833353746069932,-3.392934123416062,0.4957165339772285,11.094555307676734,-0.4355695166611083,-4.257124132407583,10.990728708853371,-8.209414598418444,-10.456364329268292,4.560331018959603,-1.1751128406059452,-2.574269364519817,5.7674501000381095,-5.306336937881097,-21.3528144650343,1.5392768673780486,9.153143739660877,-2.921466727716725,0.8856605943659495,-20.61621515059015,20.12251799924213,-69.37343617920541,31.01587444214814,37.58130410039836,42.37358852247881,1577396007.0,-27.685822693812288,-51.13077042055954,1.3403306
58103,1577396011.45,-1.5433257482016958,0.0944249776700638,11.470211387671494,-2.054575395388719,-2.080444452350896,12.602902353575171,4.53239892816311,7.11772795499476,11.361829966177591,3.6619232922065534,-3.681461985518293,4.529813440834603,1.2662934093940548,-5.656544755144817,5.7674501000381095,-7.137391625381097,-20.2846992306593,7.673310070503049,9.153143739660877,-2.921466727716725,0.8856605943659495,-20.789582061457065,19.970074681066063,-69.71350204282896,31.30341150747297,37.43753556773595,42.61320274358283,1577396007.0,-27.685822693812288,-51.13077042055954,1.3403306
58104,1577396011.46,-1.3230591954673208,-0.6789021585604044,9.454293589819931,0.2282958875702649,0.4131165767018379,10.61691207647556,-0.3026913245224369,4.340454029213509,9.16634704381431,-1.877017137480945,0.1179764910442076,6.070951136147103,-1.449771043730945,-3.749196122332317,4.2110536156631095,-5.062196312881097,-12.7773750119093,16.18771436737805,9.153143739660877,-2.9214667277167274,1.2399248321123264,-11.254401963776964,15.549218453959837,-47.60922090729783,31.15964297481056,37.74903405517118,42.325665678258005,1577396007.0,-27.685822693812288,-51.13077042055954,1.3403306
58105,1577396011.47,-1.133917264314977,1.511792360482565,11.870043064917589,-2.4424360643340317,-2.1139632755930826,10.36911220464939,-3.01412470464939,-12.37346776033727,11.457598032583842,1.0068939953315548,-9.266178782393292,4.194120081459603,0.8695648937690549,-6.266896317644817,4.3636415062881095,-13.546083031631095,-0.5703437619092988,11.61007764862805,9.812829774951748,-2.921466727716725,2.6569817830978484,-21.020737942612943,15.091888499431604,-26.185071499013805,31.30341150747297,37.725072633060776,42.51735705514122,1577396007.0,-27.685822693812288,-51.13077042055954,1.3403306
58106,1577396011.48,-0.930410123201696,0.8988767354825639,10.615481394995712,-2.490320097537156,1.2642552668873848,11.32679286871189,4.522822121522484,-7.788571581138052,11.61800954381431,-2.777285692168445,-3.559391673018293,4.896024378334603,0.0150727062690548,-9.929005692644816,5.0655458031631095,-11.470887719131095,-7.345246105659299,-0.5969536013719513,9.812829774951748,-2.921466727716725,2.6569817830978484,-19.86495853683354,21.799394499178984,-64.27244822485208,31.111720130589752,37.53338125617755,42.37358852247881,1577396007.0,-27.685822693812288,-51.13077042055954,1.3403306
58107,1577396011.49,-1.5995894872153678,0.7923347616056112,7.759198814429307,1.0650693677948735,3.4669207942311355,9.138492551329076,-1.2974821143173585,8.058649207436165,9.456045444693215,-1.053042528105945,1.5370438738567072,5.140165003334603,-2.823062059355945,1.4540509479801829,3.8753602562881095,8.975889624618903,-6.948517590034299,-7.615996570121951,9.64790826612903,-3.2866500686813174,2.3027175453514714,-19.98053647741148,19.970074681066063,-68.35323858833475,31.15964297481056,37.725072633060776,42.2777428340372,1577396007.0,-27.685822693812288,-51.13077042055954,1.3403306
58108,1577396011.5,-0.7101435704673209,1.523763368783346,7.543720665015244,-1.4572220811797347,0.0635631343190259,8.62613339605564,-2.189322232725562,2.148562409340463,7.72384054357017,-1.1598540515434452,-2.796452219893293,4.773954065834603,-1.2514067859184452,-6.358449052019816,3.8601014672256095,-0.9575820550685972,3.702117175590701,10.95394971894055,10.307594301419906,-3.4692417391636146,1.4170569509855149,-20.41395375457876,7.850830886067956,-57.981229747816286,31.20756581903136,37.67714978883997,42.46943421092042,1577396007.0,-27.685822693812288,-51.13077042055954,1.3403306
58109,1577396011.51,-1.0166013829673208,2.09597756556069,11.972993736304304,-1.558975651736375,0.2108065364186348,10.436149851133765,3.6537269188857655,3.5767036996236654,6.901432273306498,-3.418154832793445,-18.604557688643293,2.851346643959604,0.0150727062690548,-4.191701005144817,3.203973537538109,4.001524390243903,10.8432304568407,4.652069836128049,9.64790826612903,-1.2781416933760694,3.188378139717421,-20.26948132885633,-4.26841290893015,-69.37343617920541,31.111720130589752,37.62922694461916,41.702668703387545,1577396007.0,-27.685822693812288,-51.13077042055954,1.3403306
58110,1577396011.52,0.2930269251381478,-1.27505837193931,11.630622898901962,2.25498759289253,-1.3238767277415204,6.3300940039657965,-3.121863779356421,4.87675520108851,6.209507993521342,-7.476992723418445,-12.134831126143292,3.400663050209604,1.7240570812690548,3.285105635480183,2.532586818788109,6.870176733993903,16.2448417849657,4.835175304878049,8.823300722015436,-2.556283386752136,1.9484533076050947,-20.96294897232397,-4.26841290893015,-58.49132854325161,31.20756581903136,37.58130410039836,42.37358852247881,1577396007.0,-27.685822693812288,-51.13077042055954,1.3403306
58111,1577396011.53,0.1050820948158822,-1.303788791861185,7.906442216528916,3.1049291822479987,-3.0668555363352703,7.627751303770483,-0.0860160742782958,1.7547162362447597,7.234226304068217,1.449398878144055,7.5490067644817085,5.048612268959603,-5.111880418730945,-3.886525223894817,3.448114162538109,2.200987280868903,29.7336113162157,10.81662061737805,9.48298675730631,-3.286650068681318,2.125585426478283,-21.020737942612943,-4.115969590754073,-58.83139440687517,31.18360439692096,37.53338125617755,42.46943421092042,1577396007.0,-27.685822693812288,-51.13077042055954,1.3403306
58112,1577396011.54,-1.2081375157798209,3.020139406381002,11.755121385230089,-2.611227281375047,2.67803134720965,10.70669463873142,1.9694060509658435,-7.72632233797399,9.119660111441265,-1.7091704577934452,-8.777897532393293,1.4475380502096038,-2.365298387480945,-6.114308427019816,3.478631740663109,8.441832007431405,37.0883476443407,-4.381133288871951,9.153143739660877,-1.825916704822951,2.6569817830978484,-20.96294897232397,24.08604427182013,-58.49132854325161,30.872105909485725,37.58130410039836,42.42151136669962,1577396007.0,-27.685822693812288,-51.13077042055954,1.3403306
58113,1577396011.55,0.5468123011147104,1.8541631978849085,7.007419493140244,0.1983683668183113,0.577119390422541,4.0771502417587655,-2.1043280737900143,8.444115674721322,10.049807456411967,3.8755463390815534,-5.298893626143292,2.851346643959604,-0.2290679187309451,7.282908369855183,2.013787990663109,19.7180771246189,31.4731132693407,-9.87429735137195,9.48298675730631,-3.286650068681319,2.3027175453514714,-20.96294897232397,24.08604427182013,-58.49132854325161,31.20756581903136,37.43753556773595,42.46943421092042,1577396007.0,-27.685822693812288,-51.13077042055954,1.3403306
58114,1577396011.56,-0.4635407994712271,-0.8656498880525912,7.117552769507431,0.1768205518769051,-1.7500446232493327,6.90230820074314,-6.835270554258765,-8.10939460359899,12.908484238638527,2.7769135265815548,4.558284108231708,3.217557581459604,-1.7854644031059452,-7.273976395769817,3.173455959413109,-9.426209984756095,4.220916003715701,-9.87429735137195,9.48298675730631,-2.921466727716725,0.8856605943659495,-18.24686736874237,-4.420856227106227,-69.71350204282896,31.063797286368946,37.58130410039836,42.2777428340372,1577396007.0,-27.685822693812288,-51.13077042055954,1.3403306
58115,1577396011.57,-0.3773495397056021,-4.744256577505716,6.0377678207769625,-1.2465323350859845,-0.3135236271555834,9.137295450499,-1.7942789587997805,6.4162268685689785,8.397808310904155,-22.705264207793444,3.886897389481707,3.583768518959604,-2.014346239043445,-3.3219500285823167,3.356561428163109,0.2936386480564028,-9.0084541134718,-4.0912162966844505,9.48298675730631,-2.556283386752136,1.2399248321123264,-21.020737942612943,-3.0488663635215354,-62.57211890673429,31.20756581903136,37.58130410039836,42.3017042561476,1577396007.0,-27.685822693812288,-51.13077042055954,1.3403306
58116,1577396011.58,-0.9591405431235708,4.160976497445455,11.527672227515245,-0.8143789354277814,-0.2177555607493329,9.447344565489232,2.6673158349013906,6.820846949135385,4.449769773306499,2.5175141125190548,-2.6743819073932924,3.110746058022104,-2.823062059355945,-6.114308427019817,3.203973537538109,2.384092749618903,3.1528007693407014,25.43454053925305,9.977751283774468,-2.556283386752136,1.4170569509855149,-20.558426180301183,-1.981763136288998,-68.35323858833475,31.159642974810552,37.772995477281576,42.325665678258005,1577396007.0,-27.685822693812288,-51.13077042055954,1.3403306
58117,1577396011.59,-0.7987290318931021,3.7479767110685023,8.41999847263243,-1.345891703982469,2.195599712688166,11.286091440489232,-3.057220334532203,-10.41501080232946,7.349147983755717,8.025936964081556,-9.357731516768292,2.942899378334604,-1.3582183093559452,-8.891408036394816,1.0372254906631098,-11.867616234756095,15.2682792849657,14.05148389862805,8.493457704370002,-1.825916704822951,1.2399248321123264,-20.789582061457065,-2.286649772641151,-66.31284340659342,31.20756581903136,37.725072633060776,42.37358852247881,1577396007.0,-27.685822693812288,-51.13077042055954,1.3403306
58118,1577396011.6,-0.9423811315024772,-0.7028441751619663,5.80313605808165,-2.8183257249785623,2.9210428157155106,7.067508115293921,0.2443837548232657,1.0532151498189783,9.240567295279153,-8.362002489043444,-6.672184641768292,1.7832314095846038,-4.562564012480945,-2.147023270769817,1.1287782250381098,-7.717225609756097,11.5146171755907,5.842255383003049,10.307594301419906,-2.0085083753052464,1.7713211887318916,-10.560934320309322,-3.963526272577997,-57.8111968160045,30.92002875370653,37.725072633060776,42.37358852247881,1577396007.0,-27.685822693812288,-51.13077042055954,1.3403306
58119,1577396011.61,0.496534066251429,0.5780537130216264,7.295920793189072,-1.2561091417266097,-0.0669208561594896,6.462972196104468,-1.1945314429306395,-2.8936262869485985,5.825238627066264,-3.143496629668445,-1.4384199933307924,3.339627893959604,-2.395815965605945,-5.366627762957316,2.700433498475609,2.216246069931403,27.3684990115282,1.6766059689405486,8.823300722015436,-2.191100045787545,2.3027175453514714,-10.474250864875868,-4.344634568018188,-53.900439384333616,31.25548866325217,37.62922694461916,42.756971276245245,1577396007.0,-27.685822693812288,-51.13077042055954,1.3403306
58120,1577396011.62,0.2642965052162728,-1.0763396341463414,7.701737974585557,-0.9915498582793438,1.690423162395197,11.183140769102517,-0.835401193907202,-3.6322374991068016,7.107333616079936,-4.333682176543445,-4.993717844893292,4.011014612709603,-1.5413237781059452,-7.060353348894817,3.326043850038109,10.532286108993905,32.9684745974657,-9.87429735137195,9.318065248483594,-3.1040583981990206,1.4170569509855149,-20.44284823972324,-3.81108295440192,-65.63271167934629,31.30341150747297,37.725072633060776,42.37358852247881,1577396007.0,-27.685822693812288,-51.13077042055954,1.3403306
58121,1577396011.63,0.1158560022865843,0.9252129537442828,8.609140403784775,-2.8973343797637185,0.1437688899342598,8.317281381895484,0.5268995507217031,6.650858631264291,8.780880576529155,-0.4274321765434451,-0.1414229230182926,4.102567347084603,0.6254242687690549,-0.8652849895198171,3.600702053163109,16.0864853277439,30.4049980349657,-12.22415086699695,9.153143739660877,-1.4607333638583646,1.2399248321123264,-20.385059269434272,-3.048866363521536,-69.37343617920541,31.01587444214814,37.725072633060776,42.325665678258005,1577396007.0,-27.685822693812288,-51.13077042055954,1.3403306
58122,1577396011.64,0.4701978479897103,-1.073945432486185,8.2739521713629,1.498419868283155,-0.1028338810618329,7.66845273199314,-1.1059459815048582,7.874295679604135,12.503864158072124,-4.669375535918445,-5.329411204268292,3.797391565834604,-4.867739793730945,-0.3770037395198171,2.624139553163109,7.785704077743903,12.5522148318407,-4.503203601371951,8.493457704370002,-1.825916704822951,1.5941890698587031,-20.96294897232397,-1.829319818112921,-69.37343617920541,31.063797286368946,37.62922694461916,42.37358852247881,1577396007.0,-27.685822693812288,-51.13077042055954,1.3403306
58123,1577396011.65,0.3145747400795536,-0.0456358194490757,9.328598002661728,1.1883707532929209,-0.8210943791087084,9.760984982969704,-1.491412448790015,2.307776819740853,8.393019907583842,-2.502627489043445,-0.0803877667682928,3.156522425209604,-2.166934129668445,-1.5061541301448171,2.868280178163109,-3.994081078506097,-2.2945869259717986,3.5534370236280486,9.153143739660877,-2.191100045787545,3.0112460208442324,-20.96294897232397,-1.829319818112921,-69.37343617920541,31.111720130589752,37.60526552250876,42.06209003504358,1577396007.0,-27.685822693812288,-51.13077042055954,1.3403306
58124,1577396011.66,0.3361225550209603,2.2468122701505338,9.9977773666754,0.6149594556854988,1.86759408524676,7.03638349371189,-0.145871115782202,7.187159803139291,6.147258750357279,3.2651947765815548,-2.674381907393293,1.6611610970846038,-1.9075347156059448,-2.116505692644817,2.959832912538109,-0.9728408441310974,11.4840995974657,13.83786085175305,8.328536195547285,-0.5477750114468853,1.7713211887318916,-12.641337250712253,-3.963526272577997,-25.84500563539025,31.111720130589752,37.43753556773595,42.46943421092042,1577396007.0,-27.685822693812288,-51.13077042055954,1.3403306
58125,1577396011.67,0.6234267542397103,-0.2934356912752476,6.03297941745665,2.3363904493378427,-1.448375214069645,8.01321777105564,-1.5680269019150146,-7.759841161216177,7.789681089224467,-0.7326079577934451,1.4760087176067074,3.339627893959604,-3.708071824980945,-2.574269364519817,2.624139553163109,-8.632752953506097,14.5358574099657,14.75338819550305,8.493457704370002,-2.191100045787545,1.9484533076050947,-11.601135785510788,-4.26841290893015,-17.0032931811778,31.111720130589752,37.772995477281576,42.46943421092042,1577396007.0,-27.685822693812288,-51.13077042055954,1.3403306
58126,1577396011.68,0.2882385218178353,1.6291082418302212,6.30113000339415,-1.017886076541063,2.2075707209889472,9.183982382872044,5.458954970643578,-7.5276036001810205,10.624415854849468,0.0913666515815548,1.811702076981708,3.461698206459604,-4.379458543730945,-7.457081864519817,1.861200100038109,1.0413193121189026,6.357146472465701,-2.2754203982469514,8.493457704370002,-1.825916704822951,1.5941890698587031,-21.020737942612943,-4.420856227106227,-25.504939771766697,31.25548866325217,37.725072633060776,42.46943421092042,1577396007.0,-27.685822693812288,-51.13077042055954,1.3403306
58127,1577396011.69,-1.084836130281774,0.1913901449063925,10.124670054663682,-1.974369639773484,-0.4104887943919112,10.245810819151345,-4.187283518125953,1.8804118234029636,9.507520780386576,-6.881899949980944,-1.0264326886432928,1.7069374642721038,-1.663394090605945,0.7826642292301829,1.998529201600609,2.078916968368903,-0.0210273556592988,-0.5511772341844514,9.318065248483594,-0.5477750114468853,2.8341139019710444,-21.020737942612943,21.18962122647468,-26.185071499013805,31.20756581903136,37.70111121095037,42.2777428340372,1577396007.0,-27.685822693812288,-51.13077042055954,1.3403306
58128,1577396011.7,-0.0062482823813834,0.5804479146817826,10.739979881323835,-0.8694455736113751,-1.7380736149485516,8.94456221685642,3.146156166932641,-2.2890903677591456,10.329929050650248,-7.812686082793445,-1.0874678448932926,2.210477503334604,-0.3816558093559451,-4.649464677019817,2.471551662538109,0.1868271246189026,2.5424492068407014,-3.618193835746952,9.318065248483594,-0.5477750114468853,2.8341139019710444,-20.96294897232397,22.561611090059365,-25.84500563539025,31.01587444214814,37.38961272351514,42.18189714559559,1577396007.0,-27.685822693812288,-51.13077042055954,1.3403306
58129,1577396011.71,0.774261458829554,2.888458315072409,10.672942234839462,-1.405746745486375,3.823656841594417,9.861541452696263,1.4438787865615468,6.085827039467416,7.46885806676353,-0.3053618640434451,-3.742497141768293,2.118924768959604,-6.118960496855945,-2.940480302019817,3.081903225038109,2.506163062118903,2.2983085818407014,-4.289580554496951,8.98822223083816,-0.5477750114468853,1.062792713239138,-21.020737942612943,23.0189410445876,-26.185071499013805,31.01587444214814,37.58130410039836,42.37358852247881,1577396007.0,-27.685822693812288,-51.13077042055954,1.3403306
58130,1577396011.72,0.1278270105873656,1.830221181283346,8.194943516577744,1.5498952039765146,-0.1938135441477709,8.87513036871189,-0.3170565344833749,0.7527428414693691,9.548222208609232,9.368710401581556,-5.329411204268292,0.4709755502096037,-2.426333543730945,2.690012862042683,0.1827333031631097,-0.4082656488185974,5.899382800590701,0.8831489376905486,9.812829774951748,-2.556283386752136,1.2399248321123264,-20.44284823972324,21.49450786282683,-26.185071499013805,31.063797286368946,37.725072633060776,42.397549944589215,1577396007.0,-27.685822693812288,-51.13077042055954,1.3403306
58131,1577396011.73,0.6030760401283821,-1.7527016031404818,8.173395701636338,1.8000892774628428,0.107855865031916,8.901466586973607,-0.442752121641577,2.5184665658346037,7.3443595804354045,-9.796328660918444,2.635676686356707,1.3102089486471038,-4.501528856230945,-4.588429520769817,2.868280178163109,-2.224061547256097,5.533171863090701,3.1567085080030486,9.153143739660877,-1.0955500228937742,2.6569817830978484,-20.44284823972324,19.970074681066063,-26.185071499013805,31.01587444214814,37.62922694461916,42.46943421092042,1577396007.0,-27.685822693812288,-51.13077042055954,1.3403306
58132,1577396011.74,0.6330035608803353,0.9347897603849076,9.01615468601134,0.1983683668183113,0.3975542659108222,8.401078440000953,-2.640629245665015,1.0340615365377284,7.899814365591655,5.401425245331555,4.100520436356708,0.8677040658346037,-3.189272996855945,0.0502423542301829,-1.7398741187118902,0.3394150152439026,15.4819023318407,3.6144721798780486,9.153143739660877,-1.0955500228937742,2.6569817830978484,-19.98053647741148,20.274961317418214,-26.185071499013805,31.01587444214814,37.725072633060776,42.61320274358283,1577396007.0,-27.685822693812288,-51.13077042055954,1.3403306
58133,1577396011.75,0.2164124720131478,1.2532185811856895,9.126287962378528,2.307660029415968,-1.1060043766673016,8.489663901426734,1.8173742455459216,0.4522705331197596,9.41534401647056,-4.059023973418445,-5.512516673018292,1.1118446908346038,-6.210513231230945,2.888377119855183,0.7930848656631098,-2.773377953506097,5.350066394340701,7.062958508003049,9.812829774951748,-1.4607333638583646,2.3027175453514714,-20.84737103174604,21.646951181002905,-25.84500563539025,30.92002875370653,37.62922694461916,42.46943421092042,1577396007.0,-27.685822693812288,-51.13077042055954,1.3403306
58134,1577396011.76,-0.6455001256431021,0.0585119527677206,9.663786235083602,-1.5697495592070785,1.8747766902272287,8.40826104498142,0.3712764428115475,-3.705260649741568,8.892210953726421,-6.363101121855944,2.162654225419208,0.5777870736471038,-4.974551317168445,-1.3993426067073171,0.4573915062881097,-2.788636742568597,9.1189872927782,-2.550078601371951,8.740839967604082,-1.3694375286172151,2.0370193670416854,-15.848625101750107,20.96095624921056,-49.47958315722739,31.20756581903136,37.60526552250876,42.46943421092042,1577396007.0,-27.685822693812288,-51.13077042055954,1.3403306
58135,1577396011.77,-0.4994538243735709,0.7600130391935014,6.782364537085557,1.8599443189667488,-1.9631285710032391,9.284538852598608,1.5180990380263906,7.170400391518197,10.68666509801353,2.6548432140815548,6.175715748856708,0.8677040658346037,-0.9309722156059452,2.003367354230183,-0.0003721655868902,3.604795874618903,2.3898613162157014,-1.3293754763719514,8.493457704370002,-1.0955500228937742,2.6569817830978484,-10.849879171754177,20.274961317418214,-73.11416067906453,31.063797286368946,37.725072633060776,42.37358852247881,1577396007.0,-27.685822693812288,-51.13077042055954,1.3403306
58136,1577396011.78,-0.6359233190024771,-1.00690778600181,10.48380030368712,-0.6036891893340314,-1.319088324421208,8.89907238531345,-3.2008724341415777,-4.709628246177114,10.674694089712748,-12.542910692168444,-3.711979563643293,-0.6581748404153963,-3.402896043730945,-4.008595536394817,-0.4276182593368902,-4.604432641006097,-1.7300117306592988,-0.6274711794969513,8.493457704370002,-1.0955500228937742,2.6569817830978484,-11.196612993487996,20.274961317418214,-23.46454459002536,31.063797286368946,37.725072633060776,42.90073980890766,1577396007.0,-27.685822693812288,-51.13077042055954,1.3403306
58137,1577396011.79,-1.1458882726157584,2.00020949915444,11.616257688941024,-1.9540189256621563,2.1453214778248846,11.161592954161108,-4.148976291563453,-3.232405821860708,10.84468240758384,-1.4650298327934452,1.3844559832317074,0.5625282845846037,-5.630679246855945,-5.656544755144817,0.8846376000381098,-4.665467797256097,-0.0210273556592987,-9.05032274199695,8.328536195547285,-1.643325034340656,3.188378139717421,-20.44284823972324,19.970074681066063,-26.185071499013805,31.01587444214814,37.38961272351514,42.37358852247881,1577396007.0,-27.685822693812288,-51.13077042055954,1.3403306
58138,1577396011.8,0.4845630579506478,0.756421736703268,9.797861528052351,-0.7042456590605939,0.0719428401295727,9.176799777891578,-0.9958127051376708,1.5392380868306978,10.856653415884622,-4.074282762480944,-7.175724680830792,-0.6734336294778963,-2.502627489043445,1.7134503620426829,-0.1682188452743902,-3.2921767816310963,-0.9975898556592988,2.0275581173780486,8.57591845878136,-1.0042541876526268,1.3284908915489204,-20.558426180301183,20.274961317418217,-20.40395181741336,31.11172013058975,37.58130410039836,42.46943421092042,1577396007.0,-27.685822693812288,-51.13077042055954,1.3403306
58139,1577396011.81,-0.2600336583579459,-0.2311864481111851,10.924333409155867,0.3204726514862801,-0.572097406452458,8.956533225157202,1.5468294579482655,1.4674120370260095,11.608432737173686,-3.051943895293445,8.311946217606707,-0.0173056997903963,-5.386538621855945,-3.367726395769817,0.3353211937881097,-9.273622094131095,-12.6553046994093,-0.1391899294969513,8.493457704370002,-1.0955500228937742,0.8856605943659495,-20.558426180301183,20.57984795377037,-21.424149408284023,31.20756581903136,37.62922694461916,41.75059154760835,1577396007.0,-27.685822693812288,-51.13077042055954,1.3403306
58140,1577396011.82,0.3456993616615853,1.5381285787442835,9.521331236304308,-1.8223378343535623,2.308127190715509,9.363547507383764,-0.9910243018173582,14.745654444252573,10.856653415884622,-8.056826707793444,3.947932545731707,0.2573525033346037,-3.799624559355945,-0.3464861613948171,0.2132508812881097,-0.1488662347560974,-14.9746406369093,8.55831983612805,8.493457704370002,-1.0955500228937742,0.8856605943659495,-20.44284823972324,23.0189410445876,-64.27244822485208,31.063797286368946,37.62922694461916,42.37358852247881,1577396007.0,-27.685822693812288,-51.13077042055954,1.3403306
58141,1577396011.83,-0.3486191197837271,2.184563026986471,10.141429466284777,-1.2860366624785629,0.1102500666920727,9.529944522764623,-1.3992356848739995,-10.025953032554067,10.024668338980328,-5.157656785918445,0.2247880144817073,0.4709755502096037,-6.195254442168445,-1.2162371379573171,0.6710145531631094,-14.644715844131095,-18.4383857540968,5.8880317501905495,8.328536195547285,-1.643325034340656,1.4170569509855149,-20.61621515059015,22.409167771883286,-64.27244822485207,31.111720130589752,37.74903405517118,42.876778386797255,1577396007.0,-27.685822693812288,-51.13077042055954,1.3403306
58142,1577396011.84,-0.3234800023520865,-0.3437139261385288,9.809832536353134,-0.6204486009551251,3.6800047419850417,11.075401694395484,5.011239260194359,17.21647055753382,10.272468210806498,-9.185977098418444,1.9185136004192076,0.3336464486471037,-7.278628465605945,0.9657696979801828,-0.6412413062118902,3.391172827743903,-16.5615546994093,0.3490913205030487,9.153143739660877,-2.37369171626984,0.8856605943659458,-20.905160002035004,22.71405440823544,-66.99297513384053,31.01587444214814,37.725072633060776,42.51735705514122,1577396007.0,-27.685822693812288,-51.13077042055954,1.3403306
58143,1577396011.85,-1.3398186070884146,-1.0021193826814976,8.52294914401915,0.1409075269745613,-3.900037714069645,7.1369399634384525,-3.121863779356421,-2.7775075064310206,7.3443595804354045,-3.570742723418445,9.837825123856708,2.424100550209604,-4.806704637480945,4.597361494855183,-0.5496885718368902,-13.698670922256095,-8.5354316525343,8.61935499237805,7.998693177901848,-1.643325034340656,1.7713211887318916,-20.905160002035004,22.71405440823544,-69.03337031558186,31.20756581903136,37.58130410039836,42.46943421092042,1577396007.0,-27.685822693812288,-51.13077042055954,1.3403306
58144,1577396011.86,-1.1363114659751334,2.5341164693692835,12.004118357886338,-3.3953283250762185,-0.8617958073313641,11.427349338438452,-6.789780722715796,-11.525920372641956,8.483999570669779,-6.622500535918445,-5.085270579268292,0.0742470345846036,-6.027407762480945,-7.365529130144817,3.142938381288109,-9.212586937881095,-3.0727851681592986,-2.3059379763719514,7.998693177901848,-1.643325034340656,1.7713211887318916,-20.96294897232397,-3.963526272577997,-68.0131727247112,31.20756581903136,37.43753556773595,42.325665678258005,1577396007.0,-27.685822693812288,-51.13077042055954,1.3403306
58145,1577396011.87,-0.1427177770102896,1.059288246713033,11.882014073218368,-0.6312225084258285,0.7925975398366044,12.179128659727514,0.9770094628310786,8.798457520424448,8.45766335240806,-0.1527739734184451,-6.428044016768292,0.0437294564596036,-4.730410692168445,3.178294112042683,-0.5191709937118902,0.3851913824314025,9.4546806521532,1.3561713986280486,8.163614686724566,-1.825916704822951,0.8856605943659495,-18.795862586487587,-4.344634568018188,-61.38188838405185,31.111720130589752,37.55734267828795,42.54131847725162,1577396007.0,-27.685822693812288,-51.13077042055954,1.3403306
58146,1577396011.88,-0.4982567235434932,0.0992133809903768,8.354157926978134,1.0004259229706551,0.1413746882741035,4.441068894102515,-2.760339328672828,-8.365574181235708,9.31957595006431,-6.363101121855944,4.497248951981708,1.3254677377096038,-5.600161668730945,0.4469708698551829,-0.0003721655868902,-5.977723656631097,16.6415703005907,2.1496284298780486,7.751310914667769,-2.099804210546396,2.0370193670416814,-19.17149089336589,-4.115969590754073,-69.71350204282896,31.11172013058975,37.53338125617755,42.61320274358283,1577396007.0,-27.685822693812288,-51.13077042055954,1.3403306
58147,1577396011.89,2.0886781702553354,2.03851672571694,7.613152513159775,-4.5182089036895,3.7661960017506666,9.363547507383764,-0.3685318701767333,-0.5748419790872705,4.00205406285728,-1.8312407702934448,-0.6602217511432926,0.5320107064596037,-8.835024949980944,-7.731740067644817,2.349481350038109,-3.536317406631097,14.5053398318407,2.8210151486280486,9.153143739660877,-2.556283386752136,2.6569817830978484,-19.17149089336589,-4.115969590754073,-69.71350204282896,31.20756581903136,37.62922694461916,42.325665678258005,1577396007.0,-27.685822693812288,-51.13077042055954,1.3403306
58148,1577396011.9,0.6138499475990853,-0.1569661966463413,8.793493931616807,2.3268136426972177,0.1006732600514473,6.301363584043921,-1.256780686094702,1.4793830453267909,11.17747643834556,1.6172455578315548,-1.2705733136432926,-0.3529990591653963,-5.111880418730945,8.320506026105184,-1.2210752905868902,-7.351014672256097,15.7260429568407,1.5392768673780486,9.153143739660877,-2.556283386752136,2.6569817830978484,-19.576013685388688,-4.26841290893015,-66.65290927021697,31.01587444214814,37.62922694461916,42.2777428340372,1577396007.0,-27.685822693812288,-51.13077042055954,1.3403306
58149,1577396011.91,-0.4874828160727896,0.10998728846108,11.328953489722275,0.0738698804901868,0.4945194331471513,7.769009201719703,1.1003108483291255,-3.280289855063833,11.066146061148295,-11.581606981230944,6.389338795731708,0.1657997689596036,-10.376162645293444,-0.3312273723323171,1.5560243187881095,-4.924867211318597,5.304290027153201,-5.8002006716844505,8.246075441135925,-2.8301708924755795,1.5056230104221089,-15.70415267602768,-3.81108295440192,-62.912184770357854,31.08775870847935,37.58130410039836,42.397549944589215,1577396007.0,-27.685822693812288,-51.13077042055954,1.3403306
58150,1577396011.92,-1.890484988924352,1.2532185811856895,8.515766539038681,-2.971554631228562,1.881959295207697,12.856687729551734,-2.9806058814072025,9.219837012611949,12.221348362173686,-4.791445848418445,14.659602467606708,2.240995081459604,-5.661196824980945,1.4540509479801829,-0.8243467749618902,1.2549423589939026,2.1152031130907014,-1.4209282107469514,7.668850160256408,-2.37369171626984,3.188378139717421,-10.849879171754177,-4.420856227106227,-69.71350204282896,31.25548866325217,37.58130410039836,42.61320274358283,1577396007.0,-27.685822693812288,-51.13077042055954,1.3403306
58151,1577396011.93,-1.794716922518102,2.03851672571694,9.363313926733994,1.227875080685499,-1.7955344547923016,10.304468759825172,0.955461647889672,1.7140148080221032,7.990794028677592,-3.997988817168445,3.368098561356707,-0.2919639029153963,-2.914614793730945,8.534129072980184,1.0677430687881098,-4.268739281631097,-0.8755195431592988,-1.5124809451219514,8.328536195547285,-2.0085083753052464,1.062792713239138,-10.849879171754177,-2.286649772641151,-69.37343617920541,30.92002875370653,37.38961272351514,42.37358852247881,1577396007.0,-27.685822693812288,-51.13077042055954,1.3403306
