,timestamp,acc_x_dashboard,acc_y_dashboard,acc_z_dashboard,acc_x_above_suspension,acc_y_above_suspension,acc_z_above_suspension,acc_x_below_suspension,acc_y_below_suspension,acc_z_below_suspension,gyro_x_dashboard,gyro_y_dashboard,gyro_z_dashboard,gyro_x_above_suspension,gyro_y_above_suspension,gyro_z_above_suspension,gyro_x_below_suspension,gyro_y_below_suspension,gyro_z_below_suspension,mag_x_dashboard,mag_y_dashboard,mag_z_dashboard,mag_x_above_suspension,mag_y_above_suspension,mag_z_above_suspension,temp_dashboard,temp_above_suspension,temp_below_suspension,timestamp_gps,latitude,longitude,speed
120786,1577396638.28,-1.160253482576696,0.9347897603849076,11.24276222995665,0.0044380323456551,0.6752816584889472,12.626844370176734,1.1039021508193594,4.122581678139291,11.998687607779154,-3.784365770293445,0.7741044207317074,3.095487268959604,-0.4426909656059451,4.048045088605183,1.3729188500381098,-8.327577172256097,3.4579765505907014,2.6379096798780486,-3.3808909308657284,-13.876966956654456,0.5313963566195653,-13.565960775335776,7.012392636099534,-25.84500563539025,27.94881241201665,34.753856291370894,36.67077006020308,1577396638.0,-27.709031366174347,-51.10846114126295,22.442324
120787,1577396638.29,-1.8018995274985707,0.4451755208829545,9.402818254126572,-1.4464481737090311,0.720771490031916,12.289261936094702,-0.3110710303329833,2.654936060463509,10.174305942740093,-1.770205614043445,0.4384110613567074,3.354886683022104,-1.6633940906059452,-4.802052567644817,2.166375881288109,-2.315614281631097,-5.361603527534299,5.292938976753049,-3.5458124396884485,-14.059558627136752,0.8856605943659458,-13.565960775335776,7.012392636099534,-25.84500563539025,28.26031089945188,34.993470512474914,36.52700152754066,1577396638.0,-27.709031366174347,-51.10846114126295,22.442324
120788,1577396638.3,-0.3725611363852896,1.0568940450528763,8.5804099838629,-0.26012125110161,0.8871685054127758,10.626488883116188,-0.3194507361435306,1.7906292611471033,8.285280832876811,1.7698334484565548,-3.193180735518293,3.431180628334604,2.3954438000190548,-9.288136552019816,2.227411037538109,-4.741761742568597,2.466155261528201,3.4771430783155486,-3.5458124396884485,-13.69437528617216,1.4170569509855149,-13.594855260480262,8.613047476948338,-60.021624929557625,28.23634947734148,34.993470512474914,36.76661574864468,1577396638.0,-27.709031366174347,-51.10846114126295,22.442324
120789,1577396638.31,0.6569455774818977,0.4272190084317826,8.592380992163681,1.0052143262909676,1.709576775676447,6.957374838926734,2.490144912049828,-3.842927245200552,6.204719590201029,-0.7326079577934451,-8.564274485518293,2.759793909584604,-3.921694871855945,0.3859357136051829,4.1805360375381095,-1.2474990472560974,4.465056628715701,0.9594428830030488,-3.8756554573338846,-13.329191945207567,1.4170569509855149,-13.450382834757836,9.45148572691676,-91.137651451113,28.284272321562284,34.8017791355917,36.86246143708629,1577396638.0,-27.709031366174347,-51.10846114126295,22.442324
120790,1577396638.32,1.1405743128334602,0.3314509420255326,7.83341906589415,0.8831100416229988,-1.4028853825266765,6.315728794004859,-0.078833469297827,-1.0249518911966455,9.355488974966653,2.8379486828315548,1.4149735613567074,3.675321253334604,-1.1445952624809452,5.024607588605183,2.685174709413109,-1.8578506097560967,9.0121757693407,1.1425483517530486,-3.8756554573338846,-14.424741968101342,1.7713211887318916,-13.450382834757836,12.500352090438296,-91.137651451113,28.284272321562284,35.13723904513733,36.71869290442388,1577396638.0,-27.709031366174347,-51.10846114126295,22.442324
120791,1577396638.33,-0.1032134496177115,0.3553929586270951,9.836168754614851,-0.8227586412383282,0.7088004817311347,10.81563081426853,1.3481107201552966,1.3512932565084317,10.407740604605326,-2.411074754668445,0.8046219988567073,3.431180628334604,1.5256928234565548,-4.344288895769817,3.478631740663109,1.5601181402439028,-6.0940254025343,3.5686958126905486,-4.123037720567963,-13.78567112141331,2.037019367041689,-16.22425340862841,5.335516136162689,-16.66322731755424,28.116542366789467,35.13723904513733,36.76661574864468,1577396638.0,-27.709031366174347,-51.10846114126295,22.442324
120792,1577396638.34,-0.2001786168540396,1.265189589486471,9.837365855444933,-0.4145472581816876,0.1198268733326973,10.531917917540015,-1.6087283301376707,1.163348426186166,10.918902659048683,-2.136416551543445,-0.8738447980182926,2.698758753334604,-0.6868315906059451,-2.787892411394817,2.715692287538109,1.4685654058689026,-2.7981269650342986,5.628632336128049,-4.205498474979322,-14.789925309065936,2.125585426478283,-16.628776200651203,10.213702317797145,-12.582436954071568,28.044658100458264,34.94554766825411,36.81453859286549,1577396638.0,-27.709031366174347,-51.10846114126295,22.442324
120793,1577396638.35,-0.4515697911704459,0.4248248067716264,9.21247922214415,-1.175903386111375,-1.7380736149485516,9.313269272520484,-1.814629672911108,1.184896241127572,11.306763327993998,2.1360443859565548,-0.3245283917682927,3.400663050209604,0.6864594250190549,-2.055470536394817,2.959832912538109,-6.893251000381097,10.0802910037157,4.987763195503049,-4.865184510270196,-13.69437528617216,2.47984966422466,-17.72676663614164,5.487959454338766,-24.484742180896028,28.23634947734148,34.94554766825411,36.67077006020308,1577396638.0,-27.709031366174347,-51.10846114126295,22.442324
120794,1577396638.36,-0.5640972691977897,0.4798914449552201,10.641817613257432,-1.6930509447051252,1.7981622371022283,11.839152023985328,-1.3381835425400146,1.3884033822408532,9.69546561070884,-2.319522020293445,-2.949040110518293,2.881864222084604,2.3954438000190548,-6.846730302019817,3.7838075219131095,3.848936499618903,2.5729667849657014,4.529999523628049,-4.205498474979322,-13.69437528617216,2.47984966422466,-13.392593864468866,6.25017604521915,-15.302963863060016,28.38011801000389,35.233084733578934,36.52700152754066,1577396638.0,-27.709031366174347,-51.10846114126295,22.442324
120795,1577396638.37,-0.6766247472251333,0.0118250203946737,9.740400688208602,-0.3738458299590314,-0.1279729984934735,8.76619419317478,-1.524931272032202,2.1473653085103845,8.37506339513267,0.0455902843940548,2.345759694169208,3.446439417397104,-3.769106981230945,10.563548018292684,2.364740139100609,3.742124976181403,4.6023857302782005,3.4924018673780486,-4.370419983802041,-14.242150297619045,2.6569817830978524,-13.392593864468868,5.640402772514843,-24.824808044519585,28.308233743672687,34.993470512474914,36.790577170755085,1577396638.0,-27.709031366174347,-51.10846114126295,22.442324
120796,1577396638.38,0.1445864222084593,0.9730969869474076,8.934751829566027,-0.0242923875762188,1.9753331599537909,8.74105507574314,0.5412647606826407,-1.6187139029153954,11.39534878941978,0.7627533703315549,-1.4536787823932926,3.400663050209604,5.172543409394055,-5.595509598894817,3.600702053163109,-3.414247094131097,4.373503894340701,0.6847846798780487,-4.535341492624759,-13.329191945207567,2.47984966422466,-13.62374974562475,10.213702317797145,-25.504939771766697,28.38011801000389,34.993470512474914,36.71869290442388,1577396638.0,-27.709031366174347,-51.10846114126295,22.442324
120797,1577396638.39,0.0990965906654906,0.7911376607755327,9.973835350073838,-1.2405468309355938,1.0344119075123848,10.144057248594702,-1.1203111914657955,1.8217538827291344,9.815175693716654,-1.3429595202934452,-2.338688548018293,3.064969690834604,1.0526703625190548,-6.327931473894817,4.1195008812881095,8.518125952743903,-13.4487617306593,1.3256538205030486,-4.535341492624759,-13.329191945207567,2.47984966422466,-13.565960775335776,10.366145635973224,-25.84500563539025,28.14050378889987,34.993470512474914,36.81453859286549,1577396638.0,-27.709031366174347,-51.10846114126295,22.442324
120798,1577396638.4,0.2008501612221317,0.3470132528165482,10.069603416480088,1.498419868283155,-0.8043349674876141,8.52318272466892,-0.7276621192001708,3.947804956947884,12.496681553091657,-0.747866746855945,3.291804616044207,3.187040003334604,1.0831879406440548,-4.771534989519817,3.7227723656631095,1.8958114996189024,-9.1457832150343,1.8444526486280488,-5.689792054383789,-13.329191945207567,1.9484533076050876,-13.565960775335776,10.366145635973224,-25.84500563539025,28.068619522568667,35.08931620091653,36.71869290442388,1577396638.0,-27.709031366174347,-51.10846114126295,22.442324
120799,1577396638.41,0.180499447110804,-0.4083573709627476,10.730403074683212,0.2175219800995613,0.556768676311213,11.426152237608374,-0.0680595618271244,-0.4192188711771143,11.881371726431498,-1.9838286609184448,-0.0498701886432926,2.698758753334604,-3.799624559355945,4.460032393292684,3.417596584413109,-4.726502953506097,-25.9609687619093,4.926728039253049,-4.370419983802041,-13.146600274725271,2.3027175453514714,-13.450382834757836,0.4573299545282312,-26.185071499013805,28.092580944679067,35.13723904513733,36.83850001497589,1577396638.0,-27.709031366174347,-51.10846114126295,22.442324
120800,1577396638.42,0.0392415491615843,0.5660827047208451,11.20445500339415,-0.8215615404082501,0.2922093928639473,11.05864228277439,0.5771777855849844,2.705214295326791,10.856653415884622,1.8919037609565548,1.0792802019817074,3.339627893959604,-0.7783843249809451,0.8131818073551829,4.0584657250381095,-5.275819359756097,-14.0591132931593,9.71798780487805,-4.370419983802041,-13.146600274725271,2.3027175453514714,-17.091087962962966,8.384382499684225,-26.185071499013805,28.092580944679067,34.94554766825411,36.67077006020308,1577396638.0,-27.709031366174347,-51.10846114126295,22.442324
120801,1577396638.43,-0.1594771886313834,1.1215374898770951,12.107069029273056,-0.6396022142363751,0.5723309871022285,10.04350077886814,0.3784590477920156,-1.0536823111185205,8.146417136587749,-0.2443267077934451,1.6591141863567074,3.156522425209604,2.9142426281440548,-1.1399431926448171,3.234491115663109,-5.428407250381097,-31.3015449337843,9.04660108612805,-4.370419983802041,-13.146600274725271,2.3027175453514714,-17.264454873829877,7.927052545155993,-20.40395181741336,28.23634947734148,34.993470512474914,36.52700152754066,1577396638.0,-27.709031366174347,-51.10846114126295,22.442324
120802,1577396638.44,-0.4419929845298209,0.6379087545255326,9.941513627661728,-2.1000652269316875,0.1701051081959785,8.908649191954076,0.9458848412490468,-0.6801868521341455,6.39625572301353,2.2123383312690548,2.742488209794208,3.370145472084604,-0.5342436999809451,2.155955244855183,3.509149318788109,-7.778260766006097,-9.0847480587843,6.177948742378049,-4.370419983802041,-13.69437528617216,1.2399248321123264,-18.940335012210014,2.896423045345459,-20.74401768103691,28.21238805523108,35.233084733578934,36.71869290442388,1577396638.0,-27.709031366174347,-51.10846114126295,22.442324
120803,1577396638.45,-0.7867580235923208,0.5541116964200639,10.2276207260504,-0.9185267076445782,-0.1495208134348803,11.222645096495093,-0.9096214453720464,1.0077253182760098,8.439706839956889,5.035214307831555,5.351741139481708,4.041532190834603,4.104428175019055,-2.589528153582317,3.493890529725609,3.070738257431403,11.5451347537157,3.0041206173780486,-5.030106019092914,-15.702883661477411,0.8856605943659495,-13.537066290191293,5.411737795250728,-20.23391888560158,28.14050378889987,34.96950909036451,36.910384281307095,1577396638.0,-27.709031366174347,-51.10846114126295,22.442324
120804,1577396638.46,-0.2360916417563834,-0.3987805643221226,8.264375364722275,-1.6475611131621564,0.9194902278248848,7.491281809141578,0.4239488793349844,1.8385132943502285,11.730537021841654,-1.0072661609184452,2.177913014481707,3.217557581459604,2.5480316906440548,0.5690411823551829,3.8753602562881095,7.388975562118903,4.983855456840701,2.5463569455030486,-4.865184510270196,-14.424741968101342,1.062792713239138,-13.277015923890923,7.7746092269799165,-12.582436954071568,28.14050378889987,35.28100757779974,36.81453859286549,1577396638.0,-27.709031366174347,-51.10846114126295,22.442324
120805,1577396638.47,-0.1570829869712271,0.908453542123189,10.095939634741804,-0.1918865037871563,1.2714378718678534,10.467274472715795,0.0001751854873284,2.9302692513814783,10.94763307897056,3.7229584484565534,1.1708329363567074,3.614286097084604,4.470639112519055,-6.633107255144817,4.8824403344131095,5.618956030868903,-4.781769543159299,3.3092963986280486,-4.865184510270196,-14.424741968101342,1.062792713239138,-13.62374974562475,10.213702317797145,-90.11745386024232,28.092580944679067,35.08931620091653,36.57492437176146,1577396638.0,-27.709031366174347,-51.10846114126295,22.442324
120806,1577396638.48,0.1014907923256468,0.426021907601705,11.64379100803282,1.1081649976776864,0.5328266597096504,10.534312119200171,1.5863337853408437,-0.0696654287943023,10.472384049429545,0.9000824718940548,1.0945389910442074,3.156522425209604,-1.9380522937309448,6.916697432355184,3.066644435975609,-1.6442275628810972,13.4067070193407,1.1883247189405486,-3.8756554573338855,-14.60733363858364,1.771321188731899,-13.62374974562475,7.16483595427561,-91.47771731473654,28.14050378889987,35.11327762302693,36.76661574864468,1577396638.0,-27.709031366174347,-51.10846114126295,22.442324
120807,1577396638.49,0.7814440638100227,-0.1402067850252476,10.605904588355088,1.5702459180878428,-0.0788918644602704,10.634868588926734,-0.6462592627548583,0.8473138070455409,11.50308786412681,0.8848236828315549,4.680354420731708,3.736356409584604,1.8156098156440548,4.078562666730183,5.5538270531631095,1.7737411871189026,9.8056328005907,4.072235851753049,-4.040576966156604,-14.242150297619048,0.1771321188731884,-18.940335012210014,-4.420856227106227,-96.91877113271345,28.284272321562284,35.13723904513733,36.71869290442388,1577396638.0,-27.709031366174347,-51.10846114126295,22.442324
120808,1577396638.5,-0.0613149205649771,0.7408594259122514,10.337754002417588,-1.2070280076934063,0.6968294734303535,13.31158604498142,0.5604183739638907,0.703661707436166,12.149522312368996,6.164364698456555,7.426936451981708,4.346707972084603,-0.4732085437309451,-7.121388505144817,4.2110536156631095,1.6516708746189026,-0.4787910275342988,4.346894054878049,-3.215969422043012,-15.520291990995116,2.47984966422466,-18.940335012210014,5.945289408866995,-99.63929804170188,28.092580944679067,34.993470512474914,36.71869290442388,1577396638.0,-27.709031366174347,-51.10846114126295,22.442324
120809,1577396638.51,-0.4491755895102896,0.8869057271817826,9.90799480441954,-0.1823096971465313,0.9290670344655096,10.692329428770485,0.9530674462295156,0.818583387123666,8.742573349966655,3.2346771984565548,3.764827076981708,3.675321253334604,4.531674268769055,-1.5366717082698171,4.4551942406631095,1.4685654058689026,-8.2607734494093,4.957245617378049,-3.958116211745245,-15.611587826236264,2.0370193670416814,-18.940335012210014,5.945289408866995,-99.63929804170188,28.092580944679067,34.993470512474914,36.67077006020308,1577396638.0,-27.709031366174347,-51.10846114126295,22.442324
120810,1577396638.52,-0.6119813024009146,1.3848996724942837,9.061644517554308,-0.628828306765672,0.4837455256764472,9.78732120123142,-1.1873488379501709,-0.6406825247415674,9.681100400747903,5.218319776581555,5.473811451981708,4.163602503334603,2.5938080578315548,0.2180890339176828,4.8519227562881095,4.901792944931403,2.7865898318407014,4.972504406440549,-4.205498474979322,-14.789925309065936,1.4170569509855149,-17.611188695563698,7.012392636099533,-23.124478726401804,28.14050378889987,34.945547668254115,36.69473148231347,1577396638.0,-27.709031366174347,-51.10846114126295,22.442324
120811,1577396638.53,-1.1363114659751334,0.3027205221036576,11.216426011694931,-2.068940605349656,1.065536529094416,8.779362302305639,0.6537922387099844,2.1018754769674155,7.030719162954936,-1.8922759265434448,0.8961747332317074,3.705838831459604,3.4330414562690548,3.010447432355183,4.1500184594131095,-2.559754906631097,15.2682792849657,1.5697944455030486,-3.0510479132202923,-14.242150297619048,0.8856605943659495,-13.62374974562475,5.335516136162689,-23.46454459002536,28.14050378889987,35.08931620091653,36.81453859286549,1577396638.0,-27.709031366174347,-51.10846114126295,22.442324
120812,1577396638.54,-1.0453318028891958,1.3848996724942837,10.842930552710556,-0.4169414598418439,1.668875347453791,7.931814914610327,-1.6829485816025145,3.7395094125142903,7.555049326529154,2.1970795422065548,2.635676686356707,3.614286097084604,0.1066254406440548,1.9118146198551829,5.3096864281631095,11.386778296493905,6.662322253715701,5.781220226753049,-4.700263001447477,-15.702883661477411,1.2399248321123264,-17.49561075498576,5.792846090690919,-25.84500563539025,28.14050378889987,34.94554766825411,36.57492437176146,1577396638.0,-27.709031366174347,-51.10846114126295,22.442324
120813,1577396638.55,0.2200037745033821,1.280751900277486,10.313811985816026,-1.0825295213652817,0.759078716594416,10.156028256895484,-0.9263808569931395,0.8712558236471034,10.11205669957603,1.2815521984565548,2.071101491044207,3.476956995522104,0.6559418468940549,9.419138838605184,3.173455959413109,8.212950171493903,2.7255546755907014,2.8820503048780486,-5.112566773504273,-14.333446132860196,1.5056230104221089,-15.646363705738707,10.671032272325377,-96.57870526908988,28.18842663312068,35.13723904513733,36.71869290442388,1577396638.0,-27.709031366174347,-51.10846114126295,22.442324
120814,1577396638.56,0.0727603724037718,-0.0181025003572788,10.42633946384337,0.4353943311737801,-0.0238252262766772,9.126521543028296,-0.2883261145614994,-0.4766797110208647,10.185079850210794,2.2886322765815548,4.558284108231708,3.827909143959604,2.3649262218940548,4.978831221417683,4.8671815453506095,8.594419898056405,3.0612480349657014,1.6613471798780486,-3.5458124396884485,-15.155108650030524,0.7085284754927537,-13.594855260480262,2.667758068081344,-99.4692651098901,28.044658100458264,34.921586246143704,36.76661574864468,1577396638.0,-27.709031366174347,-51.10846114126295,22.442324
120815,1577396638.57,0.448650033048304,0.4415842183927201,10.18213089450743,0.1816089551972176,-0.2153613590891767,11.95886210699314,0.543658962342797,0.7204211190572597,10.52625358678306,0.4270600109565549,9.135920826981708,3.827909143959604,-1.8770171374809448,10.121043135480184,5.0655458031631095,3.696348608993903,0.7419120974657012,2.8515327267530486,-4.205498474979322,-14.789925309065936,1.4170569509855149,-13.508171805046809,-4.420856227106227,-105.0803518596788,28.284272321562284,34.94554766825411,36.81453859286549,1577396638.0,-27.709031366174347,-51.10846114126295,22.442324
120816,1577396638.58,-0.7029609654868522,0.3769407735685013,9.849336863745712,-1.9181059007598125,0.711194683391291,10.63008018560642,2.212417519471703,1.0867339730611658,8.721025535025248,1.6782807140815548,8.250911061356707,4.255155237709603,4.379086378144055,2.522166182355183,3.356561428163109,-3.383729516006097,15.7565605349657,3.0346381955030486,-4.700263001447477,-14.607333638583638,2.3027175453514714,-13.565960775335776,3.0488663635215367,-8.161580726965344,27.94881241201665,35.08931620091653,36.86246143708629,1577396638.0,-27.709031366174347,-51.10846114126295,22.442324
120817,1577396638.59,-0.6574711339438833,0.9276071554044388,9.156215483130476,-1.0083092699004377,-0.4332337101633954,5.77224501714939,0.0983374535537344,-0.0600886221536768,8.883831247915872,2.0292328625190548,3.673274342606708,3.141263636147104,1.6630219250190548,4.048045088605183,4.5772645531631095,3.482725562118903,8.5238945193407,5.201386242378049,-4.700263001447477,-13.876966956654456,2.3027175453514714,-13.565960775335776,7.927052545155993,-12.922502817695126,28.18842663312068,35.13723904513733,36.71869290442388,1577396638.0,-27.709031366174347,-51.10846114126295,22.442324
120818,1577396638.6,-0.2025728185141959,1.887682021127096,9.394438548316026,-1.5841147691680155,1.0535655207936347,9.197150492002905,-0.3158594336532963,-0.1965581167825836,9.221413681997904,3.3262299328315548,5.473811451981708,2.973416956459604,0.6254242687690548,2.1101788776676838,4.4246766625381095,1.3159775152439028,11.3925468630907,3.8128364376905486,-2.886126404397574,-14.789925309065936,2.47984966422466,-15.212946428571431,6.631284340659342,-25.33490683995492,28.23634947734148,34.993470512474914,36.67077006020308,1577396638.0,-27.709031366174347,-51.10846114126295,22.442324
120819,1577396638.61,-0.949563736482946,0.2548364889005326,9.298670481909776,-0.8694455736113751,0.2586905696217598,9.80647481451267,2.1980523095107656,1.3716439706197594,9.949250986685405,-3.387637254668445,4.161555592606708,3.095487268959604,-0.1985503406059451,3.773386885480183,4.3636415062881095,-1.6747451410060974,10.5075370974657,3.2482612423780486,-4.700263001447477,-13.876966956654456,2.6569817830978484,-16.859932081807084,5.335516136162689,-23.46454459002536,28.092580944679067,34.94554766825411,36.86246143708629,1577396638.0,-27.709031366174347,-51.10846114126295,22.442324
120820,1577396638.62,-1.2320795323813831,1.1023838765958451,10.184525096167588,-0.2852603685332501,1.506069634563166,7.903084494688453,-2.839347983457984,3.4809356332174155,9.642793174185403,0.8543061047065549,7.732112233231708,3.614286097084604,-4.379458543730945,0.8436993854801829,4.8214051781631095,7.327940405868903,-1.1501777462842988,4.743622570503049,-2.886126404397574,-15.155108650030524,2.125585426478283,-16.859932081807084,5.335516136162689,-23.46454459002536,28.092580944679067,34.993470512474914,36.81453859286549,1577396638.0,-27.709031366174347,-51.10846114126295,22.442324
120821,1577396638.63,-1.1446911717856805,1.4399663106778768,9.58956598361876,-1.7660740953398908,1.5910637934987129,11.29566824712986,-0.701325900938452,-1.4954125174173487,10.87101862584556,-0.183291551543445,2.299983326981708,3.385404261147104,-0.2901030749809452,3.269846846417683,4.3483827172256095,3.497984351181403,1.2301933474657014,2.8210151486280486,-2.886126404397574,-15.155108650030524,2.125585426478283,-15.09736848799349,7.241057613363649,-68.18320565652297,28.092580944679067,34.96950909036451,36.742654326534286,1577396638.0,-27.709031366174347,-51.10846114126295,22.442324
120822,1577396638.64,-0.8609782750571646,0.7480420308927201,9.34176611179259,-0.9245122117949688,-0.8881320255930829,7.776191806700171,-1.6925253882431397,2.6357824471822595,10.121633506216654,1.3120697765815548,5.962092701981708,3.644803675209604,-0.4732085437309451,-2.147023270769817,4.4551942406631095,-1.2780166253810974,0.7113945193407012,2.7599799923780486,-4.040576966156604,-13.876966956654456,2.6569817830978484,-18.1890783984534,12.195465454086143,-90.45751972386589,28.38011801000389,35.13723904513733,36.86246143708629,1577396638.0,-27.709031366174347,-51.10846114126295,22.442324
120823,1577396638.65,-0.6766247472251333,0.6498797628263139,8.568438975562119,-1.0921063280059065,-0.6223756413157391,9.65324590826267,-0.3685318701767333,1.9294929574361657,10.021077036490093,-0.9767485827934452,6.572444264481708,4.316190393959603,-1.6328765124809452,-2.604786942644817,4.1195008812881095,-4.757020531631097,15.1156913943407,2.9125678830030486,-4.700263001447477,-15.702883661477411,2.6569817830978484,-13.62374974562475,-3.81108295440192,-104.40022013243168,28.284272321562284,35.13723904513733,36.71869290442388,1577396638.0,-27.709031366174347,-51.10846114126295,22.442324
120824,1577396638.66,-0.7520420995200553,0.660653670297017,9.025731492651964,-0.6228428026152814,0.7662613215748847,9.90942548589939,0.9123660180068596,0.6174704476705409,9.053819565786966,0.7169770031440549,0.3315995379192073,3.431180628334604,-4.135317918730945,11.189158369855184,3.387079006288109,2.750303687118903,-1.8215644650342988,4.560517101753049,-5.112566773504273,-13.968262791895604,1.8598872481684927,-20.09611441798942,1.6768764999368453,-15.302963863060016,28.092580944679064,35.13723904513733,36.81453859286549,1577396638.0,-27.709031366174347,-51.10846114126295,22.442324
120825,1577396638.67,-0.8202768468345084,1.4710909322599086,9.126287962378528,-1.099288932986375,-0.032204932087224,9.284538852598608,-0.6678070776962646,-0.7160998770364893,10.42330291539634,-0.5800200671684451,3.062922780106707,3.522733362709604,-4.867739793730945,8.213694502667684,4.2110536156631095,-2.544496117568597,-6.063507824409299,5.155609875190549,-5.195027527915633,-14.059558627136752,1.7713211887318916,-17.091087962962966,5.945289408866996,-22.10428113553113,27.94881241201665,34.993470512474914,36.71869290442388,1577396638.0,-27.709031366174347,-51.10846114126295,22.442324
120826,1577396638.68,-1.2320795323813831,1.0856244649747515,10.538866941870712,-2.3490621995879377,0.8285105647389472,10.61810917730564,-0.6079520361923583,-1.3673227285989893,9.037060154165871,-2.807803270293445,4.070002858231708,3.400663050209604,1.4188813000190548,-5.503956864519817,4.3636415062881095,-0.7592177972560974,-8.1997382931593,4.713104992378049,-5.195027527915633,-14.424741968101342,2.8341139019710444,-18.24686736874237,-3.2013096816976128,-24.824808044519585,28.23634947734148,35.13723904513733,36.81453859286549,1577396638.0,-27.709031366174347,-51.10846114126295,22.442324
120827,1577396638.69,-1.3565780187095082,0.7432536275724076,9.008972081030867,-1.661926323123094,0.9961046809498848,8.298127768614235,-0.9575054785751708,2.676483875404916,11.77842105504478,-2.502627489043445,0.7741044207317074,3.522733362709604,-4.409976121855945,4.688914229230183,3.387079006288109,-7.106874047256097,3.3053886599657014,3.4313667111280486,-4.205498474979322,-16.2506586729243,2.125585426478283,-13.565960775335776,5.487959454338766,-25.84500563539025,28.044658100458264,34.89762482403331,36.71869290442388,1577396638.0,-27.709031366174347,-51.10846114126295,22.442324
120828,1577396638.7,-1.5708590672934928,0.5912218221524858,8.494218724097275,-0.8239557420684064,-0.9503812687571452,8.808092722227515,-2.7651277319931404,3.3851675668111656,9.949250986685405,-1.1598540515434452,3.520686451981708,4.011014612709603,-2.517886278105945,0.6300763386051829,2.868280178163109,-0.4845595941310974,3.763152331840701,4.011200695503049,-4.9476452646815545,-14.333446132860196,1.682755129295305,-13.565960775335776,5.487959454338766,-25.84500563539025,28.23634947734148,35.28100757779974,36.71869290442388,1577396638.0,-27.709031366174347,-51.10846114126295,22.442324
120829,1577396638.71,-1.2248969274009145,1.3346214376310024,10.423945262183212,-1.5924944749785626,1.9896983699147284,10.224263004209936,-0.7707577490829839,-0.0924103445657866,8.493576377310404,-1.6481353015434452,-7.068913157393292,2.881864222084604,-2.304263231230945,-3.7339373332698167,3.463372951600609,2.124693335556403,-1.9741523556592984,3.5534370236280486,-4.535341492624759,-14.789925309065936,1.4170569509855149,-13.01696555759056,6.631284340659342,-20.23391888560157,28.284272321562284,35.04139335669572,36.64680863809267,1577396638.0,-27.709031366174347,-51.10846114126295,22.442324
120830,1577396638.72,0.190076253751429,0.8270506856778764,9.858913670386338,1.89106894054878,-0.6606828678782392,7.158487778379858,0.4550735009170157,1.7140148080221032,7.028324961294779,-1.4039946765434452,-1.9114424542682928,3.522733362709604,-1.5718413562309452,1.7592267292301829,3.8143251000381095,2.017881812118903,13.1015312380907,1.8444526486280488,-5.52487054556107,-13.329191945207567,1.4170569509855149,-13.565960775335776,9.146599090564608,-25.84500563539025,28.428040854224697,34.993470512474914,36.86246143708629,1577396638.0,-27.709031366174347,-51.10846114126295,22.442324
120831,1577396638.73,0.1613458338295541,0.7767724508145951,7.301906297339462,1.3427967603729989,0.088702251750666,6.387554843809546,1.034470302674828,-0.5844187857278955,9.62603376256431,1.9224213390815548,6.541926686356708,4.133084925209603,-0.6868315906059451,-4.435841630144817,2.502069240663109,-3.688905297256097,22.1957695193407,1.6918647580030486,-4.205498474979322,-15.155108650030524,2.125585426478283,-16.744354141229145,8.994155772388531,-25.504939771766697,28.044658100458264,34.993470512474914,36.71869290442388,1577396638.0,-27.709031366174347,-51.10846114126295,22.442324
120832,1577396638.74,0.1565574305092415,0.5972073263028764,8.062065324439072,0.1624553419159676,2.3272808039967594,9.428190952207984,-2.015742612364233,-0.5485057608255518,9.087338389029153,-2.838320848418445,2.116877858231708,3.248075159584604,-4.379458543730945,1.0268048542301829,3.387079006288109,-1.3085342035060974,8.5238945193407,2.2716987423780486,-5.442409791149711,-13.968262791895604,2.214151485914874,-16.744354141229145,8.994155772388531,-25.504939771766697,28.21238805523108,34.993470512474914,36.86246143708629,1577396638.0,-27.709031366174347,-51.10846114126295,22.442324
120833,1577396638.75,-0.5904334874595084,1.530945973763815,8.13987687839415,-0.5318631395293444,-0.2345149723704267,8.571066757872046,-0.0345407385849369,1.4374845162740568,7.950092600454935,-2.227969285918445,4.192073170731708,2.881864222084604,-1.297183153105945,1.4387921589176829,3.463372951600609,-0.2404189691310971,8.2797538943407,3.3245551876905486,-6.184556580851943,-13.69437528617216,1.4170569509855149,-17.524505240130242,8.460604158772263,-19.89385302197802,28.044658100458264,34.89762482403331,36.76661574864468,1577396638.0,-27.709031366174347,-51.10846114126295,22.442324
120834,1577396638.76,-0.913650711580602,0.4511610250333451,9.533302244605087,-0.9819730516387188,1.4150899714772285,9.85196464605564,1.0177108910537345,-0.6897636587747705,11.914890549673686,-4.669375535918445,1.1403153582317074,2.668241175209604,-2.823062059355945,-0.4990740520198171,3.265008693788109,-1.8578506097560967,-1.2112129025342988,2.1801460080030486,-4.865184510270196,-14.059558627136752,2.125585426478283,-18.01571148758649,5.945289408866995,-26.185071499013805,28.284272321562284,34.993470512474914,36.57492437176146,1577396638.0,-27.709031366174347,-51.10846114126295,22.442324
120835,1577396638.77,-1.382914236971227,0.5086218648770952,9.05925031589415,-2.12400724353325,1.2618610652272284,11.748172360899389,-2.0827802588486084,0.5959226327291346,11.141563413443215,-4.455752489043445,4.253108326981708,2.973416956459604,-6.485171434355945,6.306345869855183,3.203973537538109,1.1939072027439026,-7.528351574409299,4.255341320503049,-4.865184510270196,-14.789925309065936,0.3542642377463768,-13.62374974562475,5.335516136162689,-15.302963863060016,28.23634947734148,34.993470512474914,36.67077006020308,1577396638.0,-27.709031366174347,-51.10846114126295,22.442324
120836,1577396638.78,-2.207716708895055,0.3278596395352982,10.45028148044493,-0.6455877183867658,-0.1363527043040209,9.450935867979467,0.1150968651748286,0.9694180917135096,10.930873667349466,-5.691714403105945,3.444392506669207,3.293851526772104,0.4270600109565547,-3.627125809832317,2.624139553163109,-0.5761123285060973,-7.757233410346799,5.506562023628049,-4.123037720567963,-13.603079450931014,2.391283604788065,-13.363699379324384,5.411737795250728,-15.13293093124824,28.092580944679067,34.825740557702105,36.81453859286549,1577396638.0,-27.709031366174347,-51.10846114126295,22.442324
120837,1577396638.79,-1.8018995274985707,0.9515491720060014,8.8102533432379,-2.267659343142625,2.645709624797542,12.588537143614234,-1.955887570860327,0.2248213754049159,9.286057126822122,-2.746768114043445,0.8961747332317074,3.553250940834604,-7.187075731230945,4.383738447980183,3.539666896913109,-3.780458031631097,-12.4416816525343,3.4618842892530486,-3.8756554573338846,-13.69437528617216,2.125585426478283,-15.877519586894593,10.671032272325377,-91.137651451113,28.044658100458264,35.08931620091653,36.71869290442388,1577396638.0,-27.709031366174347,-51.10846114126295,22.442324
120838,1577396638.8,-0.7652102086509146,1.195757741341939,8.285923179663682,-0.0506286058379376,-0.4954829533274579,10.620503378965797,-2.077991855528296,0.9622354867330408,6.932556894888529,1.6782807140815548,-2.613346751143293,3.705838831459604,-2.212710496855945,5.940134932355183,2.563104396913109,-7.228944359756097,-6.338166027534299,2.0275581173780486,-3.7107339485111663,-14.242150297619048,1.9484533076050947,-13.565960775335776,8.23193918150815,-90.45751972386589,28.14050378889987,34.94554766825411,36.910384281307095,1577396638.0,-27.709031366174347,-51.10846114126295,22.442324
120839,1577396638.81,-0.3965031529868521,-0.0635923319002481,8.491824522437119,-0.2948371751738751,-0.3805612736399579,6.219960727598608,-0.5289433814072021,1.0651861581197597,8.591738645376811,-3.311343309355945,0.3773759051067073,3.354886683022104,1.1747406750190548,-6.053273270769817,2.746209865663109,-4.787538109756097,-6.429718761909299,2.3022163205030486,-4.782723755858837,-14.698629473824786,0.7970945349293516,-13.450382834757836,11.890578817733992,-91.137651451113,28.21238805523108,34.89762482403331,36.81453859286549,1577396638.0,-27.709031366174347,-51.10846114126295,22.442324
120840,1577396638.82,-0.4084741612876334,0.4559494283536576,8.441546287573837,0.0092264356659681,0.3999484675709784,10.482836783506812,0.4706358117080317,1.7511249337545252,9.113674607290871,1.0679291515815548,0.3163407488567073,3.614286097084604,-5.951113817168445,-1.7350359660823171,3.097162014100609,-0.2709365472560974,-2.309845715034299,3.9959419064405486,-5.195027527915633,-13.329191945207567,2.47984966422466,-15.646363705738707,11.128362226853609,-96.57870526908992,28.284272321562284,35.04139335669572,36.81453859286549,1577396638.0,-27.709031366174347,-51.10846114126295,22.442324
120841,1577396638.83,-1.1003984410727896,0.3601813619474076,10.122275853003526,-0.2206169237090313,1.046382915813166,9.19355918951267,0.1294620751357657,1.4793830453267909,10.351476865591655,-4.089541551543445,-1.5147139386432926,3.217557581459604,-4.623599168730945,-1.9944353801448167,2.807245021913109,-5.428407250381097,4.159880847465701,3.4008491330030486,-5.195027527915633,-13.329191945207567,2.47984966422466,-17.90013354700855,11.738135499557911,-99.63929804170188,28.23634947734148,34.993470512474914,36.910384281307095,1577396638.0,-27.709031366174347,-51.10846114126295,22.442324
120842,1577396638.84,-0.5593088658774771,0.5349580831388139,11.489365000952745,0.1385133253144051,0.3041804011647285,8.37713642339939,0.3640938378310782,2.276652198158822,11.019459128775248,-4.821963426543445,-3.010075266768293,2.668241175209604,-1.8770171374809448,-9.257618973894816,4.0889833031631095,3.116514624618903,-4.385041027534299,4.499481945503049,-5.195027527915633,-13.329191945207567,2.47984966422466,-17.84234457671958,11.890578817733992,-102.0197590870668,27.94881241201665,35.32893042202055,36.86246143708629,1577396638.0,-27.709031366174347,-51.10846114126295,22.442324
120843,1577396638.85,-0.9651260472739616,0.0728771627286581,9.649421025122663,-1.2716714525176251,0.6800700618092597,12.550229917051734,-2.432333701231421,-0.1031842520364893,9.831935105337749,-2.487368699980945,2.788264576981707,3.354886683022104,-7.583804246855945,5.604441572980183,2.563104396913109,1.2244247808689026,4.037810534965701,3.6755073361280486,-5.52487054556107,-14.60733363858364,2.3027175453514714,-18.07350045787546,5.487959454338766,-14.96289799943646,28.14050378889987,34.993470512474914,36.67077006020308,1577396638.0,-27.709031366174347,-51.10846114126295,22.442324
120844,1577396638.86,-1.4882591100181022,-0.2479458597322788,9.06643292087462,-0.9568339342070782,0.3556557368580879,9.04870998907322,-0.5277462805771239,1.0113166207662438,10.440062327017436,-0.4274321765434451,4.222590748856708,3.980497034584604,1.8156098156440548,-3.367726395769817,3.6159608422256095,-1.5831924066310972,-5.1174629025343,3.8891303830030486,-5.030106019092914,-16.068067002442003,1.5941890698587031,-13.537066290191293,7.241057613363648,-25.67497270357848,28.14050378889987,35.04139335669572,36.81453859286549,1577396638.0,-27.709031366174347,-51.10846114126295,22.442324
120845,1577396638.87,-1.354183817049352,1.281949001107565,9.693713755835557,-2.157526066775437,0.7902033381764472,11.49199278326267,-0.8784968237900145,-1.8605282705911768,6.46568757115806,0.3049896984565549,-2.002995188643293,3.736356409584604,-3.006167528105945,-6.877247880144817,3.9669129906631095,3.482725562118903,12.8879081912157,4.438446789253049,-5.030106019092914,-16.068067002442003,1.5941890698587031,-15.704152676027675,10.213702317797145,-24.824808044519585,28.23634947734148,35.13723904513733,36.86246143708629,1577396638.0,-27.709031366174347,-51.10846114126295,22.442324
120846,1577396638.88,-0.2313032384360709,1.0353462301114702,9.3465545151129,0.4880667676972176,0.7806265315358222,8.420232053282202,0.5412647606826407,-2.705681456626333,7.842353525747905,1.4646576672065548,-5.298893626143292,3.370145472084604,-0.4732085437309451,-1.3840838176448171,2.685174709413109,-3.994081078506097,9.0426933474657,1.9665229611280488,-5.030106019092914,-16.068067002442003,1.5941890698587031,-17.784555606430608,-3.81108295440192,-113.24193258664414,28.428040854224697,35.08931620091653,36.57492437176146,1577396638.0,-27.709031366174347,-51.10846114126295,22.442324
120847,1577396638.89,-0.1822221044028682,0.0309786336759237,8.49781002658751,-0.1811125963164537,0.098279058391291,8.604585581114234,-0.7228737158798588,1.3596729623189785,11.108044590201027,-1.587100145293445,2.208430592606708,3.812650354897104,-0.3663970202934452,-6.709401200457316,3.8753602562881095,-3.658387719131097,6.7080986209032005,1.4172065548780486,-4.205498474979321,-14.60733363858364,1.5941890698587105,-18.478023249898254,-4.420856227106227,-90.11745386024232,28.14050378889987,35.20912331146853,36.86246143708629,1577396638.0,-27.709031366174347,-51.10846114126295,22.442324
120848,1577396638.9,-0.0206134923423209,0.6139667379239702,11.137417356909776,0.0666872755097176,-0.1052280827219892,12.873447141172829,-1.026937326719702,0.8736500253072597,11.850247104849467,-3.570742723418445,0.2858231707317073,3.431180628334604,0.7780121593940549,-6.175343583269817,2.776727443788109,-5.672547875381097,-11.7397773556593,4.865692883003049,-4.865184510270196,-14.789925309065936,0.0,-20.03832544770045,5.487959454338766,-14.96289799943646,28.044658100458264,34.8017791355917,36.81453859286549,1577396638.0,-27.709031366174347,-51.10846114126295,22.442324
120849,1577396638.91,-1.380520035311071,-0.4035689676424351,10.962640635718367,-1.0130976732207502,1.6042319026295722,10.33080497808689,1.1230557641006094,2.0108958138814783,14.17741111852134,-3.448672410918445,-0.5076338605182926,3.217557581459604,-3.799624559355945,-1.4756365520198171,3.7838075219131095,-6.984803734756097,-27.3037421994093,8.19210889862805,-4.535341492624759,-14.789925309065936,1.4170569509855149,-17.206665903540905,7.7746092269799165,-9.18177831783601,28.044658100458264,35.13723904513733,36.71869290442388,1577396638.0,-27.709031366174347,-51.10846114126295,22.442324
120850,1577396638.92,-1.2751751622641958,1.2699779928067836,9.966652745093368,0.3707508863495614,0.7949917414967597,12.013928745176733,-0.5672506079697021,2.796193958412728,9.968404599966654,-0.1222563952934451,1.7506669207317074,3.888944300209604,-2.334780809355945,-7.304493973894817,4.2415711937881095,-5.001161156631097,-28.0056464962843,9.19918897675305,-4.535341492624759,-14.789925309065936,1.4170569509855149,-16.802143111518113,7.927052545155993,-20.40395181741336,27.94881241201665,35.08931620091653,36.81453859286549,1577396638.0,-27.709031366174347,-51.10846114126295,22.442324
120851,1577396638.93,-1.7444386876548208,0.5026363607267046,10.779484208716417,-0.849094859500047,0.7004207759205878,11.781691184141575,0.3198011071181881,-1.1877576040872706,7.684336216177592,0.152401807831555,0.5757401629192072,3.782132776772104,-1.281924364043445,0.5842999714176829,3.6464784203506095,-6.221864281631097,-13.0062568478468,6.391571789253049,-4.535341492624759,-14.059558627136752,1.4170569509855149,-16.10867546805047,1.3719898635846914,-25.504939771766693,28.04465810045826,34.993470512474914,36.62284721598228,1577396638.0,-27.709031366174347,-51.10846114126295,22.442324
120852,1577396638.94,-2.003012466951696,-0.4203283792635289,9.645829722632431,-2.131189848513719,-0.2847932072337079,7.373965927793921,-2.664571262266578,1.0987049813619472,7.8303825174471235,-2.227969285918445,-0.8433272198932926,3.461698206459604,2.6395844250190548,-2.787892411394817,4.3941590844131095,12.088682593368905,-15.5544746212843,3.4924018673780486,-4.040576966156604,-13.511783615689868,3.0112460208442324,-13.565960775335776,0.9146599090564612,-25.84500563539025,28.044658100458264,34.89762482403331,36.81453859286549,1577396638.0,-27.709031366174347,-51.10846114126295,22.442324
120853,1577396638.95,-1.2943287755454458,0.9347897603849076,8.19015511325743,-0.7138224657012189,0.5938788020436347,9.318057675840794,-2.109116477110327,2.468188330971322,9.135222422232278,4.760556104706555,1.964289967606708,4.346707972084603,-0.5647612781059451,5.329783369855183,3.9058778344131095,5.130674780868903,1.6574394412157012,2.9430854611280486,-3.7107339485111663,-13.511783615689868,2.3027175453514714,-13.103649013024016,0.9146599090564612,-17.0032931811778,28.044658100458264,35.13723904513733,36.81453859286549,1577396638.0,-27.709031366174347,-51.10846114126295,22.442324
120854,1577396638.96,-0.7005667638266959,0.6965666951993608,9.771525309790634,-2.614818583865281,1.4940986262623848,9.241443222715796,1.4510613915420154,0.5097313729635096,7.737008652701029,-0.8089019031059452,-5.176823313643292,3.7668739877096034,0.8695648937690549,6.184275557355183,3.326043850038109,2.384092749618903,1.7184745974657012,2.8515327267530486,-3.793194702922525,-13.420487780448717,1.682755129295305,-13.161437983312986,10.213702317797145,-94.198244223725,28.092580944679067,34.993470512474914,36.57492437176146,1577396638.0,-27.709031366174347,-51.10846114126295,22.442324
120855,1577396638.97,-0.0517381139243521,0.1518858175138139,8.374508641089463,0.3599769788788587,-0.6403321537669115,8.896678183653297,-1.0293315283798583,-0.1115639578470367,11.367815470327985,4.821591260956555,1.872737233231708,4.560331018959603,-1.602358934355945,4.688914229230183,4.4857118187881095,4.123594702743903,2.603484363090701,2.1343696408155486,-4.205498474979322,-14.789925309065936,0.3542642377463768,-13.219226953601956,-4.26841290893015,-91.137651451113,28.23634947734148,35.04139335669572,36.790577170755085,1577396638.0,-27.709031366174347,-51.10846114126295,22.442324
120856,1577396638.98,-0.6359233190024771,-0.3987805643221226,10.977005845679306,-0.2804719652129376,1.2067944270436346,11.420166733457984,-0.3206478369736083,1.8121770760885092,9.712225022329935,-3.875918504668445,-1.2095381573932926,3.949979456459604,3.1889008312690548,-5.870167802019817,3.9974305687881095,6.107237280868903,-2.4624336056592986,5.842255383003049,-5.359949036738351,-16.068067002442003,3.7197744963369854,-13.62374974562475,-4.115969590754073,-90.79758558748944,28.092580944679067,35.08931620091653,36.71869290442388,1577396638.0,-27.709031366174347,-51.10846114126295,22.442324
120857,1577396638.99,-1.0094187779868522,0.3242683370450638,11.67132432712462,-2.210198503298875,-0.9623522770579266,8.67641163091892,0.0552418236709219,0.2152445687642909,10.59089703160728,2.0750092297065548,-0.2634932355182927,4.316190393959603,5.264096143769055,-7.609669755144817,5.5538270531631095,-2.163026391006097,-0.1736152462842987,5.750702648628049,-4.700263001447477,-14.607333638583638,1.5941890698587031,-18.13128942816443,8.384382499684225,-12.582436954071568,28.092580944679067,34.94554766825411,36.67077006020308,1577396638.0,-27.709031366174347,-51.10846114126295,22.442324
120858,1577396639.0,-0.7053551671470084,0.8162767782071737,9.316626994360949,-0.4504602830840314,-0.7708161442454267,10.211094895079077,-2.319806223204077,1.3309425423971033,9.11606880895103,3.4025238781440548,1.1250565691692072,4.392484339272103,0.4423188000190549,-0.6516619426448171,4.8214051781631095,-2.559754906631097,-1.2722480587842988,5.628632336128049,-4.370419983802041,-14.424741968101344,1.771321188731899,-16.628776200651203,7.7746092269799165,-22.784412862778247,28.14050378889987,35.28100757779974,36.67077006020308,1577396639.0,-27.70922820189492,-51.10841305617989,22.077253
120859,1577396639.01,-0.9615347447837272,0.8126854757169389,8.314653599585556,-1.7912132127715312,1.2534813594166816,8.432203061582983,0.0073577904677974,0.2379894845357758,9.622442460074076,2.0444916515815548,2.116877858231707,4.865506800209603,2.0444916515815548,-3.871266434832317,4.4857118187881095,0.5988144293064028,-3.1643379025342986,5.415009289253049,-4.535341492624759,-14.424741968101342,2.125585426478283,-13.62374974562475,5.335516136162689,-102.35982495069037,28.092580944679067,35.04139335669572,36.862461437086296,1577396639.0,-27.70922820189492,-51.10841305617989,22.077253
120860,1577396639.02,-1.3685490270102896,0.4439784200528763,8.525343345679307,-1.575735063357469,-0.8210943791087079,9.234260617735329,-0.5672506079697021,3.040402527748665,9.76010905553306,0.4880951672065549,-1.5452315167682926,4.102567347084603,-1.9075347156059448,4.383738447980183,4.0889833031631095,4.001524390243903,0.6503593630907012,3.4313667111280486,-3.215969422043012,-14.789925309065936,1.7713211887318916,-13.62374974562475,5.945289408866995,-23.46454459002536,28.23634947734148,34.94554766825411,36.71869290442388,1577396639.0,-27.70922820189492,-51.10841305617989,22.077253
120861,1577396639.03,-1.8976675939048209,0.9707027852872514,9.734415184058214,-2.179073881716844,0.969768462688166,9.13609834966892,-2.0109542090439207,1.311788929115853,9.535054099478373,3.1736420422065548,1.4760087176067074,4.834989222084603,4.531674268769055,4.902537276105183,4.1805360375381095,-0.5455947503810974,8.7069999880907,4.865692883003049,-4.700263001447477,-14.97251697954823,3.0112460208442324,-12.58354828042328,5.335516136162689,-23.46454459002536,28.044658100458264,34.8017791355917,36.71869290442388,1577396639.0,-27.70922820189492,-51.10841305617989,22.077253
120862,1577396639.04,-1.0836390294516958,1.474682234750143,9.342963212622667,-2.255688334841844,1.0104698909108225,10.025544266416968,-1.9678585791611083,-0.8441896658548487,10.76327955113853,1.3731049328315548,-3.4220625714557924,4.545072229897103,0.9153412609565548,-4.786793778582317,4.4399354516006095,0.5377792730564026,4.800749988090701,2.9125678830030486,-4.700263001447477,-14.789925309065934,1.771321188731899,-14.230533933658936,10.289923976885184,-99.4692651098901,28.164465211010278,34.993470512474914,36.62284721598228,1577396639.0,-27.70922820189492,-51.10841305617989,22.077253
120863,1577396639.05,-0.2480626500571646,1.0760476583341263,9.542879051245713,0.1600611402558113,-1.1419174015696454,9.382701120665011,-0.2727638037704833,0.1098996957174159,9.06339637242759,3.3262299328315548,-2.430241282393293,4.651883753334603,-0.5952788562309451,3.925974776105183,3.9058778344131095,1.6211532964939026,4.678679675590701,2.4242866330030486,-4.865184510270196,-14.424741968101342,2.47984966422466,-15.877519586894593,10.366145635973224,-99.29923217807834,27.94881241201665,35.13723904513733,36.71869290442388,1577396639.0,-27.70922820189492,-51.10841305617989,22.077253
120864,1577396639.06,-0.0110366857016959,-0.5472210672518101,10.273110557593368,-0.4408834764434064,-0.2823990055735517,7.498464414122046,-0.6725954810165771,1.3070005257955408,9.374642588247903,-3.143496629668445,-2.216618235518293,4.285672815834603,-0.5342436999809451,4.688914229230183,4.0584657250381095,3.024961890243903,6.967498034965701,4.468964367378049,-4.700263001447477,-15.702883661477411,0.8856605943659495,-15.819730616605618,10.823475590501452,-99.63929804170188,28.23634947734148,35.13723904513733,36.86246143708629,1577396639.0,-27.70922820189492,-51.10841305617989,22.077253
120865,1577396639.07,0.1565574305092415,0.3482103536466264,8.980241661108995,-0.2996255784941876,1.1541219905201971,9.28214465093845,-0.2248797705673583,0.8114007821431972,8.335559067740093,3.8450287609565534,2.055842701981707,4.499295862709603,1.4188813000190548,-3.825490067644817,5.2486512719131095,2.384092749618903,-5.178498058784299,5.384491711128049,-4.700263001447477,-13.876966956654456,1.2399248321123264,-18.362445309320314,5.335516136162689,-7.141383136094671,28.044658100458264,35.13723904513733,36.81453859286549,1577396639.0,-27.70922820189492,-51.10841305617989,22.077253
120866,1577396639.08,-0.740071091219274,1.12512879236733,9.12987926486876,-0.7832543138457506,0.955403252727229,9.20553019781345,0.1988939232802969,0.3924154916158539,10.009106028189311,1.312069776581555,-0.9043623761432928,3.9804970345846034,1.4799164562690548,1.4998273151676829,4.3026063500381095,4.520323218368903,5.5484306521532005,5.170868664253049,-4.700263001447477,-13.876966956654456,1.2399248321123264,-17.668977665852665,7.16483595427561,-51.6900112707805,28.092580944679067,34.96950909036451,36.76661574864468,1577396639.0,-27.70922820189492,-51.10841305617989,22.077253
120867,1577396639.09,-1.3398186070884146,1.178998329720845,9.121499559058211,-0.2541357469512189,0.701617876750666,10.17039346685642,-2.0181368140243894,1.3620671639791344,13.42563179723228,0.6101654797065549,1.7811844988567074,4.438260706459603,1.2357758312690548,-3.093068192644817,3.9669129906631095,-7.106874047256097,-5.331085949409299,3.8891303830030486,-4.700263001447477,-14.607333638583638,1.5941890698587031,-18.1890783984534,0.9146599090564612,-17.683424908424907,28.284272321562284,34.993470512474914,36.86246143708629,1577396639.0,-27.70922820189492,-51.10841305617989,22.077253
120868,1577396639.1,-1.8018995274985707,1.059288246713033,9.8828556869879,-1.2597004442168438,0.5052933406178536,12.373058994200171,-0.117140695860327,2.853654798256478,9.582938132681496,-0.8851958484184451,1.6591141863567074,4.468778284584603,0.1676605968940548,-4.008595536394817,3.265008693788109,1.4075302496189026,-3.3779609494092986,3.7365424923780486,-3.7107339485111663,-14.242150297619048,2.6569817830978484,-13.565960775335776,2.7439797271693824,-24.484742180896028,28.092580944679067,34.993470512474914,36.81453859286549,1577396639.0,-27.70922820189492,-51.10841305617989,22.077253
120869,1577396639.11,-1.4080533544028675,0.6570623678067827,9.67815144504454,-1.8390972459746564,0.107855865031916,8.48487549810642,-2.7770987402939213,0.4331169198385096,7.447310251822123,-0.2138091296684451,-0.7822920636432926,4.468778284584603,1.8766449718940548,-4.985158036394817,5.6148622094131095,-1.5221572503810974,7.059050769340701,5.292938976753049,-4.865184510270196,-14.972516979548228,1.948453307605091,-13.334804894179896,7.317279272451687,-25.84500563539025,28.38011801000389,34.8017791355917,36.910384281307095,1577396639.0,-27.70922820189492,-51.10841305617989,22.077253
120870,1577396639.12,-0.3558017247641959,1.676992275033346,9.02094308933165,-1.2501236375762188,1.287000182658869,9.701129941465796,-1.132282199766577,0.2332010812154633,7.001988743033061,4.424862745331555,-0.8128096417682926,5.231717737709603,-1.220889207793445,-3.3829851848323167,4.0432069359756095,0.0952743902439028,14.8868095584032,3.8433540158155486,-5.359949036738351,-14.607333638583638,3.0112460208442324,-13.594855260480262,10.289923976885184,-68.18320565652297,28.284272321562284,35.065354778806125,36.69473148231347,1577396639.0,-27.70922820189492,-51.10841305617989,22.077253
120871,1577396639.13,0.0967023890053343,0.3721523702481888,8.688149058569932,1.3092779371308114,1.410301568156916,7.426638364317359,2.0065161766982653,-0.5365347525247706,10.557378208365092,-1.6786528796684452,-4.902165110518292,4.072049768959603,1.5104340343940548,3.834422041730183,4.3026063500381095,1.1633896246189026,5.319548816215701,1.9970405392530488,-4.865184510270196,-14.789925309065936,2.8341139019710444,-13.62374974562475,12.957682044966528,-91.47771731473654,28.23634947734148,34.993470512474914,36.81453859286549,1577396639.0,-27.70922820189492,-51.10841305617989,22.077253
120872,1577396639.14,0.496534066251429,-0.1426009866854038,9.052067710913684,1.428988020138624,0.4214962825123848,7.661270127012671,-2.003771604063452,-0.847780968345083,8.974810911001809,-1.3124419421684452,1.6591141863567074,4.194120081459603,-4.013247606230945,-0.6211443645198171,3.9363954125381095,-0.4845595941310974,10.6601249880907,1.6918647580030486,-3.3808909308657284,-17.16361702533578,1.9484533076050947,-18.24686736874237,-4.115969590754073,-103.72008840518455,28.38011801000389,34.8017791355917,36.71869290442388,1577396639.0,-27.70922820189492,-51.10841305617989,22.077253
120873,1577396639.15,0.1876820520912728,0.6007986287931109,9.884052787817978,0.2103393751190926,-0.3614076603587079,10.32362237310642,-2.437122104551733,0.1003228890767909,11.019459128775248,-0.5189849109184452,1.0335038347942074,4.270414026772103,-2.639956590605945,-2.757374833269817,4.2415711937881095,2.963926733993903,11.5146171755907,3.3703315548780486,-5.359949036738351,-14.60733363858364,1.062792713239138,-19.80716956654457,-4.26841290893015,-10.882107635953789,28.26031089945188,34.94554766825411,36.71869290442388,1577396639.0,-27.70922820189492,-51.10841305617989,22.077253
120874,1577396639.16,-0.9351985265220084,1.047317238412251,10.735191478003523,-0.7892398179961412,0.980542370158869,9.462906876280249,-0.7013259009384526,0.4067807015767913,10.46280724278892,-1.6176177234184452,2.849299733231707,3.827909143959604,-2.807803270293445,0.4774884479801831,5.0045106469131095,-1.9341445550685967,4.6786796755907005,3.9501655392530486,-4.535341492624759,-14.789925309065936,1.062792713239138,-20.03832544770045,1.829319818112921,-13.602634544942235,28.38011801000389,34.96950909036451,36.71869290442388,1577396639.0,-27.70922820189492,-51.10841305617989,22.077253
120875,1577396639.17,-0.5353668492759146,1.4591199239591273,10.6106929916754,-0.955636833377,0.2778441829030098,10.261373129942358,-3.5767620947861087,0.9742064950338222,11.58688492223228,-0.0917388171684451,5.504329030106708,4.407743128334603,-3.158755418730945,3.224070479230183,4.4246766625381095,-5.886170922256097,-3.4389961056592986,5.964325695503049,-3.8756554573338846,-13.69437528617216,1.4170569509855149,-19.05591295278796,0.7622165908803841,-25.504939771766697,28.14050378889987,34.993470512474914,36.81453859286549,1577396639.0,-27.70922820189492,-51.10841305617989,22.077253
120876,1577396639.18,-1.2344737340415397,0.7480420308927201,10.828565342749618,-1.8367030443145,0.9721626643483222,10.364323801329077,2.0448234032607653,0.6701428841939784,7.7394028543611855,-4.333682176543445,-0.1109053448932926,3.675321253334604,0.7169770031440549,-2.513234208269817,3.9058778344131095,1.3464950933689026,-13.5403144650343,6.879853039253049,-3.8756554573338846,-13.69437528617216,1.4170569509855149,-18.824757071632074,1.0671032272325378,-26.185071499013805,28.14050378889987,35.233084733578934,36.67077006020308,1577396639.0,-27.70922820189492,-51.10841305617989,22.077253
120877,1577396639.19,-1.4032649510825552,0.4248248067716264,10.06122371066954,-1.2058309068633282,-0.1207903935130052,9.345590994932593,-0.5552795996689213,2.004910309731088,8.742573349966655,-0.259585496855945,3.276545826981708,4.606107386147103,-0.1680327624809451,-3.138844559832317,4.6077821312881095,-4.222962914443597,-3.3474433712842986,7.398651867378049,-4.700263001447477,-14.97251697954823,1.4170569509855149,-15.501891280016284,6.021511067955034,-19.89385302197802,28.21238805523108,35.113277623026924,36.69473148231347,1577396639.0,-27.70922820189492,-51.10841305617989,22.077253
120878,1577396639.2,-1.3565780187095082,0.6953695943692827,9.6147051010504,-1.0226744798613752,1.4725508113209784,11.831969419004858,1.1996702172256093,0.3277720467916346,10.124027707876811,-0.6715728015434451,0.5909989519817074,4.438260706459603,-0.0764800281059451,-4.741017411394817,4.3636415062881095,0.2783798589939026,-4.598664074409299,3.5839546017530486,-4.865184510270196,-15.155108650030524,1.062792713239138,-16.859932081807084,8.994155772388531,-110.52140567765568,28.044658100458264,35.13723904513733,36.81453859286549,1577396639.0,-27.70922820189492,-51.10841305617989,22.077253
120879,1577396639.21,-0.4036857579673208,0.2261060689786576,9.25078644870665,0.4090581129120613,1.240313250285822,10.175181870176733,1.7934322289443592,-1.431966173423208,9.154376035513527,-0.1832915515434451,-4.200260813643292,3.675321253334604,-3.006167528105945,0.9962872761051828,4.2720887719131095,-0.1183486566310974,6.387664050590701,1.2646186642530486,-4.535341492624759,-15.885475331959707,2.125585426478283,-18.70917913105413,8.994155772388531,-107.12074704142012,28.284272321562284,34.8017791355917,36.81453859286549,1577396639.0,-27.70922820189492,-51.10841305617989,22.077253
120880,1577396639.22,-0.4395987828696646,1.0353462301114702,9.15022997898009,0.866350630001905,-0.5864626164133955,10.01237615728611,-1.7475920264267333,-0.4671029043802393,10.10487409459556,3.5398529797065548,3.184993092606707,5.231717737709603,-1.4497710437309452,6.092722822980183,4.2415711937881095,-0.1793838128810974,2.6645195193407014,1.1730659298780486,-4.865184510270196,-13.69437528617216,1.062792713239138,-18.70917913105413,8.994155772388531,-107.12074704142012,28.14050378889987,35.08931620091653,36.71869290442388,1577396639.0,-27.70922820189492,-51.10841305617989,22.077253
120881,1577396639.23,-0.1283525670493521,0.4679204366544389,10.334162699927353,-0.7880427171660627,0.3891745601002759,9.44973876714939,0.5388705590224848,1.5117047677389002,8.397808310904155,-1.2819243640434452,-0.0651289777057926,3.904203089272104,-1.327700731230945,0.4317120807926828,4.5162293969131095,1.6364120855564028,0.0857841677782014,4.285858898628049,-4.782723755858836,-14.150854462377902,1.3284908915489206,-18.91144052706553,4.80196452254642,-51.86004420259228,28.21238805523108,34.94554766825411,36.62284721598228,1577396639.0,-27.70922820189492,-51.10841305617989,22.077253
120882,1577396639.24,0.237960286954554,1.157450514779439,9.650618125952745,0.9166288648651864,-0.3326772404368329,7.941391721250953,-1.5943631201767332,0.5432501962056971,11.819122483267437,0.5796479015815549,2.361018483231707,3.949979456459604,1.8461273937690548,2.400095869855183,3.6312196312881095,-1.2780166253810974,1.3522636599657012,5.201386242378049,-5.030106019092914,-13.511783615689868,1.2399248321123264,-16.975510022385023,5.945289408866995,-18.023490772048465,28.23634947734148,34.94554766825411,36.52700152754066,1577396639.0,-27.70922820189492,-51.10841305617989,22.077253
120883,1577396639.25,-0.6287407140220084,0.3529987569669389,9.13107636569884,-0.8287441453887189,0.0360298152272285,10.687541025450171,0.0911548485732656,1.3165773324361658,12.367394663443216,0.5186127453315549,5.778987233231708,4.041532190834603,2.7921723156440548,-10.173146317644816,4.7908876000381095,-5.336854516006097,-0.7229316525342988,4.072235851753049,-3.5458124396884485,-15.885475331959707,0.3542642377463768,-18.940335012210014,1.9817631362889991,-26.185071499013805,28.14050378889987,34.753856291370894,36.71869290442388,1577396639.0,-27.70922820189492,-51.10841305617989,22.077253
120884,1577396639.26,-1.1734215917075552,0.670230476937642,10.733994377173447,-1.8630392625762189,1.202006023723322,10.13208624029392,-1.0389083350204833,0.9670238900533534,11.175082236685403,-1.663394090605945,2.208430592606707,3.812650354897104,1.0526703625190548,-2.085988114519817,4.7908876000381095,-2.712342797256097,-8.7795722775343,5.750702648628049,-4.535341492624759,-15.155108650030526,0.7085284754927537,-18.940335012210014,1.9817631362889991,-26.185071499013805,28.18842663312068,34.993470512474914,36.86246143708629,1577396639.0,-27.70922820189492,-51.10841305617989,22.077253
120885,1577396639.27,-1.4379808751548209,1.1239316915372517,9.50696602634337,-1.365045317263719,-0.8665842106516766,9.822037125303687,-2.690907480528296,2.237147870766244,9.114871708120951,2.5022553234565548,7.121760670731708,5.140165003334603,1.6935395031440548,-1.8265887004573167,4.6840760766006095,0.9192489996189026,-7.207917004096799,5.430268078315549,-4.205498474979322,-15.520291990995116,0.7085284754927537,-13.421488349613352,0.5335516136162688,-26.015038567202023,28.284272321562284,35.13723904513733,36.694731482313486,1577396639.0,-27.70922820189492,-51.10841305617989,22.077253
120886,1577396639.28,-1.7995053258384146,-0.1689372049471226,9.724838377417589,-2.499896904177781,1.82928685868426,9.832811032774387,2.183687099549828,-0.6610332388528956,7.610115964712748,-3.387637254668445,-0.9959151105182926,4.285672815834603,-3.982730028105945,6.642039229230183,4.3636415062881095,-4.238221703506097,13.5287773318407,4.652069836128049,-4.205498474979322,-15.520291990995116,0.7085284754927537,-13.161437983312986,-4.420856227106227,-101.6796932234432,28.284272321562284,35.233084733578934,36.57492437176146,1577396639.0,-27.70922820189492,-51.10841305617989,22.077253
120887,1577396639.29,-0.7245087804282584,1.31067942102944,10.704066856421491,-0.6467848192168438,0.232354351360041,8.278974155332984,-2.7866755469345463,-0.8573577749857081,8.002765036978372,-1.4955474109184452,0.5299637957317074,4.438260706459603,0.9916352062690548,0.6911114948551829,3.7532899437881095,1.9263290777439024,16.2143242068407,2.7599799923780486,-4.205498474979322,-15.520291990995116,0.7085284754927537,-13.62374974562475,8.07949586333207,-113.24193258664414,28.044658100458264,34.993470512474914,36.81453859286549,1577396639.0,-27.70922820189492,-51.10841305617989,22.077253
120888,1577396639.3,0.0990965906654915,0.6175580404142055,8.762369310034774,0.2725886182831551,-2.1953661320383957,6.840058957579077,-1.285511106016577,0.9622354867330408,10.128816111197125,-0.9767485827934456,0.1179764910442073,3.934720667397104,-3.524966356230945,11.402781416730184,4.8519227562881095,1.0718368902439026,15.6955253787157,1.3561713986280486,-4.040576966156603,-15.520291990995116,1.9484533076050876,-13.62374974562475,8.07949586333207,-113.24193258664414,28.14050378889987,34.8017791355917,36.479078683319855,1577396639.0,-27.70922820189492,-51.10841305617989,22.077253
120889,1577396639.31,0.2212008753334603,1.4447547139981898,10.10551644138243,-0.5462283494902814,1.4438203913991037,9.580222757627906,-0.4906361548447025,1.1250411996236658,8.716237131704936,2.4412201672065548,5.809504811356708,4.041532190834603,-2.914614793730945,1.8355206745426829,5.0808045922256095,3.467466773056403,7.6236259646532,3.1872260861280486,-5.359949036738351,-14.607333638583638,0.8856605943659495,-16.137569953194955,8.15571752242011,-58.6613614750634,28.14050378889987,35.233084733578934,36.83850001497589,1577396639.0,-27.70922820189492,-51.10841305617989,22.077253
120890,1577396639.32,-0.5210016393149771,0.3673639669278764,9.279516868628528,0.7250927320526863,-2.0038299992258954,7.237496433165015,-1.381279172422827,1.9366755624166343,8.553431418814311,-1.6176177234184452,6.663996998856708,4.468778284584603,-6.485171434355945,14.149363447980184,2.379998928163109,3.421690405868903,10.8127128787157,3.6144721798780486,-5.359949036738351,-14.607333638583638,0.8856605943659495,-16.859932081807084,8.384382499684225,-9.861910045083125,28.092580944679067,34.993470512474914,36.67077006020308,1577396639.0,-27.70922820189492,-51.10841305617989,22.077253
120891,1577396639.33,0.0081169275795531,0.1518858175138139,8.563650572241807,0.6029884473847176,1.8556230769459785,8.365165415098609,-1.2232618628525145,-0.8501751700052392,10.231766782583842,-0.2443267077934451,2.849299733231707,3.339627893959604,-5.417056199980945,10.487254072980184,6.1946961937881095,2.689268530868903,3.5800468630907014,5.323456554878049,-5.359949036738351,-14.607333638583638,0.8856605943659495,-17.322243844118844,5.945289408866995,-26.185071499013805,28.23634947734148,34.993470512474914,36.86246143708629,1577396639.0,-27.70922820189492,-51.10841305617989,22.077253
120892,1577396639.34,-0.5664914708579459,1.308285219369283,9.917571611060165,-1.883389976687547,0.6405657344166821,9.72387485723728,-1.7212558081650144,0.7934442696920257,9.366262882437356,-1.663394090605945,3.184993092606708,3.644803675209604,-0.7478667468559452,1.5913800495426833,4.0279481469131095,0.1257919683689028,11.7282402224657,2.9888618283155486,-4.535341492624759,-13.876966956654456,1.2399248321123264,-17.726766636141637,3.658639636225844,-20.74401768103691,28.18842663312068,35.065354778806125,36.862461437086296,1577396639.0,-27.70922820189492,-51.10841305617989,22.077253
120893,1577396639.35,-1.409250455232946,0.5876305196622513,10.13185265964415,-0.3570864183379376,0.7710497248951972,7.079479123594703,-0.7779403540634521,0.6557776742330409,12.307539621939313,-3.479189989043445,5.016047780106708,3.522733362709604,5.050473096894055,-5.046193192644817,5.0350282250381095,3.543760718368903,5.838347644340701,2.5158393673780486,-4.040576966156604,-14.607333638583638,1.9484533076050947,-17.033298992673995,7.927052545155993,-21.764215271907577,28.044658100458264,34.993470512474914,36.86246143708629,1577396639.0,-27.70922820189492,-51.10841305617989,22.077253
120894,1577396639.36,-1.584027176424352,0.2644132955411576,9.198114012183211,-3.1199951341582497,1.3504465266530097,9.631698093321264,-1.3094531226181396,-0.7448302969583643,7.837565122427592,-3.235049364043445,8.403498951981707,4.163602503334603,-5.386538621855945,-3.978077958269817,5.2791688500381095,4.154112280868903,-1.7910468869092988,3.6755073361280486,-5.195027527915633,-15.885475331959707,1.4170569509855149,-13.62374974562475,11.433248863205758,-20.74401768103691,28.092580944679067,35.13723904513733,36.81453859286549,1577396639.0,-27.70922820189492,-51.10841305617989,22.077253
120895,1577396639.37,-0.7436623937095084,0.5612943014005326,8.59956359714415,-1.329132292361375,-0.3901380802805829,10.096173215391577,-2.434727902891577,1.481777246986947,7.789681089224467,-0.7020903796684451,6.480891530106708,4.621366175209603,-4.715151903105945,11.189158369855184,4.4551942406631095,-2.468202172256097,-0.2346504025342987,4.438446789253049,-5.195027527915633,-15.885475331959707,1.4170569509855149,-13.62374974562475,11.433248863205758,-20.74401768103691,28.14050378889987,34.993470512474914,36.71869290442388,1577396639.0,-27.70922820189492,-51.10841305617989,22.077253
120896,1577396639.38,-0.826262350984899,1.0269665243009236,8.943131535376573,-0.6683326341582507,0.7375309016530097,8.703944950010719,-0.1853754431747807,-0.2372595450052398,10.557378208365092,-1.053042528105945,1.0182450457317074,3.415921839272104,-2.334780809355945,4.627879072980184,4.4704530297256095,-0.6218886956935973,0.2994072146532013,1.4324653439405486,-4.53534149262476,-15.33770032051282,1.2399248321123264,-13.62374974562475,10.823475590501452,-23.46454459002536,28.23634947734148,34.89762482403331,36.69473148231347,1577396639.0,-27.70922820189492,-51.10841305617989,22.077253
120897,1577396639.39,-0.8514014684165396,0.783955055795064,8.4654883041754,-2.5262331224395,0.586696197063166,11.62606807623142,-0.921592453672827,1.2567222909322595,10.983546103872904,-0.8241606921684451,6.755549733231708,4.102567347084603,-2.609439012480945,5.970652510480183,4.1195008812881095,-2.468202172256097,-5.392121105659299,4.835175304878049,-3.5458124396884485,-15.885475331959707,1.4170569509855149,-13.62374974562475,11.433248863205758,-26.185071499013805,27.94881241201665,34.89762482403331,36.67077006020308,1577396639.0,-27.70922820189492,-51.10841305617989,22.077253
120898,1577396639.4,-0.8370362584556021,1.0616824483731888,9.710473167456652,-0.9412716234160626,0.0432124202076973,8.403472641661109,-0.0812276709579833,0.8568906136861659,9.034665952505716,-2.502627489043445,7.487971608231708,4.133084925209603,-1.6939116687309452,12.776072432355184,3.7838075219131095,-6.862733422256097,7.669402331840701,4.865692883003049,-4.205498474979322,-14.789925309065936,2.8341139019710444,-13.62374974562475,7.7746092269799165,-4.420856227106225,28.38011801000389,34.993470512474914,36.86246143708629,1577396639.0,-27.70922820189492,-51.10841305617989,22.077253
120899,1577396639.41,-0.9351985265220084,0.1183669942716263,9.48661531223204,-1.54939884509575,-0.976717487018864,7.912661301329077,0.572389382264672,-0.0337524038919581,8.04346646520103,-2.762026903105945,0.8503983660442074,3.278592737709604,1.9987152843940548,-5.351368973894817,4.2110536156631095,-6.069276391006097,13.3456718630907,5.659149914253049,-4.4528807382134,-15.79417949671856,2.568415723661258,-13.62374974562475,7.7746092269799165,-26.185071499013805,27.996735256237457,35.13723904513733,36.81453859286549,1577396639.0,-27.70922820189492,-51.10841305617989,22.077253
120900,1577396639.42,-0.9112565099204458,1.255612782845846,11.04404349216368,-1.4225061571074689,0.9051250178639472,11.642827487852514,1.3205774010635007,1.357278760658822,10.286833420767437,1.4646576672065548,6.267268483231708,4.255155237709603,-0.0154448718559452,-2.696339677019817,4.2110536156631095,-1.4000869378810972,5.0906669802782005,4.743622570503049,-4.370419983802041,-15.33770032051282,1.2399248321123264,-18.015711487586486,4.420856227106228,-26.185071499013805,28.14050378889987,34.96950909036451,36.790577170755085,1577396639.0,-27.70922820189492,-51.10841305617989,22.077253
120901,1577396639.43,-1.1387056676352896,0.4751030416349076,9.147835777319932,-1.4799669969512188,0.6369744319264472,7.5511368506454835,-2.1426353003525143,0.2559459969869471,6.774539585318217,-4.760928270293445,1.842219655106708,3.553250940834604,-4.165835496855945,7.160838057355183,3.6617372094131095,-4.024598656631097,6.357146472465701,4.346894054878049,-5.030106019092914,-14.97251697954823,1.2399248321123264,-17.322243844118844,5.335516136162689,-26.185071499013805,28.23634947734148,34.993470512474914,36.57492437176146,1577396639.0,-27.70922820189492,-51.10841305617989,22.077253
120902,1577396639.44,-1.296722977205602,0.6738217794278765,8.314653599585556,0.2247045850800301,-1.2305028629954269,5.808158042051734,-1.659006565000952,1.8672437142721032,10.159940732779154,-0.1832915515434451,7.243830983231708,4.438260706459603,0.3507660656440549,-1.9639178020198167,5.4012391625381095,2.048399390243903,11.6977226443407,4.041718273628049,-5.030106019092914,-14.97251697954823,1.2399248321123264,-16.859932081807084,5.335516136162689,-15.302963863060016,28.14050378889987,34.993470512474914,36.57492437176146,1577396639.0,-27.70922820189492,-51.10841305617989,22.077253
120903,1577396639.45,-0.5593088658774771,0.2380770772794389,8.357749229468368,-1.834308842654344,1.0320177058522284,10.376294809629858,-0.4499347266220458,-0.8573577749857081,9.767291660513528,-1.709170457793445,3.108699147294208,3.8279091439596034,-0.6563140124809451,-7.884327958269817,3.7532899437881095,-1.2474990472560974,9.9887382693407,2.5768745236280486,-5.030106019092914,-15.702883661477411,1.5941890698587105,-13.161437983312986,6.555062681571303,-111.88166913214992,27.996735256237457,34.753856291370894,36.71869290442388,1577396639.0,-27.70922820189492,-51.10841305617989,22.077253
120904,1577396639.46,0.0344531458412718,0.8821173238614701,9.700896360816026,0.3492030714081556,0.2287630488698071,8.35798281011814,-1.821812277891577,-1.048893907798208,9.987558213247905,-2.319522020293445,1.1403153582317074,3.370145472084604,-3.051943895293445,10.563548018292684,3.8906190453506095,-4.451844750381097,12.3233329959032,1.1730659298780486,-4.700263001447477,-14.242150297619048,1.5941890698587031,-15.87751958689459,8.384382499684223,-90.11745386024232,28.23634947734148,35.04139335669572,36.67077006020308,1577396639.0,-27.70922820189492,-51.10841305617989,22.077253
120905,1577396639.47,-0.8011232335532583,0.5756595113614701,9.255574852026964,-1.8486740526152812,-0.1531121159251142,9.97885733404392,-1.946310764219702,3.6221935311666345,12.946791465201027,-0.4274321765434451,9.227473561356708,4.377225550209603,-2.304263231230945,-9.867970536394816,5.7674501000381095,-5.123231469131097,3.793669909965701,2.7904975705030486,-4.535341492624759,-14.059558627136752,2.47984966422466,-13.62374974562475,-4.420856227106227,-24.824808044519585,28.092580944679067,34.89762482403331,36.57492437176146,1577396639.0,-27.70922820189492,-51.10841305617989,22.077253
120906,1577396639.48,-1.3422128087485707,0.2045582540372514,9.523725437964464,-1.424900358767625,1.0918727473561347,12.176734458067358,1.2044586205459218,3.0691329476705405,10.619627451529157,-3.814883348418445,4.466731373856708,3.766873987709604,-3.463931199980945,2.918894697980183,3.600702053163109,-8.388612328506097,-13.0825507931593,5.689667492378049,-5.030106019092914,-14.97251697954823,1.9484533076050947,-13.62374974562475,-4.420856227106227,-24.824808044519585,28.38011801000389,35.13723904513733,36.86246143708629,1577396639.0,-27.70922820189492,-51.10841305617989,22.077253
120907,1577396639.49,-1.8066879308188832,0.9024680379727988,10.243183036841415,-0.8921904893828595,-0.7444799259837078,9.9417472083115,-0.093198679258765,0.6880993966451507,10.448442032827982,-1.220889207793445,2.345759694169207,3.660062464272104,-1.922793504668445,-5.046193192644816,4.7145936547256095,-6.740663109756097,-13.8454902462843,8.72616651581555,-4.700263001447477,-15.33770032051282,1.23992483211233,-16.628776200651203,0.9146599090564616,-25.504939771766693,28.116542366789467,35.04139335669572,36.76661574864468,1577396639.0,-27.70922820189492,-51.10841305617989,22.077253
120908,1577396639.5,-1.708525662752477,0.1351264058927201,10.754345091284774,-2.930853203005906,1.7407013972584784,12.741766049864234,-0.9431402686142332,1.2279918710103843,9.666735190786966,-3.997988817168445,-0.3245283917682927,3.644803675209604,-2.670474168730945,2.796824385480183,4.5467469750381095,-5.153749047256097,-4.415558605659299,5.689667492378049,-2.886126404397574,-14.424741968101342,1.062792713239138,-19.86495853683354,5.945289408866995,-26.185071499013805,28.092580944679067,35.13723904513733,36.86246143708629,1577396639.0,-27.70922820189492,-51.10841305617989,22.077253
120909,1577396639.51,-1.4571344884360709,0.8102912740567827,8.750398301733993,-2.018662370486375,0.7686555232350409,9.330028684141576,-1.5680269019150146,2.6357824471822595,10.593291233267436,2.4412201672065548,5.473811451981708,4.285672815834603,2.5480316906440548,-4.557911942644817,4.9129579125381095,0.2783798589939026,-2.7065742306592986,5.872772961128049,-5.195027527915633,-16.2506586729243,2.8341139019710444,-17.091087962962966,5.335516136162689,-26.185071499013805,28.284272321562284,34.993470512474914,36.81453859286549,1577396639.0,-27.70922820189492,-51.10841305617989,22.077253
120910,1577396639.52,-1.5888155797446646,0.6977637960294389,9.945104930151963,-1.384198930544969,-1.6734301701243328,7.424244162657202,-1.0006011084579831,1.9175219491353843,9.022694944204934,-1.8617583484184448,1.0487626238567074,4.468778284584603,-3.433413621855945,4.994090010480183,3.295526271913109,-2.742860375381097,-8.0776679806593,4.285858898628049,-4.700263001447477,-14.242150297619048,1.2399248321123264,-18.24686736874237,7.164835954275611,-20.74401768103691,28.14050378889987,34.993470512474914,36.81453859286549,1577396639.0,-27.70922820189492,-51.10841305617989,22.077253
120911,1577396639.53,-1.4260098668540395,0.6486826619962358,9.292684977759384,-2.052181193728562,1.506069634563166,8.936182511045875,0.5843603905654536,-1.3565488211282866,6.882278660025248,-1.2208892077934452,0.5757401629192074,4.056790979897103,-2.746768114043445,7.664378096417683,4.2568299828506095,-2.178285180068597,3.7478935427782014,3.2787788205030486,-4.700263001447477,-14.242150297619048,1.2399248321123264,-13.594855260480262,7.241057613363647,-106.27058238236124,28.21238805523108,34.89762482403331,36.83850001497589,1577396639.0,-27.70922820189492,-51.10841305617989,22.077253
120912,1577396639.54,-0.8298536534751334,0.6977637960294389,9.090374937476184,-0.3355386033965314,-0.6726538761790204,8.425020456602516,0.4646503075576407,1.1513774178853846,9.22380788365806,-1.6786528796684452,-0.4160811261432927,4.011014612709603,0.1066254406440548,2.491648604230183,4.0279481469131095,-2.590272484756097,3.0917656130907014,0.2270210080030487,-3.8756554573338846,-14.059558627136752,1.7713211887318916,-13.334804894179896,5.487959454338766,-93.85817836010143,28.14050378889987,35.13723904513733,36.67077006020308,1577396639.0,-27.70922820189492,-51.10841305617989,22.077253
120913,1577396639.55,-0.2791872716391959,-0.3269545145174351,10.318600389136336,0.3875102979706551,-0.2129671574290204,8.504029111387672,0.8764529931045156,1.7954176644674158,10.238949387564311,-1.9227935046684448,2.116877858231707,4.224637659584603,-2.304263231230945,4.200632979230183,4.8214051781631095,-0.5150771722560974,13.0099785037157,3.6144721798780486,-3.0510479132202923,-16.798433684371187,2.3027175453514714,-13.392593864468866,10.5185889541493,-105.0803518596788,28.23634947734148,34.8017791355917,36.81453859286549,1577396639.0,-27.70922820189492,-51.10841305617989,22.077253
120914,1577396639.56,-0.4312190770591178,-0.0192996011873574,10.332965599097276,-0.6683326341582502,1.0870843440358222,11.750566562559548,-0.3038884253525146,-0.7160998770364893,9.132828220572122,-1.1903716296684452,2.803523366044208,3.644803675209604,-0.6563140124809451,-2.391163895769817,4.1805360375381095,4.062559546493903,-7.253693371284299,5.537079601753049,-5.359949036738351,-15.33770032051282,1.5941890698587031,-19.113701923076928,3.0488663635215367,-8.841712454212454,28.21238805523108,34.94554766825411,36.71869290442388,1577396639.0,-27.70922820189492,-51.10841305617989,22.077253
120915,1577396639.57,-0.9040739049399772,0.5612943014005326,8.815041746558213,-0.4169414598418439,-0.5086510624583178,10.03751527471775,-1.808644168760717,1.3536874581685876,12.10403248082603,1.6172455578315548,4.802424733231708,3.980497034584604,-1.587100145293445,3.452952315167683,3.9211366234756095,1.4380478277439028,0.0857841677782005,4.545258312690549,-5.359949036738351,-15.33770032051282,1.5941890698587031,-17.55339972527473,5.640402772514842,-57.8111968160045,28.044658100458264,34.873663401922904,36.742654326534286,1577396639.0,-27.70922820189492,-51.10841305617989,22.077253
120916,1577396639.58,-1.5074127232993522,0.803108669076314,11.15896517185118,-2.938035807986375,0.4286788874928535,10.469668674375953,-2.444304709532202,0.8760442269674159,12.772014744009622,-0.1527739734184451,0.9266923113567074,3.766873987709604,-4.165835496855945,-2.452199052019817,5.9200379906631095,-3.688905297256097,-12.5332343869093,5.964325695503049,-3.8756554573338846,-15.520291990995116,1.7713211887318916,-13.62374974562475,5.335516136162689,-105.0803518596788,28.044658100458264,34.993470512474914,36.57492437176146,1577396639.0,-27.70922820189492,-51.10841305617989,22.077253
120917,1577396639.59,-1.3398186070884146,0.4751030416349076,11.099110130347276,-1.798395817752,0.2658731746022285,11.503963791563452,0.5676009789443595,2.994912696205697,10.294016025747904,-0.9157134265434452,-0.9043623761432926,3.583768518959604,-0.1069976062309451,2.522166182355183,3.417596584413109,-9.670350609756095,-25.0454414181593,6.757782726753049,-5.52487054556107,-13.329191945207567,1.4170569509855149,-13.62374974562475,5.335516136162689,-105.0803518596788,28.044658100458264,34.94554766825411,36.57492437176146,1577396639.0,-27.70922820189492,-51.10841305617989,22.077253
120918,1577396639.6,-2.0868095250571645,0.9216216512540484,9.387255943335555,-1.7277668687773906,0.6273976252858228,9.170814273741186,-0.1937551489853275,1.9594204781881188,6.723064249624858,1.0068939953315548,1.8727372332317072,4.087308558022103,2.1970795422065548,-2.8184099895198167,4.2415711937881095,-4.406068383193596,-11.4956367306593,7.3376167111280495,-3.463351685277089,-15.246404485271674,1.682755129295301,-15.87751958689459,5.640402772514842,-100.319429768949,28.18842663312068,35.065354778806125,36.71869290442388,1577396639.0,-27.70922820189492,-51.10841305617989,22.077253
120919,1577396639.61,-1.7803517125571646,0.7336768209317827,9.58358047946837,-2.8183257249785623,-0.6415292545969892,9.231866416075173,-2.243191770079077,-2.006574571860708,6.60694546910728,-0.7631255359184451,0.8351395769817074,4.377225550209603,3.5551117687690548,-10.478322098894816,3.9669129906631095,-1.0949111566310974,-4.354523449409299,3.6144721798780486,-3.215969422043012,-14.789925309065936,0.7085284754927537,-13.565960775335776,5.487959454338766,-96.57870526908988,28.284272321562284,35.08931620091653,36.71869290442388,1577396639.0,-27.70922820189492,-51.10841305617989,22.077253
120920,1577396639.62,-0.5832508824790397,1.2292765645841273,8.977847459448839,-0.8215615404082501,1.8963245051686344,11.539876816465796,1.226006435487328,0.6054994393697596,7.854324534048685,1.7393158703315548,-3.315251048018293,3.614286097084604,-2.548403856230945,4.353220869855183,4.3331239281631095,4.001524390243903,3.5495292849657014,-0.3222953982469513,-4.700263001447477,-16.798433684371187,0.8856605943659495,-13.565960775335776,5.487959454338766,-96.57870526908988,28.14050378889987,34.993470512474914,36.71869290442388,1577396639.0,-27.70922820189492,-51.10841305617989,22.077253
120921,1577396639.63,-0.3749553380454459,-0.0707749368807163,9.557244261206652,0.6628434888886239,-1.551325885456364,6.954980637266577,0.1821345116592032,0.6845080941549159,10.787221567740092,-1.3124419421684452,-3.711979563643293,3.675321253334604,0.0455902843940548,6.001170088605183,2.715692287538109,1.4990829839939026,-2.2488105587842986,2.0580756955030486,-4.205498474979322,-15.885475331959707,1.062792713239138,-13.045860042735043,10.213702317797145,-107.12074704142012,28.092580944679067,34.993470512474914,36.71869290442388,1577396639.0,-27.70922820189492,-51.10841305617989,22.077253
120922,1577396639.64,-0.1235641637290401,0.7767724508145956,10.154597575415634,-0.4277153673125475,0.5831048945729316,10.966465518858374,-0.3445898535751708,1.727182917152963,9.79243077794517,2.3801850109565548,2.910334889481707,3.965238245522104,-3.662295457793445,6.870921065167684,4.3483827172256095,2.399351538681403,12.2622978396532,3.1872260861280486,-5.195027527915633,-15.885475331959707,1.771321188731899,-19.113701923076924,3.0488663635215367,-21.76421527190758,28.068619522568667,34.993470512474914,36.790577170755085,1577396639.0,-27.70922820189492,-51.10841305617989,22.077253
120923,1577396639.65,-1.2895403722251333,-0.5879224954744664,10.395214842261336,-1.2381526292754377,-0.0956512760813642,11.178352365782205,1.173333998963891,-0.7615897085794581,12.702582895865092,-3.265566942168445,0.9266923113567074,3.156522425209604,2.5175141125190548,7.374461104230183,3.051385646913109,-0.2099013910060974,-1.9741523556592988,4.255341320503049,-5.52487054556107,-16.981025354853482,2.125585426478283,-16.859932081807084,5.335516136162689,-26.185071499013805,27.90088956779585,34.993470512474914,36.86246143708629,1577396639.0,-27.70922820189492,-51.10841305617989,22.077253
120924,1577396639.66,-1.4427692784751334,-0.2647052713533726,10.2276207260504,0.1959741651581551,0.1820761164967598,9.82562842779392,-0.030949436094702,0.694084900795541,9.027483347525248,0.5796479015815549,2.605159108231707,3.522733362709604,3.4940766125190548,-11.332814286394816,5.0350282250381095,3.787901343368903,-3.6526191525342986,4.987763195503049,-5.195027527915633,-14.424741968101342,1.062792713239138,-16.859932081807084,5.335516136162689,-26.185071499013805,28.38011801000389,35.233084733578934,36.71869290442388,1577396639.0,-27.70922820189492,-51.10841305617989,22.077253
120925,1577396639.67,-0.7711957128013053,0.8821173238614706,10.499362614478134,-0.1104836473418438,-0.4643583317454267,11.872670847227514,-1.687736984922827,0.1434185189596034,8.991570322622904,3.0515717297065548,-0.2787520245807926,3.522733362709604,-2.639956590605945,7.954295088605183,3.7532899437881095,1.7127060308689026,9.8056328005907,4.926728039253049,-4.865184510270195,-16.068067002442003,1.5941890698587031,-19.17149089336589,-3.81108295440192,-20.0638859537898,28.284272321562284,34.94554766825411,36.86246143708629,1577396639.0,-27.70922820189492,-51.10841305617989,22.077253
120926,1577396639.68,-0.5808566808188834,0.8749347188810014,8.137482676733994,-0.7269905748320783,1.1206031672780097,8.19876839971775,-1.569224002745093,1.1549687203756194,8.728208140005718,2.8074311047065548,2.635676686356707,3.492215784584604,0.7780121593940548,2.5832013386051838,3.9974305687881095,2.628233374618903,4.770232409965701,3.5076606564405486,-5.359949036738351,-15.702883661477411,1.9484533076050947,-15.87751958689459,5.640402772514842,-14.96289799943646,28.284272321562284,35.04139335669572,36.64680863809267,1577396639.0,-27.70922820189492,-51.10841305617989,22.077253
120927,1577396639.69,-1.0022361730063831,0.7001579976895952,7.438375791968369,-0.8670513719512188,-0.0166426212962079,9.042724484922829,-1.7667456397079833,1.093916578041635,8.160782346548686,3.9365814953315534,7.243830983231708,4.529813440834603,0.6254242687690549,0.0197247761051829,3.295526271913109,-0.2709365472560974,0.2536308474657012,3.4313667111280486,-5.359949036738351,-15.702883661477411,1.9484533076050947,-13.392593864468866,8.07949586333207,-110.52140567765568,28.14050378889987,35.08931620091653,36.86246143708629,1577396639.0,-27.70922820189492,-51.10841305617989,22.077253
120928,1577396639.7,-0.8777376866782584,0.6091783346036577,9.210085020483994,-1.539822038455125,1.6042319026295722,11.22384219732517,0.562812575624047,0.1362359139791346,8.117686716665872,-0.1832915515434451,-0.6907393292682926,3.370145472084604,1.1442230968940548,2.461131026105183,4.2110536156631095,9.036924780868905,1.2912285037157012,1.7223823361280486,-4.865184510270196,-16.2506586729243,1.4170569509855149,-13.392593864468866,8.07949586333207,-110.52140567765568,28.092580944679067,35.13723904513733,37.0062299697487,1577396639.0,-27.70922820189492,-51.10841305617989,22.077253
120929,1577396639.71,-1.0130100804770863,1.0844273641446731,9.459081993140243,-0.6443906175566876,0.9075192195241034,9.145675156309546,-0.270369602110327,1.2974237191549158,11.400137192740091,2.6701020031440548,-0.0956465558307928,3.8584267220846034,1.7850922375190548,1.9118146198551829,3.9058778344131095,6.717588843368903,-3.0727851681592986,0.7763374142530487,-3.545812439688448,-16.433250343406595,1.2399248321123264,-13.392593864468866,8.07949586333207,-110.52140567765568,28.164465211010278,35.28100757779974,36.910384281307095,1577396639.0,-27.70922820189492,-51.10841305617989,22.077253
120930,1577396639.72,-1.380520035311071,0.8462042989591264,11.460634581030869,-1.462010484500047,0.2227775447194165,11.041882871153296,-0.4451463233017337,2.2539072823873374,10.521465183462748,-1.0683013171684452,-0.6297041730182926,3.827909143959604,-0.610537645293445,0.0502423542301828,3.8906190453506095,4.444029273056403,-1.1044013790967986,3.1109321408155486,-5.195027527915633,-14.789925309065936,2.125585426478283,-16.079780982905987,6.936170977011495,-60.02162492955762,28.14050378889987,35.04139335669572,36.862461437086296,1577396639.0,-27.70922820189492,-51.10841305617989,22.077253
120931,1577396639.73,-1.7851401158774771,0.6307261495450639,11.096715928687118,-0.9412716234160626,0.117432671672541,10.608532370665015,0.6274560204482657,1.5033250619283531,10.76806795445884,-0.3358794421684451,0.0416825457317073,3.675321253334604,-0.4426909656059451,6.611521651105183,4.0889833031631095,3.604795874618903,-5.605744152534299,6.025360851753049,-5.195027527915633,-14.789925309065936,2.125585426478283,-17.322243844118844,5.640402772514843,-15.302963863060016,28.044658100458264,34.993470512474914,36.86246143708629,1577396639.0,-27.70922820189492,-51.10841305617989,22.077253
120932,1577396639.74,-1.0381491979087272,0.2308944722989701,8.898838804663683,-0.3570864183379376,-0.9048914372141766,9.478469187071264,-1.4722588355087645,0.0356794442525721,9.575755527701029,0.6101654797065549,-0.5076338605182926,3.888944300209604,-1.1140776843559452,6.275828291730183,3.600702053163109,-2.620790062881097,-4.842804699409299,5.964325695503049,-4.205498474979322,-14.789925309065936,1.4170569509855149,-17.322243844118844,5.640402772514843,-15.302963863060016,28.14050378889987,34.94554766825411,36.81453859286549,1577396639.0,-27.70922820189492,-51.10841305617989,22.077253
120933,1577396639.75,-0.951957938143102,0.5014392598966264,10.50774232028868,-1.3434975023223126,1.4258638789479314,11.00118144293064,-0.9658851843857176,0.068001166664682,9.324364353384624,1.266293409394055,-4.673283274580792,3.385404261147104,0.411801221894055,-4.878346512957316,3.9516542016006095,-0.5608535394435972,10.3396904177782,4.606293468940549,-4.370419983802041,-14.789925309065932,1.9484533076050876,-18.160183913308916,6.326397704307188,-60.70175665680473,28.26031089945188,35.065354778806125,36.694731482313486,1577396639.0,-27.70922820189492,-51.10841305617989,22.077253
120934,1577396639.76,-0.9567463414634146,1.3394098409513149,9.456687791480087,-0.5438341478301252,-0.5840684147532392,7.601415085508765,-2.635840842344703,-0.7855317251810205,10.006711826529154,2.0444916515815548,0.8961747332317074,4.072049768959603,-1.1445952624809452,-7.090870927019817,3.7227723656631095,1.4075302496189026,2.8476249880907014,3.2177436642530486,-5.359949036738351,-15.702883661477411,2.6569817830978484,-13.565960775335776,6.097732727043072,-25.84500563539025,28.428040854224697,35.28100757779974,36.71869290442388,1577396639.0,-27.70922820189492,-51.10841305617989,22.077253
120935,1577396639.77,-1.411644656893102,0.7241000142911577,7.857361082495712,-1.3818047288848123,0.7255598933522285,7.871959873106421,-0.730056320860327,-2.9594668326028954,7.358724790396342,0.7627533703315549,4.863459889481708,4.224637659584603,3.3109711437690548,-5.961720536394817,2.746209865663109,1.8652939214939024,1.9320976443407007,2.3937690548780486,-5.359949036738351,-15.702883661477411,2.6569817830978484,-13.103649013024016,7.927052545155993,-96.57870526908988,28.38011801000389,34.8017791355917,36.71869290442388,1577396639.0,-27.70922820189492,-51.10841305617989,22.077253
120936,1577396639.78,-0.9328043248618522,0.5780537130216263,8.532525950659775,-2.102459428591844,1.726336187297541,9.11694473638767,0.3688822411513907,-1.345774913657583,7.025930759634623,-2.502627489043445,-1.4536787823932926,4.041532190834603,1.8766449718940548,-7.365529130144817,4.1195008812881095,2.139952124618903,11.3925468630907,2.8515327267530486,-5.359949036738351,-15.702883661477411,2.6569817830978484,-13.103649013024016,7.927052545155993,-96.57870526908988,28.14050378889987,34.94554766825411,36.81453859286549,1577396639.0,-27.70922820189492,-51.10841305617989,22.077253
120937,1577396639.79,-0.4503726903403677,1.3992648824552203,9.757160099829695,-0.322370494265672,-0.0310078312571459,9.11095923223728,-0.8820881262802489,2.0300494271627283,10.734549131216657,0.4575775890815547,-3.1779219464557924,3.660062464272104,0.9000824718940548,-1.4756365520198162,3.585443264100609,0.6293320074314028,1.993132800590701,1.7986762814405486,-3.8756554573338846,-16.250658672924295,1.0627927132391344,-13.363699379324384,8.460604158772263,-93.00801370104256,28.14050378889987,35.04139335669572,36.67077006020308,1577396639.0,-27.70922820189492,-51.10841305617989,22.077253
120938,1577396639.8,-0.3653785314048209,0.0609061544278764,10.9171508041754,-1.355468510623094,0.8955482112233222,11.324398667051732,0.6274560204482657,1.702043799721322,11.237331479849466,-2.319522020293445,-1.9419600323932928,3.797391565834604,1.2357758312690548,-3.611867020769817,4.3636415062881095,-0.3014541253810974,4.587126941215701,3.4008491330030486,-4.700263001447477,-14.97251697954823,3.0112460208442324,-19.576013685388688,3.0488663635215367,-9.521844181459564,28.14050378889987,35.08931620091653,36.52700152754066,1577396639.0,-27.70922820189492,-51.10841305617989,22.077253
120939,1577396639.81,-0.6167697057212271,0.4176422017911576,10.550837950171491,-0.0602054124785626,0.7710497248951972,10.383477414610327,-0.3398014502548583,1.309394727455697,10.92129686070884,0.5491303234565549,4.344661061356708,4.438260706459603,-3.463931199980945,6.977732588605183,2.959832912538109,5.893614233993903,-7.741974621284299,6.055878429878049,-5.195027527915633,-16.2506586729243,2.125585426478283,-19.576013685388688,3.0488663635215367,-9.521844181459564,28.23634947734148,34.993470512474914,36.67077006020308,1577396639.0,-27.70922820189492,-51.10841305617989,22.077253
120940,1577396639.82,-1.238065036531774,0.5577029989102983,8.963482249487901,-0.4648254930449689,-1.4627404240305828,8.518394321348609,-0.2488217871689208,-0.2564131582864893,10.62920425816978,0.2592133312690549,0.9572098894817074,3.995755823647104,1.8156098156440548,1.3319806354801829,3.8143251000381095,-2.468202172256097,3.5800468630907014,5.109833508003049,-5.030106019092914,-15.885475331959707,2.3027175453514714,-19.922747507122512,0.9146599090564612,-14.96289799943646,28.092580944679067,34.993470512474914,36.81453859286549,1577396639.0,-27.70922820189492,-51.10841305617989,22.077253
120941,1577396639.83,-1.1937723058188834,1.7392415181974086,8.89405040134337,-1.6583350206328595,1.516843542033869,10.074625400450172,0.6633690453506095,0.5624038094869471,9.375839689077983,4.577450635956555,-2.552311594893293,4.072049768959603,-0.4274321765434452,-3.703419755144817,3.9974305687881095,-2.300355492568597,4.571868152153201,4.575775890815549,-3.3808909308657284,-13.876966956654456,1.2399248321123264,-16.16646443833944,-2.896423045345459,-20.0638859537898,28.23634947734148,35.13723904513733,36.958307125527895,1577396639.0,-27.70922820189492,-51.10841305617989,22.077253
120942,1577396639.84,-1.251233145662633,1.4567257222989711,7.5844220932379,-1.5086974168730938,0.4191020808522285,8.844005747129858,0.5891487938857657,2.6836664803853845,8.268521421255716,-0.4884673327934451,1.2929032488567074,4.377225550209603,-3.952212449980945,-2.513234208269817,3.142938381288109,0.0342392339939026,7.303191394340701,2.5463569455030486,-3.8756554573338846,-15.885475331959707,2.125585426478283,-13.392593864468866,5.640402772514843,-22.784412862778247,28.14050378889987,35.08931620091653,37.0062299697487,1577396639.0,-27.70922820189492,-51.10841305617989,22.077253
120943,1577396639.85,-1.823447342439977,0.5110160665372514,8.666601243628525,-1.2501236375762188,1.3049566951100409,6.622186606504859,-0.9575054785751708,2.065962452065072,7.871083945669779,-2.838320848418445,-1.0874678448932926,4.072049768959603,-1.4192534656059452,-0.3770037395198171,3.326043850038109,-0.3624892816310974,5.990935534965701,4.743622570503049,-4.040576966156604,-15.702883661477411,0.5313963566195653,-13.392593864468866,5.640402772514843,-13.26256868131868,28.284272321562284,35.08931620091653,36.86246143708629,1577396639.0,-27.70922820189492,-51.10841305617989,22.077253
120944,1577396639.86,-1.2548244481528676,0.5086218648770952,7.457529405249619,-1.1040773363066876,0.7040120784108223,6.629369211485328,-1.8385716895126707,-0.0457234121927393,9.24296149693931,-1.388735887480945,-1.7283369855182928,4.163602503334603,-1.8159819812309448,-2.085988114519817,2.685174709413109,-1.7052627191310974,3.2748710818407014,3.4618842892530486,-4.123037720567963,-15.611587826236264,0.97422665380254,-13.62374974562475,5.945289408866995,-26.185071499013805,28.116542366789467,34.993470512474914,36.81453859286549,1577396639.0,-27.70922820189492,-51.10841305617989,22.077253
120945,1577396639.87,-0.8226710484946647,0.9635201803067828,10.883631980933211,-1.2501236375762188,-0.0764976628001146,10.110538425352514,-0.0560885535263431,-0.8669345816263331,9.980375608267437,-1.4345122546684452,-9.144108469893292,3.400663050209604,-1.968569871855945,2.445872237042683,3.478631740663109,-4.619691430068597,5.9909355349657005,1.4172065548780488,-4.535341492624759,-15.885475331959707,1.4170569509855149,-13.62374974562475,6.859949317923456,-99.29923217807831,28.044658100458264,34.94554766825411,36.67077006020308,1577396639.0,-27.70922820189492,-51.10841305617989,22.077253
120946,1577396639.88,-0.2576394566977896,0.7432536275724076,11.1086869369879,0.3683566846894051,0.5316295588795723,10.077019602110328,-0.6678070776962646,1.8528785043111655,10.713001316275248,-2.044863817168445,-1.6978194073932926,4.041532190834603,-4.928774949980945,-2.085988114519817,5.1570985375381095,-5.092713891006097,-0.0515449337842987,3.2787788205030486,-4.370419983802041,-15.702883661477411,1.5941890698587031,-20.03832544770045,0.6097732727043083,-19.04368836291913,28.284272321562284,34.993470512474914,36.86246143708629,1577396639.0,-27.70922820189492,-51.10841305617989,22.077253
120947,1577396639.89,-0.3725611363852896,0.8749347188810014,9.930739720191024,-1.175903386111375,-0.6463176579173017,10.929355393125952,-1.7954760596298582,2.1665189217916345,11.572519712271342,1.8308686047065548,3.215510670731707,4.651883753334603,-1.1751128406059452,-1.4756365520198171,3.295526271913109,-1.4306045160060974,3.976775378715701,4.346894054878049,-5.030106019092914,-16.43325034340659,1.9484533076050947,-17.49561075498576,5.487959454338766,-25.84500563539025,28.14050378889987,34.8017791355917,36.71869290442388,1577396639.0,-27.70922820189492,-51.10841305617989,22.077253
120948,1577396639.9,-0.6359233190024771,0.1782220357755331,8.466685405005478,-0.0374604967070787,0.2048210322682446,8.041948190977514,0.0863664452529531,1.0939165780416344,8.34992427770103,-2.624697801543445,-0.1414229230182926,3.9194618783346034,-0.0764800281059452,-5.015675614519817,3.203973537538109,3.589537085556403,-2.965973644721799,5.506562023628049,-4.37041998380204,-15.33770032051282,1.9484533076050947,-16.94661553724054,7.850830886067955,-22.614379930966468,28.26031089945188,34.96950909036451,36.742654326534286,1577396639.0,-27.70922820189492,-51.10841305617989,22.077253
120949,1577396639.91,-0.7723928136313833,1.0066158101895952,8.886867796362901,-0.8478977586699689,-0.1626889225657392,10.737819260313453,-1.0915807715439207,0.971812293373666,11.799968869986186,-0.3969145984184451,-2.521794016768293,3.827909143959604,-4.684634324980945,-5.168263505144817,3.387079006288109,1.4685654058689026,-8.0166328244093,4.713104992378049,-4.700263001447477,-15.702883661477411,2.3027175453514714,-13.62374974562475,-3.2013096816976128,-20.0638859537898,28.38011801000389,34.993470512474914,36.81453859286549,1577396639.0,-27.70922820189492,-51.10841305617989,22.077253
120950,1577396639.92,-1.0644854161704458,1.1718157247403764,8.917992417944932,-0.9939440599395,2.399106853801447,9.950126914122048,2.3081855858779528,3.3947443734517906,8.055437473501811,-1.0072661609184452,-2.613346751143293,3.644803675209604,-2.212710496855945,-0.8958025676448171,2.105340725038109,-0.7897353753810974,1.8100273318407007,3.7975776486280486,-5.52487054556107,-16.981025354853482,1.4170569509855149,-13.62374974562475,-3.2013096816976128,-20.0638859537898,27.94881241201665,35.13723904513733,36.71869290442388,1577396639.0,-27.70922820189492,-51.10841305617989,22.077253
120951,1577396639.93,-1.3685490270102896,1.0401346334317827,8.75877800754454,0.2007625684784676,1.2498900569264473,6.00208837652439,-2.0732034522079834,-0.0481176138528956,7.555049326529154,-2.227969285918445,0.3010819597942072,3.873685511147104,-5.203433153105945,0.8436993854801829,3.478631740663109,-0.4235244378810974,2.1457206912157014,4.224823742378049,-3.0510479132202923,-17.16361702533578,1.2399248321123264,-13.62374974562475,-2.896423045345459,-26.185071499013805,28.18842663312068,34.753856291370894,36.52700152754066,1577396639.0,-27.70922820189492,-51.10841305617989,22.077253
120952,1577396639.94,-0.6790189488852896,0.5277754781583451,8.192549314917587,-1.477572795291063,0.2898151912037915,9.224683811094703,0.909971816346703,-1.4822444082864892,7.687927518667826,-4.089541551543445,-1.1485030011432926,3.705838831459604,-2.472109910918445,-5.946461747332316,3.493890529725609,-0.4998183831935973,3.3511650271532014,2.3632514767530486,-4.040576966156604,-17.16361702533578,0.5313963566195653,-13.62374974562475,6.555062681571303,-58.83139440687517,28.044658100458264,35.01743193458532,36.742654326534286,1577396639.0,-27.70922820189492,-51.10841305617989,22.077253
120953,1577396639.95,0.1230386072670531,0.1063959859708451,8.97066485446837,-1.0466164964629376,0.3209398127858223,10.335593381407202,0.6705516503310782,2.5017071542135096,11.888554331411967,-3.418154832793445,-10.639469798018292,2.271512659584604,-5.691714403105945,5.207713057355183,3.295526271913109,-5.855653344131097,0.4672538943407012,-6.883574695121951,-4.040576966156604,-16.798433684371187,3.0112460208442324,-13.392593864468866,6.25017604521915,-104.40022013243168,28.044658100458264,35.08931620091653,36.910384281307095,1577396639.0,-27.70922820189492,-51.10841305617989,22.077253
120954,1577396639.96,-0.4683292027915396,0.8150796773770952,10.981794248999618,0.5000377759979988,-1.1036101750071454,10.25419052496189,-1.3405777442001707,1.7954176644674158,12.33866424352134,0.3965424328315549,-0.5381514386432926,3.888944300209604,-0.0154448718559451,4.048045088605183,3.448114162538109,-0.6066299066310974,-5.941437511909299,2.1191108517530486,-3.7107339485111663,-15.702883661477411,2.6569817830978484,-13.392593864468866,5.640402772514843,-100.99956149619612,28.284272321562284,34.8017791355917,36.67077006020308,1577396639.0,-27.70922820189492,-51.10841305617989,22.077253
120955,1577396639.97,-0.2109525243247428,0.1614626241544388,10.332965599097276,0.7226985303925301,0.8285105647389472,11.331581272032205,1.245160048768578,0.0835634774556971,8.689900913443218,-2.746768114043445,1.6438553972942072,3.9194618783346034,-3.372378465605945,1.7897443073551829,2.959832912538109,1.7737411871189026,1.1691581912157012,4.499481945503049,-5.689792054383788,-17.528800366300366,1.5941890698587031,-18.478023249898254,5.335516136162689,-12.582436954071568,28.284272321562284,35.13723904513733,36.67077006020308,1577396639.0,-27.70922820189492,-51.10841305617989,22.077253
120956,1577396639.98,-0.6287407140220084,0.6810043844083452,9.4997834213629,-0.3834226365996564,-0.4631612309153485,9.280947550108372,-1.4495139197372802,-0.9986156729349274,10.87820123082603,-3.997988817168445,-0.7212569073932926,3.187040003334604,-3.952212449980945,3.956492354230183,2.959832912538109,-4.253480492568597,-6.536530285346799,5.292938976753049,-3.8756554573338846,-17.34620869581807,1.7713211887318916,-16.74435414122914,7.927052545155993,-16.323161453930684,28.044658100458264,34.89762482403331,36.62284721598228,1577396639.0,-27.70922820189492,-51.10841305617989,22.077253
120957,1577396639.99,-0.5832508824790397,1.255612782845846,9.490206614722275,-1.0202802782012188,0.471774517375666,10.610926572325171,1.2403716454482654,0.3588966683736658,8.560614023794779,-1.0377837390434452,-1.8198897198932928,2.942899378334604,0.3812836437690549,-11.393849442644816,2.807245021913109,-1.9494033441310967,-14.1201484494093,5.994843273628049,-3.7107339485111663,-16.068067002442003,1.9484533076050947,-18.13128942816443,5.945289408866995,-103.03995667793744,28.092580944679067,35.08931620091653,36.71869290442388,1577396639.0,-27.70922820189492,-51.10841305617989,22.077253
120958,1577396640.0,-1.1650418858970084,-0.0252851053377476,10.421551060523056,-0.8167731370879376,1.180458208781916,9.907031284239231,0.0049635888076406,1.2279918710103843,8.23500259801353,-6.073184129668445,-6.641667063643292,2.698758753334604,-3.616519090605945,1.4845685261051829,3.539666896913109,-1.6747451410060974,-14.9746406369093,5.689667492378049,-4.535341492624759,-16.981025354853482,1.062792713239138,-18.13128942816443,-1.0671032272325374,-25.504939771766697,28.044658100458264,34.70593344715009,36.81453859286549,1577396640.0,-27.70942176206531,-51.10835097624215,21.968699
120959,1577396640.01,-1.209334616609899,1.14428240564858,9.327400901831652,-1.0035208665801252,1.190035015422541,9.593390866758764,-0.5672506079697021,2.4250927010885093,7.028324961294779,-1.0988188952934457,2.055842701981708,4.041532190834603,0.4423188000190549,-4.710499833269817,3.020868068788109,-12.447450219131095,-5.788849621284299,4.255341320503049,-3.8756554573338846,-15.885475331959707,1.7713211887318916,-13.565960775335776,7.317279272451687,-21.764215271907577,28.14050378889987,34.94554766825411,36.81453859286549,1577396640.0,-27.70942176206531,-51.10835097624215,21.968699
120960,1577396640.02,-1.612757596346227,-0.0324677103182163,9.145441575659776,-1.2118164110137188,0.6405657344166816,10.091384812071263,2.190869704530297,0.7515457406392914,6.720670047964702,-0.4884673327934451,-0.6907393292682926,3.644803675209604,-1.953311082793445,-1.7350359660823171,2.593621975038109,-2.147767601943597,4.739714831840701,3.8280952267530486,-3.8756554573338846,-15.885475331959707,1.7713211887318916,-13.450382834757836,6.402619363395226,-23.80461045364892,28.044658100458264,34.921586246143704,36.64680863809267,1577396640.0,-27.70942176206531,-51.10835097624215,21.968699
120961,1577396640.03,-0.1882076085532584,0.4415842183927201,9.4997834213629,2.472859943966749,0.692041070110041,7.582261472227515,-1.726044211485327,-0.4335840811380518,9.250144101919778,-4.547305223418445,-6.763737376143292,2.698758753334604,-10.360903856230944,11.433298994855184,2.776727443788109,4.367735327743903,8.3102714724657,1.4782417111280486,-5.359949036738351,-14.97251697954823,0.8856605943659495,-13.450382834757836,6.402619363395226,-23.80461045364892,28.14050378889987,35.13723904513733,36.67077006020308,1577396640.0,-27.70942176206531,-51.10835097624215,21.968699
120962,1577396640.04,0.3911891932045541,0.7360710225919389,8.6570244369879,-0.1272430589629376,-0.2776106022532392,11.005969846250952,0.0504534203506094,0.4953661630025721,10.147969724478372,4.272274854706555,-1.8809248761432928,3.400663050209604,-0.1680327624809451,-5.931202958269817,3.142938381288109,-1.1559463128810974,9.5920097537157,-0.5969536013719513,-5.854713563206507,-16.2506586729243,1.7713211887318916,-16.28204237891738,6.859949317923458,-26.185071499013805,28.14050378889987,35.13723904513733,36.81453859286549,1577396640.0,-27.70942176206531,-51.10835097624215,21.968699
120963,1577396640.05,0.3828094873940067,0.2668074972013143,10.61787559665587,0.6664347913788587,0.5854990962330884,8.723098563291968,-0.2883261145614994,-0.1103668570169585,9.800810483755717,-2.334780809355945,-0.9653975323932928,3.019193323647104,-3.326602098418445,4.627879072980184,3.509149318788109,1.7584823980564028,3.3664238162157014,2.0580756955030486,-4.700263001447477,-16.2506586729243,1.771321188731899,-16.802143111518113,7.7746092269799165,-14.96289799943646,28.284272321562284,35.13723904513733,36.81453859286549,1577396640.0,-27.70942176206531,-51.10835097624215,21.968699
120964,1577396640.06,0.0871255823647093,-0.0372561136385288,8.621111412085556,1.227875080685499,-1.448375214069645,10.673175815489234,0.6561864403701406,3.916680335365853,11.627586350454935,-0.5800200671684451,3.001887623856707,3.339627893959604,0.9306000500190548,-7.121388505144817,2.746209865663109,-1.3695693597560974,5.594207019340701,4.041718273628049,-4.700263001447477,-17.16361702533578,1.9484533076050947,-17.322243844118844,7.7746092269799165,-26.185071499013805,28.092580944679067,35.08931620091653,36.67077006020308,1577396640.0,-27.70942176206531,-51.10835097624215,21.968699
120965,1577396640.07,-0.8418246617759146,-0.4801834207674351,10.385638035620712,-1.8151552293730937,2.2602431575123845,9.358759104063452,-0.2607927954697021,-1.4630907950052392,8.895802256216653,-3.601260301543445,-2.094547923018293,2.607206018959604,-5.020327684355945,7.099802901105183,3.7532899437881095,1.0108017339939026,-3.6831367306592986,5.384491711128049,-4.700263001447477,-14.607333638583638,2.3027175453514714,-16.859932081807084,5.335516136162689,-24.824808044519585,28.14050378889987,34.70593344715009,36.67077006020308,1577396640.0,-27.70942176206531,-51.10835097624215,21.968699
120966,1577396640.08,-0.9232275182212272,1.3657460592130335,10.094742533911727,0.2510408033417489,-0.1842367375071454,9.713100949766575,-1.534508078672827,0.8592848153463222,8.055437473501811,-0.015444871855945,-0.1414229230182928,2.942899378334604,-2.914614793730945,4.444773604230183,3.9669129906631095,-11.287782250381095,13.5592949099657,4.072235851753049,-3.958116211745244,-16.52454617864774,1.3284908915489204,-18.940335012210014,-4.115969590754073,-14.622832135812905,28.284272321562284,34.993470512474914,36.81453859286549,1577396640.0,-27.70942176206531,-51.10835097624215,21.968699
120967,1577396640.09,-1.5888155797446646,0.7648014425138139,9.504571824683213,-1.9037406907988748,0.4250875850026196,9.875906662657204,0.2348069481826411,2.4562173226705406,12.268035294546731,-1.4345122546684452,-0.7212569073932926,2.851346643959604,0.8695648937690548,-5.748097489519817,3.356561428163109,3.101255835556403,-10.4580390744093,3.5992133908155486,-4.700263001447477,-16.068067002442003,1.9484533076050947,-13.62374974562475,5.945289408866996,-20.74401768103691,28.092580944679067,34.993470512474914,36.71869290442388,1577396640.0,-27.70942176206531,-51.10835097624215,21.968699
120968,1577396640.1,-1.5864213780845082,0.2907495138028764,8.798282334937118,-1.309978679080125,0.8668177913014472,10.009981955625951,-2.310229416563452,1.251933887611947,13.461544822134623,-2.411074754668445,3.490168873856707,3.492215784584604,0.9916352062690548,-12.400929520769816,2.349481350038109,-2.742860375381097,-24.0078437619093,4.713104992378049,-4.700263001447477,-16.068067002442003,1.9484533076050947,-17.033298992673995,7.012392636099534,-14.282766272189347,28.284272321562284,34.94554766825411,36.910384281307095,1577396640.0,-27.70942176206531,-51.10835097624215,21.968699
120969,1577396640.11,-0.9351985265220084,0.2165292623380326,9.6147051010504,-1.2573062425566877,-1.5848447086985515,9.227078012754856,-2.157000510313452,-0.3833058462747705,9.027483347525248,-1.4039946765434452,-0.6602217511432926,3.705838831459604,0.8085297375190549,-1.2925310832698171,3.387079006288109,-7.717225609756097,-16.1953437619093,5.140351086128049,-4.370419983802041,-15.702883661477411,1.9484533076050947,-17.091087962962966,6.555062681571303,-113.24193258664414,28.23634947734148,34.8017791355917,36.57492437176146,1577396640.0,-27.70942176206531,-51.10835097624215,21.968699
120970,1577396640.12,-1.0584999120200551,0.7025521993497514,11.3385302963629,-2.054575395388719,1.2259480403248846,11.43453194341892,2.660133229920922,1.771475647865853,10.7321549295565,-0.3358794421684452,-6.260197337080793,3.293851526772104,3.1889008312690548,-11.149708817644816,4.1195008812881095,-13.942811547256095,-13.3877265744093,4.804657726753049,-4.370419983802041,-16.61584201388889,1.4170569509855184,-13.62374974562475,6.859949317923458,-90.11745386024232,28.26031089945188,34.993470512474914,36.71869290442388,1577396640.0,-27.70942176206531,-51.10835097624215,21.968699
120971,1577396640.13,-0.2408800450766959,0.4487668233731888,10.543655345191024,-0.3678603258086407,-0.1555063175852709,11.128074130918922,1.0751717308974842,1.4769888436666343,8.34992427770103,4.058651807831555,2.147395436356707,4.316190393959603,2.3801850109565548,-4.252736161394817,3.295526271913109,2.719786108993903,-1.516388683784299,3.7365424923780486,-4.370419983802041,-16.798433684371187,3.7197744963369854,-13.62374974562475,3.201309681697613,-23.46454459002536,28.23634947734148,35.065354778806125,36.742654326534286,1577396640.0,-27.70942176206531,-51.10835097624215,21.968699
120972,1577396640.14,0.3313341517006478,0.2428654805997513,10.14382366794493,0.0188032423065926,0.1006732600514473,7.977304746153296,1.2571310570693592,1.093916578041635,9.573361326040873,-2.807803270293445,-2.277653391768293,3.370145472084604,2.7921723156440548,-4.374806473894817,3.203973537538109,4.489805640243903,7.791472644340701,3.5229194455030486,-4.370419983802041,-16.798433684371187,3.7197744963369854,-13.62374974562475,3.201309681697613,-23.46454459002536,28.23634947734148,35.233084733578934,36.81453859286549,1577396640.0,-27.70942176206531,-51.10835097624215,21.968699
120973,1577396640.15,0.2810559168373666,-0.2527342630525913,9.044885105933211,-0.4576428880645001,-0.0717092594798017,6.837664755918921,-0.1027754858993895,1.204049854408822,9.551813511099466,-2.105898973418445,-3.711979563643293,3.156522425209604,1.1137055187690548,-2.391163895769817,3.417596584413109,2.536680640243903,0.1010429568407012,4.377411633003049,-4.535341492624759,-15.155108650030524,0.3542642377463768,-19.63380265567766,0.7622165908803841,-26.185071499013805,28.284272321562284,34.8017791355917,36.81453859286549,1577396640.0,-27.70942176206531,-51.10835097624215,21.968699
120974,1577396640.16,0.0392415491615853,0.7815608541349081,9.092769139136337,-1.005915068240281,1.642539129192072,10.52832661504978,-0.3110710303329839,0.0668040658346039,9.531462796988135,3.2651947765815548,0.7893632097942074,3.675321253334604,0.0303314953315547,-0.0718279582698171,3.493890529725609,1.5906357183689024,3.137541980278201,3.8738715939405486,-3.958116211745245,-15.42899615575397,2.214151485914877,-18.42023427960928,1.6768764999368455,-24.14467631727247,28.284272321562284,34.96950909036451,36.862461437086296,1577396640.0,-27.70942176206531,-51.10835097624215,21.968699
120975,1577396640.17,-0.6047986974204459,1.0401346334317827,10.701672654761335,-0.4983443162871564,0.7279540950123847,6.947798032286109,-3.6605591528915777,-0.3186624014505518,9.08254998570884,-1.4955474109184452,-2.857487376143293,3.003934534584604,-1.9685698718559448,5.085642744855183,3.8143251000381095,-1.9494033441310967,-1.1806953244092988,3.7060249142530486,-3.5458124396884485,-15.155108650030524,1.4170569509855149,-13.392593864468866,5.335516136162689,-23.46454459002536,28.044658100458264,34.993470512474914,36.81453859286549,1577396640.0,-27.70942176206531,-51.10835097624215,21.968699
120976,1577396640.18,-0.8729492833579459,0.3266625387052201,9.236421238745711,-1.3722279222441875,-1.4771056339915205,8.877524570372046,-2.583168405821265,1.5224786752096031,9.379430991568215,1.2815521984565548,2.971370045731707,3.705838831459604,1.2357758312690548,-5.198781083269817,3.9058778344131095,3.024961890243903,4.068328113090701,3.5839546017530486,-3.5458124396884485,-15.155108650030524,1.4170569509855149,-13.392593864468866,5.335516136162689,-23.46454459002536,28.284272321562284,34.993470512474914,36.71869290442388,1577396640.0,-27.70942176206531,-51.10835097624215,21.968699
120977,1577396640.19,-0.8968912999595083,0.3553929586270951,10.026507786597277,-1.6475611131621564,2.1309562678639478,11.008364047911108,0.5077459374404532,0.5863458260885096,8.804822593130718,-1.1903716296684452,1.0182450457317074,3.492215784584604,-2.273745653105945,-3.398243973894817,2.776727443788109,-0.3930068597560974,4.129363269340701,2.2411811642530486,-5.854713563206507,-15.520291990995116,2.125585426478283,-16.28204237891738,6.859949317923458,-100.99956149619612,28.23634947734148,34.753856291370894,36.57492437176146,1577396640.0,-27.70942176206531,-51.10835097624215,21.968699
120978,1577396640.2,-0.0385700047934932,0.8617666097501421,10.675336436499618,0.9274027723358896,0.5986672053639478,9.173208475401342,0.8405399682021725,1.127435401283822,10.090508884634623,0.488095167206555,-4.703800852705792,3.217557581459604,-4.364199754668445,7.130320479230184,3.097162014100609,3.192808569931403,-2.9812324337842986,1.1578071408155486,-4.9476452646815545,-16.15936283768315,1.5056230104221124,-16.10867546805047,8.384382499684225,-107.46081290504368,28.26031089945188,34.96950909036451,36.64680863809267,1577396640.0,-27.70942176206531,-51.10835097624215,21.968699
120979,1577396640.21,0.8532701136147103,0.4942566549161576,9.554850059546494,0.7801593702362801,0.720771490031916,11.72183614263767,1.362475930116234,1.1418006112447596,10.033048044790872,-0.1832915515434451,3.184993092606707,3.583768518959604,-0.1375151843559451,-2.757374833269817,3.417596584413109,7.816221655868903,0.3757011599657012,2.6684272580030486,-4.205498474979322,-16.61584201388889,1.7713211887318916,-18.651390160765164,3.658639636225843,-6.801317272471119,28.23634947734148,34.993470512474914,36.67077006020308,1577396640.0,-27.70942176206531,-51.10835097624215,21.968699
120980,1577396640.22,0.1062791956459593,-0.0157082986971226,10.060026609839465,-0.1799154954863751,1.2546784602467598,10.742607663633764,1.4414845849013904,-0.0026277823099268,7.179159665884623,0.5186127453315549,4.283625905106708,3.339627893959604,3.0057953625190548,-1.8723650676448167,4.0279481469131095,5.161192358993903,-3.2558906369092986,3.6144721798780486,-4.205498474979322,-16.61584201388889,1.7713211887318916,-18.651390160765164,3.658639636225843,-6.801317272471119,28.092580944679067,34.89762482403331,36.57492437176146,1577396640.0,-27.70942176206531,-51.10835097624215,21.968699
120981,1577396640.23,-0.2396829442466178,1.005418709359517,8.581607084692978,1.14407802258003,-0.4116858952219892,7.287774668028296,-1.1059459815048582,0.2942532235494471,10.167123337759625,2.1513031750190548,3.444392506669207,3.278592737709604,0.7169770031440549,-0.9873553020198172,3.234491115663109,9.708311499618905,-8.2912910275343,4.713104992378049,-4.452880738213399,-16.15936283768315,1.5056230104221162,-17.322243844118844,5.640402772514843,-14.622832135812905,28.14050378889987,34.8017791355917,36.71869290442388,1577396640.0,-27.70942176206531,-51.10835097624215,21.968699
120982,1577396640.24,-0.4060799596274771,0.7408594259122514,9.667377537573838,-0.97479044665825,1.3241103083912915,9.981251535704075,1.3193803002334217,0.7264066232076503,9.14120792638267,-2.563662645293445,-4.230778391768292,2.698758753334604,1.7393158703315548,-6.556813309832316,3.7227723656631095,0.6751083746189027,7.1048271365282005,3.2177436642530486,-5.030106019092914,-17.16361702533578,2.3027175453514714,-18.015711487586493,1.8293198181129229,-24.14467631727247,28.23634947734148,34.873663401922904,36.62284721598228,1577396640.0,-27.70942176206531,-51.10835097624215,21.968699
120983,1577396640.25,-0.5688856725181022,1.9188066427091277,10.165371482886338,-0.0961184373809063,1.0607481257741034,9.818445822813452,-1.2424154761337645,2.3221420297017907,7.186342270865092,4.058651807831555,1.2318680926067074,2.881864222084604,-2.914614793730945,10.273631026105184,2.807245021913109,4.917051733993903,4.739714831840701,2.4853217892530486,-4.205498474979322,-14.789925309065936,2.8341139019710444,-18.362445309320314,-1.981763136288998,-24.14467631727247,28.284272321562284,35.28100757779974,36.71869290442388,1577396640.0,-27.70942176206531,-51.10835097624215,21.968699
120984,1577396640.26,-0.5281842442954459,0.2739901021817826,9.224450230444932,0.1863973585175301,-0.6965958927805829,7.886325083067359,-1.630276145079077,1.5272670785299158,7.883054953970561,-3.570742723418445,3.673274342606707,3.461698206459604,-0.8394194812309451,5.879099776105183,2.044305568788109,6.107237280868903,11.9723808474657,3.4008491330030486,-4.205498474979322,-14.789925309065936,2.8341139019710444,-13.277015923890923,0.457329954528231,-22.784412862778247,28.38011801000389,35.13723904513733,36.71869290442388,1577396640.0,-27.70942176206531,-51.10835097624215,21.968699
120985,1577396640.27,-0.5557175633872428,0.2919466146329545,8.805464939917588,-0.2972313768340314,1.6569043391530096,8.499240708067358,0.8165979516006094,-0.5078043326028956,10.394572495474469,-0.656314012480945,2.559382741044208,3.293851526772104,0.6254242687690549,-0.132863114519817,4.5772645531631095,3.360655249618903,1.7184745974657012,2.3937690548780486,-4.865184510270196,-14.97251697954823,2.6569817830978524,-12.930282102157102,0.457329954528231,-17.343359044801353,28.068619522568667,35.13723904513733,36.71869290442388,1577396640.0,-27.70942176206531,-51.10835097624215,21.968699
120986,1577396640.28,0.4055544031654916,1.619531435189596,9.274728465308211,-0.877825279421922,0.2886180903737134,9.927381998350562,-1.026937326719702,-0.1630392935403961,9.67750909825767,6.164364698456555,1.6591141863567074,3.400663050209604,-2.197451707793445,8.412058760480184,3.341302639100609,2.521421851181403,19.0982353396532,0.2270210080030487,-4.865184510270196,-14.059558627136752,1.062792713239138,-13.537066290191293,9.5277073860048,-106.6106482459848,28.092580944679067,35.065354778806125,36.69473148231347,1577396640.0,-27.70942176206531,-51.10835097624215,21.968699
120987,1577396640.29,0.1565574305092415,0.6163609395841264,10.960246434058211,0.3324436597870613,0.2539021663014473,8.45375087652439,-0.2272739722275145,1.153771619545541,10.516676780142436,-4.059023973418445,-0.8128096417682926,2.881864222084604,6.667904737519055,-2.299611161394817,3.6922547875381095,2.811338843368903,17.5265800662157,0.4711616330030487,-3.8756554573338846,-15.885475331959707,1.4170569509855149,-13.565960775335776,0.6097732727043083,-14.282766272189347,27.94881241201665,34.993470512474914,36.81453859286549,1577396640.0,-27.70942176206531,-51.10835097624215,21.968699
