,timestamp,acc_x_dashboard,acc_y_dashboard,acc_z_dashboard,acc_x_above_suspension,acc_y_above_suspension,acc_z_above_suspension,acc_x_below_suspension,acc_y_below_suspension,acc_z_below_suspension,gyro_x_dashboard,gyro_y_dashboard,gyro_z_dashboard,gyro_x_above_suspension,gyro_y_above_suspension,gyro_z_above_suspension,gyro_x_below_suspension,gyro_y_below_suspension,gyro_z_below_suspension,mag_x_dashboard,mag_y_dashboard,mag_z_dashboard,mag_x_above_suspension,mag_y_above_suspension,mag_z_above_suspension,temp_dashboard,temp_above_suspension,temp_below_suspension,timestamp_gps,latitude,longitude,speed
30791,1577399313.31,-0.4909865258193594,2.223395810010956,16.30737466862376,-1.923303070217225,2.948780517875857,15.013221078565646,-1.3568115993592789,-11.300923811749714,11.563994018554688,-3.5223611971227133,16.421806521532012,-6.675161966463414,-8.858471381955031,-1.6829327839176829,-3.5616246665396343,-2.606089522198933,0.3602562881097561,-5.132535608803353,-5.729600694444443,4.601310096153845,-3.381613178488186,-13.750298279444912,19.97939170204795,-1.2301369003592555,27.94881241201665,32.98071105520113,35.233084733578934,1577399313.0,-27.69318415229725,-51.12098159545362,7.163826
30792,1577399313.32,0.6678070776962646,-0.9130083647937308,12.54608386051829,-0.2114488832055061,1.0214481814500758,14.153702682569552,-7.373440371331936,-5.648213692120807,15.720328100585936,-6.543601431497714,6.381523318407012,-5.210318216463414,-2.9075436475800305,15.803639481707316,-6.216653963414634,-20.06214420969893,-15.844577696265244,-16.973355921303355,-8.02144097222222,6.441834134615387,-2.329555745180745,-13.750298279444912,19.97939170204795,-1.2301369003592555,27.90088956779585,33.17240243208434,35.32893042202055,1577399313.0,-27.69318415229725,-51.12098159545362,7.163826
30793,1577399313.33,-0.7770936242080312,0.1560026764660338,6.983156303145245,3.9173518797339457,-2.255016790473752,8.206505758741425,5.068028555670017,4.749804117937786,8.67658681640625,-1.3098367830602131,4.031669802782012,-6.369986185213415,-1.9157223585175305,0.8042498332698171,-6.003030916539634,-11.700327803448932,-38.65646734470275,-5.4377113900533525,-7.1399639423076895,4.601310096153845,-2.630143583268586,-12.62034970238095,25.56995543518981,-2.7788321204036346,27.996735256237457,32.789019678317906,35.28100757779974,1577399313.0,-27.69318415229725,-51.12098159545362,7.163826
30794,1577399313.34,-0.5867545922256094,-2.8259754912585744,2.8232309186237607,-1.9783697084008185,-4.0207405148389865,11.960613961866429,4.662211374273532,3.02358472096513,8.243236315917969,1.6045919278772869,0.979911990282012,-4.020132669588414,-4.616528022580031,-12.394602705792684,-7.437357088414634,-22.19837467844893,-52.49618902439025,8.173128453696647,-7.668850160256408,4.396807425213674,-2.630143583268586,-10.257729950338122,-3.299349088411588,-27.0417239010989,28.14050378889987,32.88486536675951,35.13723904513733,1577399313.0,-27.69318415229725,-51.12098159545362,7.163826
30795,1577399313.35,-1.1805166039443593,-2.146022219774199,4.678737205244855,-2.205818866115662,1.8306883425828884,14.673244442823458,-3.0495121730897483,-7.37682729075362,4.3813890380859375,2.6116720060022867,-1.522529415967988,-6.186880716463414,-2.3277096632050305,-1.4387921589176829,-5.056985994664634,-20.09266178782393,-43.09677496189025,6.189485875571647,-6.7873731303418765,5.828326121794872,-3.682201016576021,-15.599305041913214,26.76138705044955,-27.631703032544383,27.94881241201665,32.88486536675951,35.32893042202055,1577399313.0,-27.69318415229725,-51.12098159545362,7.163826
30796,1577399313.36,-1.5468294579482655,-0.3336115630359182,12.54129545719798,-1.9472450868187876,-2.75420783661633,9.324597934034394,0.012671750250095,-11.415845491437214,3.246537451171875,-9.992087759622711,-7.381904415967988,-7.651724466463414,-4.524975288205031,12.019459794207316,-9.756693025914634,-19.29920475657393,-16.546481993140244,-7.146695765053353,-7.4925547542735025,5.010315438034185,-3.381613178488186,-9.435949167018876,-2.1995660589410586,-27.631703032544383,28.092580944679067,32.83694252253871,35.47269895468296,1577399313.0,-27.69318415229725,-51.12098159545362,7.163826
30797,1577399313.37,1.791884757139624,-1.284109622117949,10.305111106612042,6.158324633640196,-3.273749596870236,8.214885464551973,8.070357437505953,0.0739282756526298,0.9301473449707032,-7.932151236185212,-4.299629025342988,-5.790152200838414,-6.249218452267532,-6.428416182355184,-6.277689119664634,3.573720048113568,35.59280023342225,-3.957608850990853,-6.522930021367518,4.908064102564101,-3.306466218966221,-9.435949167018878,-2.932754745254745,-3.737548209002536,28.21238805523108,33.00467247731153,35.233084733578934,1577399313.0,-27.69318415229725,-51.12098159545362,7.163826
30798,1577399313.38,-1.309803493592797,-3.570572207567168,4.700285020186261,-1.3726366883812873,2.2544620364305445,14.005262179639866,-4.842769216546779,-9.076710469464556,15.198392138671874,1.1468282560022869,6.076347537157012,-3.9590975133384143,-9.804516303830033,-6.138499190167683,-11.007913729039634,12.683217118426068,51.87392816310975,-3.576139124428354,-6.611077724358971,4.805812767094015,-2.930731421356421,-1.2181413338264289,-4.032537774725275,-28.811661295435336,28.428040854224697,33.12447958786354,35.47269895468296,1577399313.0,-27.69318415229725,-51.12098159545362,7.163826
30799,1577399313.39,-0.1869229149795157,-1.375089285203887,8.574103306319072,0.8970664854468365,1.97673464385242,11.292631698682834,-4.924172072992093,-27.550370479230185,21.447258471679685,-9.564841665872711,-1.766670040967988,-6.705679544588414,-6.783276069455031,6.343190262957317,-7.345804354039634,-9.564097334698932,28.52798089748476,-39.61739889005335,-6.611077724358971,4.805812767094015,-2.930731421356421,-2.2453673129754868,-3.48264625999001,-35.44892652419696,28.044658100458264,33.02863389942193,35.32893042202055,1577399313.0,-27.69318415229725,-51.12098159545362,7.163826
30800,1577399313.4,0.8605403113388427,-0.4736723601550593,10.87971950504954,4.332745867771055,-2.201147253120236,10.531275570753149,6.40040177954697,34.29185840260575,18.43774698486328,-2.484763540872711,-9.853828244092988,-7.041372903963414,-2.2361569288300305,-0.0349835651676829,-9.054788729039634,7.830922196551067,-7.055515196265244,-22.588590296303355,-6.6992254273504255,3.4765454059829044,-3.607054057054063,-2.2453673129754868,-3.48264625999001,-35.44892652419696,28.332195165783087,32.98071105520113,35.32893042202055,1577399313.0,-27.69318415229725,-51.12098159545362,7.163826
30801,1577399313.41,3.555214279844703,-5.576913198778106,5.847107615401105,1.5327270262183208,-3.218682958686643,4.211780288770721,-2.7514340664002948,-2.763200691632527,6.4080807434082026,0.4449239591272865,1.559745974657012,-6.308951028963414,-5.776195991330031,-4.048045088605183,-6.491312166539634,-6.359751631573932,-21.475070860327744,12.521883336509148,-7.668850160256408,5.21481810897436,-2.630143583268586,-2.348089910890392,-3.5742948457792205,-28.442924338281912,27.94881241201665,33.148441009973936,35.16120046724773,1577399313.0,-27.69318415229725,-51.12098159545362,7.163826
30802,1577399313.42,0.4642999365829833,-1.336782058641387,11.114351267744857,-0.2186314881859749,2.836253039848513,3.918490585401581,-6.303232229242092,-5.418370332745807,11.48498536376953,-6.421531118997714,3.940117068407013,-6.919302591463414,-6.508617866330031,-10.105784346417684,-9.054788729039634,-17.468150069073932,-11.755222227515244,-9.221891077553352,-8.374031784188034,5.623823450854701,-4.13308277370778,-11.28495592948718,-0.5498915147352641,-20.994437803782755,27.90088956779585,32.789019678317906,35.32893042202055,1577399313.0,-27.69318415229725,-51.12098159545362,7.163826
30803,1577399313.43,2.4395163062118894,-0.9082199614734182,1.1472897565143858,5.637585772556212,0.6000686892625757,4.251284616163299,7.9805748752500945,9.607639286394816,3.821145849609375,12.438332162252289,-0.7290723847179879,-3.4097811070884143,-7.271557319455031,3.901784012957317,-6.796487947789634,1.5443011028010671,-3.423923399390244,1.3371909536966462,-8.374031784188034,5.623823450854701,-4.13308277370778,-16.215640629402646,-3.1160519168331664,-22.174396066673708,27.94881241201665,33.12447958786354,35.08931620091653,1577399313.0,-27.69318415229725,-51.12098159545362,7.163826
30804,1577399313.44,0.39007968511814,0.6384343109875187,8.337077341963605,1.6057501768530864,-0.3983134030225794,5.797938888624237,-7.189086843499905,-22.491422371320027,13.148955517578123,5.770241341939786,-8.160102658155488,-8.597769388338415,-8.400707710080031,-2.110178877667683,-9.665140291539634,-15.362437178448932,-17.156833555640244,-9.008268030678352,-6.963668536324784,4.601310096153846,-3.6822010165760175,-16.215640629402646,-3.849240603146853,-32.20404130124683,28.092580944679067,32.98071105520113,35.13723904513733,1577399313.0,-27.69318415229725,-51.12098159545362,7.163826
30805,1577399313.45,0.3637434668564208,-0.5682433257312308,9.78317514469798,2.6783525206030867,2.4843053958055443,15.27179485786252,4.774738852300875,11.715733848162392,5.814318731689453,-6.757224478372714,-1.308906369092988,-7.254995950838414,-7.988720405392532,3.398243973894816,-5.713113924352134,-2.4992779987614324,-12.762302305640244,-18.590787561928355,-8.02144097222222,6.0328287927350415,-3.531907097532104,-16.31836322731755,-3.940889188936064,-32.27778869267752,28.044658100458264,32.98071105520113,35.233084733578934,1577399313.0,-27.69318415229725,-51.12098159545362,7.163826
30806,1577399313.46,1.6422471533798582,-7.343834023973418,4.025120152022199,4.026288055271055,-8.033422497260862,7.330227951124237,0.2401209079649387,-1.4703317951481514,-0.5363011718749999,-8.710349478372713,11.752617068407012,-3.8980623570884143,-9.163647163205033,-1.7439679401676829,-6.765970369664634,10.882680009051068,37.50014886623475,7.349153844321647,-8.726622596153845,5.623823450854701,-2.930731421356421,-14.57207906276416,-2.749457573676323,-31.02408303835588,28.14050378889987,32.88486536675951,35.47269895468296,1577399313.0,-27.69318415229725,-51.12098159545362,7.163826
30807,1577399313.47,0.2392449805282958,-3.1156738921374805,9.732896909834698,-2.12441600967035,-2.2729733029249237,11.785837240675022,6.922337741461032,-4.8126373127262765,9.265560424804686,-7.092917837747714,9.860527224657012,-6.980337747713414,-5.348949897580031,-20.54279606516768,-4.385599275914634,15.094105790301068,50.89736566310975,6.555696813071647,-8.726622596153845,5.623823450854701,-2.930731421356421,-14.777524258593967,-3.299349088411588,-4.032537774725275,27.90088956779585,32.83694252253871,35.233084733578934,1577399313.0,-27.69318415229725,-51.12098159545362,7.163826
30808,1577399313.48,3.507330246641577,-0.7071070220202937,9.07449145329173,3.893409863132383,0.9196946108934352,8.981029995801972,-2.976489022454983,-13.425777785138386,8.871714251708983,4.763161263814788,-7.732856564405488,-4.096426614900914,-3.884106147580031,8.815114091082316,-6.765970369664634,12.393300126238568,72.29018792873475,-19.38424459317835,-6.611077724358975,4.1923047542735015,-2.9307314213564246,-16.421085825232456,-3.665943431568431,0.6872952768385466,28.116542366789467,32.93278821098032,35.424776110462155,1577399313.0,-27.69318415229725,-51.12098159545362,7.163826
30809,1577399313.49,1.697313791563452,-1.6671818877429494,12.376095542647198,-0.2090546815453499,-6.7621014157178925,-1.559442813035918,0.6710772067930637,14.664193192644817,13.606248034667969,-2.0575174471227133,-5.184638790967988,-9.971060403963415,0.4188723680449695,-14.927561690167684,-5.118021150914634,24.371449540301068,51.38564691310975,-16.790250452553355,-7.316259348290597,4.805812767094015,-3.8324949356199385,-12.723072300295856,24.56182099150849,1.867253539729502,28.23634947734148,33.02863389942193,35.233084733578934,1577399313.0,-27.69318415229725,-51.12098159545362,7.163826
30810,1577399313.5,2.7890697485947027,-2.572190115282012,7.84147759831126,3.0422711729468364,2.797945813286013,7.473880050733612,-2.6113732692811547,-8.478160054425494,17.068263635253906,1.7571798185022869,3.0551073027820124,-5.332388528963414,-3.762035835080032,0.6364031535823171,-3.8057652915396334,3.711049149676067,19.09804925685976,-20.910123499428355,-5.729600694444443,3.3742940705128173,-3.381613178488186,-13.955743475274724,-2.9327547452547447,-3.147569077557058,27.90088956779585,33.02863389942193,35.28100757779974,1577399313.0,-27.69318415229725,-51.12098159545362,7.163826
30811,1577399313.51,3.327765122129859,0.7006835541515807,5.5478324078815735,6.511469378513242,0.037431299125857,11.23756506049924,1.997464926519626,-1.985085152081745,16.93897674560547,4.778420052877286,4.275810427782012,-7.499136575838414,-6.203442085080031,11.714284012957316,-8.993753572789634,-13.836558272198932,-23.260349180640244,-17.278531702553355,-5.729600694444443,3.3742940705128173,-3.381613178488186,-16.421085825232456,26.02819836413586,-2.852579511834319,28.092580944679067,32.789019678317906,35.32893042202055,1577399313.0,-27.69318415229725,-51.12098159545362,7.163826
30812,1577399313.52,4.175312509825171,-2.2334105803699025,11.44235689518626,6.892147442478086,0.4959209170457793,10.032084524610566,6.075987454595797,12.906849174090128,4.189852905273438,-0.455344595560212,-1.7666700409679876,-8.735098489900915,-11.223583686642533,5.870167802019816,-5.423196932164634,-7.321055342511432,-24.618381407202747,5.289217320884148,-7.4925547542735025,6.237331463675215,-3.832494935619942,-16.010195433572836,11.364424637862136,-3.2950638604184275,28.068619522568667,32.90882678886992,35.37685326624135,1577399313.0,-27.69318415229725,-51.12098159545362,7.163826
30813,1577399313.53,-0.0815780419326406,1.842717746046112,13.273921165205792,-0.2138430848656624,-4.274525890815549,9.140244406202362,-1.3951188259217788,-15.275298567609088,0.4955997436523437,-14.508689322122711,5.801689334032012,-5.881704935213414,-1.0154538038300305,6.373707841082317,-10.031351229039634,-4.955943037823933,5.456691834984756,13.055940953696648,-7.668850160256408,6.850839476495728,-2.930731421356421,-15.599305041913214,-3.299349088411588,-3.737548209002536,28.044658100458264,33.02863389942193,35.32893042202055,1577399313.0,-27.69318415229725,-51.12098159545362,7.163826
30814,1577399313.54,-0.2659315697646719,-2.1436280181140432,7.922880454756573,-3.948797674709413,1.100456836235232,5.103620407178925,2.016618539800876,-9.105440889386433,15.31570802001953,-13.715232290872711,9.433281130907012,-5.912222513338414,-6.264477241330031,-3.544505049542683,-4.812845369664634,-2.514536787823933,21.63100824123476,-7.299283655678353,-6.963668536324786,5.21481810897436,-2.930731421356421,-16.421085825232456,25.66160402097902,-28.811661295435336,28.428040854224697,32.83694252253871,35.47269895468296,1577399313.0,-27.69318415229725,-51.12098159545362,7.163826
30815,1577399313.55,0.7216766150497808,0.6120980927257994,13.265541459395244,-4.176246832424257,2.402902539360232,12.535222360303928,4.793892465582126,0.746698942156535,12.89756434326172,-7.825339712747713,3.5586473418445124,-7.377066263338414,-2.5718502882050305,-0.8894757526676829,-3.7142125571646334,1.3917132121760671,17.328029725609756,-13.952115686928352,-6.346634615384614,5.112566773504273,-2.404702704702707,-16.010195433572836,20.895877559940057,-29.99161955832629,28.068619522568667,33.12447958786354,35.424776110462155,1577399313.0,-27.69318415229725,-51.12098159545362,7.163826
30816,1577399313.56,-2.444655080506859,-6.3047505034656055,11.042525217940169,1.6524371092261332,-2.9744743893507044,12.12341967475705,1.7269201389219695,0.4737599528987236,13.333309045410155,-21.10048619712272,11.935722537157012,-4.386343607088414,-1.259594428830031,6.694142411394816,-6.353983064977134,-13.470347334698932,-10.915988829077744,-21.50521627286585,-7.139963942307691,2.9652887286324763,-2.479849664224669,-16.010195433572836,20.895877559940057,-31.171577821217245,28.044658100458264,32.95674963309072,35.37685326624135,1577399313.0,-27.69318415229725,-51.12098159545362,7.163826
30817,1577399313.57,2.7124552954697028,-2.167570034715605,6.910133152510479,4.873835442966367,-7.075741833198361,10.102713473585178,5.160205319586032,6.851913175554973,2.6312276245117188,-5.567038931497714,2.1090623809070124,-7.804312357088414,0.6324954149199695,-7.755930830792683,-2.3409215415396343,0.1710100871760671,9.912258241234756,8.783480016196647,-5.729600694444443,5.010315438034185,-3.682201016576021,-12.312181908636234,22.36225493256743,-4.032537774725275,28.044658100458264,32.88486536675951,35.08931620091653,1577399313.0,-27.69318415229725,-51.12098159545362,7.163826
30818,1577399313.58,0.7755461524032958,-3.5562069976062305,10.065690940596417,-1.9209088685570683,-2.828428088081174,7.265584506300018,-8.548993386468656,-7.343308467511433,10.196904870605469,-5.963767447122714,6.991874880907012,-5.729117044588414,0.6019778367949695,-2.720530440167683,-8.627542635289634,-8.526499678448932,2.008205506859756,7.806917516196647,-7.316259348290597,4.396807425213674,-2.930731421356421,-15.18841465025359,22.36225493256743,-2.2626003803888417,28.428040854224697,33.02863389942193,35.32893042202055,1577399313.0,-27.69318415229725,-51.12098159545362,7.163826
30819,1577399313.59,0.6462592627548592,-0.5454984099597469,14.490175608565169,-4.973515985256288,0.324735498344607,9.60232532661252,-2.113379323968654,-7.910734260968463,10.68053360595703,-15.653098501810216,-15.881049923780488,-7.651724466463415,-1.9309811475800305,-8.000071455792684,-4.324564119664634,-14.233286787823932,-4.339450743140244,-7.482389124428353,-7.316259348290597,4.396807425213674,-2.930731421356421,-13.133962691955478,23.82863230519481,-1.9676108146661029,28.044658100458264,33.02863389942193,35.13723904513733,1577399313.0,-27.69318415229725,-51.12098159545362,7.163826
30820,1577399313.6,2.640629245665015,0.2697272553234557,11.171812107588604,2.2414107176245706,0.7712541079637482,9.054053146436738,2.3434270664122043,-8.75588744700362,9.074024291992188,-1.0504373689977131,0.3390428496570121,-3.4097811070884143,-7.073193061642532,6.236378739519816,-5.575784822789634,-8.862193037823932,4.174953553734756,-7.9554115853658525,-5.200714476495726,4.805812767094015,-3.531907097532104,-13.133962691955478,25.29500967782218,-2.852579511834319,28.092580944679067,32.98071105520113,35.32893042202055,1577399313.0,-27.69318415229725,-51.12098159545362,7.163826
30821,1577399313.61,2.587956809141578,1.5625961518078306,9.184624729658918,1.9481210142554304,-0.958556591499142,8.682951889112518,3.0820382785704075,3.1289295940120048,7.685387329101562,7.525002084127286,11.508476443407012,-5.851187357088414,-6.844311225705031,-2.018626143292683,-0.9371129477896342,-7.885630537823933,9.454494569359756,-13.555387171303352,-6.434782318376065,4.192304754273503,-3.381613178488186,-13.133962691955478,26.76138705044955,-3.4425586432797965,28.23634947734148,32.83694252253871,35.28100757779974,1577399313.0,-27.69318415229725,-51.12098159545362,7.163826
30822,1577399313.62,0.6486534644150146,-3.647186660692168,13.060837217451883,4.655963091892149,-8.165103588569455,12.468184713819552,7.784250339117282,9.339488700457316,8.329427575683594,-15.576804556497711,4.611503787157012,-7.712759622713414,-0.0999264600800304,4.573170731707317,-10.244974275914634,11.920277665301068,15.130764100609756,-4.857877405678353,-5.905896100427352,4.805812767094015,-2.930731421356421,-8.819613579529443,26.211495535714285,-26.30424998679205,28.092580944679067,32.98071105520113,35.28100757779974,1577399313.0,-27.69318415229725,-51.12098159545362,7.163826
30823,1577399313.63,0.6953403967880614,-4.796403457567169,10.21054014103587,1.669196520847227,-0.6808291989210178,10.01173381049924,-7.40336789208389,-5.969036714581745,15.529989068603514,-17.453635611185213,6.427299685594512,-6.064810403963414,-5.364208686642531,1.4908953410823162,-6.140360018102134,-1.9347028034489329,12.414699647484758,-7.604459436928352,-6.25848691239316,5.21481810897436,-3.231319259444269,-8.614168383699631,11.54772180944056,-25.41928128962384,28.068619522568667,32.95674963309072,35.28100757779974,1577399313.0,-27.69318415229725,-51.12098159545362,7.163826
30824,1577399313.64,2.432333701231421,0.4014083466320494,11.329829417158916,-0.1587764466820686,0.343889111625857,9.834562887647678,0.06055578345322,6.703472672625286,5.734112976074218,4.412209115377286,-0.3018262909679878,-8.689322122713415,-4.280834663205031,13.911549637957316,-4.263528963414634,-10.662730147198932,-5.590671446265244,-3.820279749428354,-6.7873731303418765,5.828326121794872,-2.780437502312504,-8.408723187869821,-3.1160519168331664,-24.53431259245562,28.23634947734148,33.12447958786354,35.13723904513733,1577399313.0,-27.69318415229725,-51.12098159545362,7.163826
30825,1577399313.65,2.051655637266577,-0.7693562651843557,11.696142271162822,1.744613873142149,-1.7318837277296106,4.2632556244640805,-0.6912235378358415,1.0459741496760662,12.198457458496094,-2.6678690096227133,-5.062568478467988,-7.102408060213414,1.7616458055449695,7.319752762957317,-8.597025057164634,-4.009898115948933,-2.050632383765244,0.2995932974466463,-5.729600694444443,3.3742940705128173,-3.682201016576021,-7.792387600380388,-3.299349088411588,-23.50184911242604,28.14050378889987,33.12447958786354,35.13723904513733,1577399313.0,-27.69318415229725,-51.12098159545362,7.163826
30826,1577399313.66,1.285511106016577,-1.3248110503406056,9.960346067549542,2.4102019346655865,-0.0750961789014857,6.149886532667206,2.2536445041563447,-15.699072261456744,7.577648254394531,-3.4002908846227133,8.548271365282012,-6.156363138338414,-7.790356147580031,4.603688309832317,-3.1343785727896343,-10.143931319073932,-8.062595274390244,-13.433316858803352,-5.553305288461537,4.805812767094015,-4.433670611795614,-3.067148096294731,-1.649674544205794,-22.76437519811919,27.94881241201665,32.98071105520113,35.233084733578934,1577399313.0,-27.69318415229725,-51.12098159545362,7.163826
30827,1577399313.67,0.7276621192001713,-1.0817995818347468,8.747682926680401,1.8200312254370707,-1.0052435238721895,10.89160292060666,-1.3639942043397484,7.78565182301591,4.935646722412109,-3.751243033060212,10.715019412157012,-6.034292825838414,-1.7020993116425307,5.702321122332317,-7.376321932164634,-0.5766705768864329,0.5586205459222562,0.4979575552591466,-6.082191506410258,2.9652887286324763,-3.982788854663856,-6.046103435826993,-3.207700502622377,-21.65816432665892,28.044658100458264,33.02863389942193,35.35289184413095,1577399313.0,-27.69318415229725,-51.12098159545362,7.163826
30828,1577399313.68,-2.320156594178734,-4.600078921434355,9.673041868330792,-0.2210256898461311,-6.288049487006955,9.635844149854703,2.09083879126572,-12.19635523264815,15.435418103027343,-11.426413931497711,0.4611131621570121,-6.949820169588414,-2.7854733350800305,-1.8660382526676829,-3.9888707602896334,-2.880747725323933,-4.797214415015244,2.557894078696646,-6.434782318376065,2.9652887286324763,-3.682201016576021,-11.079510733657369,-4.032537774725275,-20.55195345519865,28.092580944679067,33.02863389942193,35.13723904513733,1577399313.0,-27.69318415229725,-51.12098159545362,7.163826
30829,1577399313.69,-1.1709397973037343,-5.155533706590606,9.92922144596751,-1.0996976991234748,-4.128479589546018,13.655708737257052,-6.588142226800686,-18.04060148508956,18.74420479736328,-14.478171743997711,2.8720018340320124,-5.423941263338414,-0.3135495069550305,1.6740008098323171,-9.451517244664634,-17.101939131573932,-20.849460508765244,-19.780973108803355,-6.082191506410258,4.601310096153845,-3.982788854663856,-11.490401125316987,-1.099783029470529,-20.55195345519865,28.14050378889987,32.88486536675951,35.52062179890376,1577399313.0,-27.69318415229725,-51.12098159545362,7.163826
30830,1577399313.7,1.837374588682593,-1.1991154631824026,12.389263651778055,3.1691638609351176,0.5689440676805445,8.836180795362518,2.5840443332579075,3.200755643816692,6.502651708984375,-1.0199197908727138,-9.731757931592988,-8.841910013338415,-2.5108151319550305,8.387867997332316,-7.010110994664634,7.800404618426067,-19.537204649390244,-14.715055140053352,-6.611077724358973,4.805812767094017,-3.98278885466386,-14.57207906276416,0.549891514735265,-20.40445867233728,28.23634947734148,33.12447958786354,35.13723904513733,1577399313.0,-27.69318415229725,-51.12098159545362,7.163826
30831,1577399313.71,-1.3576875267959216,3.904125375440643,11.138293284346416,3.0446653746069927,1.434447967827029,15.034768893507051,7.386812863531344,5.521934153338177,9.3086560546875,16.375099740377287,2.9330369902820124,-3.8370272008384143,-4.647045600705031,-1.881297041730183,-5.362161775914634,-2.300913740948933,-10.565036680640244,2.832552281821646,-6.963668536324786,5.623823450854701,-4.13308277370778,-12.312181908636234,-1.6496745442057943,-22.91186998098056,28.14050378889987,32.88486536675951,35.304968999910145,1577399313.0,-27.69318415229725,-51.12098159545362,7.163826
30832,1577399313.72,-2.231571132752953,-1.3703008818835745,10.551713877608137,-1.3678482850609748,-1.0303826413038295,7.696540805128143,-2.2546372219178727,-11.116570283917682,7.558494641113281,-3.5528787752477133,4.642021365282012,-7.956900247713414,1.1207766649199695,4.573170731707317,-8.902200838414634,-3.887827803448933,12.994533631859756,-3.209928186928354,-6.25848691239316,4.805812767094015,-3.231319259444269,-8.203277992040011,-3.665943431568431,-22.91186998098056,27.90088956779585,33.17240243208434,35.233084733578934,1577399313.0,-27.69318415229725,-51.12098159545362,7.163826
30833,1577399313.73,0.6749896826767333,-4.281650100633574,3.8431608258503234,-1.444462738185975,-2.0694661618116417,3.228960507276581,2.347018368902438,-9.198814754132526,3.9456443359375,-5.841697134622714,7.266533084032012,-5.973257669588414,-2.2056393507050305,2.772633622332317,-5.880960604039634,3.009144852801067,29.93178949123476,-13.463834436928352,-8.02144097222222,5.623823450854701,-4.734258449883449,-16.010195433572836,-0.3665943431568428,-22.91186998098056,28.044658100458264,32.88486536675951,35.233084733578934,1577399313.0,-27.69318415229725,-51.12098159545362,7.163826
30834,1577399313.74,2.9566638648056403,-1.863506423875762,10.91922383244212,3.5809665464819926,0.1643239871141383,1.7134308563976743,2.701360214605564,6.993171073504192,2.901772412109375,-3.995383658060212,-14.950263790967988,-10.398306497713415,-2.1751217725800305,7.533375809832317,-7.284769197789634,17.596547196551068,39.48379144435975,-8.825162561928353,-6.6992254273504255,4.703561431623932,-3.0058783808783867,-15.804750237743024,-3.849240603146853,-22.174396066673708,28.35615658789349,32.98071105520113,35.32893042202055,1577399313.0,-27.69318415229725,-51.12098159545362,7.163826
30835,1577399313.75,2.022925217344702,-1.6983065093249807,12.596362095381572,3.8479200315894144,-1.8480025082471887,11.072365145948456,1.0804856906797824,-6.842920320538776,13.461398834228516,4.717384896627286,-2.377021603467988,-7.285513528963414,-0.5271725538300305,7.350270341082316,-5.896219393102134,10.180775712176068,36.24892816310975,-15.523770960365852,-6.434782318376065,5.41932077991453,-2.479849664224669,-16.010195433572836,-2.5661604020979016,-25.861765638207945,27.94881241201665,32.88486536675951,35.20912331146853,1577399313.0,-27.69318415229725,-51.12098159545362,7.163826
30836,1577399313.76,0.8330069922470458,-2.763726248094512,14.305822080733137,1.0886026182593365,-3.2210771603467987,8.321427438428925,-6.422942312249905,10.450398270769815,14.003685510253906,-11.884177603372711,-5.093086056592988,-7.529654153963414,-2.4192623975800305,9.883229325457316,-6.735452791539634,6.732289384051067,19.25063714748476,-13.891080530678352,-7.139963942307691,4.601310096153845,-3.381613178488186,-16.421085825232456,-2.5661604020979016,-29.10665086115808,28.23634947734148,32.98071105520113,35.32893042202055,1577399313.0,-27.69318415229725,-51.12098159545362,7.163826
30837,1577399313.77,0.5672506079697021,-0.8435765166491994,6.991536008955792,-0.0462489686547249,-1.7869503659132044,10.978991281202363,0.5010888889219699,2.195190946551066,18.92855832519531,-6.329978384622714,22.67791003715701,-4.508413919588414,0.5714602586699695,-0.5842999714176829,-4.446634432164634,2.276722977801067,-6.506198790015244,-3.667691858803354,-5.729600694444443,3.3742940705128173,-4.2833766927516965,-14.777524258593967,-4.032537774725275,2.1622431054522404,28.23634947734148,33.02863389942193,35.424776110462155,1577399313.0,-27.69318415229725,-51.12098159545362,7.163826
30838,1577399313.78,0.5205636755966556,-1.2230574797839655,9.2839840985554,1.088602618259337,-0.7885682736280482,13.862807180860568,-1.780585293206936,-0.844248061017292,12.059593762207031,1.5740743497522869,10.531913943407012,-6.446280130525914,-0.1914791944550309,6.800953934832316,-7.208475252477134,-7.015879561261432,-33.02597418064025,-1.2110268197408538,-6.6992254273504255,3.885550747863245,-3.4567601380101416,-14.982969454423776,-2.932754745254745,0.6872952768385466,28.164465211010278,32.90882678886992,35.424776110462155,1577399313.0,-27.69318415229725,-51.12098159545362,7.163826
30839,1577399313.79,1.4938066504501708,-0.9991996245593556,8.35862515690501,0.4206203550757428,-0.6856176022413295,12.168909506300022,9.558353769293062,3.73226841237138,14.087482568359372,11.431252084127289,-1.278388790967988,-4.661001810213414,5.301684868044969,-4.276926924542683,-4.019388338414634,-1.6600446003239329,-33.72787847751525,1.5508140005716462,-6.963668536324786,3.5787967414529875,-4.433670611795614,-16.421085825232456,-2.5661604020979016,-1.3776316832206257,28.14050378889987,32.98071105520113,35.13723904513733,1577399313.0,-27.69318415229725,-51.12098159545362,7.163826
30840,1577399313.8,1.0484851416611085,3.5378125214367366,8.188636839033917,-1.4875583680687874,-2.5291528805616426,11.759501022413303,-3.358364187249905,-14.703084370831744,11.872846032714843,14.879738412252289,-4.635322384717988,-6.217398294588414,3.043384086794969,-0.3706769245426829,-5.575784822789634,-13.867075850323932,-36.74911871189025,3.320833531821646,-6.963668536324786,3.5787967414529875,-4.433670611795614,-16.421085825232456,-2.5661604020979016,-1.3776316832206257,27.94881241201665,32.88486536675951,34.993470512474914,1577399313.0,-27.69318415229725,-51.12098159545362,7.163826
30841,1577399313.81,-1.3169860985732655,-3.685493887254668,7.2548981915729795,-1.1427933290062873,-4.758154626167111,7.88328853462033,-0.006481863031154,-12.608157918195026,10.395623608398436,-5.017722525247714,-1.675117306592988,-6.492056497713414,-0.3135495069550305,4.451100419207317,-10.458597322789634,-22.83924381907393,-40.31967535251525,-9.374478968178352,-7.4925547542735025,4.192304754273503,-5.185140207015214,-14.777524258593967,26.76138705044955,-4.032537774725275,27.94881241201665,33.12447958786354,35.233084733578934,1577399313.0,-27.69318415229725,-51.12098159545362,7.163826
30842,1577399313.82,-0.3736706444717037,-3.732180819627715,10.081253251387432,-1.9592160951195696,-2.392683385932736,10.914347836378145,-2.1492923488709983,2.347222751970989,9.682151513671874,-10.877097525247716,-0.2713087128429874,-7.682242044588415,2.478808891482469,-5.238230635480183,-5.026468416539634,-9.045298506573932,-37.03903570407775,-5.071500452553353,-7.316259348290595,4.192304754273503,-3.982788854663853,-14.777524258593967,25.29500967782218,-28.369176946851223,28.14050378889987,32.98071105520113,35.40081468835175,1577399313.0,-27.69318415229725,-51.12098159545362,7.163826
30843,1577399313.83,0.2919174170517333,-0.6257041655749808,11.861342185713603,0.3128812803687116,1.3542422122117943,9.271925497510956,-0.5978496730897477,4.378702860613567,9.74200655517578,-0.9588846346227134,-2.041328244092988,-4.996695169588414,1.3954348680449695,7.899586747332317,-7.559427400914634,-13.867075850323932,-36.68808355564025,1.3677085318216462,-7.845145566239314,3.783299412393162,-4.884552368927366,-16.421085825232456,23.82863230519481,-27.33671346682164,28.044658100458264,33.17240243208434,34.993470512474914,1577399313.0,-27.69318415229725,-51.12098159545362,7.163826
30844,1577399313.84,1.5871805151962646,1.9289090058117369,18.08626650211985,3.9760098204077736,2.287980859672732,13.758659408643773,0.9823234226133762,-5.042480672101276,14.858415502929686,-9.320701040872711,-24.685371212842988,-10.001577982088415,-0.7102780225800305,4.023854325457317,-5.911478182164634,-12.310679365948932,-25.701755430640244,-3.881314905678354,-7.845145566239314,3.783299412393162,-4.884552368927366,-12.106736712806422,-2.749457573676323,-26.30424998679205,28.14050378889987,32.88486536675951,35.13723904513733,1577399313.0,-27.69318415229725,-51.12098159545362,7.163826
30845,1577399313.85,2.027713620665015,-3.874635818407013,10.269198081709698,0.3942841368140241,-3.4102190914991426,11.268689682081272,5.181753134527438,-2.365763216046589,8.48505068359375,0.6585470060022889,9.06707019340701,-1.6397615758384143,4.080981743044969,4.451100419207317,-6.003030916539634,-6.115611006573933,-33.51425543064025,-0.8600746713033537,-6.963668536324784,4.601310096153844,-2.930731421356421,-12.106736712806422,-2.749457573676323,-26.30424998679205,28.044658100458264,33.12447958786354,35.32893042202055,1577399313.0,-27.69318415229725,-51.12098159545362,7.163826
30846,1577399313.86,-1.089536940858422,-0.0415189604968558,11.21969614079173,1.275350347751524,-1.3176868405225797,9.92793675239377,0.2784281345274392,3.459329423113567,16.994043383789062,8.104836068502287,11.538994021532012,-4.172720560213414,-0.8018307569550305,1.1552019817073171,-4.309305330602134,-13.409312178448932,-49.18503179782775,-1.2873207650533538,-6.082191506410258,4.601310096153845,-4.2833766927516965,-12.106736712806422,-3.1160519168331664,-26.009260421069317,28.14050378889987,33.05259532153234,35.376853266241355,1577399313.0,-27.69318415229725,-51.12098159545362,7.163826
30847,1577399313.87,-0.2563547631240469,-0.273756521532012,14.193294602705793,3.6192737730444926,-3.010387414253049,16.557481149366428,5.162599521246188,-5.909181673077838,10.031704956054687,-10.388816275247711,-21.542060665967988,-7.834829935213414,-0.7407956007050305,5.763356278582317,-7.193216463414634,-21.13025944407393,-61.95663824314025,1.6423667349466462,-7.4925547542735025,5.010315438034185,-3.982788854663856,-12.928517496125668,-3.48264625999001,-27.48420824968301,27.90088956779585,32.88486536675951,35.32893042202055,1577399313.0,-27.69318415229725,-51.12098159545362,7.163826
30848,1577399313.88,-0.0025693871474844,-3.991951699754668,13.736002085615947,0.4469565733374616,-3.649639257514768,15.135325363233616,2.9000789523985326,-6.256340913800495,0.9193734375,-10.663474478372711,-15.041816525342988,-5.698599466463414,1.4564700242949695,-5.345042158917683,-3.1343785727896343,-14.843638350323932,-34.21615972751525,3.351351109946646,-7.4925547542735025,5.010315438034185,-3.982788854663856,-11.490401125316987,-3.665943431568431,-25.271786506762464,27.94881241201665,32.98071105520113,35.13723904513733,1577399313.0,-27.69318415229725,-51.12098159545362,7.163826
30849,1577399313.89,-1.7383655907607662,-2.36269747001834,9.088856663252669,-4.032594732814882,-3.2450191769483614,6.3055096405773625,5.792274557867282,10.30674617116044,3.813963244628906,-0.8062967439977138,2.8720018340320124,-4.371084818025914,5.362720024294969,-4.582102705792683,-7.528909822789634,5.175892899676067,3.564601991234756,9.912630406821648,-6.875520833333331,4.499058760683761,-4.057935814185818,-11.490401125316987,-3.665943431568431,-25.271786506762464,27.92485098990625,33.17240243208434,35.28100757779974,1577399313.0,-27.69318415229725,-51.12098159545362,7.163826
30850,1577399313.9,1.2879053076767333,4.2991686493664245,16.46778617985423,-0.8961905580101936,2.412479346000857,6.993842617872284,-1.0347914760682633,-11.687587379864947,3.1567548889160157,17.015968881002287,-15.469062619092988,-5.484976419588414,2.692431938357468,-4.917796065167684,-4.339822908727134,13.308827469988568,43.42055902248475,-7.360318811928354,-6.082191506410258,3.3742940705128173,-4.2833766927516965,-12.928517496125668,-3.849240603146853,-27.041723901098894,28.092580944679067,33.00467247731153,35.32893042202055,1577399313.0,-27.69318415229725,-51.12098159545362,7.163826
30851,1577399313.91,2.051655637266577,0.4397155731945494,12.186953611494854,0.0447306944312116,-0.5180234860303919,5.49626947944455,-0.0088760646913102,-6.742363850812214,3.4739866088867184,-14.752829947122711,-21.175849728467988,-6.583609232088414,6.217212211794969,5.610768387957317,-5.087503572789634,17.199818680926068,68.41445550685975,-30.126432093178355,-5.553305288461537,5.21481810897436,-4.734258449883449,-12.312181908636234,-4.032537774725275,-1.6726212489433638,28.14050378889987,33.12447958786354,35.233084733578934,1577399313.0,-27.69318415229725,-51.12098159545362,7.163826
30852,1577399313.92,5.269462668516578,-8.320668301317168,1.3938925275104797,9.511404058689024,-6.20185822724133,-0.6831650054187307,5.313434225836032,27.6838618205745,1.795651245117187,2.2454610685022867,-6.313789181592988,-6.095327982088414,1.3343997117949695,6.434742997332317,-6.277689119664634,39.56920344655106,86.93862542873475,-11.876920374428352,-5.553305288461537,5.21481810897436,-4.734258449883449,-3.2725932921245406,-4.032537774725275,-4.032537774725275,28.044658100458264,32.789019678317906,35.424776110462155,1577399313.0,-27.69318415229725,-51.12098159545362,7.163826
30853,1577399313.93,-1.4989454247451408,2.5633724457531435,4.92414287541087,-5.75761702895746,1.1842538943407013,9.95307586982541,-4.284920229730373,-17.181083089093466,18.934543829345703,16.039406381002287,6.686699099657012,-2.7841707555259143,1.532763969607469,-11.43329899485518,-5.377420564977134,6.259266923113568,33.38027581935975,-10.915616663490855,-5.4651575854700845,4.294556089743589,-3.907641895141894,-3.06714809629473,-3.849240603146853,-13.472203877852916,28.35615658789349,32.95674963309072,35.13723904513733,1577399313.0,-27.69318415229725,-51.12098159545362,7.163826
30854,1577399313.94,1.6733717749618895,-5.208206143114044,8.234126670576886,5.3957714048804295,-6.441278393256955,7.406842404249237,-2.865158645257717,18.67687517506669,20.35310831298828,-13.654197134622711,-15.041816525342988,-6.125845560213414,3.104419243044969,19.58781916920732,-6.735452791539634,-1.3243512409489329,-22.222751524390244,-10.015348108803352,-6.963668536324786,5.623823450854701,-3.8324949356199385,-3.2725932921245406,-3.299349088411588,-32.3515360841082,28.092580944679067,32.88486536675951,35.424776110462155,1577399313.0,-27.69318415229725,-51.12098159545362,7.163826
30855,1577399313.95,-0.0648186303115469,1.3064165741711118,10.726490598799542,-1.3965787049828498,-1.095026086128048,-1.0135648345202932,2.7348790378477514,6.437716288347942,12.93587156982422,5.846535287252286,21.70134753715701,-2.6163240758384143,-13.436108100705033,3.901784012957317,-7.864603182164634,4.412953446551067,-43.70712652439025,8.691927281821647,-7.668850160256408,4.396807425213674,-2.930731421356421,-11.490401125316987,-4.032537774725275,-21.141932586644124,28.044658100458264,32.98071105520113,35.28100757779974,1577399313.0,-27.69318415229725,-51.12098159545362,7.163826
30856,1577399313.96,0.002219016172827,0.9855935517101744,18.026411460615947,1.1197272398413678,0.9065265017625758,15.659655526807834,-2.278579238519435,-25.29982091868331,16.417040783691405,-14.722312368997711,-2.346504025342988,-6.675161966463414,-14.138012397580033,-24.23542301829268,3.6100061928353657,-24.12098210032393,-46.14853277439025,-4.247525843178353,-5.200714476495726,4.396807425213674,-3.8324949356199385,-14.57207906276416,-3.849240603146853,-21.58441693522824,28.092580944679067,32.83694252253871,35.13723904513733,1577399313.0,-27.69318415229725,-51.12098159545362,7.163826
30857,1577399313.97,1.2017140479111084,-3.466424435350372,10.68938047306712,0.7426404783667588,-1.6672402829053927,8.903218441846894,2.105204001226657,1.1369538127620047,4.988319158935546,-7.459128775247713,-3.094184689405488,-4.111685403963414,-1.259594428830031,12.00420100514482,-6.643900057164634,-10.494883467511432,-33.31589117282775,-2.2486244759908525,-6.2584869123931615,4.805812767094017,-4.133082773707777,-11.901291516976611,-3.665943431568431,-20.40445867233728,28.092580944679067,33.05259532153234,35.32893042202055,1577399313.0,-27.69318415229725,-51.12098159545362,7.163826
30858,1577399313.98,-2.2459363427138905,2.266491439893768,12.467075205733137,-0.3287647645531624,-3.2450191769483614,6.997433920362519,-0.3895541286561539,-13.10375766184737,1.9967641845703124,-9.839499868997711,-9.609687619092988,-8.414663919588415,3.7452883836699695,-17.521555830792682,-2.1883336509146343,-7.824595381573933,-4.736179258765244,0.9099448599466464,-7.316259348290597,5.21481810897436,-3.531907097532104,-9.641394362848688,-2.749457573676323,-20.40445867233728,28.23634947734148,33.12447958786354,35.32893042202055,1577399313.0,-27.69318415229725,-51.12098159545362,7.163826
30859,1577399313.99,3.8281532691025153,0.511541622999237,2.7226744488971986,-1.590509039455506,2.9846935427782006,15.441783175733615,4.2815333103086886,2.6692428752620048,5.432443566894531,18.480812631002287,-3.078925900342988,-4.050650247713414,0.1136965867949695,-4.032786299542683,-8.444437166539634,1.9715471965510671,11.865383241234756,-5.040982874428353,-7.668850160256408,4.396807425213674,-2.329555745180745,-16.421085825232456,-2.9327547452547447,-21.7319117180896,28.044658100458264,33.12447958786354,35.32893042202055,1577399313.0,-27.69318415229725,-51.12098159545362,7.163826
30860,1577399314.0,0.9239866553329832,-1.001593826219512,4.9660414044636045,6.772437359470274,0.0230660891649195,4.679846713331268,2.8330413059141577,-3.414423543195026,-0.0550666381835937,7.982765756002286,-9.457099728467988,-8.689322122713415,2.616137993044969,6.739918778582317,-8.352884432164634,11.157338212176068,40.70449456935975,-2.446988733803354,-6.611077724358971,3.5787967414529875,-2.930731421356421,-16.421085825232456,-3.665943431568431,-21.7319117180896,28.23634947734148,33.12447958786354,35.47269895468296,1577399314.0,-27.693177476470805,-51.12105239368394,6.91398
30861,1577399314.01,0.1075638892197025,-4.887383120653106,11.094000553633526,-3.0222416322289445,-3.671187072456173,7.427193118360565,-2.593416756829982,-0.9723378498356512,16.214730743408204,-13.287986197122711,-1.1105421112804876,-5.759634622713414,1.2733645555449693,-3.8496808307926833,-5.636819979039634,-2.102549483136433,4.098659608422258,-21.29159322599085,-6.611077724358971,3.5787967414529875,-2.930731421356421,-16.11291803148774,-3.940889188936064,-22.690627806688504,28.092580944679067,33.028633899421926,35.11327762302693,1577399314.0,-27.693177476470805,-51.12105239368394,6.91398
30862,1577399314.02,-0.6083024071670157,-0.9369503813952932,17.719953648115947,0.0183944761694928,-5.076583446967892,12.97336126411252,-1.7063650417420917,18.552376688738565,15.638925244140625,-21.37514440024772,2.2006151152820124,-4.050650247713414,-6.539135444455031,5.153004716082317,-7.620462557164634,0.9949846965510672,-17.095798399390244,4.236360875571647,-7.139963942307691,6.237331463675212,-3.0810253404003385,-16.421085825232456,0.3665943431568428,-3.737548209002536,28.092580944679067,32.88486536675951,35.32893042202055,1577399314.0,-27.693177476470805,-51.12105239368394,6.91398
30863,1577399314.03,-1.4917628197646715,2.532247824171112,19.50602808659251,-2.526641888576601,0.123622558891482,17.017167868116427,-0.9689509304139664,-18.866601057843464,15.80173095703125,-16.278708853372713,4.886161990282012,-4.966177591463414,-3.3347897413300305,-9.922678877667684,-1.0286656821646345,-12.890513350323932,-26.556247618140244,7.166048375571647,-6.611077724358971,3.5787967414529875,-3.531907097532104,-14.777524258593967,-2.1995660589410586,0.9822848425612848,28.23634947734148,33.02863389942193,35.13723904513733,1577399314.0,-27.693177476470805,-51.12105239368394,6.91398
30864,1577399314.04,1.2831169043564208,-2.421355410692168,12.218078233076886,-5.888101019435975,-0.7406842404249232,15.465725192335178,5.411596493902438,-9.110229292706745,10.919953771972656,-2.3321756502477133,12.912285037157012,-4.874624857088414,4.294604789919969,9.272877762957316,-5.911478182164634,-21.71009342844893,-47.88803472751525,-4.918912561928353,-7.139963942307691,5.41932077991453,-2.780437502312504,-11.490401125316987,-2.5661604020979016,1.867253539729502,28.044658100458264,33.02863389942193,35.32893042202055,1577399314.0,-27.693177476470805,-51.12105239368394,6.91398
30865,1577399314.05,2.243191770079077,-1.202706765672637,9.905279429365947,6.005095727390196,-4.194320135200314,9.15341251533322,4.449127426519626,2.0120345195491143,9.713276135253906,2.2759786466272867,-11.410224728467988,-7.728018411775915,-1.900463569455031,0.5906267863948171,-6.292947908727134,-9.548838545636432,-29.150241758765244,-6.139615686928353,-7.139963942307691,5.41932077991453,-2.780437502312504,-13.750298279444912,-3.1160519168331664,1.2772744082840244,28.092580944679067,33.07655674364274,35.44873753257256,1577399314.0,-27.693177476470805,-51.12105239368394,6.91398
30866,1577399314.06,3.1721420142197028,-2.392624990770293,3.632471079756573,-3.20420095840082,2.067714306938357,10.442690109327366,4.252802890386814,3.990842191668255,5.382165332031249,22.692238412252287,6.320488162157012,-2.5858064977134143,-1.2901120069550305,-0.0349835651676829,-9.482034822789634,-7.458384444073933,-24.450534727515244,4.968782750571647,-7.4925547542735025,5.010315438034185,-3.682201016576021,-16.010195433572836,26.39479270729271,-3.4425586432797965,28.044658100458264,33.02863389942193,35.08931620091653,1577399314.0,-27.693177476470805,-51.12105239368394,6.91398
30867,1577399314.07,3.176930417540015,-2.495575662157012,5.15997173893626,3.566601336521055,-0.8220870968702357,4.052565878370331,-2.539547219476467,-14.8970147053044,10.59194814453125,5.602394662252286,-14.217841915967988,-8.506216653963415,-1.4732174757050305,8.662526200457316,-5.056985994664634,-7.733042647198933,-17.339939024390244,1.9780600943216464,-6.25848691239316,3.987802083333333,-3.531907097532104,-16.215640629402646,25.84490119255744,-3.8850429918639056,28.14050378889987,33.02863389942193,35.32893042202055,1577399314.0,-27.693177476470805,-51.12105239368394,6.91398
30868,1577399314.08,-2.186081301209984,1.1675528778820494,13.659387632490947,-4.042171539455507,-2.0359473385694544,6.049330062940643,-3.238654104242092,-17.173900484112995,5.317521887207031,7.616554818502286,-8.602607540967988,-5.790152200838414,-1.0154538038300305,-7.176096846417683,-4.751810213414634,-10.266001631573932,8.416896913109756,-10.717252405678352,-6.434782318376065,3.3742940705128173,-4.2833766927516965,-15.599305041913214,26.02819836413586,-25.271786506762464,28.092580944679067,32.98071105520113,35.32893042202055,1577399314.0,-27.693177476470805,-51.12105239368394,6.91398
30869,1577399314.09,0.0034161170029056,-2.5554307036609187,10.686986271406964,-0.8902050538598035,-0.3324728573682834,14.221937429884006,-1.742278066644435,-0.3929410480778394,14.604630126953124,-10.098899283060211,3.0398485137195124,-5.027212747713414,4.676074516482469,0.9720965129573172,-5.789407869664634,0.1099749309260671,-0.4789771103277438,-6.719449671303353,-6.434782318376065,3.3742940705128173,-4.2833766927516965,-15.18841465025359,25.29500967782218,-27.631703032544383,28.044658100458264,32.93278821098032,35.28100757779974,1577399314.0,-27.693177476470805,-51.12105239368394,6.91398
30870,1577399314.1,0.5672506079697021,-5.301580007860137,10.585232700850325,6.738918536228086,-4.092566564643674,10.706052291944552,0.1347760349180637,-1.973114143780964,17.056292626953123,-18.41493932212272,6.839286990282012,-5.210318216463414,0.5409426805449695,5.214039872332317,-9.970316072789634,-3.918345381573933,-14.654392149390244,-12.945035608803352,-6.7873731303418765,6.237331463675212,-2.780437502312504,-16.010195433572836,25.29500967782218,-29.99161955832629,28.044658100458264,33.17240243208434,35.52062179890376,1577399314.0,-27.693177476470805,-51.12105239368394,6.91398
30871,1577399314.11,1.4076153906845457,-2.677534988328887,18.277802634932357,4.450061749118711,-2.7877266598585178,14.306931588819552,0.6471351901915012,12.756014469500286,14.38915197753906,-13.318503775247711,-12.844550900342988,-8.780874857088415,0.8461184617949695,-5.833323408917683,-4.934915682164634,4.657094071551067,-16.454929258765244,-3.972867640053354,-7.139963942307691,3.783299412393162,-2.179261826136828,-13.133962691955478,22.36225493256743,-29.40164042688081,28.38011801000389,32.88486536675951,35.32893042202055,1577399314.0,-27.693177476470805,-51.12105239368394,6.91398
30872,1577399314.12,1.7703369421982178,-2.0921526824206835,12.570025877119852,2.71426554550543,0.3414949099657007,16.195956698682835,-7.016704323968655,-11.444575911359088,14.551957690429688,8.211647591939787,3.4823533965320124,-4.187979349275914,7.224292289919969,-1.7134503620426829,-6.430277010289634,-4.101450850323933,-18.469089415015244,2.344271031821646,-6.170339209401709,4.499058760683759,-3.306466218966221,-13.133962691955478,20.162688873626376,-32.3515360841082,28.068619522568667,32.83694252253871,35.13723904513733,1577399314.0,-27.693177476470805,-51.12105239368394,6.91398
30873,1577399314.13,3.0548261328720465,-1.7653441558093557,10.87493110172923,0.0495190977515245,-3.2821293026807825,10.449872714307832,5.288295108404391,0.2463107951838798,13.8289087890625,12.651955209127289,-10.342109494092988,-6.827749857088414,7.636279594607469,2.421681473894817,-3.8210240806021343,-9.243662764386432,-38.41232671970275,-3.4845863900533534,-5.377009882478632,4.601310096153845,-3.0810253404003385,-12.312181908636234,20.162688873626376,-2.2626003803888417,27.90088956779585,32.90882678886992,35.11327762302693,1577399314.0,-27.693177476470805,-51.12105239368394,6.91398
30874,1577399314.14,3.085950754454078,-1.8323818022937304,10.77916303532298,3.4157666319312114,-2.1341096066358607,6.145098129346893,-0.6433395046327165,-16.55859065745284,14.805743066406247,14.421974740377289,-2.468574337842988,-4.538931497713414,4.447192680544969,2.894703934832317,-5.911478182164634,-23.02234928782393,-65.16098394626525,-4.949430140053353,-6.963668536324786,4.805812767094015,-4.734258449883449,-16.010195433572836,20.895877559940057,-28.5166717297126,28.092580944679067,32.98071105520113,35.13723904513733,1577399314.0,-27.693177476470805,-51.12105239368394,6.91398
30875,1577399314.15,2.8800494116806403,-1.5809906279773245,8.179060032393291,5.0557947691382426,-4.331986730659299,10.34931624458127,3.4459569309141576,14.036912357683878,9.945513696289062,12.987648568502289,-2.041328244092988,-6.095327982088414,3.6842532274199695,2.131764481707317,-3.4700719321646343,-16.552622725323932,-73.49228277439025,-9.191373499428352,-6.082191506410258,5.41932077991453,-4.583964530839531,-11.079510733657369,-4.032537774725275,-27.33671346682164,28.14050378889987,32.83694252253871,35.424776110462155,1577399314.0,-27.693177476470805,-51.12105239368394,6.91398
30876,1577399314.16,-1.054821016786156,-2.167570034715605,9.190610233809307,-1.906543658596131,-2.493239855659299,14.982096456983616,4.439550619879001,11.247667423601849,4.398148449707031,1.1926046231897869,8.533012576219512,-5.042471536775914,9.421557914919967,-12.638743330792684,-1.7916051352896345,0.1099749309260671,-53.41171636814025,6.738802281821647,-6.346634615384614,4.908064102564103,-4.208229733229735,-11.6958463211468,-3.1160519168331664,-27.18921868396027,28.16446521101027,32.98071105520113,35.424776110462155,1577399314.0,-27.693177476470805,-51.12105239368394,6.91398
30877,1577399314.17,-1.656962734315453,1.1148804413586118,11.53812496159251,-0.2294053956566785,-0.3803568905714084,20.42531393134885,-0.6265800930116241,-5.457874660138385,3.817554547119141,2.9168477872522867,-14.858711056592988,-6.766714700838414,-4.509716499142531,20.137135575457314,-7.834085604039634,10.211293290301068,6.387477967797258,9.760042516196648,-6.611077724358971,5.623823450854701,-3.531907097532104,-11.901291516976611,-1.099783029470529,-31.761556952662723,28.284272321562284,32.90882678886992,35.28100757779974,1577399314.0,-27.693177476470805,-51.12105239368394,6.91398
30878,1577399314.18,-2.451837685487328,-5.892947817918731,14.154987376143293,-3.7213485169945697,-7.243335949409299,-1.9832165068835743,-5.599336941156155,-13.053479426984088,14.343662145996094,1.7571798185022869,-0.4544141815929878,-4.325308450838414,42.56364775866997,-47.581370283917686,-5.240091463414634,26.385609696551068,13.116603944359756,13.330599156821648,-6.25848691239316,4.396807425213674,-3.531907097532104,-13.133962691955478,26.02819836413586,-27.33671346682164,28.092580944679067,32.98071105520113,35.13723904513733,1577399314.0,-27.693177476470805,-51.12105239368394,6.91398
30879,1577399314.19,1.9702527808212644,-7.631138223192169,8.478335239912823,-2.3446825624047247,3.092432617485232,12.671691854932831,5.2775212009336885,-8.636177363995808,14.827290881347656,2.0928731778772867,9.036552615282012,-2.5247713414634143,-6.905346381955031,3.505055497332317,-2.4019566977896343,8.044545243426068,22.18032464748476,-23.626187952553355,-6.963668536324786,1.942775373931624,-3.531907097532104,-16.421085825232456,27.1279813936064,-2.5575899461115803,28.284272321562284,33.12447958786354,35.616467487345375,1577399314.0,-27.693177476470805,-51.12105239368394,6.91398
30880,1577399314.2,2.0827802588486084,3.202624289014861,15.948244419600323,1.235846020358946,-0.6939973080518772,17.005196859815644,0.1323818332579076,3.264201987810832,20.85948196411133,25.011574349752287,-8.816230587842988,-4.966177591463414,11.985034477419967,7.762257645769816,-3.4090367759146343,-10.159190108136432,-14.517063047827744,-30.76730123380335,-6.787373130341878,4.192304754273503,-3.5319070975320974,-16.421085825232456,26.76138705044955,-3.737548209002536,28.092580944679067,32.88486536675951,35.32893042202055,1577399314.0,-27.693177476470805,-51.12105239368394,6.91398
30881,1577399314.21,2.0660208472275143,-3.254537588426543,12.570025877119852,5.158745440524961,-3.553871191108517,16.777747702100804,6.800233456793063,18.930660551043253,7.627926489257812,13.842140756002289,-13.119209103467988,-5.515493997713414,-14.076977241330033,44.368092606707314,-2.3409215415396343,21.869008134051068,-40.10605230564025,-3.179410608803354,-6.434782318376065,3.783299412393162,-3.982788854663856,-9.435949167018876,-2.1995660589410586,-1.9676108146661029,28.23634947734148,32.88486536675951,35.13723904513733,1577399314.0,-27.693177476470805,-51.12105239368394,6.91398
30882,1577399314.22,-0.1773461083388907,-5.761266726610137,4.750563255049542,3.494775286716368,-4.638444543159299,7.521764083936737,10.30773888892197,10.565319950457315,4.65432802734375,14.025246224752289,27.40813464653201,-4.355826028963414,-4.067211616330031,-6.016428877667683,-7.742532869664634,9.570424149676068,-8.520358946265244,19.769808141196645,-6.434782318376065,4.601310096153845,-3.682201016576021,-9.641394362848688,-3.48264625999001,-3.8850429918639056,28.428040854224697,32.98071105520113,35.32893042202055,1577399314.0,-27.693177476470805,-51.12105239368394,6.91398
30883,1577399314.23,1.7954760596298582,-1.7007007109851369,-0.1360023333293631,0.7246839659155866,1.5266247317430446,4.155516549757049,1.8705722385313448,-3.919600093487995,3.643974926757812,26.995216927877287,17.154228396532012,-4.599966653963414,-9.835033881955033,-3.544505049542683,-6.949075838414634,15.765492509051068,-0.0975073837652439,26.178499547446645,-5.905896100427352,3.5787967414529875,-3.231319259444269,-9.8468395586785,-3.665943431568431,-41.79120218723584,28.23634947734148,33.12447958786354,35.13723904513733,1577399314.0,-27.693177476470805,-51.12105239368394,6.91398
30884,1577399314.24,-1.9191278161025624,-0.5682433257312313,10.591218205000713,-3.668676080471132,0.4504310855028106,10.597116116407443,-11.261623867425683,-15.175939198712603,9.591171850585935,8.562599740377287,-12.157905392530488,-5.301870950838414,7.331103813357471,8.387867997332318,-4.492410799352134,8.014027665301068,23.11111078029726,-3.911832483803354,-6.699225427350427,5.317069444444443,-3.306466218966228,-14.161188671104531,12.464207667332667,-33.53149434699915,27.996735256237457,33.00467247731153,35.35289184413095,1577399314.0,-27.693177476470805,-51.12105239368394,6.91398
30885,1577399314.25,-2.528452138612328,-0.9489213896960744,14.317793089033916,3.396613018649961,-1.8851126339796107,11.529657663038302,5.8784658176329065,-2.1598618732731514,18.681955554199217,-5.475486197122714,-15.133369259717988,-5.271353372713414,-0.7102780225800305,3.566090653582317,-3.6836949790396334,10.485951493426068,5.548244569359756,-43.15743795255335,-6.082191506410258,6.237331463675212,-3.381613178488186,-16.421085825232456,29.694141795704294,-38.84130653000845,28.14050378889987,33.17240243208434,35.13723904513733,1577399314.0,-27.693177476470805,-51.12105239368394,6.91398
30886,1577399314.26,0.5337317847275146,-2.1963004546374805,12.725648985030013,-0.1851126649437874,0.6168281008836695,19.10491171577268,4.590385324468845,20.977702970476845,15.093047265625,8.776222787252287,-2.956855587842988,-2.5858064977134143,4.355639946169969,-9.068186690167684,-2.4324742759146343,9.509388993426068,-0.8604468368902439,-20.635465296303355,-6.082191506410258,6.237331463675212,-3.381613178488186,-15.18841465025359,-0.7331886863136862,-40.02126479289941,28.14050378889987,32.98071105520113,35.32893042202055,1577399314.0,-27.693177476470805,-51.12105239368394,6.91398
30887,1577399314.27,1.1227053931259527,-3.795627163621856,15.789030009199932,6.973550298923398,-4.3224099240186735,17.112935934522678,7.968603866949313,3.385109171648724,9.900023864746093,6.472145638814787,-0.9121778534679876,-3.9438387242759134,17.56975127429497,-1.1641339557926829,-5.880960604039634,10.638539384051068,3.106838319359756,-5.437711390053353,-6.611077724358971,4.805812767094016,-3.832494935619941,-9.641394362848688,-3.849240603146853,-36.03890565564243,28.21238805523108,32.789019678317906,35.424776110462155,1577399314.0,-27.693177476470805,-51.12105239368394,6.91398
30888,1577399314.28,2.6909074805282964,-8.378129141160919,9.874154807783915,4.247751708835508,-4.2481896725538295,9.762736837842988,2.2368850925352515,2.464538633318645,9.583989245605467,2.3370138028772867,6.869804568407012,-1.8533846227134143,11.618823539919967,6.266896317644817,-3.6379186118521343,30.413930009051064,17.19070062404726,8.020540563071647,-5.02441907051282,4.192304754273503,-2.780437502312504,6.588776107706396,-2.566160402097902,-40.46374914148352,28.092580944679067,33.00467247731153,35.28100757779974,1577399314.0,-27.693177476470805,-51.12105239368394,6.91398
30889,1577399314.29,2.298258408262671,2.5992854706554867,3.8240072125690734,-2.991117010646913,3.5401483279344506,9.44670221870236,-6.511527773675686,-15.859483772687213,6.48589229736328,33.98374231850229,4.733574099657012,-0.3885408727134145,20.92668486804497,-6.321604658917683,-1.9747106040396345,19.976918290301068,30.29800042873476,9.149690953696648,-5.02441907051282,4.192304754273503,-2.780437502312504,23.846172557410533,-3.665943431568431,-26.451744769653423,27.94881241201665,32.789019678317906,35.47269895468296,1577399314.0,-27.693177476470805,-51.12105239368394,6.91398
30890,1577399314.3,1.1442532080673582,1.452462875440643,5.969211900069073,4.383024102634336,0.6575295291063258,0.7389907807140806,7.781856137457125,-10.755045833234089,8.224082702636718,29.650246224752287,-10.921943478467988,-5.454458841463414,14.762134086794967,6.831471512957317,-7.986673494664634,15.277211259051068,19.03701410060976,-29.027799280678355,-5.02441907051282,4.192304754273503,-2.780437502312504,25.48973412404903,-3.665943431568431,-25.566776072485208,27.94881241201665,33.17240243208434,35.233084733578934,1577399314.0,-27.693177476470805,-51.12105239368394,6.91398
30891,1577399314.31,2.359310550596655,-0.9668779021472468,5.534664298750714,2.8531292417944925,-0.9106725582960168,6.542535604932831,9.919878219976656,9.51665962330888,7.587225061035156,31.755959115377287,-14.629829220655488,-6.186880716463414,13.388843071169967,0.117604325457317,-2.2188512290396343,21.563832352801068,16.381984803734756,-24.633268030678355,-5.994043803418801,3.885550747863245,-3.4567601380101447,-13.955743475274724,-3.665943431568431,-1.9676108146661029,28.284272321562284,33.12447958786354,35.13723904513733,1577399314.0,-27.693177476470805,-51.12105239368394,6.91398
30892,1577399314.32,-3.356845913026391,-4.789220852586699,11.923591428877666,-0.4400951417504285,-4.044682531440548,10.775484140089082,-0.3033628688905299,-1.8115055317204172,11.930306872558592,13.323341927877289,13.644706912157012,-2.9214998570884143,11.664599907107467,-2.842600752667683,-4.797586580602134,15.765492509051068,19.35744867092226,-16.31722799161585,-6.963668536324786,4.396807425213674,-3.531907097532104,-15.188414650253591,-3.665943431568431,-1.9676108146661029,27.94881241201665,32.95674963309072,35.304968999910145,1577399314.0,-27.693177476470805,-51.12105239368394,6.91398
30893,1577399314.33,2.089962863829077,-6.276020083543731,11.964292857100324,5.580124932712462,-5.09094865692883,10.342133639600805,0.8410655246641575,10.287592557879192,9.25837781982422,-14.264548697122711,8.975517459032012,-2.8299471227134143,8.231372368044969,-2.567942549542683,-1.5779820884146345,28.308217118426068,28.92470941310976,6.586214391196647,-5.02441907051282,4.192304754273503,-3.982788854663856,-11.490401125316987,-4.032537774725275,-3.737548209002536,28.044658100458264,32.88486536675951,35.28100757779974,1577399314.0,-27.693177476470805,-51.12105239368394,6.91398
30894,1577399314.34,0.854554807188452,3.916096383741424,16.802974412276104,0.4852637998999616,2.975116736137576,18.52072651069455,2.1770300510313447,-1.6905983478825264,10.723629235839844,14.605080209127289,-6.008613400342988,-3.7759920445884143,8.078784477419969,-13.310130049542684,-4.660257479039634,27.026478837176068,41.00967035060975,13.330599156821648,-5.02441907051282,4.192304754273503,-3.982788854663856,-11.490401125316987,-4.032537774725275,-3.737548209002536,28.284272321562284,32.98071105520113,35.424776110462155,1577399314.0,-27.693177476470805,-51.12105239368394,6.91398
30895,1577399314.35,-1.1350267724013905,2.4544362702160343,12.583193986250713,-1.5402308045922248,3.376145514213748,10.376849563673066,2.07886778296494,-12.600975313214557,14.238317272949216,10.805641732564789,1.452934451219512,-3.6691805211509134,9.833545219607467,6.968800614519816,-5.560526033727134,12.484852860613568,40.18569574123475,-22.32919088224085,-5.200714476495724,4.601310096153845,-3.3816131784881795,-3.169870694209636,26.303144121503493,-15.905867795065513,28.092580944679067,32.95674963309072,35.35289184413095,1577399314.0,-27.693177476470805,-51.12105239368394,6.91398
30896,1577399314.36,3.2750926856064213,-3.5753606108874805,0.4218466534870421,6.336692657321836,-5.957649657905392,2.8650418549328305,-0.9761335353944351,6.499965531512005,5.633556506347656,12.285744271627289,3.4518358184070124,-4.416861185213414,15.403003227419967,-4.246409346417683,-6.125101229039634,23.333851884051068,33.59389886623475,-25.609830530678355,-4.671828258547009,2.556283386752136,-3.682201016576021,-3.2725932921245406,25.29500967782218,-30.876588255494507,28.23634947734148,32.88486536675951,35.13723904513733,1577399314.0,-27.693177476470805,-51.12105239368394,6.91398
30897,1577399314.37,2.3772670630478268,-7.020616799852324,2.789712095381573,3.770108477634336,-9.647114416206172,-0.2665739165515433,1.4587695529844698,10.30674617116044,-0.0622492431640624,11.675392709127289,1.101982302782012,-5.668081888338414,21.23186064929497,-11.418040205792684,-4.385599275914634,28.796498368426068,36.79824456935975,-2.324918421303354,-3.614055822649576,4.192304754273503,-3.682201016576021,-13.133962691955478,25.29500967782218,-27.0417239010989,27.90088956779585,32.98071105520113,35.13723904513733,1577399314.0,-27.693177476470805,-51.12105239368394,6.91398
30898,1577399314.38,5.202425022032203,-4.798797659227324,2.5502919293659483,4.569771832126524,-2.629709350288205,-0.8890663481921682,1.142734933843845,7.050631913347942,0.1915361328124999,14.818703256002289,-7.442939572217988,-7.041372903963414,6.522387993044969,-10.655100752667684,-4.690775057164634,38.989369462176064,48.85268792873475,14.734407750571648,-3.614055822649576,4.192304754273503,-3.682201016576021,-13.133962691955478,25.29500967782218,-27.0417239010989,28.38011801000389,33.02863389942193,35.233084733578934,1577399314.0,-27.693177476470805,-51.12105239368394,6.91398
30899,1577399314.39,3.3014289038681404,4.779206082227753,10.02498951237376,0.4589275816382432,6.309042547905154,10.346922042921111,1.3462420749571269,-19.43642105296065,2.644395733642578,32.74778040443979,-12.051093869092988,-4.569449075838414,7.971972953982468,3.749196122332317,-5.636819979039634,16.101185868426068,83.06289300685975,-19.84200826505335,-5.8177483974358974,4.499058760683759,-3.60705405705406,-13.853020877359818,23.920280890984017,-30.36035651547971,28.14050378889987,32.90882678886992,35.16120046724773,1577399314.0,-27.693177476470805,-51.12105239368394,6.91398
30900,1577399314.4,2.283893198301733,0.9185559052257992,11.830217564131573,4.574560235446836,-3.3312104367139863,-0.3958608061999807,-2.7909383937928736,-8.18127904856612,10.75235965576172,2.5811544278772867,-4.421699337842988,-7.102408060213414,10.520190727419967,0.239674637957317,-3.1954137290396343,25.164906571551068,82.45254144435975,-30.065396936928355,-4.671828258547009,3.3742940705128173,-3.381613178488186,-16.421085825232456,20.162688873626376,-1.3776316832206257,28.38011801000389,32.83694252253871,35.32893042202055,1577399314.0,-27.693177476470805,-51.12105239368394,6.91398
30901,1577399314.41,1.3381835425400146,-2.093349783250762,7.89893843815501,-0.0725851869164436,-6.429307384956173,4.720548141553924,3.077249875250095,7.694672159929973,22.598869470214844,-6.848777212747714,14.224540896532012,-5.240835794588414,8.567065727419969,-15.232737471417684,-3.6531774009146334,22.876088212176068,30.60317620998476,-26.006559046303355,-5.02441907051282,3.3742940705128173,-3.982788854663856,-11.490401125316987,20.895877559940057,-0.7876525517751477,28.14050378889987,33.12447958786354,35.233084733578934,1577399314.0,-27.693177476470805,-51.12105239368394,6.91398
30902,1577399314.42,0.4607086340927495,-6.74887491142459,6.586915928389385,1.2825329527319926,-3.3599408566358613,14.558322763135958,-1.9649388210389664,8.070561820574504,24.68900751953125,-8.206809439310215,19.87029284965701,-5.881704935213414,10.825366508669967,-4.124339033917683,-6.369241854039634,10.669056962176068,-17.736667540015244,-2.721646936928354,-5.377009882478632,3.3742940705128173,-3.5319070975320974,-11.490401125316987,20.895877559940057,-0.7876525517751477,28.18842663312068,32.83694252253871,34.993470512474914,1577399314.0,-27.693177476470805,-51.12105239368394,6.91398
30903,1577399314.43,-2.348887014100609,1.210648507764862,19.03915876286204,-2.785215667873476,-0.2798004208448456,10.81020006416135,-0.7534727809999049,-4.185356477765339,18.687941058349608,-10.907615103372711,-14.065254025342988,-6.766714700838414,4.676074516482469,-4.154856612042683,-3.7142125571646334,-26.08936588938644,-54.80026617282775,9.546419469321648,-6.434782318376065,5.41932077991453,-2.780437502312504,-8.203277992040011,10.26464160839161,-2.410095163250211,28.044658100458264,32.93278821098032,35.13723904513733,1577399314.0,-27.693177476470805,-51.12105239368394,6.91398
30904,1577399314.44,-2.087919033143578,5.505846286085174,22.108525291182357,-2.909714154201601,2.5681024539110133,15.381928134229709,-0.5858786647889664,6.722626285906536,11.291055029296874,-3.0035623689977133,-16.170966915967988,-5.698599466463414,11.496753227419967,-4.795725752667683,-5.514749666539634,-14.782603194073932,-63.42148199314025,-6.170133265053353,-3.614055822649576,5.010315438034185,-3.0810253404003385,-9.8468395586785,24.19522664835165,-1.6726212489433638,27.94881241201665,32.88486536675951,35.32893042202055,1577399314.0,-27.693177476470805,-51.12105239368394,6.91398
30905,1577399314.45,1.5536616919540769,0.9041906952648618,8.296375913740947,-0.2425735047875374,-0.8292697018507045,8.670980880811737,1.959157699957126,-3.840591438702839,6.880935571289062,1.7876973966272869,-13.851630978467988,-5.546011575838414,9.940356743044967,1.9791765910823167,-5.819925447789634,-4.803355147198933,-54.05258550876525,7.288118688071647,-4.671828258547009,2.9652887286324763,-3.0810253404003385,-9.8468395586785,28.22776442307692,-27.631703032544383,28.092580944679067,32.88486536675951,35.13723904513733,1577399314.0,-27.693177476470805,-51.12105239368394,6.91398
30906,1577399314.46,0.7599838416122812,-3.015117422410918,1.243057822920636,-2.272856512600037,-4.657598156440549,4.660693100050018,-1.0383827785584976,-23.501775471905965,4.3071687866210935,-2.0422586580602133,-7.320869259717988,-5.851187357088414,3.8368411180449695,-9.190257002667684,-6.827005525914634,-21.09974186594893,-47.52182379001525,-3.667691858803354,-4.759975961538462,3.681048076923075,-3.60705405705406,-8.203277992040011,-4.032537774725275,-22.91186998098056,28.02069667834786,32.98071105520113,35.13723904513733,1577399314.0,-27.693177476470805,-51.12105239368394,6.91398
30907,1577399314.47,3.763509824278296,-6.242501260301544,3.4888189801471983,3.8515113340796487,-3.920184045112424,3.1726967682629086,3.3801163852598606,10.009865165301068,3.365050433349609,4.503761849752286,-16.170966915967988,-6.400503763338414,1.1818118211699695,1.1857195598323171,-7.101663729039634,0.857655594988568,-24.450534727515247,-1.6840492806783525,-5.729600694444443,4.192304754273503,-3.982788854663856,-8.922336177444349,-3.5742948457792205,-3.073821686126373,28.044658100458264,32.88486536675951,35.472698954682954,1577399314.0,-27.693177476470805,-51.12105239368394,6.91398
30908,1577399314.48,-0.9913746727920156,-0.2905159331531058,7.788805161787823,-3.81711658340082,-1.169246337592892,11.041240524366428,-6.245771389398342,-18.82350542796065,10.261548315429687,7.280861459127286,-15.011298947217988,-4.874624857088414,2.768725883669969,-19.04743473704268,-2.4935094321646343,-1.5379742878239329,-9.588474180640244,-1.4093910775533538,-4.142942040598289,2.7607860576923056,-3.231319259444269,1.6580914077909268,-4.032537774725275,-22.91186998098056,28.23634947734148,32.83694252253871,35.424776110462155,1577399314.0,-27.693177476470805,-51.12105239368394,6.91398
30909,1577399314.49,0.4068390967392333,2.4532391693859554,16.735936765791728,-3.441226922756288,1.6726710330125758,14.139337472608617,7.528070761480563,9.006694669695598,15.215151550292967,6.060158334127286,-2.224433712842988,-4.172720560213414,7.804126274294969,-10.502512862042684,-4.477152010289634,0.6592913371760671,-16.515964415015244,-4.979947718178353,-5.905896100427352,5.21481810897436,-4.734258449883449,-1.2181413338264289,-4.032537774725275,-22.91186998098056,28.044658100458264,32.98071105520113,35.424776110462155,1577399314.0,-27.693177476470805,-51.12105239368394,6.91398
30910,1577399314.5,1.7667456397079833,0.0219273834972843,15.687276438643291,4.621247167819883,-2.162840026557737,9.37727037055783,2.472713956060642,-7.718001027325886,14.162899920654295,-5.063498892435212,-16.354072384717988,-4.355826028963414,-0.2982907178925306,4.206959794207316,-8.383402010289634,-11.288340498761432,-21.642917540015244,-3.682950647865853,-5.905896100427352,5.21481810897436,-4.734258449883449,-2.2453673129754845,-4.032537774725275,-28.664166512573964,28.21238805523108,33.12447958786354,35.233084733578934,1577399314.0,-27.693177476470805,-51.12105239368394,6.91398
30911,1577399314.51,-0.2755083764052969,-3.6783112822742,12.59875629704173,-2.1794826478539435,-3.0151758175733616,15.741058383253144,0.5705207370665012,-2.830238338116901,6.605602380371093,-18.87270299399772,14.438163943407012,-4.752554544588414,2.616137993044969,-26.34113590891768,0.4666956459603658,-15.362437178448932,-40.07553472751525,-5.681852015053353,-5.729600694444443,2.556283386752136,-2.780437502312504,-9.8468395586785,-3.665943431568431,-38.25132739856297,28.044658100458264,32.88486536675951,35.13723904513733,1577399314.0,-27.693177476470805,-51.12105239368394,6.91398
30912,1577399314.52,-0.2108649315810782,-3.956038674852324,13.192518308760478,0.1812001890601178,-1.3368404538038294,14.32847940376096,1.2025899753477511,11.307522465105754,12.631807958984377,-17.987693228372713,0.2474901152820121,-4.538931497713414,1.5175051805449695,3.077809403582317,-9.482034822789634,-8.862193037823932,-39.92294683689025,0.3606284536966463,-6.611077724358971,4.396807425213674,-3.8324949356199385,-9.8468395586785,-3.665943431568431,-39.431285661453934,28.092580944679067,33.02863389942193,35.32893042202055,1577399314.0,-27.693177476470805,-51.12105239368394,6.91398
30913,1577399314.53,0.4499347266220458,-1.116515505907012,8.36580776188548,2.7621495787085557,-3.230653966987424,9.889629525831271,2.7468500461485323,-8.899539546612994,10.26633671875,5.449806771627286,-18.276679806592988,-6.980337747713414,1.1207766649199695,-0.5842999714176829,-8.871683260289634,-12.402232100323932,-47.03354254001525,1.7644370474466462,-5.02441907051282,3.3742940705128173,-2.780437502312504,-9.8468395586785,-4.032537774725275,-35.89141087278106,28.044658100458264,32.98071105520113,35.233084733578934,1577399314.0,-27.693177476470805,-51.12105239368394,6.91398
30914,1577399314.54,-0.1797403099990469,2.0198886688976745,7.278840208174542,-1.2421526979027728,1.6487290164110138,9.658589065626192,-0.7415017726991232,-3.5101916096012764,6.442796667480469,9.783302865377289,-6.557929806592988,-3.4402986852134143,-2.724438178830031,-13.554270674542682,-5.270609041539634,-8.373911787823932,-28.036350157202747,3.687044469321647,-6.082191506410258,5.010315438034185,-3.682201016576021,-12.723072300295858,-1.099783029470529,-22.02690128381234,28.284272321562284,33.02863389942193,35.32893042202055,1577399314.0,-27.693177476470805,-51.12105239368394,6.91398
30915,1577399314.55,0.8761026221298592,-0.2258724883288875,11.017386100508526,-3.900913641506288,0.7772396121141383,7.330227951124237,-6.782072561273343,-13.46767631419112,5.623979699707031,-4.071677603372714,-18.124091915967988,-7.209219583650915,8.872241508669969,5.519215653582317,-9.726175447789634,-12.219126631573932,-3.088230040015244,-11.144498499428352,-6.082191506410258,5.41932077991453,-3.381613178488186,-15.393859846083402,-0.916485857892108,-34.85894739275148,28.14050378889987,32.88486536675951,35.13723904513733,1577399314.0,-27.693177476470805,-51.12105239368394,6.91398
30916,1577399314.56,2.4299394995712644,-4.233766067430449,9.067308848311262,5.498722076267149,-3.781320348823361,2.71181294868283,2.83782970923447,6.964440653582317,13.907917443847657,-5.902732290872714,-10.555732540967988,-6.064810403963414,1.1207766649199695,1.5519304973323171,-5.240091463414634,4.870717118426067,-4.675144102515244,-10.503629358803352,-6.434782318376065,5.828326121794872,-4.583964530839531,-14.777524258593967,0.3665943431568428,-22.91186998098056,28.044658100458264,33.02863389942193,35.32893042202055,1577399314.0,-27.693177476470805,-51.12105239368394,6.91398
30917,1577399314.57,3.516907053282203,-1.4349443267077933,11.425597483565166,5.283243926853086,-3.7047058956983614,6.803503585889862,0.3622251926329075,4.910215629168254,7.781155395507812,-1.0809549471227131,-13.393867306592988,-6.064810403963414,-3.792553413205032,-7.969553877667683,-5.911478182164634,-3.369028975323933,-0.6773413681402439,-4.217008265053353,-5.729600694444443,2.9652887286324763,-4.2833766927516965,-14.777524258593967,-2.5661604020979016,-22.91186998098056,28.14050378889987,33.02863389942193,35.32893042202055,1577399314.0,-27.693177476470805,-51.12105239368394,6.91398
30918,1577399314.58,0.4978187598251712,-2.4824075530261527,11.031751310469463,-0.9931557252465228,-3.7238595089796114,11.899561819532444,0.9404248935606424,-5.274718233136432,11.213243475341796,-3.2782205721227125,-3.429878048780488,-5.668081888338415,1.2733645555449693,-10.227854658917684,-7.727274080602134,-6.405527998761432,8.676296327172256,-1.2873207650533534,-5.553305288461537,4.601310096153844,-3.2313192594442626,-16.010195433572836,-4.032537774725275,-23.50184911242604,28.116542366789467,32.88486536675951,35.13723904513733,1577399314.0,-27.693177476470805,-51.12105239368394,6.91398
30919,1577399314.59,4.005324191954077,-1.2481965972156055,16.158934165694074,1.3016865660132426,0.171506592094607,12.089900851514866,3.501023569097751,-4.012973958234089,7.563283044433593,-10.083640493997711,-9.853828244092988,-7.285513528963414,-1.2901120069550305,-1.3472394245426829,-5.758890291539634,3.405873368426067,40.91811761623475,-14.959195765053352,-5.729600694444443,4.192304754273503,-3.0810253404003385,-11.490401125316987,-3.665943431568431,-1.0826421174978862,27.94881241201665,32.98071105520113,35.13723904513733,1577399314.0,-27.693177476470805,-51.12105239368394,6.91398
30920,1577399314.6,4.467405112364234,0.3223996918468932,12.107944956709698,1.474069085544493,1.349453808891482,5.5920375458508,1.0972451023008762,1.773811454363566,9.22485899658203,3.3440938810022867,-7.717597775342988,-5.881704935213414,0.6630129930449695,1.4298601848323171,-10.306009432164634,15.399281571551068,51.56875238185975,-14.806607874428352,-4.4955328525641,3.987802083333333,-2.930731421356421,-15.599305041913214,-3.665943431568431,-1.6726212489433638,28.284272321562284,33.02863389942193,35.32893042202055,1577399314.0,-27.693177476470805,-51.12105239368394,6.91398
30921,1577399314.61,3.720414194395484,1.471616488721893,8.76803364079173,3.200288482517149,-0.7670204586866419,3.0493953827648617,-1.7901620998475605,-6.737575447491901,13.991714501953124,8.837257943502287,-3.353584103467988,-8.597769388338415,-2.6328854444550305,0.7584734660823171,-6.430277010289634,9.875599930926068,39.75844964748475,-13.707975061928352,-5.729600694444443,3.783299412393162,-4.583964530839531,-13.133962691955478,-4.032537774725275,-1.6726212489433638,28.092580944679067,32.88486536675951,35.233084733578934,1577399314.0,-27.693177476470805,-51.12105239368394,6.91398
30922,1577399314.62,5.8033696387314215,-4.047018337938263,7.946822471358136,3.698282427829649,-0.868774029243283,7.816250888135956,1.0816827915098612,-0.7879843220036201,10.679336505126953,0.3838888028772862,1.208793826219512,-7.972159036775915,-3.639965522580031,6.205861161394816,-5.880960604039634,2.368275712176068,9.713893983422256,-15.783170374428352,-5.112566773504273,4.090053418803418,-3.156172299922304,-12.620349702380947,-3.757592017357642,-2.778832120403634,28.092580944679067,32.86090394464911,35.32893042202055,1577399314.0,-27.693177476470805,-51.12105239368394,6.91398
30923,1577399314.63,0.6175288428329833,1.2776861542492368,8.181454234053447,7.222547271579648,-2.675199181831174,3.559360336378143,-1.1389392482850602,0.6533250774104412,2.085349645996094,1.1468282560022869,10.287773318407012,-7.377066263338414,-9.865551460080033,8.662526200457316,-6.857523104039634,2.093617509051067,21.23427972560976,1.1540854849466462,-5.200714476495726,4.396807425213674,-3.231319259444269,-2.450812508805297,-3.299349088411588,-4.032537774725275,28.14050378889987,33.02863389942193,35.233084733578934,1577399314.0,-27.693177476470805,-51.12105239368394,6.91398
30924,1577399314.64,0.3350130469345458,2.4915463959484554,9.31630582096751,-0.5059356874047249,0.286428271782107,12.02286320503049,1.1978015720274386,-8.648148372296589,11.145008728027342,0.7500997403772866,5.527031130907012,-8.536734232088415,-6.172924506955031,-5.161936690167683,-6.308206697789634,-15.515025069073932,7.928615663109756,-11.419156702553352,-4.4955328525641,4.396807425213674,-3.8324949356199385,-12.312181908636234,-3.299349088411588,-4.032537774725275,28.092580944679067,32.88486536675951,35.424776110462155,1577399314.0,-27.693177476470805,-51.12105239368394,6.91398
30925,1577399314.65,2.077991855528296,-0.2330550933093558,11.337012022139383,-0.1803242616234749,-2.320857336128048,13.43304798286252,-4.969661904535061,0.7395163371760662,16.402675573730466,-17.285788931497713,-5.856025509717988,-10.276236185213415,-1.2290768507050305,8.509938309832316,-10.000833650914634,-5.200083662823933,0.177150819359756,-12.822965296303352,-5.377009882478632,5.010315438034185,-3.682201016576021,-2.861702900464919,26.76138705044955,-26.451744769653423,28.044658100458264,32.789019678317906,35.32893042202055,1577399314.0,-27.693177476470805,-51.12105239368394,6.91398
30926,1577399314.66,0.0513001502060306,-3.5238852751941216,12.712480875899152,0.1668349790991807,-3.158827917182736,10.328965530469942,2.2704039157774387,2.559109598894817,14.299369415283202,-19.772971548685216,9.906303591844512,-7.254995950838414,-5.150585639767531,-0.8284405964176831,-6.277689119664634,-0.9428815143864328,-4.385227110327744,-2.8131996713033534,-5.288862179487179,4.294556089743589,-3.0058783808783867,-2.861702900464919,26.76138705044955,-27.041723901098905,28.044658100458264,32.98071105520113,35.304968999910145,1577399314.0,-27.693177476470805,-51.12105239368394,6.91398
30927,1577399314.67,0.0357378394150145,1.1196688446789242,8.315529527022198,-3.93203826308832,-0.1972004635694544,13.028427902296116,1.6503056857969698,-9.804547774152056,15.852009191894531,5.022560677877286,12.942802615282012,-5.240835794588414,0.0831790086699695,2.589528153582317,-10.061868807164634,-14.935191084698932,-20.666355040015244,-12.456754358803352,-5.553305288461537,4.805812767094015,-3.231319259444269,-3.2725932921245406,26.76138705044955,-32.3515360841082,28.284272321562284,32.98071105520113,35.424776110462155,1577399314.0,-27.693177476470805,-51.12105239368394,6.91398
30928,1577399314.68,1.2256560645126708,-5.332704629442168,11.483058323408915,2.7166597471655862,-5.66555705536633,8.891247433546113,1.0733030856993138,8.025071989031536,16.213533642578124,-10.755027212747711,-9.914863400342988,-10.093130716463415,-1.9614987257050305,3.779713700457317,-5.545267244664634,-7.305796553448933,-32.84286871189025,-3.606656702553354,-5.553305288461537,4.805812767094015,-3.231319259444269,-16.421085825232456,23.82863230519481,-29.696629992603548,28.044658100458264,32.98071105520113,35.13723904513733,1577399314.0,-27.693177476470805,-51.12105239368394,6.91398
30929,1577399314.69,2.0732034522079834,-5.052583035203887,10.59959791081126,4.2297951963843365,-4.207488244331174,13.794572433546117,-0.657704714593654,-14.432539583234089,15.892710620117189,-3.4308084627477133,-7.503974728467988,-6.247915872713414,-0.7713131788300305,0.9110613567073172,-5.606302400914634,-24.57874577219893,-56.98227300876525,-8.581021936928353,-4.4955328525641,3.5787967414529875,-3.8324949356199385,-16.421085825232456,22.36225493256743,-29.696629992603548,28.284272321562284,32.83694252253871,35.32893042202055,1577399314.0,-27.693177476470805,-51.12105239368394,6.91398
30930,1577399314.7,1.579997910215796,-1.5295152922839657,15.168931779219465,3.3774594053687115,-2.6476658627393763,9.887235324171114,4.459901333990329,1.6732549846370048,3.962403747558594,-5.841697134622713,-5.642402462842988,-8.963980325838415,-2.922802436642531,-0.8436993854801829,-9.665140291539634,-16.44581120188643,-38.35129156345275,-0.8753334603658538,-3.878498931623932,4.294556089743589,-3.607054057054063,-9.8468395586785,10.264641608391608,-4.032537774725275,28.092580944679067,33.00467247731153,35.13723904513733,1577399314.0,-27.693177476470805,-51.12105239368394,6.91398
30931,1577399314.71,1.793081857969702,-0.9968054228991996,11.638681431319071,-1.0949092958031623,3.2408731204149195,13.734717392042208,4.030142135992283,-12.019184309796588,7.275978845214843,6.243263802877286,1.040947146532012,-5.973257669588414,-5.257397163205031,-8.824046065167684,-2.3104039634146343,-10.113413740948932,6.372219178734756,-3.606656702553354,-3.614055822649576,4.192304754273503,-3.381613178488186,-9.025058775359255,24.56182099150849,-4.032537774725275,28.092580944679067,32.98071105520113,35.13723904513733,1577399314.0,-27.693177476470805,-51.12105239368394,6.91398
30932,1577399314.72,1.2256560645126708,4.933632089307831,14.511723423506572,1.2705619444312115,1.8211115359422636,10.605495822217993,-3.085425197992092,-12.608157918195026,5.449202978515625,-10.755027212747711,-6.496894650342988,-11.405386575838415,4.477710258669969,7.441823075457317,-10.550150057164634,-9.930308272198932,14.856105897484756,-8.611539515053353,-3.614055822649576,4.192304754273503,-3.381613178488186,-9.8468395586785,25.29500967782218,-28.811661295435336,28.044658100458264,32.98071105520113,34.8017791355917,1577399314.0,-27.693177476470805,-51.12105239368394,6.91398
30933,1577399314.73,1.3872646765732175,-4.645568752977325,7.936048563887432,3.09733781113043,-4.892229919135861,9.5759891083508,6.551236484136813,12.463921866961224,8.872911352539061,-1.7523416658727131,-2.514350705030488,-8.414663919588415,5.057544243044969,-2.323801924542683,-9.115823885289634,15.063588212176068,16.137844178734756,-4.125455530678353,-4.4955328525641,5.41932077991453,-4.13308277370778,-3.2725932921245406,-4.032537774725275,-28.811661295435336,28.164465211010278,33.12447958786354,35.32893042202055,1577399314.0,-27.693177476470805,-51.12105239368394,6.91398
30934,1577399314.74,-1.6713279442763904,-3.436496914598418,9.78317514469798,-2.0130856324730853,-3.1636163205030483,12.484944125440643,-2.2390749111268584,-12.865534596661824,16.175226416015622,-12.006247915872711,3.5128709746570124,-6.797232278963414,2.204150688357469,-6.672556807355184,-7.696756502477134,4.596058915301068,3.457790467797256,-18.54501119474085,-4.671828258547009,4.192304754273503,-2.479849664224669,-10.05228475450831,-4.032537774725275,-27.48420824968301,28.044658100458264,32.836942522538706,35.113277623026924,1577399314.0,-27.693177476470805,-51.12105239368394,6.91398
30935,1577399314.75,1.8385716895126707,-0.3647361846179495,12.301875291182354,0.1357103575171491,-5.265725378120236,13.569517477491427,-2.565883437738186,8.542219547625285,9.957484704589843,-3.3087381502477133,-12.447822384717988,-9.330191263338415,2.158374321169969,10.066334794207316,-9.604105135289634,5.389515946551067,-8.062595274390244,-6.780484827553353,-4.671828258547009,4.192304754273503,-2.479849664224669,-9.8468395586785,-4.032537774725275,-26.451744769653423,28.14050378889987,32.98071105520113,35.28100757779974,1577399314.0,-27.693177476470805,-51.12105239368394,6.91398
30936,1577399314.76,0.6797780859970458,-2.6559871733874805,19.228300694014383,0.4014667417944929,-5.950467052924924,10.42593069770627,0.625587375250095,5.614110917254192,16.282965490722656,-4.529441275247714,-10.525214962842988,-7.590689310213414,3.9283938524199695,5.397145341082317,-7.132181307164634,4.321400712176067,-17.767185118140244,2.344271031821646,-4.671828258547009,4.192304754273503,-2.479849664224669,-6.55971642540152,-4.032537774725275,-4.032537774725275,28.044658100458264,32.98071105520113,35.424776110462155,1577399314.0,-27.693177476470805,-51.12105239368394,6.91398
30937,1577399314.77,3.740764908506812,-0.3623419829577932,11.515380045821026,1.792497906345274,3.5880323611375755,12.832103366163302,6.795445053472751,-4.71447504465987,12.938265771484376,2.1081319669397867,7.205497927782012,-8.109488138338415,1.1207766649199695,-2.903635908917683,-6.918558260289634,1.1475725871760671,-29.302829649390244,-3.118375452553354,-4.671828258547008,3.783299412393161,-3.982788854663859,-6.55971642540152,-4.032537774725275,-4.032537774725275,28.18842663312068,33.17240243208434,35.13723904513733,1577399314.0,-27.693177476470805,-51.12105239368394,6.91398
30938,1577399314.78,3.2559390723251718,-4.5210702666492,7.130399705244854,4.117267718356993,-2.2765646054151576,9.19411394355588,4.631086752691501,2.12336489674638,-2.9604303527832028,16.466652474752287,5.832206912157012,-8.353628763338415,7.025928032107469,9.700123856707316,-9.436258455602134,1.3459368449885671,-0.3263892197027438,-2.4775063119283534,-2.7325787927350405,3.5787967414529875,-4.433670611795614,-9.435949167018878,-4.032537774725275,-3.4425586432797965,28.284272321562284,32.98071105520113,35.28100757779974,1577399314.0,-27.693177476470805,-51.12105239368394,6.91398
30939,1577399314.79,3.66534755621189,-5.442837905809356,7.599663230635479,8.510627764743711,-5.545846972358517,0.7461733856945494,-2.666439907464748,-15.59851579173018,1.5514426757812498,6.426369271627286,-6.954658322217988,-8.994497903963415,9.543628227419967,-3.117258955792683,-8.139261385289634,7.769887040301067,34.63149652248475,-7.329801233803353,-5.729600694444443,5.010315438034185,-3.682201016576021,-11.6958463211468,-2.3828632305194803,-3.4425586432797965,28.14050378889987,32.98071105520113,35.233084733578934,1577399314.0,-27.693177476470805,-51.12105239368394,6.91398
30940,1577399314.8,0.4451463233017333,-2.7517552397937304,4.963647202803449,-3.0868850770531635,-1.399089696967892,11.366851950147678,3.426803317632908,-8.645754170636431,14.73391701660156,9.600197396627289,-4.024970822217988,-8.109488138338415,6.858081352419969,-8.366282393292684,-7.834085604039634,12.286488602801068,33.34975824123475,-25.762418421303355,-5.729600694444443,5.010315438034185,-3.682201016576021,-0.396360550507185,-4.032537774725275,-38.84130653000845,28.044658100458264,32.83694252253871,35.13723904513733,1577399314.0,-27.693177476470805,-51.12105239368394,6.91398
30941,1577399314.81,2.3389598364853272,-0.7118954253406057,9.995061991621808,0.724683965915587,0.294807977592654,16.47248699043088,2.0058446323301733,3.189981736345989,17.521964849853514,7.814919076314787,-5.535590939405488,-8.063711771150915,7.361621391482468,5.076710770769817,-4.965433260289634,7.876698563738568,1.992946717797256,-17.61422506192835,-4.671828258547008,4.192304754273503,-3.2313192594442626,-6.148826033741898,-0.7331886863136863,-38.84130653000845,27.996735256237457,32.90882678886992,35.20912331146854,1577399314.0,-27.693177476470805,-51.12105239368394,6.91398
30942,1577399314.82,0.2488217871689208,-6.338269326707794,16.999298948408917,3.8203867124976174,-5.828362768256955,15.305313681104709,3.544119198980564,8.626016605730754,17.829619763183594,-8.527244009622713,14.743339724657012,-7.010855325838414,8.414477836794969,0.7584734660823171,-7.834085604039634,5.847279618426067,-16.119235899390244,-3.637174280678354,-4.4955328525641,3.987802083333333,-4.13308277370778,-8.203277992040011,1.832971715784216,-22.91186998098056,28.284272321562284,32.98071105520113,35.13723904513733,1577399314.0,-27.693177476470805,-51.12105239368394,6.91398
30943,1577399314.83,-1.4414845849013904,-5.282426394578887,10.79831664860423,3.686311419528868,-4.585772106635861,10.423536496046117,-1.71354764672256,-1.0058566730778389,21.090522424316404,-16.644919790872713,22.64739245903201,-4.661001810213414,3.531665336794969,0.056569169207317,-7.956155916539634,-2.026255537823933,-27.502292540015244,8.081575719321647,-4.848123664529915,3.987802083333333,-2.930731421356421,-8.203277992040011,1.832971715784216,-22.91186998098056,28.14050378889987,33.02863389942193,34.8017791355917,1577399314.0,-27.693177476470805,-51.12105239368394,6.91398
30944,1577399314.84,-2.0328523949599844,0.5809734711437682,9.007453806807357,-3.441226922756288,-4.463667821967893,19.44009994819455,3.0724614719297825,-6.955447798566119,16.534356665039063,-2.7594217439977133,1.071464724657012,-5.546011575838414,6.461352836794969,-11.051829268292684,-5.636819979039634,-5.596812178448933,-39.73984136814025,-0.7380043588033537,-4.848123664529915,2.7607860576923056,-3.531907097532104,-8.203277992040011,-4.032537774725275,-34.12147347844463,27.94881241201665,32.98071105520113,35.32893042202055,1577399314.0,-27.693177476470805,-51.12105239368394,6.91398
30945,1577399314.85,-1.704846767518578,-0.216295681688262,7.654729868819073,-4.009849817043397,0.6156310000535914,7.265584506300019,5.587570315923922,-3.8944609760563536,4.629188909912109,13.964211068502289,-7.473457150342988,-8.658804544588415,6.354541313357469,4.008595536394816,-9.558328768102134,-8.938486983136432,-37.81723394626525,-6.887296350990853,-4.848123664529915,2.7607860576923056,-3.531907097532104,-11.901291516976611,-3.849240603146853,-34.7114526098901,28.092580944679067,32.836942522538706,35.32893042202055,1577399314.0,-27.693177476470805,-51.12105239368394,6.91398
30946,1577399314.86,1.2172763587021238,-1.1596111357898249,9.594033213545636,-0.2713039247094124,2.08447371855945,5.604008554151581,2.131540219488376,4.0243610149104425,-0.0526724365234375,12.728249154439789,-12.585151486280488,-6.003775247713415,0.4188723680449695,-7.908518721417683,-4.934915682164634,4.931752274676067,-9.191745665015244,-5.834439905678353,-4.407385149572651,4.703561431623932,-3.4567601380101447,-11.901291516976611,1.0997830294705304,-22.91186998098056,28.068619522568667,32.88486536675951,35.28100757779974,1577399314.0,-27.693177476470805,-51.12105239368394,6.91398
30947,1577399314.87,1.477047238829077,-0.1540464385241995,10.580444297530011,0.1620465757788678,-0.4461974362257044,2.0988973236828303,0.0437963718321262,-0.7424944904606515,4.261678955078125,-2.2101053377477133,-23.373115353467988,-6.888785013338414,2.555102836794969,1.0026140910823171,-8.047708650914634,9.936635087176068,9.576564881859756,-10.167935999428352,-5.905896100427352,6.0328287927350415,-3.8324949356199385,-15.18841465025359,-0.3665943431568428,-22.91186998098056,28.044658100458264,33.12447958786354,35.13723904513733,1577399314.0,-27.693177476470805,-51.12105239368394,6.91398
30948,1577399314.88,3.095527561094703,-3.2090477568835745,9.845424387862042,1.1867648863257427,-1.485280956733517,5.747660653760956,0.8243061130430638,-6.55322191965987,9.744400756835937,10.271584115377289,-14.004218869092988,-8.445181497713415,9.238452446169967,-7.939036299542683,-5.667337557164634,2.795521805926067,1.4894066787347562,-13.402799280678352,-3.43776041666667,3.1697913995726466,-4.734258449883449,-16.421085825232456,-0.3665943431568428,-22.91186998098056,27.94881241201665,32.789019678317906,35.13723904513733,1577399314.0,-27.693177476470805,-51.12105239368394,6.91398
30949,1577399314.89,0.4463434241318114,-5.31235391533084,12.319831803633528,4.415345825046446,-2.782938256538205,14.227922934034396,1.4072942172911105,-0.1571121845524482,11.049240661621091,-9.458030142435211,8.71611804496951,-5.576529153963414,1.4869876024199693,-2.628977705792683,-6.613382479039634,-0.5766705768864329,-12.975925352515244,-8.931974085365852,-3.79035122863248,3.78329941239316,-3.5319070975320974,-15.804750237743022,-3.299349088411588,-25.271786506762464,28.092580944679064,33.148441009973936,35.08931620091653,1577399314.0,-27.693177476470805,-51.12105239368394,6.91398
30950,1577399314.9,1.247203879454077,1.2705035492687682,13.302651585127666,4.904960064548399,-3.8603290036085176,18.62367718208127,4.420397006597751,9.047396097918254,8.492233288574218,0.0176778653772865,1.498710818407012,-5.851187357088414,3.348559868044969,-4.887278487042683,-5.362161775914634,14.514271805926068,7.409816834984756,4.724642125571647,-4.142942040598289,5.623823450854701,-3.8324949356199385,-16.010195433572836,0.0,-27.631703032544383,28.284272321562284,32.98071105520113,35.424776110462155,1577399314.0,-27.693177476470805,-51.12105239368394,6.91398
30951,1577399314.91,0.193755148985327,1.4189440521984555,11.17420630924876,-2.0142827333031623,3.465928076469607,13.078706137159395,-1.921843191156154,-11.063897847394244,7.989450939941406,6.365334115377286,6.320488162157012,-6.095327982088414,4.233569633669969,-1.0420636432926829,-9.878763338414634,10.669056962176068,20.62392816310976,3.259798375571646,-4.3192374465811945,5.41932077991453,-2.780437502312504,-11.490401125316987,-3.665943431568431,-40.61124392434488,28.38011801000389,32.88486536675951,35.13723904513733,1577399314.0,-27.693177476470805,-51.12105239368394,6.91398
30952,1577399314.92,1.218473459532202,-6.086878152391387,11.25800336735423,-1.149975933986756,-0.5635133175733607,5.503452084425018,2.1387228244688448,-11.810888765362996,7.785943798828124,-1.2640604158727131,-7.565009884717988,-6.980337747713414,4.752368461794969,0.026051591082317,-10.946878572789634,5.847279618426067,22.66860589748476,-17.705777796303355,-6.082191506410258,4.192304754273503,-2.780437502312504,-12.928517496125668,-2.3828632305194803,-3.8850429918639056,28.044658100458264,32.98071105520113,35.13723904513733,1577399314.0,-27.693177476470805,-51.12105239368394,6.91398
30953,1577399314.93,2.421559793760718,-1.586976132127715,12.085200040938211,1.1735967771948832,-1.7689938534620333,5.22811889350705,0.0294311618711889,2.6608631694514573,8.912415679931641,8.165871224752287,-4.253852658155488,-7.254995950838415,2.890796196169969,-2.491648604230183,-4.797586580602134,17.093007157488568,26.08657464748476,-22.45126119474085,-6.082191506410258,4.192304754273503,-2.780437502312504,-2.656257704635108,-2.016268887362637,-3.737548209002536,28.116542366789467,32.95674963309072,35.28100757779974,1577399314.0,-27.693177476470805,-51.12105239368394,6.91398
30954,1577399314.94,2.300652609922827,-2.335164150926543,10.206948838545635,5.929678375095274,-2.5530948971632053,8.223265170362518,2.016618539800876,-0.9029060016911202,8.482656481933594,15.795265756002289,-8.938300900342988,-7.224478372713414,4.325122368044969,4.237477372332317,-7.803568025914634,15.002553055926068,1.977687928734756,-18.926480921303355,-4.848123664529915,3.987802083333333,-3.231319259444269,-3.2725932921245406,-0.3665943431568428,-27.0417239010989,28.044658100458264,33.02863389942193,35.233084733578934,1577399314.0,-27.693177476470805,-51.12105239368394,6.91398
30955,1577399314.95,2.2000961401962646,-4.837104885789824,7.908515244795636,6.817927191013243,-3.987221691596799,7.042923751905487,0.9871118259336888,8.032254594012004,13.958195678710936,-3.5528787752477133,1.163017459032012,-9.421743997713415,-3.2432370069550305,3.321950028582317,-6.552347322789634,5.450551102801067,-6.292575743140244,-0.8600746713033537,-3.966646634615387,4.192304754273503,-2.479849664224669,-2.450812508805297,-0.3665943431568428,-27.631703032544383,28.092580944679067,32.88486536675951,35.32893042202055,1577399314.0,-27.693177476470805,-51.12105239368394,6.91398
30956,1577399314.96,0.6079520361923583,-0.350370974657012,13.719242673994854,1.5734284544409771,-0.2115656735303924,9.833365786817597,2.1064011020567355,-5.285492140607135,5.653907220458984,-1.4166483064977131,2.3532030059070124,-7.804312357088414,2.219409477419969,-0.6453351276676829,-6.979593416539634,-1.2022809284489329,-12.838596250952744,-1.0736977181783536,-3.43776041666667,3.1697913995726466,-3.231319259444269,-2.348089910890392,9.806398679445556,-29.770377384034237,28.044658100458264,32.836942522538706,35.233084733578934,1577399314.0,-27.693177476470805,-51.12105239368394,6.91398
30957,1577399314.97,2.2539656775497807,-0.5215563933581839,11.501014835860088,-1.0901208924828498,-2.404654394233517,8.292697018507049,0.2209672946836887,-1.0058566730778389,12.133814013671874,3.3135763028772867,-1.5377882050304876,-8.124746927400915,10.428637993044967,-0.8589581745426829,-8.871683260289634,4.107777665301067,8.783107850609756,-18.071988733803355,-4.671828258547009,2.9652887286324763,-2.780437502312504,-9.641394362848688,23.27874079045954,-28.959156078296704,28.068619522568667,32.789019678317906,35.13723904513733,1577399314.0,-27.693177476470805,-51.12105239368394,6.91398
30958,1577399314.98,0.9766590918564207,-2.217848269578887,9.826270774580792,3.38464201034918,-0.4988698727491419,11.512898251417209,-0.3177280788514665,4.031543619890911,16.570269689941405,14.147316537252289,2.8414842559070124,-5.515493997713414,5.149096977419969,-9.495432783917684,-3.6226598227896334,15.918080399676068,-0.7383765243902439,0.3301108755716463,-4.671828258547009,4.601310096153845,-3.0810253404003385,-9.230503971189066,21.812363417832167,-28.959156078296704,28.284272321562284,33.02863389942193,35.32893042202055,1577399314.0,-27.693177476470805,-51.12105239368394,6.91398
30959,1577399314.99,1.419586398985327,-0.0870087920398245,6.452840635420635,-2.445239032131288,-0.728713232124142,14.42903587348752,-5.510751479730374,-11.81328296702315,15.267823986816405,21.563088021627287,20.87737292778201,-6.369986185213414,5.210132133669969,4.145924637957317,-9.268411775914634,-5.444224287823933,-24.694675352515244,-3.240445765053354,-3.085169604700852,2.351780715811969,-3.531907097532104,-9.435949167018876,20.895877559940057,-3.4425586432797965,28.092580944679067,32.83694252253871,35.424776110462155,1577399314.0,-27.693177476470805,-51.12105239368394,6.91398
30960,1577399315.0,0.7827287573837646,-3.332349142381622,11.676988657881571,1.7027153440894152,-4.050668035590939,6.765196359327362,6.978601480474705,6.539469858904583,4.070142822265625,6.029640756002288,3.1314012480945124,-4.691519388338414,7.086963188357469,3.7797137004573167,-7.177957674352134,9.311024735613568,-23.992771055640247,-3.820279749428354,-3.1733173076923045,5.112566773504273,-3.156172299922304,-7.792387600380388,20.895877559940057,-3.737548209002536,28.18842663312068,33.00467247731153,35.32893042202055,1577399315.0,-27.69316707835532,-51.12111696465467,6.429316
30961,1577399315.01,0.844978000547827,-0.063066775438262,13.616292002608136,-2.119627606350037,1.1698886843797631,14.634937216260958,-2.470115371331936,-13.412609676007524,4.029441394042968,-0.4706033846227134,-10.952461056592988,-6.858267435213414,2.951831352419969,-19.93244450266768,-0.5403844321646342,1.1170550090510671,18.82339105373476,-12.212613733803352,-3.085169604700852,5.623823450854701,-2.930731421356421,-9.8468395586785,-2.5661604020979016,-3.147569077557058,28.14050378889987,33.02863389942193,35.47269895468296,1577399315.0,-27.69316707835532,-51.12111696465467,6.429316
30962,1577399315.02,2.3341714331650145,-1.664787686082793,5.873443833662823,-1.207436773830506,-0.5898495358350794,14.074694027784396,-0.6313684963319353,-18.16270576975753,10.819397302246092,17.412697396627287,-1.400459103467988,-5.057730325838414,17.23405791491997,6.678883622332317,-8.139261385289634,3.039662430926067,35.69961175685975,-29.058316858803355,-3.2614650106837573,5.41932077991453,-3.682201016576021,-9.8468395586785,-2.5661604020979016,-3.147569077557058,28.428040854224697,33.17240243208434,35.233084733578934,1577399315.0,-27.69316707835532,-51.12111696465467,6.429316
30963,1577399315.03,3.490570835020484,-4.468397830125761,7.089698277022198,5.977562408298399,-3.034329430854612,6.286356027296112,12.060294504156344,24.712657560320597,2.300827795410156,3.618752084127287,-8.083808712842988,-8.414663919588415,3.7147708055449695,9.150807450457316,-5.453714510289634,35.083119462176064,52.88100824123475,-4.552701624428353,-2.908874198717946,4.192304754273503,-2.479849664224669,0.0145298411524369,-4.032537774725275,-27.33671346682164,28.044658100458264,32.789019678317906,35.13723904513733,1577399315.0,-27.69316707835532,-51.12111696465467,6.429316
30964,1577399315.04,2.500568448545874,-2.891816036912872,11.693748069502666,4.564983428806212,-2.9361671627882053,4.983910324171112,-4.390265102777248,-21.818651704816123,18.44971799316406,0.7195821622522862,-8.785713009717988,-6.705679544588414,4.782886039919969,-7.847483565167683,-0.7540074790396342,13.873402665301068,26.42226800685976,0.1775229849466463,-3.085169604700852,4.192304754273503,-2.9307314213564246,-9.230503971189066,-1.649674544205794,-21.87940650095097,28.21238805523108,33.17240243208434,35.28100757779974,1577399315.0,-27.69316707835532,-51.12111696465467,6.429316
30965,1577399315.05,2.456275717832984,0.7725096039562681,6.254121897627667,0.2673914488257433,1.7516796877977323,9.689713687208222,-0.2698440456483439,-5.006567647198933,14.64533155517578,21.807228646627287,0.6137010527820121,-5.484976419588414,1.1360354539824693,14.521901200457318,-6.369241854039634,2.780263016863568,-8.764499571265244,-17.91940084317835,-3.085169604700852,5.21481810897436,-3.531907097532104,-8.716890981614538,-3.940889188936064,-23.42810172099535,28.044658100458264,33.05259532153234,35.20912331146853,1577399315.0,-27.69316707835532,-51.12111696465467,6.429316
30966,1577399315.06,1.591968918516577,-2.802033474657012,10.862960093428448,6.284020220798399,-3.371911864936642,11.433889596632053,0.0940746066954075,17.0129050212581,9.047688073730468,-7.245505728372714,-4.238593869092988,-5.729117044588414,7.865161430544969,-1.8660382526676829,-4.416116854039634,13.446156571551068,-1.806491758765244,6.311556188071647,-2.908874198717946,4.601310096153845,-3.381613178488186,-1.2181413338264289,-2.1995660589410586,-1.0826421174978862,28.044658100458264,32.88486536675951,35.233084733578934,1577399315.0,-27.69316707835532,-51.12111696465467,6.429316
30967,1577399315.07,1.7882934546493894,0.7198371674328307,7.17828373844798,1.0598721983374615,2.314317077934451,22.078510177686734,-5.74298904076553,-15.945675032452838,7.915230688476562,22.600685677877287,19.32097644340701,-0.8463045445884145,2.585620414919969,-8.396799971417684,-3.9888707602896334,2.337758134051067,12.964016053734756,0.9099448599466464,-3.966646634615387,4.192304754273503,-4.2833766927516965,-2.656257704635109,-0.916485857892108,-21.58441693522824,28.092580944679067,32.789019678317906,35.08931620091653,1577399315.0,-27.69316707835532,-51.12111696465467,6.429316
30968,1577399315.08,3.4953592383407965,0.1320606598644718,8.173074528242902,4.60448775619879,-0.790962475288205,4.65949599921994,4.665802676763766,-6.63582187693526,3.1783027038574216,13.506447396627289,-0.0271680878429878,-6.141104349275914,4.477710258669968,14.903370927019818,-8.322366854039634,9.372059891863568,36.78298578029725,-12.731412561928352,-3.790351228632481,3.9878020833333303,-2.4798496642246723,-3.2725932921245406,-2.5661604020979016,-22.61688041525782,28.044658100458264,33.07655674364274,35.18516188935813,1577399315.0,-27.69316707835532,-51.12111696465467,6.429316
30969,1577399315.09,3.5767620947861087,-4.655145559617949,6.685078196455792,2.343164288181211,-5.002363195503049,7.99821021430783,2.483487863531345,4.491230338640911,2.437297290039062,10.973488412252289,4.947197146532012,-6.736197122713414,-0.6797604444550305,-9.190257002667684,-1.5169469321646345,22.540394852801068,56.90932855373475,-12.487271936928352,-3.790351228632481,4.805812767094015,-1.7283800690050757,-3.2725932921245406,-3.299349088411588,-22.91186998098056,28.044658100458264,32.83694252253871,35.32893042202055,1577399315.0,-27.69316707835532,-51.12111696465467,6.429316
30970,1577399315.1,2.753156723692359,-0.8483649199695119,8.868590110518292,0.8108752256812116,2.860195056450076,16.782536105421116,2.449969040289157,-2.413647249249714,5.003881469726562,11.583839974752289,-3.384101681592988,-6.553091653963414,8.841723930544969,6.831471512957317,-7.467874666539634,27.606312821551068,76.56264886623475,-10.198453577553352,-3.43776041666667,2.7607860576923056,-3.531907097532104,-1.629031725486053,-4.032537774725275,-19.37199519230769,28.044658100458264,32.88486536675951,35.13723904513733,1577399315.0,-27.69316707835532,-51.12111696465467,6.429316
30971,1577399315.11,1.5704211035751707,-0.0367305571765433,9.462352122237045,2.019947064060118,-0.8891247433546107,2.6136506806164244,-4.608137453851467,-16.809981831769242,12.70363400878906,0.4754415372522865,1.315605349657012,-5.271353372713414,1.3954348680449695,13.484303544207316,-4.446634432164634,15.918080399676068,68.04824456935975,-21.154264124428355,-2.908874198717946,4.192304754273503,-3.381613178488186,-2.2453673129754868,-3.849240603146853,-22.76437519811919,28.092580944679067,33.12447958786354,35.233084733578934,1577399315.0,-27.69316707835532,-51.12111696465467,6.429316
30972,1577399315.12,3.680909867002905,-2.2334105803699025,10.288351694990949,4.2692995237769145,-2.949335271919064,5.2472725067883,4.0385218418028295,11.209360197039349,14.712369201660156,-6.726706900247712,0.751030154344512,-7.972159036775915,2.890796196169969,13.636891434832316,-6.231912752477134,15.765492509051068,24.408107850609756,-13.509610804115855,-2.908874198717946,4.805812767094016,-2.479849664224666,-3.169870694209636,-2.6578089878871123,-22.54313302382713,28.164465211010278,33.00467247731153,35.18516188935813,1577399315.0,-27.69316707835532,-51.12111696465467,6.429316
30973,1577399315.13,2.298258408262671,-5.859428994676543,10.183006821944073,3.4085840269507424,-5.035882018745236,9.832168685987522,-4.090989895257717,-10.953764571027056,13.426682910156249,-2.2406229158727133,24.32585925590701,-4.569449075838414,-2.4802975538300305,9.639088700457316,-5.362161775914634,-0.9581403034489328,-5.071872618140244,1.7339194693216462,-2.556283386752135,4.192304754273503,-2.780437502312504,-3.067148096294731,-2.3828632305194803,-20.40445867233728,28.284272321562284,33.12447958786354,35.47269895468296,1577399315.0,-27.69316707835532,-51.12111696465467,6.429316
30974,1577399315.14,1.8960325293564209,-1.1117271025866995,13.448697886397198,-0.0318837586937874,1.0406017947313255,14.40509385688596,3.505811972418064,-6.689691414288776,8.20971749267578,-3.5223611971227133,9.738456912157012,-7.102408060213414,0.0831790086699695,5.610768387957317,-3.2869664634146343,-11.883433272198932,-14.166110899390244,-7.634977015053353,-4.3192374465811945,4.601310096153845,-3.381613178488186,-9.8468395586785,-1.099783029470529,-20.55195345519865,28.23634947734148,32.789019678317906,35.233084733578934,1577399315.0,-27.69316707835532,-51.12111696465467,6.429316
30975,1577399315.15,1.4064182898544677,-1.6743644927234185,10.495450138594464,6.298385430759336,-1.5211939816358606,7.320651144483612,2.03337795142197,10.498282303972942,4.855440966796874,3.4203878263147875,10.25725574028201,-6.369986185213415,-3.609447944455032,25.72185237233232,-9.451517244664634,11.340443680926068,-8.215183165015244,-3.606656702553354,-3.966646634615387,4.601310096153845,-2.930731421356424,-8.203277992040011,-3.299349088411588,-22.91186998098056,28.18842663312068,33.02863389942193,35.13723904513733,1577399315.0,-27.69316707835532,-51.12111696465467,6.429316
30976,1577399315.16,1.084398166563452,1.4165498505382994,8.526219273115949,1.29091265854254,1.1758741885301545,11.800202450635956,1.2229406894590793,-10.812506673077838,11.033678350830078,-0.0433572908727134,11.661064334032012,-8.811392435213415,-4.677563178830031,7.945363114519816,-5.346902986852134,-2.2703961628239324,-16.973728086890244,-7.0856606088033525,-3.43776041666667,3.987802083333333,-3.231319259444269,-9.230503971189066,-3.1160519168331664,-22.76437519811919,28.044658100458264,33.10051816575314,35.424776110462155,1577399315.0,-27.69316707835532,-51.12111696465467,6.429316
30977,1577399315.17,1.7475920264267333,1.383031027296112,11.562066978194071,3.8682707457007424,-1.1979767575147668,10.373258261182832,5.258367587652439,2.796135563250286,2.664746447753906,13.201271615377289,1.071464724657012,-8.841910013338415,-1.1985592725800305,26.14909846608232,-9.420999666539634,-6.848032881573933,-5.743259336890244,-14.318326624428352,-3.43776041666667,3.987802083333333,-3.231319259444269,-16.421085825232456,1.832971715784216,-22.32189084953508,28.044658100458264,32.789019678317906,35.08931620091653,1577399315.0,-27.69316707835532,-51.12111696465467,6.429316
30978,1577399315.18,2.3533250464462645,-4.703029592821074,3.740210154463605,5.74053644394293,-4.4349374020460175,6.554506613233612,9.575113180914157,13.297104044695596,-0.7948749511718749,6.395851693502286,11.264335818407012,-6.034292825838414,-4.189281928830031,9.944264481707316,-6.064066072789634,13.476674149676068,21.14272699123476,-2.233365686928354,-3.43776041666667,3.987802083333333,-3.231319259444269,-16.010195433572836,2.566160402097902,-3.737548209002536,28.092580944679067,32.88486536675951,35.32893042202055,1577399315.0,-27.69316707835532,-51.12111696465467,6.429316
30979,1577399315.19,1.659006565000952,0.5019648163586125,10.607977616621808,5.158745440524961,-0.996863818061642,11.587118502882053,-3.832416115960842,-8.054386360577839,13.318943835449218,6.258522591939787,1.117241091844512,-9.116568216463415,-3.0906491163300305,2.986256669207317,-4.355081697789634,4.687611649676067,18.12148675685976,-2.965787561928354,-3.5259081196581192,3.6810480769230742,-2.855584461834466,-16.421085825232456,-4.032537774725275,-2.852579511834319,28.04465810045826,33.02863389942193,35.28100757779974,1577399315.0,-27.69316707835532,-51.12111696465467,6.429316
30980,1577399315.2,1.9798295874618892,-4.224189260789824,10.975487571455792,2.4963931944312114,0.1044689456102321,12.66690345161252,-1.3532202968690443,-1.6534882221501044,11.62504616088867,-8.710349478372713,-5.428779415967988,-10.032095560213415,-0.5119137647675307,14.781300614519818,-8.490213533727134,1.8494768840510671,2.404934022484756,-8.718351038490852,-2.556283386752135,3.3742940705128173,-3.0810253404003385,-13.33940788778529,-1.4663773726273726,-1.0826421174978862,28.044658100458264,33.00467247731153,35.28100757779974,1577399315.0,-27.69316707835532,-51.12111696465467,6.429316
30981,1577399315.21,0.6271056494736083,-6.338269326707794,12.558054868819072,4.883412249606993,-6.429307384956173,14.069905624464084,7.439485300054781,-0.4887091144840889,15.037980627441405,-13.471091665872711,18.25286120903201,-7.377066263338414,9.818286430544967,0.4838152629573171,-4.873880525914634,-0.4698590534489328,-14.105075743140244,-5.132535608803353,-2.908874198717946,3.3742940705128173,-2.780437502312504,-12.928517496125668,-2.0162688873626373,0.8347900596999165,28.044658100458264,32.88486536675951,35.32893042202055,1577399315.0,-27.69316707835532,-51.12111696465467,6.429316
30982,1577399315.22,-0.3976126610732657,-0.2426318999499808,10.585232700850325,0.0495190977515241,1.9120911990282008,17.71866895454221,0.0078833469297825,-7.254723006085651,18.66040773925781,-6.635154165872714,14.773857302782012,-5.820669778963414,-6.111889350705031,3.657643387957317,-7.864603182164634,-12.493784834698932,-31.866306211890244,-12.121060999428352,-2.908874198717946,3.3742940705128173,-2.780437502312504,-3.2725932921245406,-4.032537774725275,0.6872952768385466,28.284272321562284,32.98071105520113,35.13723904513733,1577399315.0,-27.69316707835532,-51.12111696465467,6.429316
30983,1577399315.23,-0.061227327821313,-0.4018463103503719,9.52699556706126,1.3974546324194927,-0.9274319699171109,17.005196859815644,7.405966476812594,7.349907120867473,7.831433630371094,2.657448373189786,3.772270388719512,-8.078970560213415,-1.7173581007050305,10.402028153582316,-9.085306307164634,0.2320452434260671,-46.11801519626525,-14.226773890053352,-3.4377604166666664,3.78329941239316,-3.081025340400345,-3.2725932921245406,-3.299349088411588,0.6872952768385466,28.116542366789467,33.02863389942193,35.32893042202055,1577399315.0,-27.69316707835532,-51.12111696465467,6.429316
30984,1577399315.24,-0.7208298851943594,-2.677534988328887,9.52699556706126,3.104520416110899,-4.299665008247189,6.834628207471893,1.9040910617735325,2.511225565691692,4.205415216064453,-1.2335428377477131,6.167900271532012,-7.987417825838414,-0.1914791944550304,7.136647294207316,-8.398660799352134,-6.573374678448932,-34.39926519626525,4.388948766196647,-4.142942040598289,4.396807425213674,-3.231319259444269,-3.2725932921245406,-3.299349088411588,0.6872952768385466,27.94881241201665,33.00467247731153,35.424776110462155,1577399315.0,-27.69316707835532,-51.12111696465467,6.429316
30985,1577399315.25,1.5201428687118894,-6.000686892625763,9.507841953780012,1.4429444639624611,-3.3144510250928927,8.852940206983613,2.332653158941501,-9.079104671124714,4.328716601562499,-18.99477330649772,-10.128486447217988,-12.534536966463415,-0.7407956007050305,-6.077464033917683,-6.857523104039634,-7.336314131573933,-13.891452696265244,4.114290563071647,-2.7325787927350405,6.0328287927350415,-2.630143583268586,-3.2725932921245406,-3.299349088411588,0.6872952768385466,28.044658100458264,33.17240243208434,34.993470512474914,1577399315.0,-27.69316707835532,-51.12111696465467,6.429316
30986,1577399315.26,0.7851229590439208,-0.2761507231921683,9.555725986983136,-0.939286187893006,4.923996887504763,11.443466403272678,-4.735030141839748,-13.419792280987997,3.134009973144531,13.262306771627289,0.949394412157012,-7.407583841463414,-2.7549557569550305,3.810231278582317,-7.773050447789634,-3.277476240948933,12.902980897484756,-10.045865686928352,-2.7325787927350405,6.0328287927350415,-2.630143583268586,-3.2725932921245406,-3.665943431568431,-26.451744769653423,28.044658100458264,32.98071105520113,35.233084733578934,1577399315.0,-27.69316707835532,-51.12111696465467,6.429316
30987,1577399315.27,1.868499210264624,1.6835033356457212,9.736488212324932,3.305633355564024,-1.1201652035596896,7.344593161085176,1.416871023931736,0.0200587382991142,9.55645592651367,9.691750131002289,-10.906684689405488,-9.192862161775915,-0.6492428663300305,11.180226395769816,-9.543069979039634,2.063099930926067,10.690456483422256,-20.208219202553355,-3.085169604700855,2.9652887286324763,-2.479849664224666,-6.867884219146239,22.820497861513488,-27.410460858252325,28.21238805523108,32.86090394464912,35.065354778806125,1577399315.0,-27.69316707835532,-51.12111696465467,6.429316
30988,1577399315.28,2.528101767637672,-3.699859097215605,10.60678051579173,0.8348172422827741,-2.5291528805616426,14.749858895948458,-0.9737393337342788,-1.5517346515934638,12.253524096679689,5.877052865377286,5.374443240282012,-7.804312357088414,-1.6563229444550305,-7.176096846417683,-3.9583531821646334,0.0794573528010671,-5.041355040015244,-8.947232874428353,-3.085169604700852,3.5787967414529875,-2.630143583268586,-14.777524258593967,-3.665943431568431,-27.33671346682164,27.94881241201665,32.83694252253871,35.32893042202055,1577399315.0,-27.69316707835532,-51.12111696465467,6.429316
30989,1577399315.29,0.1769957373642333,-2.459662637254668,12.100762351729228,4.126844524997617,-2.7374484249952364,15.870345272901584,1.5018651828672822,-7.10867670481612,18.56703387451172,-5.444968618997714,20.57219714653201,-7.865347513338414,3.287524711794969,9.944264481707316,-12.747415682164634,-29.64466374094893,-19.537204649390244,-15.935758265053352,-2.203692574786324,2.9652887286324763,-2.780437502312504,-14.777524258593967,-3.665943431568431,-27.33671346682164,28.14050378889987,32.88486536675951,35.47269895468296,1577399315.0,-27.69316707835532,-51.12111696465467,6.429316
30990,1577399315.3,0.3086768286728271,-5.864217397996856,13.228431333662822,4.806797796481993,-7.317556200874143,12.159332699659396,4.0947855808165015,13.064866483660442,14.834473486328124,-14.478171743997711,9.707939334032012,-9.665884622713415,-3.1516842725800305,6.099049637957317,-9.543069979039634,-5.352671553448933,-17.645114805640244,-4.003385218178353,-2.203692574786324,2.9652887286324763,-2.780437502312504,-14.777524258593967,-4.032537774725275,-4.032537774725275,28.092580944679067,32.98071105520113,35.32893042202055,1577399315.0,-27.69316707835532,-51.12111696465467,6.429316
30991,1577399315.31,0.1470682166122806,0.6073096894054875,12.240823148848367,-1.8694335328637104,4.915617181694216,13.920268020704318,0.001897842779392,-3.6167335834782297,12.415132708740234,-3.140891470560212,-1.827705197217988,-8.704580911775915,-3.701000678830031,0.3922625285823171,-8.612283846227134,-6.481821944073932,-30.233615782202747,5.701204625571647,-2.2918402777777764,3.272042735042734,-2.404702704702707,-5.121600054592843,9.16485857892108,-1.6726212489433638,28.092580944679067,33.07655674364273,35.065354778806125,1577399315.0,-27.69316707835532,-51.12111696465467,6.429316
30992,1577399315.32,-0.8956066063857656,3.688647226026581,11.983446470381573,0.9042490904273052,-0.8412407101514857,6.956732492139862,-1.2658319362733417,-14.561826472882526,8.068459594726562,8.257423959127287,-12.905586056592988,-10.398306497713415,3.531665336794969,9.364430497332316,-10.824808260289634,-19.94007389719893,-33.27011480564025,-11.541227015053352,-3.43776041666667,3.987802083333333,-3.231319259444269,-2.861702900464919,24.19522664835165,-25.271786506762464,28.23634947734148,32.88486536675951,35.08931620091653,1577399315.0,-27.69316707835532,-51.12111696465467,6.429316
