,timestamp,acc_x_dashboard,acc_y_dashboard,acc_z_dashboard,acc_x_above_suspension,acc_y_above_suspension,acc_z_above_suspension,acc_x_below_suspension,acc_y_below_suspension,acc_z_below_suspension,gyro_x_dashboard,gyro_y_dashboard,gyro_z_dashboard,gyro_x_above_suspension,gyro_y_above_suspension,gyro_z_above_suspension,gyro_x_below_suspension,gyro_y_below_suspension,gyro_z_below_suspension,mag_x_dashboard,mag_y_dashboard,mag_z_dashboard,mag_x_above_suspension,mag_y_above_suspension,mag_z_above_suspension,temp_dashboard,temp_above_suspension,temp_below_suspension,timestamp_gps,latitude,longitude,speed
69888,1577399704.28,0.1482653174423583,0.0470665009289244,10.27398648503001,0.4457594725073834,0.3438891116258575,10.585145108106662,-0.1178122402284201,0.8688032268245048,10.16338604736328,3.4661641935022867,2.2616502715320124,0.0081876429115854,2.051562797732469,3.398243973894817,0.6345423256478658,5.038563798113567,3.366237733422256,-1.1347328744283538,-17.71768830128205,-24.029063835470083,2.028967907092904,12.854854580515635,-50.131776426698295,-20.478206063767963,27.038278371821367,34.17878216072124,37.67714978883997,1577399704.0,-27.688920098795005,-51.11746739507652,15.308167
69889,1577399704.29,0.7180853125595458,0.415773556592987,10.532560264326886,0.6767999327124616,0.0589791140672633,10.82336817329221,2.150693832769626,2.28856481129716,8.853757739257812,0.4144063810022865,-0.942695431592988,-0.0528475133384145,-0.2830319288300305,4.206959794207317,0.6803186928353658,0.2930803996760671,1.0316430068597562,0.8794272818216463,-17.893983707264955,-23.006550480769228,1.8786739880489869,10.69768002430262,-48.02385895354645,-4.032537774725275,26.990355527600563,34.17878216072124,37.58130410039836,1577399704.0,-27.688920098795005,-51.11746739507652,15.308167
69890,1577399704.3,0.6797780859970458,0.5235126313000182,10.240467661787823,0.1692291807593365,0.7700570071336695,9.59993112495236,-0.6744641262147477,-0.9627610431950264,9.375693701171874,3.5577169278772867,4.001152224657012,-0.1444002477134145,2.982348930544969,1.4908953410823171,1.0770472084603655,2.734486649676067,5.395656678734756,1.7949546255716462,-16.48362045940171,-22.188539797008545,2.4798496642246564,9.875899240983376,-43.25813249250749,-0.4926629860524088,27.038278371821367,34.08293647227963,37.725072633060776,1577399704.0,-27.688920098795005,-51.11746739507652,15.308167
69891,1577399704.31,0.5492940955185301,-0.0044088347644344,8.894926328780011,1.2394373228491802,-0.4916872677686731,9.56401810005002,0.4579932590391574,-1.84143305247237,8.63827958984375,2.4743429044397867,4.611503787157012,0.0234464319740854,2.738208305544969,5.183522294207317,-0.1436559165396341,1.9105120403010671,1.0926781631097562,-0.8295570931783537,-17.629540598290596,-23.313304487179487,1.8035270285270248,9.875899240983376,-50.59001935564436,-2.852579511834319,26.990355527600563,34.08293647227963,37.725072633060776,1577399704.0,-27.688920098795005,-51.11746739507652,15.308167
69892,1577399704.32,-0.0312998070693594,0.6671647309093931,10.185401023604228,-0.3227792604027723,0.4995122195360132,8.676966384962128,0.2269527988340798,0.4139049113948167,8.445546356201172,3.4356466153772867,3.970634646532013,-0.0528475133384145,1.1360354539824695,3.764454911394817,0.7260950600228656,5.999867509051068,5.624538514672256,-1.1652504525533538,-18.070279113247864,-23.2110531517094,2.028967907092904,11.724906003451672,-50.773316527222775,-3.5900534261411665,26.990355527600563,34.22670500494205,37.53338125617756,1577399704.0,-27.688920098795005,-51.11746739507652,15.308167
69893,1577399704.33,0.6821722876572021,1.2441673310070491,9.627552036787824,0.4876580015601178,0.8179410403367945,9.018140121534394,-0.6984061428163102,0.08589928395341,9.313444458007812,4.320656381002286,1.376640505907012,-0.6021639195884145,2.463550102419969,2.803151200457317,-0.4793492759146341,4.718129227801067,9.271389100609756,-2.477506311928354,-17.188802083333332,-23.006550480769228,2.4798496642246564,11.724906003451672,-50.04012784090909,-3.8850429918639056,26.84658699493815,34.22670500494204,37.62922694461916,1577399704.0,-27.688920098795005,-51.11746739507652,15.308167
69894,1577399704.34,1.1586184180282957,-0.197142068407012,9.16307691471751,1.7589790831030865,-0.6281567623975794,8.532117184522674,1.0302074558165013,2.6788196819026298,10.651803186035156,4.076515756002286,2.5668260527820124,-0.5106111852134145,1.7311282274199695,6.007496903582317,1.2296350990853655,8.960072587176068,5.761867616234756,-0.2192055306783537,-18.070279113247864,-22.80204780982906,1.127204392829393,9.875899240983376,-50.9566136988012,-3.737548209002536,26.990355527600563,34.08293647227963,37.62922694461916,1577399704.0,-27.688920098795005,-51.11746739507652,15.308167
69895,1577399704.35,0.6869606909775146,0.2182519196300963,9.797540354658915,-0.1049069093285535,0.6455585208055445,10.308614816358617,-1.16527546654678,0.3133484416682537,9.85812533569336,2.1691671231897867,5.511772341844512,-0.4800936070884145,0.8613772508574693,5.153004716082317,0.7108362709603656,2.536122391863567,7.318264100609756,-0.0971352181783536,-17.10065438034188,-22.699796474358976,3.306466218966215,9.875899240983376,-50.59001935564436,-3.737548209002536,26.870548417048557,34.058975050169224,37.55734267828796,1577399704.0,-27.688920098795005,-51.11746739507652,15.308167
69896,1577399704.36,0.4403579199814208,0.8108168305187681,11.152658494307357,0.8515766539038678,0.4635991946336695,9.8058324677258,0.1108340183165012,-0.641938020734089,9.042899670410156,3.832375131002287,2.8414842559070124,-0.2359529820884145,0.9376711961699696,7.746998856707317,0.0394495522103658,5.358998368426067,8.813625428734756,1.6118491568216462,-17.365097489316238,-22.39304246794872,2.930731421356415,13.9848031575796,-50.9566136988012,-1.6726212489433638,26.89450983915896,34.27462784916285,37.38961272351514,1577399704.0,-27.688920098795005,-51.11746739507652,15.308167
69897,1577399704.37,0.9670822852157958,1.174735482862518,10.240467661787823,0.8012984190405866,0.9161033084032008,9.121090792921112,1.7149491306211886,-2.935583211163776,10.283096130371094,3.954445443502287,2.4752733184070124,-0.6021639195884145,1.7006106492949695,5.275075028582317,0.4666956459603658,1.5137835246760671,7.440334413109756,-1.3788734994283538,-15.95473424145299,-21.98403712606837,2.63014358326858,11.930351199281484,-50.9566136988012,-1.0826421174978862,26.559049929613323,34.17878216072124,37.58130410039836,1577399704.0,-27.688920098795005,-51.11746739507652,15.308167
69898,1577399704.38,1.3381835425400146,-0.0654609770984183,9.953163462569073,1.4429444639624611,0.0158834841844508,9.104331381300018,2.890502145757908,2.2789880046565347,9.847351428222655,1.0552755216272869,6.198417849657012,-0.0528475133384145,0.2052493211699695,7.502858231707317,1.4127405678353655,7.464711259051067,1.977687928734756,-2.050260218178354,-19.128051549145297,-25.256079861111107,1.7283800690050692,10.69768002430262,-50.9566136988012,-1.0826421174978862,26.89450983915896,34.08293647227963,37.58130410039836,1577399704.0,-27.688920098795005,-51.11746739507652,15.308167
69899,1577399704.39,-0.0660157311416255,0.5881560761242369,9.164274015547589,0.2733769529761335,0.5581701602098413,9.751962930372285,-0.1321774501893571,-0.2241498310368233,9.222464794921876,2.6116720060022867,10.760795779344512,0.2523282679115854,1.2123293992949695,5.671803544207317,0.3598841225228658,2.841298173113567,3.686672303734756,-1.2415443978658536,-17.10065438034188,-23.72230982905983,2.554996623746618,12.238518993026204,-50.86496511301199,-20.183216498045223,26.84658699493815,34.130859316500434,37.58130410039836,1577399704.0,-27.688920098795005,-51.11746739507652,15.308167
69900,1577399704.4,0.3900796851181395,0.0494607025890807,7.987523899580792,0.7366549742163678,0.3486775149461695,9.662180368116424,0.6567119968321262,1.19680885426591,10.637437976074215,0.8111348966272866,0.918876834032012,-0.3275057164634145,-0.0083737257050304,8.265797684832316,0.0699671303353658,2.307240555926067,1.2452660537347562,-0.5548988900533537,-16.3073250534188,-22.80204780982906,2.63014358326858,10.286789632642996,-50.9566136988012,-3.737548209002536,26.84658699493815,34.22670500494204,37.43753556773595,1577399704.0,-27.688920098795005,-51.11746739507652,15.308167
69901,1577399704.41,0.1099580908798583,0.9329211151867368,9.548543382002668,-0.8770369447289437,0.7197787722703882,10.849704391553928,-0.2028063991639664,-0.718552473859089,11.640608471679688,4.778420052877286,2.2006151152820124,-1.1819979039634143,0.0831790086699695,3.749196122332317,1.2601526772103655,0.3846331340510671,3.930812928734756,1.1235679068216462,-16.83621127136752,-23.82456116452991,3.0810253404003385,12.341241590941108,-42.15834946303696,-3.737548209002536,26.84658699493815,33.84332225117561,37.725072633060776,1577399704.0,-27.688920098795005,-51.11746739507652,15.308167
69902,1577399704.42,0.2356536780380614,0.2912750702648624,11.559672776533915,1.0574779966773054,-0.2738149166944544,11.970190768507052,0.6088279636290012,-0.6347554157536203,10.158597644042969,-0.2569803377477132,4.855644412157012,-0.4343172399009145,2.036304008669969,6.648366044207317,-0.0215856040396341,0.5677386028010671,0.4518090224847561,-0.0971352181783536,-17.893983707264958,-22.39304246794872,2.4798496642246595,10.69768002430262,-40.69197209040959,-3.147569077557058,27.014316949710967,34.08293647227963,37.58130410039836,1577399704.0,-27.688920098795005,-51.11746739507652,15.308167
69903,1577399704.43,-0.5292937523818594,0.2721214569836119,11.363348240401104,-0.5825501405297249,0.0075037783739044,9.893220828321503,-0.4027222377870139,0.995695914812785,12.241553088378906,0.6890645841272866,5.618583865282012,-0.1138826695884145,0.2052493211699695,3.825490067644817,0.6192835365853658,1.2696428996760671,-2.187961485327744,-0.2649818978658536,-17.188802083333332,-22.59754513888889,3.38161317848818,10.389512230557903,-47.5656160246004,-2.926326903265004,26.84658699493815,33.963129361727624,37.653188366729566,1577399704.0,-27.688920098795005,-51.11746739507652,15.308167
69904,1577399704.44,-0.1270678734756094,1.0071413666515807,9.816693967940166,-0.4293212342797249,0.9903235598680444,11.230382455518772,0.5609439304258762,0.4402411296565349,11.200075366210935,3.2830587247522867,7.236015505907012,-0.2054354039634145,1.4564700242949695,4.878346512957317,0.1920374428353658,-2.697642256573933,-10.229343321265244,-0.1276527963033537,-17.188802083333332,-22.59754513888889,3.38161317848818,9.875899240983376,-50.9566136988012,-4.032537774725275,26.990355527600563,33.939167939617214,37.62922694461916,1577399704.0,-27.688920098795005,-51.11746739507652,15.308167
69905,1577399704.45,0.595981027891577,0.6695589325695493,9.22772035954173,0.2195074156226178,0.4133209597703882,10.100319271925022,0.8123351047422825,1.2111740642268474,10.036493359375,4.564797006002286,3.3908006621570124,0.0997403772865854,-0.5576901319550305,6.404225419207317,0.7413538490853658,-1.2938336628239329,-8.245700743140244,1.7034018911966462,-17.71768830128205,-23.62005849358974,2.930731421356415,9.875899240983376,-50.22342501248751,-3.4425586432797965,26.990355527600563,34.27462784916285,37.43753556773595,1577399704.0,-27.688920098795005,-51.11746739507652,15.308167
69906,1577399704.46,-0.1043229577041255,0.4804170014172056,9.738882413985088,0.8898838804663678,0.1284109622117945,10.49057414253049,-0.322516482171779,-0.574900374249714,9.265560424804686,1.5740743497522869,5.374443240282012,0.1912931116615854,-0.9849362257050304,6.099049637957317,0.0089319740853658,-5.535777022198933,-11.266940977515244,1.3371909536966462,-18.334722222222226,-23.722309829059828,2.404702704702704,9.875899240983376,-50.22342501248751,1.867253539729502,26.870548417048557,34.17878216072124,37.58130410039836,1577399704.0,-27.688920098795005,-51.11746739507652,15.308167
69907,1577399704.47,-0.3138156029677969,0.2098722138195494,9.768809934737044,-0.449671948391053,0.6180252017137476,10.4187480927258,-0.2411136257264669,1.7414897319514568,11.188104357910156,-0.9894022127477134,2.2006151152820124,-0.0833650914634145,-0.2219967725800304,4.191701005144817,0.6955774818978656,-2.972300459698933,-15.005344297827744,2.710481969321646,-17.893983707264955,-23.82456116452991,3.0810253404003385,11.930351199281484,-47.29067026723277,-2.852579511834319,26.89450983915896,34.10689789439003,37.58130410039836,1577399704.0,-27.688920098795005,-51.11746739507652,15.308167
69908,1577399704.48,-0.6466096337295156,0.9712283417492368,10.482282029463605,-0.6160689637719123,0.5952802859422632,10.775484140089084,-1.8404403347108411,-0.2636541584294015,10.369287390136718,1.0247579435022869,2.8720018340320124,-0.2054354039634145,1.4564700242949695,0.9720965129573172,0.8023890053353658,-8.068736006573932,-21.764987852515244,4.144808141196647,-17.893983707264955,-23.82456116452991,3.0810253404003385,12.341241590941108,-44.35791552197802,-2.852579511834319,27.038278371821367,33.939167939617214,37.772995477281576,1577399704.0,-27.688920098795005,-51.11746739507652,15.308167
69909,1577399704.49,-0.5173227440810781,0.8275762421398619,10.76000942204173,-0.1204692201195686,-0.5204176876905482,9.631055746534392,0.2281498996641575,-1.5373694416325263,10.357316381835936,1.7266622403772869,2.9330369902820124,-0.0528475133384145,0.6324954149199695,4.420582841082317,0.5582483803353658,-3.185923506573933,-21.826023008765244,2.496858922446646,-17.893983707264955,-23.82456116452991,3.0810253404003385,13.163022374260352,-50.9566136988012,-4.032537774725275,26.990355527600563,34.03501362805883,37.58130410039836,1577399704.0,-27.688920098795005,-51.11746739507652,15.308167
69910,1577399704.5,-0.5101401391006094,-0.1073595061511526,10.098012663008523,-1.1595527406273811,0.0051095767137481,11.054408633497289,-0.0866876186463888,-0.7209466755192456,10.235212097167969,1.6198507169397869,3.5281297637195124,0.3438810022865854,0.7393069383574695,1.8418474895198167,0.9397181068978656,-3.231699873761433,-13.983005430640244,1.3829673208841462,-17.541392895299143,-23.824561164529914,3.38161317848818,9.97862183889828,-49.39858774038461,-39.35753827002325,26.94243268337976,34.22670500494205,37.67714978883997,1577399704.0,-27.688920098795005,-51.11746739507652,15.308167
69911,1577399704.51,-0.4646503075576407,0.511541622999237,9.81429976628001,-0.4963588807640999,0.0230660891649195,10.995750692823458,-0.1357687526795915,-0.7257350788395578,11.434707128906249,0.5975118497522866,1.040947146532012,0.5269864710365855,0.9987063524199696,1.1857195598323171,0.2835901772103658,-7.275278975323933,-11.663669493140244,-0.8600746713033537,-17.893983707264955,-22.59754513888889,2.4798496642246564,10.081344436813186,-47.47396743881119,-37.51385348425613,27.08620121604217,34.370473537604454,37.725072633060776,1577399704.0,-27.688920098795005,-51.11746739507652,15.308167
69912,1577399704.52,-0.4646503075576407,0.4995706146984557,10.597203709151104,-0.6926834168969124,0.5019064211961695,9.60711372993283,-0.3847657253358414,1.2782117107112223,9.911994873046874,3.0084005216272867,-0.942695431592988,-0.2664705602134145,0.1442141649199695,0.6974383098323171,0.9549768959603658,3.344838212176067,-7.910007383765244,0.9404624380716464,-17.365097489316238,-21.57503178418803,2.329555745180739,10.081344436813186,-47.47396743881119,-37.80884304997887,26.89450983915896,34.27462784916285,37.58130410039836,1577399704.0,-27.688920098795005,-51.11746739507652,15.308167
69913,1577399704.53,0.3493782568954833,1.2250137177257994,10.29314009831126,0.2242958189429303,0.793999023735232,10.81618556831174,1.470740561285251,0.8352844035823161,8.815450512695312,2.6421895841272867,1.224052615282012,0.2523282679115854,0.0221438524199695,3.474537919207317,0.8023890053353658,-5.963023115948933,-4.492038633765244,1.4897788443216462,-17.012506677350427,-23.62005849358974,1.7283800690050692,10.081344436813186,-44.54121269355643,-3.8850429918639056,27.038278371821367,34.08293647227963,37.62922694461916,1577399704.0,-27.688920098795005,-51.11746739507652,15.308167
69914,1577399704.54,-0.2539605614638907,0.0303070893078307,9.677830271651104,0.7989042173804304,-0.016438238227658,10.07518015449338,0.3334947727110324,0.3995397014338792,8.82383021850586,-1.874411978372713,1.193535037157012,0.4964688929115854,0.2815432664824695,1.8571062785823167,0.2072962318978657,2.246205399676067,3.320461366234756,1.0320151724466462,-17.012506677350427,-23.62005849358974,1.7283800690050692,6.999666499366018,-47.29067026723277,-3.885042991863905,26.89450983915896,34.22670500494205,37.70111121095037,1577399704.0,-27.688920098795005,-51.11746739507652,15.308167
69915,1577399704.55,-0.1761490075088125,0.4923880097179869,9.378555064131572,-0.4867820741234749,0.468387597953982,9.25516608588986,-1.2586493312928726,-0.9148770099919016,9.60793126220703,0.9332052091272868,0.7510301543445121,0.2523282679115854,2.280444633669969,-2.476389815167683,0.5887659584603658,2.734486649676067,3.778225038109756,0.1775229849466463,-17.276949786324785,-21.268277777777776,2.7052905427905385,4.328878953578471,-44.1746183503996,-3.8850429918639056,27.134124060262977,34.17878216072124,37.58130410039836,1577399704.0,-27.688920098795005,-51.11746739507652,15.308167
69916,1577399704.56,-0.1103084618545156,0.8515182587414244,9.13913489811595,-0.3766487977562874,0.3941673464891382,9.67654557807736,-0.2267484157655289,-0.3091439899723702,12.378022583007812,1.8487325528772869,3.2382127715320124,0.1302579554115854,1.5785403367949695,-0.4622296589176829,0.3751429115853658,3.985707352801067,0.7264672256097561,-2.416471155678354,-18.070279113247864,-23.2110531517094,2.028967907092904,4.328878953578471,-44.1746183503996,-3.8850429918639056,26.798664150717343,34.27462784916285,37.58130410039836,1577399704.0,-27.688920098795005,-51.11746739507652,15.308167
69917,1577399704.57,-0.3784590477920156,0.4899938080578307,9.620369431807354,0.7701737974585553,0.5665498660203883,10.629437838819552,-1.012046560296779,2.504042960711224,10.307038146972657,2.4590841153772867,2.4142381621570124,0.1912931116615854,-0.1609616163300304,3.169362137957317,0.6192835365853658,-0.1646832721989328,-5.590671446265244,-0.3412758431783537,-19.128051549145297,-22.39304246794872,2.028967907092904,10.69768002430262,-46.557481580919074,-1.0826421174978862,26.84658699493815,34.27462784916285,37.725072633060776,1577399704.0,-27.688920098795005,-51.11746739507652,15.308167
69918,1577399704.58,-0.4897894249892813,0.4696430939465025,10.187795225264386,-0.176732959133241,-0.4270438229444545,10.719220401075413,0.9571843051817356,1.019637931414347,10.94868419189453,2.1081319669397867,0.4611131621570121,0.0997403772865854,0.1747317430449695,2.131764481707317,-0.0978795493521341,-3.155405928448933,-4.019016172827744,1.6881431021341462,-17.982131410256407,-22.495293803418804,1.9538209475709456,9.875899240983376,-46.557481580919074,0.3923057111158077,26.918471261269357,34.10689789439003,37.74903405517118,1577399704.0,-27.688920098795005,-51.11746739507652,15.308167
69919,1577399704.59,-0.8477225731826407,0.906584896925018,10.810287656905013,-0.7549326600609749,1.1531292727586695,11.13461438911252,-0.4829279934022477,-0.0912716388981514,9.37808790283203,-0.8673319002477134,-2.193916134717988,0.1912931116615854,1.8837161180449693,-3.788645674542683,1.2906702553353655,0.5372210246760671,2.008205506859756,1.2151206411966462,-18.070279113247864,-23.62005849358974,2.028967907092904,13.573912765919976,-50.9566136988012,-3.4425586432797965,26.990355527600563,34.08293647227963,37.58130410039836,1577399704.0,-27.688920098795005,-51.11746739507652,15.308167
69920,1577399704.6,-0.6370328270888906,0.8467298554211119,9.258844981123762,-0.1061040101586311,0.4516281863328882,11.022086911085175,0.5154540988829075,-0.2804135700504952,9.677363110351562,0.6585470060022866,2.3532030059070124,-0.2054354039634145,-2.0530514600800305,8.265797684832316,-1.5474645102896345,-3.613169600323933,0.970607850609756,0.2995932974466463,-16.48362045940171,-24.233566506410256,2.4798496642246564,13.573912765919976,-50.9566136988012,-1.6726212489433638,26.84658699493815,34.08293647227963,37.62922694461916,1577399704.0,-27.688920098795005,-51.11746739507652,15.308167
69921,1577399704.61,0.0046132178329833,0.530695236280487,9.304334812666731,0.221901617282774,0.439657178032107,8.079613070753144,0.7261438449766575,-0.6251786091129953,8.736441857910156,-1.813376822122713,-2.590644650342988,-0.0528475133384145,-0.1304440382050304,0.178639481707317,0.4972132240853658,1.6358538371760671,7.470851991234756,-1.2568031869283538,-18.59916533119658,-23.82456116452991,2.7804375023124974,-16.010195433572836,-48.02385895354645,-1.3776316832206257,26.89450983915896,34.08293647227963,37.62922694461916,1577399704.0,-27.688920098795005,-51.11746739507652,15.308167
69922,1577399704.62,-0.3964155602431876,0.6120980927257994,8.975132084395247,0.1273306517066027,0.506694824516482,9.66577167060666,0.5729149387266579,0.1242065105159104,10.46984385986328,0.2313009122522865,1.8801805449695124,0.5575040491615855,0.2205081102324695,-1.9423321979801829,0.1767786537728657,-0.1952008503239328,-3.576511290015244,-1.5924965463033538,-17.541392895299147,-23.82456116452991,2.930731421356418,11.724906003451675,-50.9566136988012,-37.07136913567202,26.91847126126936,34.22670500494205,37.58130410039836,1577399704.0,-27.688920098795005,-51.11746739507652,15.308167
69923,1577399704.63,-0.2012881249404532,0.2649388520031432,8.72972641422923,0.3966783384741804,-0.5371770993116419,9.52571087348752,-0.7055887477967789,0.8975336467463787,10.47702646484375,-0.3485330721227134,-1.339423947217988,-0.1444002477134145,1.3038821336699695,0.087086747332317,-0.1436559165396341,0.8729143840510671,1.1842308974847562,-1.2262856088033538,-15.95473424145299,-22.80204780982906,3.5319070975320974,11.10857041596224,-47.29067026723276,-38.25132739856297,27.038278371821367,34.03501362805883,37.725072633060776,1577399704.0,-27.688920098795005,-51.11746739507652,15.308167
69924,1577399704.64,-0.7423777001357657,0.9137675019054868,9.562908591963604,0.1189509458960553,-0.3240931515577356,10.062012045362522,0.1994194797422825,1.5128434734065348,9.344569079589844,4.168068490377286,-0.2407911347179878,0.0081876429115854,-1.9004635694550305,-0.3706769245426829,-0.8455602134146342,-0.6224469440739329,-1.3487280868902438,8.417269078696647,-17.365097489316238,-24.029063835470083,2.329555745180739,11.10857041596224,-47.29067026723276,-38.25132739856297,26.84658699493815,34.03501362805883,37.53338125617755,1577399704.0,-27.688920098795005,-51.11746739507652,15.308167
69925,1577399704.65,-0.3353634179092032,0.8347588471203307,9.83345337956126,-0.5131182923851937,0.5162716311571071,10.51691036079221,-0.4901105983827165,-1.2021812092106514,9.79946739501953,-2.7899393221227133,-4.665839962842988,-0.0223299352134145,1.1207766649199695,-4.887278487042683,0.1615198647103658,-0.7445172565739329,4.266506288109756,1.3982261099466462,-17.188802083333332,-24.6425718482906,2.179261826136821,11.519460807621863,-45.09110420829171,-2.2626003803888417,27.038278371821367,34.17878216072124,37.58130410039836,1577399704.0,-27.688920098795005,-51.11746739507652,15.308167
69926,1577399704.66,0.0058103186630619,0.4684459931164244,9.728108506514385,0.2458436338843366,0.4995122195360132,10.148203305128146,0.0294311618711892,-0.0781035297672926,9.969455712890625,-1.9049295564977131,-3.765571408155488,-0.6326814977134145,-0.8018307569550305,-0.5232648151676829,-0.9828893149771344,-0.9733990925114328,5.075222108422256,-1.0431801400533538,-17.98213141025641,-23.51780715811966,2.4047027047027005,12.135796395111296,-47.47396743881119,-3.000074294695689,27.08620121604217,34.15482073861084,37.653188366729566,1577399704.0,-27.688920098795005,-51.11746739507652,15.308167
69927,1577399704.67,-0.0169345971084219,1.0837558197765806,10.10160396549876,0.0040292662085553,0.6958367556688257,8.338186850050018,-0.6050322780702164,0.9933017131526288,9.433154541015623,-2.2406229158727133,-2.010810665967988,-0.4800936070884145,-1.9920163038300305,-0.2486066120426829,-0.1741734946646341,0.8729143840510671,5.395656678734756,-2.080777796303354,-17.893983707264955,-22.188539797008545,3.38161317848818,9.875899240983376,-46.557481580919074,-3.4425586432797965,26.89450983915896,34.03501362805883,37.725072633060776,1577399704.0,-27.688920098795005,-51.11746739507652,15.308167
69928,1577399704.68,-0.2587489647842032,0.2002954071789244,10.211737241865947,0.0327596861304303,-0.1301628170850794,9.44909642036252,-0.1285861476991227,1.620582548113566,8.152256652832031,-3.3697733064977133,-1.369941525342988,-0.2054354039634145,-2.2666745069550305,3.047291825457317,-1.4559117759146345,0.8118792278010671,1.5199242568597562,-1.5009438119283538,-16.48362045940171,-23.82456116452991,3.0810253404003385,10.69768002430262,-46.557481580919074,3.637190934065935,26.84658699493815,34.08293647227963,37.53338125617755,1577399704.0,-27.688920098795005,-51.11746739507652,15.308167
69929,1577399704.69,0.0991841834091551,0.65639082343869,9.084068259932357,0.1045857359351178,0.343889111625857,8.778719955518769,0.3598309909727512,1.2255392741877849,8.200140686035155,-0.4400858064977133,0.6594774199695121,-0.6631990758384145,-1.4121823194550305,-2.415354658917683,-0.4488316977896341,-1.2938336628239329,8.630519959984756,0.5132163443216463,-18.070279113247864,-23.62005849358974,2.329555745180739,10.69768002430262,-46.557481580919074,3.637190934065935,26.96639410549016,34.17878216072124,37.62922694461916,1577399704.0,-27.688920098795005,-51.11746739507652,15.308167
69930,1577399704.7,0.0812276709579833,0.4564749848156432,8.60762212956126,0.3547798094214464,0.6311933108446071,9.062432852247284,0.7452974582579075,0.3049687358577073,9.288305340576173,-1.7828592439977131,-0.6680372284679879,-0.9683748570884144,-1.3969235303925305,-2.125437666730183,-1.2117711509146345,-0.3172711628239328,4.449611756859756,0.1164878286966462,-18.42286992521367,-22.80204780982906,2.930731421356415,10.69768002430262,-48.02385895354645,-4.032537774725275,26.84658699493815,34.08293647227963,37.48545841195675,1577399704.0,-27.688920098795005,-51.11746739507652,15.308167
69931,1577399704.71,-0.1510098900771719,0.7988458222179868,9.0433668317097,-0.7980282899437874,0.6838657473680445,9.95427297065549,-0.561936648187404,0.287012223406535,10.340556970214845,0.4754415372522865,0.2169725371570121,-1.0904451695884143,-2.6939206007050305,-1.1336163776676829,-1.2117711509146345,-0.0426129596989328,0.116115663109756,-1.0126625619283538,-17.012506677350427,-24.029063835470083,2.028967907092904,12.546686786770922,-50.406722184065934,-2.115105597527472,27.229969748704587,34.27462784916285,37.62922694461916,1577399704.0,-27.688920098795005,-51.11746739507652,15.308167
69932,1577399704.72,-0.2156533349013907,0.0374896942882994,9.570091196944071,-0.0917388001976936,0.3702253298875758,9.765131039503142,0.52024250220322,1.4601710368830974,10.939107385253903,-5.078757681497714,-2.956855587842988,-0.6021639195884145,-2.8770260694550305,1.7045183879573171,-1.5474645102896345,-7.580454756573933,1.0011254287347562,-3.301480921303354,-17.71768830128205,-23.62005849358974,2.028967907092904,14.806583940898845,-48.02385895354645,-0.7876525517751477,26.84658699493815,34.17878216072124,37.772995477281576,1577399704.0,-27.688920098795005,-51.11746739507652,15.308167
69933,1577399704.73,-0.3245895104385,0.2134635163097838,9.944783756758524,0.1189509458960553,0.296005078422732,9.585565914991424,-0.6074264797303727,1.4553826335627849,10.733206042480468,-2.042258658060214,-2.148139767530488,-0.7242342320884144,-1.8699459913300305,-0.4011945026676829,-0.2962438071646341,-0.6224469440739329,7.165676209984756,-1.6840492806783538,-18.42286992521367,-22.80204780982906,2.63014358326858,13.163022374260352,-46.92407592407592,0.0973161453930689,26.918471261269357,34.03501362805883,37.58130410039836,1577399704.0,-27.688920098795005,-51.11746739507652,15.308167
69934,1577399704.74,-0.3138156029677969,0.6408285126476744,9.0816740582722,-0.2258140931664441,0.1403819705125758,11.114263675001194,-1.0347914760682633,-0.0481760090153389,11.488576666259766,-0.1043924471227134,0.4611131621570121,-0.5411287633384145,-2.2208981397675305,-1.6218976276676829,-1.0286656821646345,-5.917246748761432,2.084499452172256,-3.316739710365854,-18.42286992521367,-22.80204780982906,2.63014358326858,12.341241590941108,-49.49023632617383,-39.431285661453934,26.990355527600563,34.22670500494205,37.653188366729566,1577399704.0,-27.688920098795005,-51.11746739507652,15.308167
69935,1577399704.75,-0.2994503930068594,-0.1995362700671683,11.042525217940169,-0.4149560243187874,-0.9250377682569544,8.893641635206269,1.0589378757383765,3.52157866627763,10.544064111328124,-2.3016580721227133,-3.872382931592988,-0.9988924352134144,0.3883547899199695,-4.734690596417683,-1.0286656821646345,2.093617509051067,1.6725121474847562,0.4216636099466463,-18.95175614316239,-24.233566506410256,2.179261826136821,9.875899240983376,-49.85683066933067,-37.07136913567202,26.89450983915896,34.08293647227963,37.772995477281576,1577399704.0,-27.688920098795005,-51.11746739507652,15.308167
69936,1577399704.76,0.0716508643173583,0.8132110321789243,9.857395396162824,-0.1683532533226936,0.9544105349657008,10.971808676221896,-0.1094325344178727,-1.4990622150700263,10.93671318359375,1.0552755216272869,0.0338670684070121,-0.7242342320884145,-1.7173581007050305,-1.7439679401676829,-0.6624547446646342,-4.742319990948933,-2.660983946265244,-0.6464516244283537,-15.95473424145299,-25.256079861111107,2.930731421356415,11.519460807621863,-43.62472683566433,-4.032537774725275,27.038278371821367,34.08293647227963,37.58130410039836,1577399704.0,-27.688920098795005,-51.11746739507652,15.308167
69937,1577399704.77,0.3745173743271239,0.0650230133800968,9.069703049971418,0.3200638853491803,0.1930544070360137,9.929133853223847,0.3837730075743137,0.2558876018245042,10.94868419189453,-0.5774149080602133,-3.750312619092988,-0.5106111852134145,-1.0459713819550305,-2.247507979230183,-1.2575475181021345,-6.634409834698932,-8.596652891577744,-0.3107582650533537,-18.42286992521367,-23.62005849358974,2.028967907092904,9.875899240983376,-40.69197209040959,-3.4425586432797965,26.870548417048557,34.08293647227963,37.55734267828795,1577399704.0,-27.688920098795005,-51.11746739507652,15.308167
69938,1577399704.78,-0.5699951806045157,0.2074780121593932,10.307505308272198,-0.9512571961937872,0.7963932253953883,8.886459030225799,0.4555990573790012,1.1632900310237224,10.615890161132812,-2.5763162752477133,0.0643846465320121,-0.3885408727134145,-2.9990963819550305,-4.734690596417683,0.2530725990853658,-3.185923506573933,-10.137790586890244,0.2080405630716463,-18.42286992521367,-23.62005849358974,2.028967907092904,9.875899240983376,-44.35791552197802,-3.4425586432797965,26.84658699493815,34.03501362805883,37.62922694461916,1577399704.0,-27.688920098795005,-51.11746739507652,15.308167
69939,1577399704.79,-0.4694387108779532,0.3152170868664244,11.169417905928448,-0.3000343446312874,0.2720630618211695,11.527263461378146,0.3287063693907199,2.300535819597941,11.468225952148437,-4.224265493997714,-5.306709103467988,-0.2969881383384145,-2.1751217725800305,0.6364031535823171,-1.7000524009146345,-2.514536787823933,-21.093601133765244,1.3066733755716462,-16.83621127136752,-23.41555582264957,2.4798496642246564,2.890762582769793,-45.09110420829171,-4.032537774725275,26.89450983915896,34.08293647227963,37.58130410039836,1577399704.0,-27.688920098795005,-51.11746739507652,15.308167
69940,1577399704.8,-0.9339138329482656,0.4672488922863462,10.410455979658916,-0.7118370301781624,0.7341439822313257,10.741965316846896,-0.2387194240663102,1.8647911174495035,9.734823950195311,-2.2558817049352133,-3.017890744092988,-0.3732820836509145,-0.9544186475800304,-3.880198408917683,-0.6319371665396342,-6.848032881573933,-15.875095274390244,3.168245641196646,-16.924358974358974,-23.517807158119652,2.254408785658783,10.286789632642996,-48.02385895354645,3.3422013683431966,27.038278371821367,34.03501362805883,37.58130410039836,1577399704.0,-27.688920098795005,-51.11746739507652,15.308167
69941,1577399704.81,-0.4981691307998281,0.4636575897961119,8.870984312178448,-0.4245328309594124,0.1355935671922638,10.38163796699338,0.5789004428770486,-0.3366773090641671,9.872490545654296,-1.7218240877477131,-3.475654415967988,0.2828458460365854,-0.4813961866425305,-6.306345869855183,-0.7387486899771342,-5.840952803448932,-10.442966368140244,2.100130406821646,-17.012506677350427,-24.029063835470083,2.930731421356415,12.752131982600732,-48.02385895354645,-4.032537774725275,26.89450983915896,34.15482073861084,37.67714978883997,1577399704.0,-27.688920098795005,-51.11746739507652,15.308167
69942,1577399704.82,-0.8477225731826407,0.2433910370617369,9.895702622725324,-1.085332489162537,0.353465918266482,11.216017245557834,-1.471733279046779,1.3237015422541911,9.787496386718749,0.0787130216272865,-6.924140744092988,-0.2664705602134145,0.1442141649199695,-1.0115460651676829,0.1615198647103658,0.2015276653010671,1.5809594131097562,0.1164878286966463,-17.012506677350427,-24.029063835470083,2.930731421356415,12.752131982600732,-48.02385895354645,-4.032537774725275,26.990355527600563,34.22670500494204,37.725072633060776,1577399704.0,-27.688920098795005,-51.11746739507652,15.308167
69943,1577399704.83,-0.5747835839248282,0.4349271698742369,10.132728587080791,-0.5203008973656624,0.286428271782107,10.423536496046117,-0.5308120266053727,0.3803860881526287,11.295843432617186,-1.1725076814977131,-7.748115353467988,0.1302579554115854,0.1747317430449695,-3.544505049542683,-1.7305699790396345,-0.1952008503239328,-1.2876929306402438,-1.0431801400533538,-18.070279113247864,-21.98403712606837,2.930731421356415,10.081344436813186,-50.406722184065934,-2.4100951632502112,26.84658699493815,34.370473537604454,37.725072633060776,1577399704.0,-27.688920098795005,-51.11746739507652,15.308167
69944,1577399704.84,-0.2635373681045156,-0.1492580352038875,10.698957279707743,-0.9512571961937872,-0.2402960934522669,9.008563314893768,0.76923947485947,1.0148495280940348,11.46583175048828,-1.8591531893102131,-5.444038205030488,0.4659513147865854,2.524585258669969,-8.946116377667684,0.8329065834603658,-1.9652203815739329,-5.010837461890244,-0.9211098275533536,-16.395472756410257,-23.108801816239318,2.404702704702701,11.10857041596224,-50.22342501248751,-4.032537774725275,26.918471261269357,34.08293647227963,37.58130410039836,1577399704.0,-27.688920098795005,-51.11746739507652,15.308167
69945,1577399704.85,0.0094016211532958,0.5235126313000182,10.539742869307354,-0.4724168641625373,0.3678311282274195,10.148203305128144,-0.5487685390565451,0.856832218523723,8.358157995605469,-0.1349100252477134,-4.269111447217988,0.8016446741615855,0.2662844774199695,-4.841502119855183,-0.4335729087271341,0.7508440715510671,-2.584690000952744,-0.0666176400533536,-17.012506677350427,-23.2110531517094,2.028967907092904,11.10857041596224,-50.22342501248751,-41.79120218723584,26.990355527600563,34.130859316500434,37.725072633060776,1577399704.0,-27.688920098795005,-51.11746739507652,15.308167
69946,1577399704.86,0.1482653174423583,0.291275070264862,9.378555064131572,0.4517449766577741,0.2600920535203883,8.879276425245331,-0.0471832912538102,1.8647911174495035,9.504980590820312,1.0552755216272869,-3.170478634717988,0.8016446741615855,1.8226809617949693,-5.039866377667683,0.4666956459603658,8.319203446551068,-7.543796446265244,0.1470054068216463,-17.012506677350427,-23.2110531517094,2.028967907092904,9.875899240983376,-49.49023632617382,-2.852579511834319,27.18204690448378,34.08293647227963,37.341689879294336,1577399704.0,-27.688920098795005,-51.11746739507652,15.308167
69947,1577399704.87,0.5648564063095458,0.2194490204601744,7.925274656416729,-0.0534315736351936,0.7509033938524194,9.662180368116424,-0.686435134515529,1.57988111989091,7.996633544921875,1.5130391935022869,-5.154121212842988,0.7406095179115855,0.6630129930449695,-5.924876143292683,-0.6929723227896342,-3.002818037823933,0.970607850609756,0.9404624380716464,-17.893983707264955,-23.006550480769228,2.179261826136821,13.77935796174979,-40.14208057567433,-0.9351473346365172,27.038278371821367,34.08293647227963,37.53338125617755,1577399704.0,-27.688920098795005,-51.11746739507652,15.308167
69948,1577399704.88,0.6594273718857177,0.2158577179699401,9.103221873213606,0.0997973326148053,0.200237012016482,7.737242233350799,0.1826600681211887,0.210397770281535,8.786720092773438,0.4601827481897867,-7.198798947217988,0.2523282679115854,1.8837161180449693,-0.4011945026676829,-0.3572789634146341,-0.7139996784489329,8.508449647484756,1.0930503286966462,-17.188802083333332,-23.415555822649573,1.728380069005066,10.286789632642996,-43.25813249250749,-2.5575899461115803,27.014316949710967,34.08293647227963,37.9646868541648,1577399704.0,-27.688920098795005,-51.11746739507652,15.308167
69949,1577399704.89,1.3381835425400146,0.0422780976086119,8.885349522139387,0.759399889987852,0.7568888980028101,8.358537564161347,-0.6110177822206071,-0.613207600812214,9.752780462646484,3.4356466153772867,-4.116523556592988,0.2828458460365854,0.4951663133574696,-2.125437666730183,0.0394495522103658,0.7050677043635671,6.067043397484756,-1.7756020150533538,-17.71768830128205,-21.98403712606837,3.5319070975320974,11.519460807621863,-42.89153814935064,-4.032537774725275,26.990355527600563,34.10689789439003,37.70111121095037,1577399704.0,-27.688920098795005,-51.11746739507652,15.308167
69950,1577399704.9,0.212908762266577,0.2002954071789244,11.56924958317454,-0.1635648500023811,-0.7335016354444545,8.59197222602658,-0.3105454738709977,0.9573886882502848,10.651803186035156,-1.7828592439977131,-3.170478634717988,0.5575040491615855,3.409595024294969,-5.161936690167683,0.2835901772103658,-1.2633160846989329,-0.1890601181402439,-2.691129358803354,-17.71768830128205,-21.98403712606837,3.5319070975320974,9.875899240983376,-42.89153814935064,-2.852579511834319,26.89450983915896,34.17878216072124,37.341689879294336,1577399704.0,-27.688920098795005,-51.11746739507652,15.308167
69951,1577399704.91,0.844978000547827,0.7796922089367369,10.211737241865947,-0.1061040101586311,1.141158264457888,9.001380709913299,-1.1580928615663102,0.9334466716487224,9.196128576660156,2.8558126310022867,2.3532030059070124,0.5575040491615855,-0.0388913038300304,-2.049143721417683,0.0089319740853658,2.612416337176067,12.048488709984756,-1.2262856088033538,-18.24657451923077,-22.59754513888889,1.2774983118733108,13.573912765919976,-50.9566136988012,-4.032537774725275,27.08620121604217,34.370473537604454,37.58130410039836,1577399704.0,-27.688920098795005,-51.11746739507652,15.308167
69952,1577399704.92,0.6618215735458739,0.3798605316906431,8.58846851628001,0.5965941770972272,0.2624862551805445,9.040885037305875,0.5190454013731423,1.40749860035966,9.022548956298827,1.8792501310022864,-1.141059689405488,0.3743985804115854,0.1289553758574693,0.7737322551448171,0.0852259193978658,3.863637040301067,4.876857850609756,1.4897788443216462,-18.51101762820513,-23.313304487179487,2.554996623746618,10.492234828472808,-49.3069391545954,7.32456050560017,26.91847126126936,34.08293647227963,37.60526552250876,1577399704.0,-27.688920098795005,-51.11746739507652,15.308167
69953,1577399704.93,0.7252679175400145,0.4756285980968932,9.294758006026106,-0.1611706483422249,0.4947238162157008,7.289526522901581,-1.04317118187881,-1.40089994700362,8.128314636230469,1.8792501310022869,-0.2713087128429878,0.0081876429115854,3.470630180544969,-5.131419112042683,0.8939417397103658,-0.1036481159489328,14.795070741234756,1.0320151724466462,-17.365097489316238,-25.256079861111107,2.028967907092904,10.492234828472808,-49.3069391545954,7.32456050560017,26.990355527600563,34.08293647227963,37.43753556773595,1577399704.0,-27.688920098795005,-51.11746739507652,15.308167
69954,1577399704.94,0.5217607764267334,0.8203936371593931,9.799934556319077,0.2745740538062116,0.7987874270555445,9.698093393018768,-0.4733511867616227,-1.072894319562214,8.116343627929687,0.0787130216272865,-2.621162228467988,0.0997403772865854,-0.4966549757050305,-2.628977705792683,-0.0826207602896341,-6.085093428448933,16.900783631859756,-0.9211098275533536,-17.365097489316238,-25.256079861111107,2.028967907092904,10.081344436813186,-43.44142966408592,-2.70508472897295,26.990355527600563,34.27462784916285,37.53338125617755,1577399704.0,-27.688920098795005,-51.11746739507652,15.308167
69955,1577399704.95,0.9946156043075928,0.1787475922375187,8.859013303877667,-0.1468054383812874,0.5162716311571071,6.930396273878143,1.4683463596250947,-1.5804650715153388,9.083601098632812,0.4907003263147865,1.361381716844512,0.2065519007240854,-1.1680416944550305,3.779713700457317,-0.0826207602896341,6.091420243426067,15.344387147484756,-2.294400843178354,-17.012506677350427,-24.642571848290597,1.8786739880489869,15.628364724218088,-50.9566136988012,-3.737548209002536,27.08620121604217,34.08293647227963,37.58130410039836,1577399704.0,-27.688920098795005,-51.11746739507652,15.308167
69956,1577399704.96,1.0963691748642332,0.6025212860851744,8.372990366865949,0.5056145140112898,0.4564165896532012,7.363746774366424,-0.3464584987733419,0.2415223918635662,9.178172064208985,2.1233907560022867,3.0245897246570124,0.4964688929115854,-0.6339840772675305,1.5061541301448171,0.6650599037728658,4.458729813738567,9.225612733422256,-3.4998451791158534,-17.893983707264955,-24.233566506410256,2.179261826136821,11.62218340553677,-49.765182083541454,-36.997621744241336,26.89450983915896,34.32255069338365,37.60526552250876,1577399704.0,-27.688920098795005,-51.11746739507652,15.308167
69957,1577399704.97,0.4259927100204833,0.530695236280487,8.21257885563548,-0.0270953553734749,0.142776172172732,9.25516608588986,0.280822336187595,0.9645712932307536,9.708487731933593,4.076515756002286,4.397880740282012,0.2523282679115854,-0.3440670850800305,2.803151200457317,-0.1436559165396341,3.344838212176067,13.513332459984756,-2.477506311928354,-17.893983707264955,-23.41555582264957,2.179261826136821,13.368467570090166,-50.773316527222775,-36.33389522136517,26.89450983915896,34.08293647227963,37.772995477281576,1577399704.0,-27.688920098795005,-51.11746739507652,15.308167
69958,1577399704.98,0.9479286719345458,-0.2713623198718558,9.55333178532298,1.5123763121069926,-0.0296063473585169,9.96145557563596,-0.2602672390077165,1.6780433879573162,10.838550915527344,-1.3250955721227131,-3.048408322217988,-0.1138826695884145,-0.4356198194550305,4.145924637957317,0.1310022865853658,4.077260087176067,12.170559022484756,0.0554526724466463,-17.893983707264955,-23.41555582264957,2.179261826136821,13.163022374260352,-48.02385895354645,-3.737548209002536,26.798664150717343,34.08293647227963,37.58130410039836,1577399704.0,-27.688920098795005,-51.11746739507652,15.308167
69959,1577399704.99,0.4499347266220458,0.6252662018566587,10.63072253239329,-0.2353908998070686,0.889767090141482,9.43473121040158,2.380537192144626,0.5623454143245037,11.149797131347656,-1.4929422518102136,0.8578416777820121,-0.2664705602134145,-2.6023678663300305,6.068532059832317,0.6803186928353658,-0.9886578815739328,2.832180116234756,-0.2497231088033537,-17.629540598290596,-23.313304487179487,2.25440878565878,13.77935796174979,-44.54121269355643,-0.345168203191039,27.062239793931766,34.03501362805883,37.58130410039836,1577399704.0,-27.688920098795005,-51.11746739507652,15.308167
69960,1577399705.0,0.1626305274032958,0.4349271698742369,9.282786997725324,0.2865450621069929,0.5521846560594508,9.896812130811735,0.0844978000547829,-0.6108133991520578,9.695319622802732,2.1233907560022867,5.679619021532012,0.1302579554115854,-0.8781247022675305,1.4451189738948171,-0.2504674399771341,2.932850907488567,4.831081483422256,-0.6159340463033538,-16.659915865384615,-22.80204780982906,2.028967907092904,10.286789632642998,-47.107373095654346,-3.737548209002536,26.89450983915896,34.058975050169224,37.653188366729566,1577399705.0,-27.68892146677038,-51.11730842512394,15.586339
69961,1577399705.01,-0.1845287133193594,1.0502369965343932,10.29314009831126,0.2099306089819928,0.2553036502000758,8.864911215284394,0.3454657810118137,0.7538815471370037,9.526528405761718,-1.6913065096227131,2.1090623809070124,0.0997403772865854,-2.9685788038300305,6.129567216082317,0.5887659584603658,5.877797196551067,5.456691834984756,-0.9516274056783536,-18.24657451923077,-22.59754513888889,3.0810253404003385,10.69768002430262,-50.9566136988012,-4.032537774725275,27.038278371821367,34.08293647227963,37.58130410039836,1577399705.0,-27.68892146677038,-51.11730842512394,15.586339
69962,1577399705.02,0.6797780859970458,0.6958951508312681,8.787187254072979,0.9066432920874616,0.410926758110232,10.983779684522675,0.6231931735899388,-1.3601985187809638,9.725247143554688,0.9637227872522866,2.1700975371570124,0.2523282679115854,-5.043774116330031,5.366627762957317,-0.2962438071646341,0.1099749309260671,0.4212914443597561,-2.294400843178354,-17.541392895299143,-21.779534455128204,2.7804375023124974,11.10857041596224,-45.09110420829171,-3.4425586432797965,26.798664150717343,34.17878216072124,37.58130410039836,1577399705.0,-27.68892146677038,-51.11730842512394,15.586339
69963,1577399705.03,0.0536943518661869,0.5103445221691587,8.642338053633527,0.2434494322241803,0.6742889407274195,9.985397592237522,1.7221317356016572,2.719521110125286,10.46984385986328,-1.9201883455602131,1.208793826219512,-0.4343172399009145,-1.0764889600800305,-1.9575909870426829,0.6498011147103658,-1.9652203815739329,2.679592225609756,-0.8295570931783537,-17.541392895299143,-21.779534455128204,2.179261826136821,9.875899240983376,-50.59001935564436,3.637190934065935,26.91847126126936,34.17878216072124,37.62922694461916,1577399705.0,-27.68892146677038,-51.11730842512394,15.586339
69964,1577399705.04,-0.0672128319717031,0.300851876905487,9.347430442549545,0.0160002745093371,0.602462890922732,9.845336795118378,0.3251150669004861,-0.4551902912419015,9.727641345214844,-2.9730447908727133,-1.492011837842988,-0.3275057164634145,-1.7173581007050305,0.4380388957698172,-0.1283971274771341,-2.331431319073933,-5.544895079077744,1.9322837271341464,-17.71768830128205,-22.80204780982906,3.5319070975320974,11.519460807621863,-47.65726461038961,1.8672535397295016,26.89450983915896,34.08293647227963,37.653188366729566,1577399705.0,-27.68892146677038,-51.11730842512394,15.586339
69965,1577399705.05,-0.6490038353896719,0.4995706146984557,10.958728159834696,-1.044631060939881,-0.1014323971632044,10.370864059522678,2.0214069431211885,1.2662407024104412,7.900865478515625,-1.7218240877477131,-3.292548947217988,-0.3275057164634145,-1.2901120069550305,0.4532976848323171,-0.0215856040396341,0.7813616496760671,-2.081149961890244,1.8559897818216464,-18.59916533119658,-23.41555582264957,2.4798496642246564,13.163022374260352,-44.35791552197802,-1.6726212489433638,26.798664150717343,33.939167939617214,37.58130410039836,1577399705.0,-27.68892146677038,-51.11730842512394,15.586339
69966,1577399705.06,-0.1917113182998282,0.6695589325695493,10.424821189619854,-0.6639529969750374,0.372619531547732,10.172145321729708,-1.749460671624904,-0.871781380109089,10.568006127929689,-0.9588846346227134,1.651298709032012,0.3133634241615854,0.2357668992949695,-5.100901533917683,0.7718714272103658,0.4151507121760671,0.5738793349847561,0.0554526724466463,-17.541392895299143,-23.006550480769228,1.5780861499611456,13.163022374260352,-44.35791552197802,-1.6726212489433638,26.798664150717343,34.08293647227963,37.725072633060776,1577399705.0,-27.68892146677038,-51.11730842512394,15.586339
69967,1577399705.07,-0.3952184594131094,0.04347519843869,9.600018717696026,-0.6807124085961311,0.1631268862840602,10.825762374952363,0.8685988437559542,0.5168555827815354,10.178948358154296,-0.1959451814977132,1.330864138719512,0.6337979944740855,-0.6034664991425305,-0.5385236042301829,0.2225550209603658,-0.2562360065739328,-6.826633360327744,-0.3412758431783536,-16.924358974358974,-23.517807158119652,1.9538209475709425,13.573912765919976,-50.9566136988012,-22.46938563239645,26.798664150717347,34.202743582831644,37.55734267828795,1577399705.0,-27.68892146677038,-51.11730842512394,15.586339
69968,1577399705.08,-0.4622561058974844,0.5809734711437682,9.809511362959698,-0.5633965272484749,0.2050254153367945,7.684569796827362,1.0254190524961888,-0.2636541584294015,8.573636145019531,0.0176778653772865,-1.461494259717988,0.4049161585365854,-1.4426998975800305,-3.391917158917683,0.6803186928353658,-3.277476240948933,-2.050632383765244,-0.4938637338033537,-18.42286992521367,-22.80204780982906,3.231319259444256,13.368467570090166,-50.773316527222775,-3.2950638604184275,27.038278371821367,34.08293647227963,37.58130410039836,1577399705.0,-27.68892146677038,-51.11730842512394,15.586339
69969,1577399705.09,0.2967058203720458,0.6001270844250182,10.05132573063548,0.4062551451148053,0.2624862551805446,9.892023727491429,0.3454657810118137,-0.0960600422184639,8.542511523437499,-6.085837759622714,-7.809150509717988,-0.0528475133384145,-2.2971920850800305,0.026051591082317,0.4666956459603658,-9.594614912823932,0.4823266006097561,0.7268393911966463,-16.3073250534188,-22.80204780982906,3.231319259444256,13.368467570090166,-50.773316527222775,-3.2950638604184275,26.89450983915896,34.03501362805883,37.772995477281576,1577399705.0,-27.68892146677038,-51.11730842512394,15.586339
69970,1577399705.1,0.6019665320419677,0.3930286408215026,10.11477207462962,-0.4915704774437874,0.3367065066453882,9.611902133253142,-0.0184528713319352,-0.3474512165348702,8.221688500976562,-1.7523416658727131,-0.7443311737804879,0.5269864710365855,-1.2290768507050305,0.239674637957317,0.6803186928353658,-1.5379742878239329,2.343898866234756,1.1540854849466462,-18.070279113247864,-22.80204780982906,2.329555745180739,11.519460807621863,-46.557481580919074,-3.737548209002536,27.110162638152573,34.22670500494204,37.58130410039836,1577399705.0,-27.68892146677038,-51.11730842512394,15.586339
69971,1577399705.11,0.1793899390243895,-0.0582783721179495,9.457563718916733,0.4876580015601178,-0.0320005490186737,8.614717141798065,-0.0543658962342795,-0.5808858784001046,8.681375219726561,-0.5621561189977134,3.4518358184070124,0.7406095179115855,-0.8018307569550305,-0.4469708698551828,0.1157434975228658,-3.735239912823933,-5.239719297827744,0.6810630240091464,-17.365097489316238,-23.62005849358974,1.7283800690050692,9.97862183889828,-43.3497810782967,-2.483842554680896,26.798664150717343,34.22670500494205,37.50941983406715,1577399705.0,-27.68892146677038,-51.11730842512394,15.586339
69972,1577399705.12,-0.3209982079482656,-0.0295479521960745,9.282786997725324,-0.8746427430687874,0.2744572634813258,9.532893478467988,-0.0208470729920915,2.073086661883097,11.264718811035156,-0.9588846346227134,3.1771776152820124,1.1373380335365857,0.5409426805449695,-7.694895674542683,1.5653284584603655,1.7884417278010671,-7.971042540015244,1.7644370474466462,-16.659915865384615,-22.39304246794872,2.028967907092904,9.875899240983376,-50.59001935564436,-3.4425586432797965,26.990355527600563,34.17878216072124,37.58130410039836,1577399705.0,-27.68892146677038,-51.11730842512394,15.586339
69973,1577399705.13,-0.2276243432021719,0.9329211151867368,9.301940611006572,-0.5059356874047249,1.4356450686571072,11.79301984565549,0.2161788913633762,-0.8095321369450265,11.142614526367186,1.3604513028772869,-0.6375196503429879,0.8626798304115855,0.2052493211699695,0.087086747332317,-0.2962438071646341,-9.075816084698932,-8.733981993140244,0.0249350943216463,-18.77546073717949,-23.62005849358974,2.930731421356415,12.546686786770922,-44.907807036713294,-3.5900534261411665,26.89450983915896,34.03501362805883,37.43753556773595,1577399705.0,-27.68892146677038,-51.11730842512394,15.586339
69974,1577399705.14,0.0824247717880619,0.1943099030285343,9.477914433028058,0.4278029600562116,0.3510717166063257,9.688516586378142,0.8793727512266575,2.4633415324885672,9.624690673828123,0.0329366544397865,-2.209174923780488,0.3438810022865854,0.0831790086699695,1.0331316692073171,0.5887659584603658,-0.8971051471989329,-10.076755430640244,1.1846030630716462,-17.541392895299143,-23.82456116452991,1.5780861499611456,12.546686786770922,-44.907807036713294,-3.5900534261411665,26.798664150717343,34.17878216072124,37.772995477281576,1577399705.0,-27.68892146677038,-51.11730842512394,15.586339
69975,1577399705.15,-0.6059082055068594,0.6336459076672056,10.460734214522198,-0.349115478664491,-0.1972004635694549,9.965046878126191,-0.0926731227967794,0.339684659929973,9.411606726074218,-1.2945779939977131,1.193535037157012,0.8626798304115855,-1.2290768507050305,-2.964671065167683,1.1685999428353655,-3.887827803448933,-4.537815000952744,3.320833531821646,-17.012506677350427,-23.2110531517094,2.329555745180739,11.211293013877146,-47.93221036775724,-3.5163060347104818,26.798664150717343,34.08293647227963,37.725072633060776,1577399705.0,-27.68892146677038,-51.11730842512394,15.586339
69976,1577399705.16,-0.1653751000381094,0.0470665009289244,10.858171690108136,-0.6352225770531624,0.6000686892625757,9.738794821241424,1.2265319919493136,1.5080550700862223,7.912836486816405,-0.9894022127477134,-0.7595899628429879,0.6185392054115855,-0.1304440382050304,2.986256669207317,0.5887659584603658,1.3001604778010671,-3.942722227515244,1.7644370474466462,-18.070279113247864,-25.256079861111107,0.8266165547415459,14.19024835340941,-44.907807036713294,-3.000074294695689,26.89450983915896,34.27462784916285,37.725072633060776,1577399705.0,-27.68892146677038,-51.11730842512394,15.586339
69977,1577399705.17,-0.0863664452529531,0.6432227143078306,9.294758006026106,-0.2114488832055061,0.430080371391482,9.48500944526486,-1.3496289943788102,-1.64989691965987,9.382876306152344,1.3909688810022869,0.918876834032012,0.9542325647865856,0.2968020555449695,0.9110613567073172,0.7108362709603658,0.2320452434260671,-4.888767149390244,1.5508140005716462,-16.83621127136752,-23.82456116452991,2.7804375023124974,15.012029136728652,-44.54121269355643,-3.2950638604184275,26.89450983915896,34.17878216072124,37.725072633060776,1577399705.0,-27.68892146677038,-51.11730842512394,15.586339
69978,1577399705.18,0.4343724158310302,0.3319764984875182,8.85063359806712,0.3392174986304304,-0.3037424374464075,9.48141814277463,0.1850542697813454,0.8017655803401287,9.522937103271484,-0.6384500643102133,-0.835883908155488,0.7100919397865855,-0.5729489210175305,-1.3014630573551829,0.7108362709603658,-1.3243512409489329,-2.660983946265244,-0.2802406869283536,-16.131029647435895,-23.41555582264957,3.0810253404003385,11.930351199281484,-44.72450986513486,-3.737548209002536,26.894509839158957,34.17878216072124,37.55734267828795,1577399705.0,-27.68892146677038,-51.11730842512394,15.586339
69979,1577399705.19,-0.4000068627334219,0.4756285980968932,9.67543606999095,-0.6328283753930062,0.1667181887742945,9.983003390577364,-0.1621049709413102,-0.2014049152653389,8.741230261230468,0.1397481778772865,1.010429568407012,0.9237149866615856,-0.1914791944550304,-0.9810284870426828,0.7413538490853658,-0.0120953815739328,-0.8604468368902439,-0.6159340463033537,-16.131029647435895,-23.41555582264957,3.0810253404003385,13.163022374260352,-48.02385895354645,-39.431285661453934,26.990355527600563,34.08293647227963,37.58130410039836,1577399705.0,-27.68892146677038,-51.11730842512394,15.586339
69980,1577399705.2,-0.5340821557021719,-0.1253160186023245,9.443198508955792,-0.0869503968773811,-0.1445280270460169,10.08834826362424,0.8482481296446263,1.35003776051591,8.058882788085937,-3.1561502596227133,-0.2102735565929878,0.9542325647865856,0.2357668992949695,-0.3401593464176829,0.1004847084603658,0.7508440715510671,0.7875023818597561,0.8183921255716463,-17.71768830128205,-24.029063835470083,2.63014358326858,10.081344436813186,-46.37418440934065,-2.4100951632502112,27.08620121604217,34.08293647227963,37.53338125617755,1577399705.0,-27.68892146677038,-51.11730842512394,15.586339
69981,1577399705.21,0.3876854834579833,0.2362084320812682,9.325882627608136,0.2266900206030865,0.075738525688357,8.958285080030487,-1.7925563015077164,1.8719737224299724,8.86094034423828,1.8792501310022869,-0.6375196503429879,0.6185392054115855,0.3883547899199695,-1.3167218464176829,0.1920374428353658,-2.636607100323933,5.334621522484756,0.8183921255716463,-17.893983707264955,-23.82456116452991,3.0810253404003385,9.875899240983376,-40.69197209040959,0.3923057111158077,27.08620121604217,33.939167939617214,37.58130410039836,1577399705.0,-27.68892146677038,-51.11730842512394,15.586339
69982,1577399705.22,0.3625463660263427,0.5570314545422056,10.764797825362042,0.3511885069312116,0.7963932253953884,11.267492581251194,0.1132282199766575,0.3708092815120042,10.834959613037109,0.4601827481897865,-0.881660275342988,0.5269864710365855,0.2357668992949695,-1.6218976276676829,0.7413538490853656,3.039662430926067,-1.852268125952744,1.0167563833841462,-17.629540598290596,-23.108801816239318,3.757347976097973,10.69768002430262,-42.15834946303696,-1.0826421174978864,26.94243268337976,34.08293647227963,37.58130410039836,1577399705.0,-27.68892146677038,-51.11730842512394,15.586339
69983,1577399705.23,0.2823406104111083,0.0398838959484557,9.711349094893292,0.7534143858374616,-0.3552177731397669,9.343751547315645,-0.1692875759217789,0.6820554973323162,8.954314208984375,1.1163106778772869,1.285087771532012,0.4049161585365854,1.9447512742949693,0.3312273723323171,0.7108362709603658,1.0255022746760671,-2.233737852515244,0.1775229849466463,-18.070279113247864,-24.029063835470083,4.133082773707767,9.875899240983376,-42.15834946303696,-4.032537774725275,26.84658699493815,34.08293647227963,37.43753556773595,1577399705.0,-27.68892146677038,-51.11730842512394,15.586339
69984,1577399705.24,0.394868088438452,0.482811203077362,9.797540354658915,0.7845390074194928,0.0517965090867945,10.22242355659299,-2.259425625238185,-1.080076924542683,9.124302526855468,-0.6842264314977134,-1.766670040967988,0.0997403772865854,-1.5647702100800305,2.314869950457317,-0.2657262290396341,1.8189593059260671,-2.233737852515244,0.0859702505716463,-16.659915865384615,-23.62005849358974,2.028967907092904,10.492234828472808,-44.907807036713294,-3.2950638604184275,26.990355527600563,34.03501362805883,37.58130410039836,1577399705.0,-27.68892146677038,-51.11730842512394,15.586339
69985,1577399705.25,0.4355695166611083,0.5187242279797056,8.941613261153057,-0.2329966981469124,0.2337558352586695,8.000604415967986,-0.1908353908631852,0.1601195354182537,7.544129431152343,0.5669942716272868,0.796806521532012,0.3438810022865854,0.9681887742949696,0.8500262004573171,0.1920374428353658,2.337758134051067,7.287746522484756,-0.4938637338033537,-18.422869925213675,-23.82456116452991,2.4798496642246564,11.519460807621863,-45.09110420829171,1.2772744082840235,26.94243268337976,34.03501362805883,37.58130410039836,1577399705.0,-27.68892146677038,-51.11730842512394,15.586339
69986,1577399705.26,0.5289433814072021,0.2625446503429869,7.499106760908917,0.4732927915991803,0.2696688601610132,8.846954702833221,-0.4446207668397482,0.0260442424495042,9.095572106933592,2.4285665372522867,2.7194139434070124,0.5575040491615855,0.9529299852324696,-0.2638654011051829,0.1920374428353658,0.1404925090510671,2.923732850609756,1.5965903677591462,-17.012506677350427,-25.256079861111107,2.329555745180739,10.800402622217526,-47.93221036775724,-1.1563895089285716,26.89450983915896,33.939167939617214,37.653188366729566,1577399705.0,-27.68892146677038,-51.11730842512394,15.586339
69987,1577399705.27,-0.2659315697646719,0.6623763275890806,9.708954893233136,-0.5274835023461312,0.0254602908250758,10.634226242139864,-0.3919483303163102,1.5487564983088786,9.957484704589843,0.6890645841272866,0.2169725371570121,-0.0528475133384145,-1.3816647413300305,0.5448504192073171,0.4361780678353658,7.251088212176067,-6.201023008765244,0.9404624380716464,-17.012506677350427,-25.256079861111107,2.329555745180739,9.875899240983376,-46.557481580919074,-4.032537774725275,26.89450983915896,34.22670500494204,37.725072633060776,1577399705.0,-27.68892146677038,-51.11730842512394,15.586339
69988,1577399705.28,-0.5699951806045157,0.2625446503429869,10.513406651045637,-0.4365038392601936,0.1475645754930445,11.347698336866427,-0.0567600978944352,2.6692428752620048,11.200075366210935,1.5130391935022869,0.1864549590320121,0.4659513147865854,1.9447512742949693,-2.751048018292683,0.0394495522103658,-0.5614117878239329,2.343898866234756,1.2456382193216462,-15.95473424145299,-24.029063835470083,2.329555745180739,10.69768002430262,-43.25813249250749,-4.032537774725275,26.89450983915896,34.03501362805883,37.725072633060776,1577399705.0,-27.68892146677038,-51.11730842512394,15.586339
69989,1577399705.29,-0.3832474511123281,0.1847330963879088,10.968304966475324,-0.4197444276390999,0.7772396121141383,11.251930270460177,-0.2794208522889664,-2.1311314533512764,11.111489904785156,-1.8133768221227131,-2.941596798780488,0.1149991663490854,-0.9239010694550304,-0.8894757526676829,0.5887659584603658,0.6898089153010671,0.177150819359756,-0.7380043588033537,-17.982131410256407,-24.74482318376068,1.9538209475709425,9.875899240983376,-42.15834946303696,-3.4425586432797965,26.84658699493815,34.17878216072124,37.62922694461916,1577399705.0,-27.68892146677038,-51.11730842512394,15.586339
69990,1577399705.3,-0.2539605614638907,0.0350954926281432,9.632340440108136,0.536739135593321,0.1212283572313262,10.5995103180676,-0.202806399163967,1.1752610393245038,11.88721124267578,0.1092305997522865,3.970634646532013,0.6490567835365855,-0.7865719678925305,2.421681473894817,0.0394495522103658,-3.155405928448933,-13.830417540015244,0.1470054068216462,-16.659915865384615,-24.438069177350428,2.028967907092904,9.875899240983376,-46.55748158091908,-22.616880415257818,27.038278371821367,34.08293647227963,37.50941983406716,1577399705.0,-27.68892146677038,-51.11730842512394,15.586339
69991,1577399705.31,-0.2372011498427969,0.2601504486828307,10.443974802901105,-0.7166254334984749,-0.1373454220655482,10.243971371534396,1.5210187961485324,-0.641938020734089,11.15937393798828,-0.1654276033727134,1.101982302782012,0.7406095179115855,0.6630129930449695,-2.506907393292683,0.6192835365853658,3.466908524676067,-23.565524961890244,2.252718297446646,-16.659915865384615,-24.438069177350428,2.028967907092904,12.341241590941108,-50.9566136988012,-38.84130653000845,27.038278371821367,33.891245095396414,37.53338125617755,1577399705.0,-27.68892146677038,-51.11730842512394,15.586339
69992,1577399705.32,0.2991000220322021,0.5977328827648619,10.259621275069073,0.7318665708960553,0.7030193606492945,11.129825985792207,0.2305441013243137,0.9382350749690348,7.678204724121093,2.3675313810022867,-3.017890744092988,0.1302579554115854,-0.1914791944550304,0.3312273723323171,0.4056604897103658,-4.711802412823933,-11.358493711890244,1.6423667349466462,-18.42286992521367,-24.029063835470083,3.832494935619932,11.930351199281484,-45.09110420829171,-3.737548209002536,26.89450983915896,34.17878216072124,37.58130410039836,1577399705.0,-27.68892146677038,-51.11730842512394,15.586339
69993,1577399705.33,-0.022920101258813,0.5330894379406432,9.40728548405345,0.6301130003394148,0.2708659609910919,10.59352481391721,1.3139203525450167,-0.6455293232243238,7.413645440673828,1.2536397794397869,0.1406785918445121,0.5880216272865855,0.7698245164824695,-1.1793927448551829,0.1920374428353658,-0.6377057331364329,-3.057712461890244,2.435823766196646,-18.33472222222222,-23.72230982905983,2.554996623746618,10.286789632642996,-44.724509865134856,-4.032537774725275,26.84658699493815,34.22670500494205,37.58130410039836,1577399705.0,-27.68892146677038,-51.11730842512394,15.586339
69994,1577399705.34,0.0070074194931395,0.2505736420422057,10.192583628584698,0.0423364927710553,0.5138774294969508,8.659009872510955,1.3917319065000948,0.8496496135432537,7.848193041992187,0.4144063810022865,-2.315986447217988,0.1302579554115854,-0.3745846632050305,1.3993426067073171,0.5277308022103658,2.398793290301067,12.079006288109756,-0.9821449838033536,-16.3073250534188,-24.029063835470083,2.930731421356415,9.875899240983376,-45.09110420829171,-4.032537774725275,27.038278371821367,34.08293647227963,37.772995477281576,1577399705.0,-27.68892146677038,-51.11730842512394,15.586339
69995,1577399705.35,0.4379637183212646,0.5139358246593932,10.194977830244854,0.6791941343726179,0.5378194460985133,9.312626925733612,1.336665268316501,-0.7640423054020578,10.01015714111328,-1.996482290872713,-2.987373165967988,0.1302579554115854,-0.0083737257050304,1.2162371379573171,0.2530725990853658,1.5137835246760671,7.714992616234756,-1.1042152963033538,-16.3073250534188,-24.029063835470083,2.930731421356415,9.875899240983376,-50.9566136988012,-2.5575899461115803,27.038278371821367,34.17878216072124,37.58130410039836,1577399705.0,-27.68892146677038,-51.11730842512394,15.586339
69996,1577399705.36,0.4858477515243896,0.7485675873547056,9.507841953780012,-0.1276518251000374,1.100456836235232,8.876882223585174,-0.0950673244569352,-1.5637056598942451,8.647856396484375,0.0481954435022865,-0.1797559784679878,0.1912931116615854,1.7921633836699695,-0.5537823932926829,0.1310022865853658,3.314320634051067,11.529689881859756,-2.538541468178354,-18.070279113247864,-23.62005849358974,2.028967907092904,11.519460807621863,-45.09110420829171,4.227170065511412,26.89450983915896,34.03501362805883,37.58130410039836,1577399705.0,-27.68892146677038,-51.11730842512394,15.586339
69997,1577399705.37,0.6235143469833739,0.2840924652843936,9.595230314375714,0.6935593443335554,-0.1193889096143768,9.124682095411346,0.6148134677793918,0.856832218523723,9.417592230224608,-0.0128397127477131,1.712333865282012,0.3133634241615854,0.0374026414824695,1.0636492473323171,0.2378138100228658,6.839100907488568,5.868679139672256,-0.0208412728658536,-17.71768830128205,-23.006550480769228,2.4798496642246595,9.875899240983376,-50.9566136988012,3.637190934065935,26.822625572827747,33.98709078383802,37.58130410039836,1577399705.0,-27.68892146677038,-51.11730842512394,15.586339
69998,1577399705.38,0.3398014502548583,0.3080344818859557,9.919644639326885,0.949738921970274,-0.0894613888624232,9.930330954053929,0.7357206516172825,1.630159354754191,11.267113012695312,0.7500997403772866,1.346122927782012,0.0692227991615854,1.0597415086699695,-0.4927472370426829,1.4127405678353655,7.190053055926067,2.649074647484756,0.6352866568216463,-17.012506677350427,-23.62005849358974,2.329555745180739,11.519460807621863,-48.02385895354645,7.472055288461539,26.89450983915896,34.22670500494204,37.725072633060776,1577399705.0,-27.68892146677038,-51.11730842512394,15.586339
69999,1577399705.39,0.1099580908798583,0.7365965790539244,10.977881773115948,0.5139942198218366,1.1651002810594506,11.244747665479707,-1.4693390773866226,-0.7640423054020578,8.702923034667968,1.8792501310022869,1.498710818407012,-0.3885408727134145,-0.4661373975800305,-0.4011945026676829,0.0089319740853658,-2.209361006573933,0.940090272484756,-0.0666176400533536,-17.365097489316238,-23.62005849358974,2.930731421356415,10.492234828472808,-50.773316527222775,-3.2950638604184275,26.84658699493815,34.41839638182526,37.58130410039836,1577399705.0,-27.68892146677038,-51.11730842512394,15.586339
70000,1577399705.4,0.145871115782202,0.6791357392101743,9.943586655928447,-1.006323834377381,0.793999023735232,9.997368600538303,-0.4015251369569352,0.5120671794612225,11.29344923095703,-0.8673319002477134,4.031669802782012,0.5575040491615855,0.9376711961699696,0.3922625285823171,0.9854944740853658,4.046742509051067,0.4823266006097561,-0.0055824838033536,-17.365097489316238,-23.62005849358974,2.930731421356415,11.930351199281484,-50.9566136988012,-1.0826421174978862,26.89450983915896,34.08293647227963,37.58130410039836,1577399705.0,-27.68892146677038,-51.11730842512394,15.586339
70001,1577399705.41,0.1817841406845458,0.3487359101086119,9.39411737492259,0.9269940061987896,0.2792456668016387,10.289461203077366,-0.2063977016542013,0.3468672649104418,10.621875665283202,0.3533712247522865,2.9635545684070124,0.1607755335365854,0.6782717821074695,2.085988114519817,-0.0063268149771341,-5.078013350323933,0.7264672256097562,-0.6311928353658538,-17.45324519230769,-23.517807158119652,2.404702704702701,13.265744972175256,-49.58188491196304,-19.740732149461117,26.870548417048557,33.98709078383802,37.461496989846346,1577399705.0,-27.68892146677038,-51.11730842512394,15.586339
70002,1577399705.42,-0.7615313134170156,-0.1420754302234183,7.642758860518292,-0.9488629945336312,1.0094771731492944,10.246365573194552,-1.318504372796779,-0.6371496174137765,9.548076220703123,-0.4400858064977134,3.3908006621570124,0.8321622522865855,0.2357668992949695,1.7655535442073171,0.5582483803353658,-1.6905621784489329,-6.750339415015244,0.6047690786966463,-18.42286992521367,-24.438069177350428,2.028967907092904,13.163022374260352,-49.12364198301698,-41.201223055790365,26.990355527600563,33.939167939617214,37.43753556773595,1577399705.0,-27.68892146677038,-51.11730842512394,15.586339
70003,1577399705.43,0.002219016172827,0.3846489350109557,7.748103733565167,0.1907769957007428,-0.3360641598585169,10.591130612257052,1.8298708103086885,0.8041597820002849,11.176133349609374,1.5435567716272869,-1.919257931592988,0.3743985804115854,-1.5342526319550305,5.275075028582317,-0.0215856040396341,-10.876353194073932,-6.994480040015244,0.5742515005716463,-17.893983707264955,-23.41555582264957,2.179261826136821,9.875899240983376,-49.49023632617382,-4.032537774725275,26.559049929613323,34.17878216072124,37.58130410039836,1577399705.0,-27.68892146677038,-51.11730842512394,15.586339
70004,1577399705.44,-0.4838039208388907,0.2146606171398619,10.652270347334698,-0.7166254334984749,0.4827528079149195,9.913571542432834,1.1978015720274386,0.9430234782893474,8.453926062011718,0.3533712247522865,-3.933418087842988,0.0692227991615854,-0.8628659132050305,1.7655535442073171,0.1310022865853658,0.2930803996760671,6.616359803734756,2.039095250571646,-17.893983707264955,-23.41555582264957,2.179261826136821,10.081344436813186,-49.3069391545954,-3.8850429918639056,27.038278371821367,34.08293647227963,37.53338125617755,1577399705.0,-27.68892146677038,-51.11730842512394,15.586339
70005,1577399705.45,0.2153029639267338,0.9377095185070492,11.477072819258526,0.3703421202124621,0.171506592094607,10.968217373731662,1.6299549716856423,-1.0752885212223706,10.9941740234375,0.5975118497522868,-1.995551876905488,0.3286222132240854,-0.1762204053925304,0.5753679973323171,0.1615198647103658,-3.689463545636432,6.158596131859756,-0.2344643197408537,-17.982131410256407,-23.108801816239318,2.4047027047027005,10.286789632642996,-41.79175511988012,-3.737548209002536,26.894509839158957,34.27462784916285,37.53338125617756,1577399705.0,-27.68892146677038,-51.11730842512394,15.586339
70006,1577399705.46,-0.1294620751357657,0.1787475922375182,9.68022447331126,-0.5059356874047249,0.3750137332078883,10.327768429639866,1.4755289646055636,0.344473063250285,12.00213292236328,1.0857930997522869,5.313408084032012,0.6185392054115855,1.2733645555449695,-4.276926924542683,0.6498011147103658,7.220570634051067,-2.813571836890244,-1.1652504525533538,-17.541392895299143,-23.006550480769228,1.8786739880489869,10.286789632642996,-41.42516077672328,-3.4425586432797965,26.702818462275737,34.27462784916285,37.58130410039836,1577399705.0,-27.68892146677038,-51.11730842512394,15.586339
70007,1577399705.47,-0.2994503930068594,0.6527995209484556,10.479887827803449,-0.6017037538109749,0.238544238578982,11.515292453077365,-0.7151655544374039,0.6916323039729412,11.805808386230469,-2.2406229158727133,-0.8511426972179879,0.3438810022865854,1.6700930711699695,-5.894358565167683,-0.0521031821646341,-5.261118819073933,-8.795017149390244,-0.2802406869283537,-16.83621127136752,-22.59754513888889,3.0810253404003385,9.875899240983376,-49.49023632617382,-3.147569077557058,26.798664150717343,34.17878216072124,37.38961272351514,1577399705.0,-27.68892146677038,-51.11730842512394,15.586339
70008,1577399705.48,-0.2946619896865469,0.8371530487804869,10.678606565596416,-0.1970836732445686,0.3295239016649195,9.329386337354704,0.1251992282774387,1.531997086687785,11.01811604003906,1.9097677091272869,-0.2713087128429878,0.1302579554115854,0.1136965867949695,0.6364031535823171,0.5277308022103658,-1.3548688190739329,-6.078952696265244,0.8794272818216463,-17.012506677350427,-23.2110531517094,2.930731421356415,9.875899240983376,-45.09110420829171,-4.032537774725275,26.89450983915896,33.939167939617214,37.725072633060776,1577399705.0,-27.68892146677038,-51.11730842512394,15.586339
70009,1577399705.49,-0.1869229149795157,0.5522430512218932,8.904503135420635,-0.2557416139183968,0.3295239016649195,9.580777511671112,0.0258398593809548,0.7239540263850517,9.731232647705076,0.2313009122522867,-0.0119092987804876,0.3591397913490854,-1.0764889600800305,-0.6911114948551829,0.1310022865853658,-2.422984053448933,-18.331760313452744,5.502840367759147,-17.188802083333332,-23.62005849358974,3.531907097532091,9.875899240983376,-48.75704763986013,-3.885042991863905,26.798664150717343,34.15482073861084,37.60526552250876,1577399705.0,-27.68892146677038,-51.11730842512394,15.586339
70010,1577399705.5,-0.4071894677138907,-0.149258035203887,9.232508762862045,-0.5346661073265999,0.0924979373094508,9.252771884229706,2.356595175543064,1.0938581828791911,9.402029919433591,0.1702657560022865,1.559745974657012,1.1068204554115857,1.0292239305449695,-5.131419112042683,0.2530725990853658,-1.1412457721989329,-23.473972227515244,3.992220250571646,-17.188802083333332,-22.188539797008545,2.7804375023124974,13.9848031575796,-50.59001935564436,-3.4425586432797965,26.990355527600563,34.03501362805883,37.725072633060776,1577399705.0,-27.68892146677038,-51.11730842512394,15.586339
70011,1577399705.51,-0.2779025780654532,0.300851876905487,9.282786997725324,-0.2138430848656624,0.430080371391482,10.59831321723752,-0.4972932033631852,0.3205310466487225,7.824251025390624,0.7195821622522866,-1.278388790967988,0.5269864710365855,-0.4966549757050305,0.087086747332317,-0.3877965415396341,-5.291636397198933,-15.112155821265244,3.381868688071646,-17.71768830128205,-22.80204780982906,2.930731421356415,13.9848031575796,-50.59001935564436,-3.4425586432797965,26.89450983915896,34.17878216072124,37.58130410039836,1577399705.0,-27.68892146677038,-51.11730842512394,15.586339
70012,1577399705.52,-0.1534040917373282,0.5725937653332213,9.985485184981185,-0.4388980409203499,0.746114990532107,9.099542977979706,2.028589548101657,-3.1941569904606517,8.219294299316406,0.6585470060022867,-3.155219845655488,0.3896573694740856,-0.9849362257050304,2.284352372332317,0.7108362709603658,0.8423968059260671,-3.484958555640244,-0.7990395150533537,-18.42286992521367,-21.98403712606837,1.127204392829393,11.930351199281484,-50.9566136988012,-2.2626003803888417,26.870548417048557,34.17878216072124,37.62922694461916,1577399705.0,-27.68892146677038,-51.11730842512394,15.586339
70013,1577399705.53,0.126717502500952,-0.0774319853991995,9.577273801924544,-0.191098169094178,0.3869847415086695,9.689713687208222,-1.069507400140529,0.7371221355159105,9.06444748535156,-1.1114725252477131,-0.5459669159679879,0.9847501429115856,1.2581057664824695,0.4990740520198171,0.3751429115853658,1.6511126262385671,5.853420350609756,-1.8213783822408536,-17.893983707264955,-22.59754513888889,2.4798496642246564,12.957577178430542,-50.59001935564436,-21.43692215236686,26.89450983915896,33.96312936172762,37.62922694461916,1577399705.0,-27.68892146677038,-51.11730842512394,15.586339
70014,1577399705.54,0.040526242735327,-0.0008175322741997,10.161459007002666,-0.8722485414086312,-0.747866845405392,8.934343063428924,0.989506027593845,1.3452493571955977,12.272677709960936,1.3299337247522869,-0.5764844940929879,1.0152677210365857,1.5785403367949695,-0.2486066120426829,0.5887659584603658,3.375355790301067,1.0926781631097562,-0.4328285775533537,-18.070279113247864,-23.62005849358974,2.329555745180739,13.9848031575796,-50.22342501248751,-40.61124392434488,26.798664150717343,34.17878216072124,37.53338125617755,1577399705.0,-27.68892146677038,-51.11730842512394,15.586339
70015,1577399705.55,0.5816158179306395,0.8754602753429869,9.876549009444073,0.1213451475562116,0.9831409548875756,10.58634220893674,-1.1413334499452163,1.4386232219416912,9.081206896972656,2.0623555997522867,-2.285468869092988,0.3438810022865854,0.1747317430449695,0.6364031535823171,0.5582483803353658,-1.0191754596989329,3.320461366234756,0.6352866568216463,-18.24657451923077,-23.82456116452991,3.38161317848818,10.69768002430262,-46.557481580919074,-4.032537774725275,27.038278371821367,34.22670500494204,37.43753556773595,1577399705.0,-27.68892146677038,-51.11730842512394,15.586339
70016,1577399705.56,0.4678912390732176,0.7749038056164244,9.267224686934307,0.8396056456030866,0.0709501223680445,9.45388482368283,-0.5403888332459977,1.19680885426591,10.019733947753906,1.6961446622522869,0.8578416777820123,1.3509610804115857,1.5175051805449695,-1.4387921589176829,0.6803186928353658,2.856556962176067,2.435451600609756,1.9780600943216464,-18.070279113247864,-22.80204780982906,2.329555745180739,11.519460807621863,-43.62472683566433,-1.3776316832206257,26.990355527600563,34.03501362805883,37.58130410039836,1577399705.0,-27.68892146677038,-51.11730842512394,15.586339
70017,1577399705.57,-0.0983374535537344,0.5474546479015807,9.012242210127669,0.0471248960913683,0.7113990664598414,10.039267129591035,-0.9150813930604508,-0.7077785663883863,10.056844073486328,0.1397481778772865,-1.705634884717988,0.6185392054115855,-0.9239010694550304,0.300709794207317,0.6040247475228658,-2.972300459698933,7.257228944359756,-0.7837807259908538,-17.71768830128205,-24.029063835470083,1.7283800690050692,9.875899240983376,-46.557481580919074,-4.032537774725275,27.08620121604217,34.130859316500434,37.55734267828795,1577399705.0,-27.68892146677038,-51.11730842512394,15.586339
70018,1577399705.58,-0.0887606469131094,0.1931128021984557,10.580444297530011,0.0064234678687116,0.0302486941453883,8.908006845167206,-0.98571034203506,-0.1535208820622139,7.721300354003906,-0.0738748689977134,-2.315986447217988,0.8321622522865855,-0.3745846632050305,0.8805437785823171,-0.0521031821646341,8.776967118426068,-9.466403868140244,0.7878745474466463,-17.365097489316238,-24.84707451923077,2.329555745180739,5.356104932727528,-45.09110420829171,4.81714919695689,27.08620121604217,34.17878216072124,37.62922694461916,1577399705.0,-27.68892146677038,-51.11730842512394,15.586339
70019,1577399705.59,-0.1103084618545156,0.7964516205578306,9.517418760420636,-0.0534315736351936,0.2122080203172633,7.366140976026581,-0.016058669671779,0.25828180348466,8.492233288574218,0.1397481778772865,1.163017459032012,0.4354337366615854,0.7545657274199695,-1.1946515339176829,0.2225550209603658,-0.7445172565739329,9.149318788109756,-1.0736977181783538,-18.42286992521367,-21.16602644230769,2.028967907092904,5.356104932727528,-45.09110420829171,4.81714919695689,27.038278371821367,34.27462784916285,37.62922694461916,1577399705.0,-27.68892146677038,-51.11730842512394,15.586339
70020,1577399705.6,0.8605403113388427,0.3331735993175963,7.831900791670636,0.8300288389624616,0.5904918826219507,8.366917269971893,0.6279815769102512,3.722691605730754,9.540893615722656,1.1620870450647869,-0.683296017530488,0.3896573694740854,-1.3816647413300305,-0.6148175495426829,0.4972132240853658,-0.2257184284489328,3.625637147484756,1.3066733755716462,-18.24657451923077,-23.41555582264957,2.179261826136821,-1.0126961379966188,-44.907807036713294,1.7197587568681325,27.038278371821367,34.22670500494204,37.62922694461916,1577399705.0,-27.68892146677038,-51.11730842512394,15.586339
70021,1577399705.61,0.3326188452743895,0.3726779267101744,9.876549009444073,1.112544634860899,0.7473120913621851,10.002157003858612,-0.6756612270448258,-1.068105916241901,10.89122335205078,-0.1349100252477134,1.224052615282012,-0.0833650914634145,-0.9849362257050304,-0.4164532917301828,0.5124720131478658,0.3235979778010672,-1.943820860327744,0.9709800161966462,-18.95175614316239,-24.6425718482906,3.0810253404003385,11.10857041596224,-45.09110420829171,0.6872952768385465,26.89450983915896,34.17878216072124,37.653188366729566,1577399705.0,-27.68892146677038,-51.11730842512394,15.586339
70022,1577399705.62,-0.1079142601943594,0.4133793549328307,11.353771433760478,-0.3311589662133186,0.6096454959032007,12.41790647895627,0.0557673801329075,2.4633415324885672,10.177751257324218,-2.3932108064977133,0.1559373809070121,0.6795743616615855,0.2662844774199695,0.7584734660823171,-0.4488316977896341,-9.777720381573932,6.952053163109756,-0.0971352181783536,-18.42286992521367,-23.62005849358974,1.7283800690050692,9.875899240983376,-43.62472683566433,-4.032537774725275,26.990355527600563,34.17878216072124,37.62922694461916,1577399705.0,-27.68892146677038,-51.11730842512394,15.586339
70023,1577399705.63,-0.022920101258813,0.6432227143078306,11.259200468184307,0.9664983335913678,0.1595355837938258,9.777102047803924,0.3023701511290012,0.3612324748713787,8.262389929199218,-1.3250955721227131,-1.232612423780488,-0.0070711461509145,-0.3745846632050305,0.2701922160823171,0.2530725990853658,-0.0731305378239328,10.766750428734756,0.5132163443216463,-17.276949786324785,-23.722309829059824,2.7052905427905385,9.875899240983376,-43.25813249250749,-4.032537774725275,26.94243268337976,34.08293647227963,37.58130410039836,1577399705.0,-27.68892146677038,-51.11730842512394,15.586339
70024,1577399705.64,0.5265491797470458,0.3415533051281432,7.5757212140339165,0.402663842624571,0.4755702029344513,9.888432425001191,1.9232446750547831,-1.03698129465987,10.022128149414062,1.0857930997522869,4.428398318407012,1.1373380335365857,-0.4508786085175304,-3.178294112042683,0.5735071693978658,0.3693743449885671,3.076320741234756,-1.2262856088033538,-17.365097489316238,-24.029063835470083,2.329555745180739,9.875899240983376,-41.97505229145854,-4.032537774725275,26.990355527600563,34.01105220594842,37.55734267828795,1577399705.0,-27.68892146677038,-51.11730842512394,15.586339
70025,1577399705.65,-0.2443837548232657,0.4780227997570495,8.451999021651105,-0.0582199769555061,0.0924979373094508,9.63344994819455,0.7333264499571263,1.9007041423518476,10.599130749511716,-0.5316385408727134,2.1395799590320124,0.7406095179115855,1.5480227586699695,1.4603777629573171,-0.1436559165396341,6.701771805926067,0.5738793349847561,-0.0055824838033536,-17.365097489316238,-24.029063835470083,2.329555745180739,9.875899240983376,-50.22342501248751,-4.032537774725275,26.89450983915896,34.08293647227963,37.725072633060776,1577399705.0,-27.68892146677038,-51.11730842512394,15.586339
70026,1577399705.66,0.1291117041611083,0.5091474213390808,9.402497080733136,1.0694490049780865,-0.5132350827100794,10.093136666944552,0.5657323337461887,-0.9364248249333076,10.034099157714843,0.6585470060022866,-2.804267697217988,0.1912931116615854,-2.1751217725800305,0.4227801067073171,0.0394495522103658,-1.0496930378239329,0.6349144912347561,-0.5548988900533537,-18.42286992521367,-21.98403712606837,2.028967907092904,11.724906003451672,-48.20715612512488,-2.70508472897295,26.89450983915896,34.17878216072124,37.53338125617755,1577399705.0,-27.68892146677038,-51.11730842512394,15.586339
70027,1577399705.67,0.3637434668564208,1.3614832123547056,9.376160862471416,0.2195074156226178,0.1092573489305445,9.482615243604704,0.48193527564072,0.5096729778010662,7.620743884277343,1.2688985685022869,-2.590644650342988,0.0081876429115854,-0.5882077100800305,-4.643137862042683,0.2835901772103658,2.856556962176067,-0.3721655868902439,-0.1886879525533537,-17.188802083333332,-23.82456116452991,2.4798496642246564,11.724906003451672,-48.20715612512488,-2.70508472897295,27.229969748704587,34.17878216072124,37.725072633060776,1577399705.0,-27.68892146677038,-51.11730842512394,15.586339
70028,1577399705.68,0.5923897254013427,0.182338894727753,9.237297166182357,0.4613217832983991,0.4755702029344512,9.510148562696504,-0.327304885492092,0.4115107097346605,8.479065179443358,-2.1795877596227133,0.0796434355945121,-0.0375887242759145,-0.3745846632050305,2.482716630144817,-0.6777135337271342,-0.4088238971989328,5.365139100609756,0.1622641958841463,-17.629540598290596,-23.108801816239318,2.25440878565878,11.211293013877146,-46.6491301667083,-1.0088947260672014,26.96639410549016,34.202743582831644,37.653188366729566,1577399705.0,-27.68892146677038,-51.11730842512394,15.586339
70029,1577399705.69,0.0955928809189208,0.3247938935070494,9.249268174483136,0.3871015318335553,-0.1397396237257044,8.520146176221893,0.5465787204649387,0.0739282756526287,10.98220301513672,-1.843894400247713,1.346122927782012,-0.1444002477134145,-1.1985592725800305,-1.9270734089176829,0.3141077553353658,1.5443011028010671,0.4823266006097561,-2.385953577553354,-19.128051549145297,-21.98403712606837,2.930731421356415,9.875899240983376,-49.85683066933067,-4.032537774725275,27.08620121604217,33.939167939617214,37.58130410039836,1577399705.0,-27.68892146677038,-51.11730842512394,15.586339
70030,1577399705.7,-0.2659315697646719,0.0303070893078307,10.458340012862042,-0.8914021546898812,0.975958349907107,10.75872472846799,-0.5978496730897477,-0.1439440754215889,10.290278735351562,-2.0575174471227133,-1.034248165967988,-0.1138826695884145,-1.4732174757050305,-2.903635908917683,-0.6014195884146342,-1.8736676471989329,0.085598084984756,-1.9281899056783536,-19.128051549145297,-21.98403712606837,2.930731421356415,11.724906003451672,-44.1746183503996,-3.5900534261411665,26.89450983915896,34.08293647227963,37.58130410039836,1577399705.0,-27.68892146677038,-51.11730842512394,15.586339
70031,1577399705.71,-0.0959432518935781,0.8515182587414244,10.393696568037823,-0.1348344300805061,-0.4916872677686731,10.018916415479708,2.12914601782822,0.0068906291682537,9.107543115234376,0.2923360685022865,-0.912177853467988,0.0692227991615854,0.1136965867949695,1.5214129192073171,-0.2046910727896341,5.114857743426067,-10.687106993140244,0.3606284536966463,-17.541392895299143,-23.41555582264957,3.0810253404003385,11.724906003451672,-44.1746183503996,-3.5900534261411665,26.89450983915896,34.08293647227963,37.62922694461916,1577399705.0,-27.68892146677038,-51.11730842512394,15.586339
70032,1577399705.72,-0.1749519066787344,0.0518549042492374,9.434818803145244,0.1644407774390246,0.5054977236864039,10.93828985297971,-0.3668092128846696,1.2327218791682537,10.74996545410156,-0.3180154939977134,0.979911990282012,0.3133634241615854,-0.1151852491425304,-3.346140791730183,-0.0521031821646341,-2.087290694073933,-2.111667540015244,1.7491782583841462,-16.83621127136752,-22.597545138888886,2.930731421356418,11.211293013877146,-47.748913196178826,-3.5163060347104818,26.990355527600563,33.939167939617214,37.58130410039836,1577399705.0,-27.68892146677038,-51.11730842512394,15.586339
70033,1577399705.73,-0.4287372826552969,0.6743473358898618,10.783951438643292,0.3296406919898053,0.0996805422899195,10.05004103706174,1.6000274509336885,0.5743164226252849,10.319009155273436,-2.8204569002477133,-2.773750119092988,-0.9073397008384144,-1.1680416944550305,2.040211747332317,-0.8760777915396342,-14.477427412823932,3.198391053734756,0.6963218130716463,-17.71768830128205,-22.80204780982906,3.832494935619932,13.9848031575796,-50.22342501248751,-3.147569077557058,26.990355527600563,33.939167939617214,37.38961272351514,1577399705.0,-27.68892146677038,-51.11730842512394,15.586339
70034,1577399705.74,0.2583985938095458,0.9305269135265806,9.957951865889385,0.2338726255835553,0.592886084282107,8.929554660108613,-0.9904987453553727,-0.0649354206364327,9.366116894531247,-1.7523416658727131,-3.780830197217988,0.5575040491615855,-0.5882077100800305,-0.3096417682926829,-0.0826207602896341,-3.887827803448933,7.440334413109756,0.6658042349466463,-17.71768830128205,-22.80204780982906,3.832494935619932,13.163022374260352,-50.9566136988012,-1.6726212489433638,27.038278371821367,34.08293647227963,37.53338125617755,1577399705.0,-27.68892146677038,-51.11730842512394,15.586339
70035,1577399705.75,0.0261610327743895,0.3176112885265807,8.181454234053447,0.5523014463843366,0.6850628481981226,9.52451377265744,0.3801817050840799,-0.5485641559879952,9.361328491210935,0.3838888028772865,-1.003730587842988,0.4049161585365854,-1.930981147580031,0.9720965129573172,-0.2352086509146341,-4.009898115948933,3.183132264672256,-1.8061195931783536,-17.71768830128205,-23.62005849358974,2.63014358326858,13.163022374260352,-50.9566136988012,-1.6726212489433638,27.18204690448378,34.22670500494205,37.43753556773594,1577399705.0,-27.68892146677038,-51.11730842512394,15.586339
70036,1577399705.76,0.0692566626572025,0.4241532624035338,9.216946452071026,0.4541391783179303,0.4324745730516383,9.374876168897677,0.7572684665586887,-0.0242339924137764,9.74200655517578,-1.3556131502477131,1.9564744902820124,0.2523282679115856,-1.1985592725800305,-3.971751143292683,-0.0826207602896341,5.786244462176067,-1.837009336890244,-1.2568031869283538,-18.24657451923077,-22.80204780982905,2.329555745180742,15.628364724218088,-50.22342501248751,-1.6726212489433638,26.798664150717343,33.939167939617214,37.58130410039836,1577399705.0,-27.68892146677038,-51.11730842512394,15.586339
70037,1577399705.77,0.1219290991806395,-0.7573852568835745,8.540584483076886,0.4924464048804303,-0.3528235714796107,10.876040609815648,-1.184429079828029,0.0404094524104412,10.134655627441406,-3.0035623689977133,-3.139961056592988,-0.0223299352134145,-0.9544186475800304,0.7889910442073171,-0.7540074790396342,-2.484019209698933,1.4283715224847562,-0.1276527963033537,-16.48362045940171,-21.370529113247866,2.4798496642246564,10.286789632642996,-45.82429289460539,-3.4425586432797965,27.08620121604217,34.08293647227963,37.62922694461916,1577399705.0,-27.68892146677038,-51.11730842512394,15.586339
70038,1577399705.78,-0.1270678734756094,1.0310833832531432,10.410455979658916,0.3703421202124616,-0.0152411373975794,9.35811675727658,2.09083879126572,1.4194696086604413,9.809044201660155,1.0552755216272869,-3.323066525342988,0.4964688929115854,-0.8018307569550305,-0.8284405964176829,0.2225550209603658,-2.209361006573933,1.7640648818597562,0.4826987661966463,-16.48362045940171,-21.370529113247866,2.4798496642246564,11.519460807621863,-42.15834946303696,0.6872952768385466,27.18204690448378,34.27462784916285,37.58130410039836,1577399705.0,-27.68892146677038,-51.11730842512394,15.586339
70039,1577399705.79,0.2045290564560302,0.8898254853039244,10.426018290449932,-0.3718603944359749,1.3446654055711695,11.611060519483615,1.6096042575743137,0.7155743205745037,11.372457885742186,-1.3861307283727131,-5.520332150342988,0.0539640100990854,-5.135326850705031,1.1857195598323171,0.3751429115853658,-8.221323897198932,1.1231957412347562,0.0859702505716463,-17.541392895299143,-24.029063835470083,2.179261826136821,11.519460807621863,-42.15834946303696,0.6872952768385466,26.822625572827747,33.891245095396414,37.58130410039836,1577399705.0,-27.68892146677038,-51.11730842512394,15.586339
70040,1577399705.8,0.4834535498642333,-0.0175769438952933,9.89809682438548,0.4301971617163678,0.0218689883348419,9.281502304151582,-0.8540292507264664,-0.6682742389958077,10.087968695068358,-2.3626932283727133,-0.6680372284679879,0.0692227991615854,-2.5108151319550305,1.4451189738948171,-0.0521031821646341,-3.613169600323933,7.043605897484756,-1.9434486947408536,-17.71768830128205,-23.2110531517094,1.7283800690050692,9.875899240983376,-41.42516077672328,-3.737548209002536,26.89450983915896,34.17878216072124,37.46149698984635,1577399705.0,-27.68892146677038,-51.11730842512394,15.586339
70041,1577399705.81,0.3254362402939208,-0.5562723174304496,9.72571430485423,-0.9321035829125374,-0.0727019772413294,8.57281861274533,2.114780807867282,1.6684665813166912,10.951078393554686,-2.9730447908727133,0.2780076934070121,0.4049161585365854,-0.7713131788300305,0.148121903582317,-0.2657262290396341,-5.352671553448933,0.4212914443597561,-0.8905922494283537,-16.48362045940171,-23.006550480769228,1.8786739880489869,12.341241590941108,-50.22342501248751,-3.737548209002536,26.89450983915896,34.17878216072124,37.62922694461916,1577399705.0,-27.68892146677038,-51.11730842512394,15.586339
70042,1577399705.82,0.3589550635361083,0.6216748993664244,8.95956977360423,0.1764117857398053,0.324735498344607,9.48500944526486,-2.343222683343654,0.8113423869807537,8.571241943359375,1.5435567716272869,0.5221483184070121,0.4049161585365854,1.1818118211699695,-0.7674054401676829,-0.5098668540396342,-0.9886578815739328,3.686672303734756,1.2456382193216462,-16.48362045940171,-23.006550480769228,1.8786739880489869,10.286789632642996,-49.49023632617382,-2.852579511834319,26.990355527600563,34.17878216072124,37.62922694461916,1577399705.0,-27.68892146677038,-51.11730842512394,15.586339
70043,1577399705.83,0.5720390112900146,1.0310833832531432,9.062520444990948,0.2817566587866803,0.3319181033250757,7.9024421479015805,2.935991977300876,2.3077184245784097,8.240842114257813,0.8263936856897867,-0.9426954315929876,-0.1291414586509145,-3.5484127882050305,1.8876238567073167,-0.0215856040396341,-1.9041852253239329,-1.1961401962652438,1.2761557974466462,-17.541392895299143,-23.2110531517094,2.63014358326858,11.519460807621863,-49.49023632617382,-2.2626003803888417,26.84658699493815,34.08293647227963,37.58130410039836,1577399705.0,-27.68892146677038,-51.11730842512394,15.586339
70044,1577399705.84,-0.0576360253310781,0.2481794403820494,8.270039695479229,-0.9680166078148812,0.4983151187059351,9.038490835645725,0.19463107642197,0.6281859599788011,9.102754711914065,-3.1866678377477133,-0.8511426972179879,-0.3275057164634145,0.6477542039824695,-2.354319502667683,-0.0063268149771341,-3.384287764386433,-0.2653540634527438,0.5437339224466463,-17.71768830128205,-24.029063835470083,2.63014358326858,11.005847818047336,-47.01572450986512,-2.3363477718195265,26.990355527600563,34.03501362805882,37.58130410039836,1577399705.0,-27.68892146677038,-51.11730842512394,15.586339
70045,1577399705.85,0.0860160742782958,-0.5538781157702933,10.422426987959698,0.1500755674780866,0.0110950808641383,8.840969198682831,-0.5906670681092789,-2.315484981183308,8.904035974121093,-3.2477029939977133,-3.231513790967988,-0.2969881383384145,-1.3511471632050305,0.7584734660823171,-0.1131383384146341,1.6053362590510671,1.5504418349847562,0.4216636099466463,-16.659915865384615,-24.438069177350428,1.4277922309172282,13.573912765919976,-43.62472683566433,-3.737548209002536,26.89450983915896,33.939167939617214,37.58130410039836,1577399705.0,-27.68892146677038,-51.11730842512394,15.586339
70046,1577399705.86,0.2272739722275145,-0.0463073638171683,9.97471127751048,0.4325913633765241,0.171506592094607,9.547258688428924,0.5441845188047825,-2.2221111164372136,10.196904870605469,-3.0035623689977133,-2.346504025342988,-0.0223299352134145,-0.5576901319550305,-2.506907393292683,-0.2046910727896341,-0.6529645221989329,1.4283715224847562,-1.6230141244283538,-16.659915865384615,-24.438069177350428,1.4277922309172282,15.012029136728652,-41.24186360514485,-2.70508472897295,26.990355527600563,33.939167939617214,37.53338125617755,1577399705.0,-27.68892146677038,-51.11730842512394,15.586339
70047,1577399705.87,0.4319782141708739,0.5474546479015806,10.643890641524152,-0.1084982118187879,0.4719789004442168,10.182919229200412,-0.906701687249904,1.1070262920100506,8.061276989746093,-0.7757791658727133,-1.034248165967988,0.3896573694740854,-1.1070065382050305,0.7432146770198171,0.0699671303353658,3.848378251238567,0.3907738662347562,-0.8905922494283536,-17.012506677350427,-24.029063835470083,2.179261826136821,13.36846757009016,-41.60845794830169,-3.1475690775570584,27.038278371821367,34.22670500494205,37.67714978883997,1577399705.0,-27.68892146677038,-51.11730842512394,15.586339
70048,1577399705.88,0.2583985938095458,0.7437791840343931,10.228496653487042,1.2633793394507429,0.1355935671922633,9.279108102491424,-0.083096316156154,1.5942463298518474,9.897629663085937,0.7806173185022866,0.7662889434070121,0.0081876429115854,0.2052493211699695,-0.2486066120426829,-0.2657262290396341,1.0560198528010671,8.081203553734756,-0.6159340463033537,-16.83621127136752,-24.233566506410256,2.7804375023124974,11.724906003451672,-41.97505229145854,-3.5900534261411665,27.038278371821367,34.22670500494204,37.725072633060776,1577399705.0,-27.68892146677038,-51.11730842512394,15.586339
70049,1577399705.89,1.168195224668921,-0.321640554735137,10.147093797041729,1.6057501768530864,0.4133209597703882,9.44670221870236,-1.2562551296327165,-0.2349237385075264,9.107543115234376,-3.980124868997713,-5.550849728467988,-0.1444002477134145,-2.6023678663300305,3.993336747332317,-0.4488316977896341,-1.9347028034489329,0.3297387099847561,-0.6159340463033537,-17.012506677350427,-22.80204780982906,2.63014358326858,12.546686786770922,-47.10737309565434,-3.8850429918639056,26.89450983915896,34.27462784916285,37.62922694461916,1577399705.0,-27.68892146677038,-51.11730842512394,15.586339
70050,1577399705.9,1.0341199317001708,0.5390749420910338,9.819088169600322,1.1245156431616803,1.0310249880907008,9.40360658881955,0.71177863501572,0.1385717204768475,7.682993127441406,-1.8133768221227131,-0.790107540967988,-0.1138826695884145,-0.4661373975800305,-1.5913800495426829,0.4666956459603658,0.1404925090510671,4.907375428734756,-0.2802406869283537,-17.012506677350427,-22.80204780982906,2.63014358326858,9.875899240983376,-42.15834946303696,-0.4926629860524088,26.96639410549016,34.08293647227963,37.58130410039836,1577399705.0,-27.68892146677038,-51.11730842512394,15.586339
70051,1577399705.91,0.8377953955673583,0.5833676728039244,8.203002048994854,1.1161359373511333,0.4755702029344507,7.503807571485565,0.9703524143125954,-0.2720338642399483,8.02416686401367,1.2994161466272869,4.062187380907012,-0.0528475133384145,-0.8933834913300305,1.5824480754573171,-0.4335729087271341,1.7579241496760671,12.704616639672256,-1.9739662728658536,-18.95175614316239,-23.006550480769228,2.179261826136821,9.875899240983376,-41.79175511988012,-2.852579511834319,26.990355527600563,34.058975050169224,37.58130410039836,1577399705.0,-27.68892146677038,-51.11730842512394,15.586339
70052,1577399705.92,1.0796097632431396,0.1835359955578307,9.076885654951887,0.4086493467749616,0.7149903689500757,9.094754574659394,1.9328214816954072,0.4570005412776287,10.462661254882812,-0.9283670564977134,-1.125800900342988,-0.9683748570884144,0.3578372117949695,-1.1641339557926829,0.8023890053353658,6.579701493426067,7.806545350609756,-2.019742640053354,-18.070279113247864,-23.2110531517094,2.63014358326858,11.724906003451672,-50.773316527222775,-3.5900534261411665,26.990355527600563,34.08293647227963,37.53338125617755,1577399705.0,-27.68892146677038,-51.11730842512394,15.586339
70053,1577399705.93,0.9359576636337644,-0.0702493804187308,9.143923301436262,0.9186143003882428,-0.0583367672803919,9.789073056104703,-1.6465100002381852,-0.5796887775700265,8.904035974121093,-1.0504373689977131,2.7804490996570124,-0.2359529820884145,-0.9849362257050304,2.284352372332317,-0.5709020102896342,2.826039384051067,11.895900819359756,-1.7145668588033538,-18.59916533119658,-24.233566506410256,1.8786739880489869,9.875899240983376,-46.557481580919074,-3.737548209002536,26.84658699493815,34.08293647227963,37.725072633060776,1577399705.0,-27.68892146677038,-51.11730842512394,15.586339
70054,1577399705.94,0.5492940955185301,0.4133793549328307,9.79634325382884,0.4900522032202741,0.6144338992235132,8.192140548780486,2.1866068576719697,2.2358923747737225,8.391676818847655,-1.9812235018102131,2.6126024199695124,-0.7089754430259145,-1.1375241163300305,-0.7979230182926829,0.2530725990853658,2.642933915301067,0.3602562881097561,-0.6464516244283537,-18.59916533119658,-24.233566506410256,1.8786739880489869,9.875899240983376,-45.82429289460539,-4.032537774725275,26.94243268337976,34.08293647227963,37.53338125617755,1577399705.0,-27.68892146677038,-51.11730842512394,15.586339
70055,1577399705.95,-0.1557982933974844,0.4277445648937682,9.78317514469798,0.408649346774962,0.3929702456590606,9.919557046583222,0.3430715793516574,0.0679427715022386,11.486182464599608,-1.5082010408727131,0.1864549590320121,-0.7242342320884145,-1.6410641553925305,0.9720965129573172,0.1615198647103658,-3.506358076886433,7.364040467797256,-0.7380043588033537,-17.893983707264955,-22.188539797008545,2.4798496642246564,9.875899240983376,-48.75704763986013,-2.852579511834319,26.89450983915896,34.32255069338365,37.653188366729566,1577399705.0,-27.68892146677038,-51.11730842512394,15.586339
70056,1577399705.96,-0.1534040917373282,0.6599821259289244,10.218919846846417,-1.3582714784203498,0.707807763969607,10.090742465284396,0.4675700656797824,2.413063297625285,11.264718811035156,-0.1349100252477134,4.001152224657012,-0.4800936070884145,-2.1446041944550305,4.481617997332317,-0.1741734946646341,-6.207163740948933,3.808742616234756,0.7878745474466463,-17.012506677350427,-23.62005849358974,2.028967907092904,9.875899240983376,-45.82429289460539,-4.032537774725275,27.038278371821367,34.08293647227963,37.341689879294336,1577399705.0,-27.68892146677038,-51.11730842512394,15.586339
70057,1577399705.97,0.6390766577743896,0.415773556592987,10.64508774235423,0.3823131285132428,0.2576978518602321,9.79864986274533,-0.992892947015529,-2.791931111554401,10.08677159423828,-1.2335428377477131,-0.8816602753429879,-0.3275057164634145,-0.6492428663300305,2.406422684832317,-0.0521031821646341,-3.765757490948933,4.235988709984756,-1.3483559213033538,-17.012506677350427,-23.62005849358974,2.63014358326858,10.286789632642996,-50.9566136988012,-2.852579511834319,26.990355527600563,34.08293647227963,37.725072633060776,1577399705.0,-27.68892146677038,-51.11730842512394,15.586339
70058,1577399705.98,0.624711447813452,0.4660517914562682,9.768809934737044,1.4453386656226177,-0.5683017208936731,10.303826413038305,2.380537192144626,0.4186933147151287,10.168174450683592,0.2007833341272865,3.2992479277820124,-0.5411287633384145,-0.0694088819550304,0.9415789348323172,0.5277308022103658,8.349721024676068,3.503566834984756,-2.050260218178354,-17.012506677350427,-24.438069177350428,1.7283800690050692,10.286789632642996,-50.9566136988012,-2.852579511834319,26.89450983915896,34.22670500494204,37.58130410039836,1577399705.0,-27.68892146677038,-51.11730842512394,15.586339
70059,1577399705.99,0.2512159888290775,0.1117099457531432,8.447210618330791,-0.6735298036156624,0.8299120486375757,9.36649646308713,-0.1333745510194358,1.4314406169612224,9.62109937133789,-0.6537088533727133,4.306328005907012,0.1912931116615854,-0.9544186475800304,1.2925310832698171,-0.1283971274771341,0.5372210246760671,2.313381288109756,-0.5701576791158537,-17.71768830128205,-22.80204780982906,3.5319070975320974,10.286789632642996,-50.9566136988012,-2.852579511834319,26.894509839158957,33.98709078383802,37.60526552250876,1577399705.0,-27.68892146677038,-51.11730842512394,15.586339
70060,1577399706.0,0.385291281797827,0.2146606171398619,10.24286186344798,0.6959535459937116,-0.8963073483350794,9.870475912550022,0.92246838110947,-0.6826394489567452,9.7683427734375,0.7500997403772866,-2.010810665967988,-0.6937166539634145,-1.5342526319550305,3.901784012957317,0.4056604897103658,-0.7139996784489329,-4.064792540015244,-0.0971352181783536,-17.012506677350427,-22.80204780982906,2.63014358326858,11.519460807621863,-50.9566136988012,-2.852579511834319,26.798664150717343,34.22670500494204,37.772995477281576,1577399706.0,-27.68892227804368,-51.117146732537705,15.884687
70061,1577399706.01,0.8593432105087645,0.4780227997570495,10.824652866865948,0.8946722837866803,0.3750137332078883,10.064406247022678,0.6758656101133762,0.4737599528987224,9.24401260986328,-3.5528787752477133,0.3085252715320121,-0.6021639195884145,-3.3042721632050305,2.803151200457317,-0.7845250571646342,-2.056773115948933,1.886135194359756,0.6963218130716463,-17.188802083333332,-23.006550480769228,2.7804375023124974,10.081344436813186,-41.97505229145854,-1.2301369003592555,27.08620121604217,34.08293647227963,37.58130410039836,1577399706.0,-27.68892227804368,-51.117146732537705,15.884687
70062,1577399706.02,0.1339001074814208,0.0710085175304869,9.40010287907298,0.3751305235327741,0.5282426394578883,10.297840908887911,0.8757814487364235,-0.335480208234089,8.136694342041014,-0.7147440096227134,5.923759646532012,0.0081876429115854,-1.8241696241425305,0.9110613567073172,0.0852259193978658,1.6053362590510671,-2.859348204077744,0.3453696646341462,-16.83621127136752,-22.59754513888889,1.5780861499611456,10.90312522013243,-47.10737309565434,-2.2626003803888417,26.84658699493815,33.91520651750682,37.50941983406715,1577399706.0,-27.68892227804368,-51.117146732537705,15.884687
70063,1577399706.03,-0.2862822838760005,0.2900779694347838,10.00583589909251,-0.5370603089867562,0.573732471000857,9.37248196723752,1.3701840915586885,2.635724052019817,10.627861169433594,-1.4776834627477131,2.7194139434070124,-0.2359529820884144,-0.8933834913300305,4.512135575457317,-0.0521031821646341,8.899037430926068,-1.6233862900152438,-0.6769692025533537,-17.012506677350427,-23.2110531517094,3.5319070975320974,10.081344436813186,-44.907807036713294,-2.70508472897295,27.03827837182137,34.03501362805883,37.58130410039836,1577399706.0,-27.68892227804368,-51.117146732537705,15.884687
70064,1577399706.04,0.8569490088486083,0.549848849561737,9.25405657780345,1.055083795017149,0.2792456668016383,11.958219760206273,-1.0814784084413105,-1.072894319562214,11.645396875,2.2149434903772867,-0.942695431592988,-0.8768221227134145,-0.3745846632050305,-0.1875714557926829,-0.0215856040396341,-4.040415694073933,6.524807069359756,-0.7990395150533537,-18.59916533119658,-22.188539797008545,3.38161317848818,10.081344436813186,-44.907807036713294,-2.70508472897295,26.89450983915896,34.17878216072124,37.58130410039836,1577399706.0,-27.68892227804368,-51.117146732537705,15.884687
70065,1577399706.05,0.4666941382431395,0.5043590180187683,10.745644212080792,0.928191107028868,0.6958367556688257,10.346922042921117,-0.8516350490663102,0.6868439006526287,9.849745629882811,-2.0575174471227133,-0.0882032440929878,-0.3885408727134145,-1.0764889600800305,2.284352372332317,0.4972132240853658,-0.7445172565739329,2.038723084984756,-0.9516274056783536,-17.012506677350427,-22.80204780982906,3.5319070975320974,9.875899240983376,-43.99132117882117,-2.5575899461115803,26.65489561805493,34.08293647227963,37.58130410039836,1577399706.0,-27.68892227804368,-51.117146732537705,15.884687
70066,1577399706.06,0.2643840979599364,0.2733185578136905,10.513406651045637,0.1835943907202746,0.0122921816942169,9.558032595899627,-0.3632179103944362,1.0411857463557543,10.474632263183594,-0.7605203768102134,3.4365770293445124,-0.0223299352134145,-1.4579586866425305,3.825490067644817,0.1920374428353657,-3.140147139386433,6.173854920922256,0.8794272818216462,-17.36509748931624,-23.00655048076923,3.3816131784881733,10.286789632642998,-44.72450986513486,-3.737548209002536,26.96639410549016,34.058975050169224,37.60526552250876,1577399706.0,-27.68892227804368,-51.117146732537705,15.884687
70067,1577399706.07,0.337407248594702,0.1356519623547057,9.55333178532298,-0.6950776185570686,1.0693322146532007,10.162568515089085,1.8849374484922825,2.305324222918254,9.267954626464844,-2.0575174471227133,1.620781130907012,-0.2054354039634145,2.280444633669969,-0.0044659870426829,0.0089319740853658,8.776967118426068,-1.6233862900152438,1.6728843130716462,-16.659915865384615,-23.62005849358974,3.832494935619932,11.519460807621863,-44.35791552197802,-4.032537774725275,27.038278371821367,34.17878216072124,37.53338125617755,1577399706.0,-27.68892227804368,-51.117146732537705,15.884687
70068,1577399706.08,1.0963691748642332,0.3152170868664244,8.674659776045635,0.7629911924780866,1.141158264457888,9.41557759712033,-1.5866549587342789,-1.621166499737995,8.980650427246093,2.9778829435022867,3.909599490282013,-0.0223299352134145,-0.5271725538300305,4.267994950457317,0.5277308022103658,-2.087290694073933,4.205471131859756,0.0859702505716463,-17.541392895299143,-23.82456116452991,2.7804375023124974,14.806583940898845,-42.89153814935064,-1.6726212489433638,26.990355527600563,34.08293647227963,37.62922694461916,1577399706.0,-27.68892227804368,-51.117146732537705,15.884687
70069,1577399706.09,0.3254362402939208,0.0542491059093932,9.61079262516673,0.767779595798399,0.4372629763719508,8.072430465772674,-0.5763018581483415,-0.565323567609089,8.8872765625,-2.9730447908727133,3.879081912157013,0.1912931116615854,-1.5952877882050305,5.702321122332317,0.4666956459603658,0.1710100871760671,1.5809594131097562,-1.4704262338033538,-18.59916533119658,-24.233566506410256,2.7804375023124974,14.806583940898845,-50.59001935564436,-1.6726212489433638,26.798664150717343,34.17878216072124,37.58130410039836,1577399706.0,-27.68892227804368,-51.117146732537705,15.884687
70070,1577399706.1,-0.3748677453017813,0.4038025482922062,9.51502455876048,-0.042657666164491,0.59767448760242,9.836957089307832,-0.681646731195217,0.5611483134944256,10.171765753173828,0.9789815763147868,6.091606326219512,0.3286222132240854,-1.3053707960175305,6.099049637957317,0.1157434975228658,-4.528696944073933,4.266506288109756,-1.3025795541158536,-16.659915865384612,-23.82456116452991,2.630143583268577,13.573912765919976,-47.65726461038961,0.6872952768385466,26.84658699493815,34.01105220594842,37.58130410039836,1577399706.0,-27.68892227804368,-51.117146732537705,15.884687
70071,1577399706.11,-0.3401518212295157,-0.5490897124499807,8.763245237471416,-1.2122251771508186,-0.1349512204053919,9.21207045600705,1.123581320562595,2.05872145192216,12.868833923339842,1.0857930997522869,4.580986209032012,0.3743985804115854,1.5175051805449695,1.4298601848323171,0.8329065834603658,-7.366831709698933,-18.591159727515244,0.6658042349466463,-17.188802083333332,-23.41555582264957,2.7804375023124974,9.875899240983376,-49.49023632617382,-4.032537774725275,26.89450983915896,34.17878216072124,37.341689879294336,1577399706.0,-27.68892227804368,-51.117146732537705,15.884687
70072,1577399706.12,-0.2946619896865469,0.5043590180187683,9.3115174176472,0.5882144712866804,-0.0415773556592982,11.309391110303928,-0.7606553859803727,0.382780289812785,11.214440576171874,1.7876973966272869,0.8273240996570121,0.3133634241615854,0.4493899461699695,-0.1875714557926829,0.3141077553353658,-1.8431500690739329,-19.201511290015244,2.374788609946646,-18.24657451923077,-23.006550480769228,2.7804375023124974,9.875899240983376,-49.49023632617382,-4.032537774725275,26.84658699493815,33.939167939617214,37.53338125617755,1577399706.0,-27.68892227804368,-51.117146732537705,15.884687
70073,1577399706.13,-0.3090271996474844,0.8179994354992368,11.030554209639384,-0.4293212342797249,-0.0176353390577362,11.600286612012912,0.6399525852110325,0.2283542827327073,11.182118853759764,-1.0199197908727131,-1.858222775342988,-0.0223299352134145,-0.2830319288300305,1.2925310832698171,0.3751429115853658,-12.036021162823932,-18.347019102515244,3.381868688071646,-16.48362045940171,-23.82456116452991,2.4798496642246564,11.519460807621863,-46.55748158091908,-1.2301369003592555,27.08620121604217,34.130859316500434,37.55734267828795,1577399706.0,-27.68892227804368,-51.117146732537705,15.884687
70074,1577399706.14,-0.4670445092177974,0.287683767774628,11.78113643009837,-1.3630598817406625,0.1020747439500758,9.791467257764864,-0.877971267328029,0.2343397868830975,9.3086560546875,-0.5468973299352134,0.0949022246570123,0.3286222132240856,2.921313774294969,-3.239329268292683,0.4666956459603658,-2.850230147198933,-6.017917540015244,1.0320151724466462,-17.45324519230769,-22.699796474358973,2.1041148666148626,10.081344436813186,-44.907807036713294,-3.2950638604184275,26.822625572827747,34.03501362805883,37.62922694461916,1577399706.0,-27.68892227804368,-51.117146732537705,15.884687
70075,1577399706.15,0.442752121641577,0.4804170014172057,9.141529099776106,-0.6400109803734749,1.160311877739138,9.815409274366427,2.4595458469297826,-0.814320540265339,9.112331518554686,1.2994161466272869,3.5433885527820124,0.4964688929115854,-0.0388913038300304,2.406422684832317,0.9244593178353658,-3.399546553448933,-4.247898008765244,-1.5924965463033538,-18.070279113247864,-23.2110531517094,2.028967907092904,10.286789632642996,-45.09110420829171,-3.4425586432797965,26.990355527600563,33.939167939617214,37.43753556773595,1577399706.0,-27.68892227804368,-51.117146732537705,15.884687
70076,1577399706.16,1.1634068213486082,0.8419414521007994,6.776057859541729,1.160428668064024,1.0765148196336696,8.352552060010956,-0.2866034572694352,0.0787166789729412,5.990292553710937,1.9097677091272869,2.9330369902820124,0.8931974085365855,-1.2595944288300305,7.594410966082317,0.0394495522103658,3.436390946551067,9.515529725609756,-0.1886879525533537,-18.070279113247864,-23.2110531517094,2.028967907092904,10.286789632642996,-45.09110420829171,-3.4425586432797965,26.89450983915896,34.370473537604454,37.58130410039836,1577399706.0,-27.68892227804368,-51.117146732537705,15.884687
70077,1577399706.17,0.0967899817489994,0.6982893524914243,7.664306675459698,1.1723996763648052,0.1116515505907008,6.169040145948456,1.1738595554258762,-0.0050803791325264,8.652644799804687,-1.4319070955602131,2.5668260527820124,-0.0681063024009145,1.5480227586699695,3.962819169207317,0.2835901772103658,1.4527483684260671,5.059963319359756,1.8254722036966464,-18.24657451923077,-23.00655048076923,2.4798496642246595,10.90312522013243,-50.773316527222775,8.799508334213863,26.91847126126936,34.17878216072124,37.341689879294336,1577399706.0,-27.68892227804368,-51.117146732537705,15.884687
70078,1577399706.18,-0.4239488793349844,0.4612633881359557,9.220537754561262,-0.7130341310082405,1.2656567507860133,11.22439695136838,-0.958177022943264,1.3356725505549725,9.54448491821289,1.3604513028772869,1.407158084032012,0.3133634241615854,-0.7255368116425305,0.1633806926448171,0.1767786537728658,-0.4393414753239328,6.524807069359756,1.0167563833841462,-17.012506677350427,-23.62005849358974,3.231319259444256,11.82762860136658,-47.38231885302197,2.8259696283284037,26.84658699493815,34.08293647227963,37.653188366729566,1577399706.0,-27.68892227804368,-51.117146732537705,15.884687
70079,1577399706.19,-0.3712764428115469,0.1141041474132994,10.726490598799542,0.2961218687476178,0.2816398684617945,8.917583651807831,2.605592148199314,-0.9220596149723702,11.05881746826172,2.0318380216272867,-4.726875119092988,-0.6937166539634145,-0.8018307569550305,4.603688309832317,0.4972132240853658,-1.9347028034489329,7.470851991234756,-0.5854164681783537,-17.012506677350427,-23.62005849358974,3.231319259444256,13.163022374260352,-48.39045329670329,-4.032537774725275,27.18204690448378,34.17878216072124,37.38961272351514,1577399706.0,-27.68892227804368,-51.117146732537705,15.884687
70080,1577399706.2,0.4595115332626708,-0.0678551787585745,10.695365977217511,1.3375995909155864,-1.3392346554639856,8.22805357368283,2.03337795142197,1.3572203654963786,13.546392993164062,-1.0809549471227131,-3.139961056592988,-0.2359529820884145,-0.3440670850800305,-0.1875714557926829,0.2530725990853658,-9.869273115948932,-1.4707983993902438,-2.172330530678354,-17.012506677350427,-23.62005849358974,3.231319259444256,9.875899240983376,-48.75704763986013,-4.032537774725275,27.038278371821367,34.03501362805883,37.58130410039836,1577399706.0,-27.68892227804368,-51.117146732537705,15.884687
70081,1577399706.21,-0.2599460656142818,0.378663430860565,10.928800639082745,-0.5705791322289436,1.4428276736375758,10.447478512647676,-1.510040505609279,1.6421303630549724,9.80665,-1.7523416658727131,4.443657107469512,0.5880216272865855,-0.6187252882050305,-4.643137862042683,1.3211878334603655,-0.1036481159489328,1.855617616234756,-1.3788734994283538,-18.158426816239317,-23.722309829059828,2.1041148666148626,9.875899240983376,-48.75704763986013,-4.032537774725275,26.94243268337976,33.747476562734,37.58130410039836,1577399706.0,-27.68892227804368,-51.117146732537705,15.884687
70082,1577399706.22,0.8090649756454833,0.4061967499523619,9.943586655928447,0.2506320372046496,0.2122080203172638,10.407974185255098,-0.6840409328553733,-0.0326136982243238,10.870872637939453,3.832375131002287,0.0949022246570121,0.2523282679115854,1.1665530321074693,3.428761552019817,-0.3115025962271341,1.1933489543635671,-3.027194883765244,-1.6230141244283538,-17.188802083333332,-24.6425718482906,2.7804375023124974,12.443964188856016,-49.765182083541454,-3.9587903832945903,26.89450983915896,34.08293647227963,37.46149698984635,1577399706.0,-27.68892227804368,-51.117146732537705,15.884687
70083,1577399706.23,0.3398014502548583,0.2409968354015807,9.711349094893292,1.0024113584937115,-0.2666323117139857,8.728441720655487,2.12914601782822,2.5327733806330985,11.113884106445312,3.5271993497522867,0.8578416777820121,0.2828458460365854,-1.1680416944550305,3.840748856707317,1.6873987709603655,2.581898759051067,-11.541599180640244,3.229280797446646,-17.365097489316238,-25.256079861111107,3.231319259444256,9.875899240983376,-42.15834946303696,-4.032537774725275,26.89450983915896,33.939167939617214,37.62922694461916,1577399706.0,-27.68892227804368,-51.117146732537705,15.884687
70084,1577399706.24,0.9838416968368896,0.540272042921112,8.825494480635479,0.4038609434546491,1.1914364993211697,11.101095565870336,-2.5036341945741234,0.0428036540705975,10.031704956054687,1.6656270841272869,5.191337771532012,0.4354337366615854,-0.3745846632050305,0.9720965129573172,0.2225550209603658,-5.108530928448933,-11.419528868140244,3.656526891196646,-16.83621127136752,-23.82456116452991,2.7804375023124974,10.69768002430262,-43.62472683566433,-3.4425586432797965,26.89450983915896,34.27462784916285,37.62922694461916,1577399706.0,-27.68892227804368,-51.117146732537705,15.884687
70085,1577399706.25,0.0908044775986083,0.8634892670422056,7.99470650456126,0.2099306089819933,-0.2833917233350794,8.570424411085174,0.9703524143125954,-0.3582251240055733,8.321047869873047,0.0176778653772865,4.031669802782012,-0.0833650914634145,-0.3593258741425305,4.634205887957317,0.0547083412728658,-0.3630475300114328,-4.080051329077744,1.1846030630716462,-16.83621127136752,-23.82456116452991,2.7804375023124974,10.286789632642998,-46.92407592407592,-3.590053426141166,26.89450983915896,34.17878216072124,37.70111121095037,1577399706.0,-27.68892227804368,-51.117146732537705,15.884687
70086,1577399706.26,-0.353319930360375,0.4229561615734557,9.523404264571028,-1.444462738185975,1.8809665774461692,11.268689682081272,-1.9936692409608412,-1.092047932843464,8.312668164062499,0.5975118497522866,0.1864549590320121,-0.2359529820884144,-0.2219967725800304,2.559010575457317,-0.7234899009146342,1.5137835246760671,3.167873475609756,-1.4093910775533538,-17.012506677350427,-24.233566506410256,3.5319070975320974,11.519460807621863,-49.12364198301698,5.112138762679628,26.870548417048557,34.08293647227963,37.43753556773595,1577399706.0,-27.68892227804368,-51.117146732537705,15.884687
70087,1577399706.27,-0.4263430809951407,-0.1803826567859183,9.907673631026103,-0.5801559388695686,-0.4821104611280482,9.236012472608612,2.1937894626524383,1.5679101115901286,12.643778967285156,0.0481954435022865,0.5221483184070121,-0.2664705602134145,-1.0154538038300305,6.404225419207317,0.7413538490853658,-3.369028975323933,-7.269138243140244,-1.8061195931783536,-18.24657451923077,-24.6425718482906,2.179261826136821,9.875899240983376,-50.59001935564436,3.3422013683431966,26.89450983915896,34.27462784916285,37.58130410039836,1577399706.0,-27.68892227804368,-51.117146732537705,15.884687
70088,1577399706.28,-0.9123660180068596,0.4756285980968932,10.858171690108136,-0.0677967835961311,-0.7454726437452357,9.71724700630002,-1.742278066644435,1.5104492717463789,9.907206469726562,0.5364766935022866,3.2382127715320124,0.1302579554115854,2.127856743044969,-5.009348799542683,-0.0826207602896341,1.8799944621760671,-3.179782774390244,1.0625327505716462,-17.365097489316238,-23.62005849358974,2.329555745180739,13.163022374260352,-48.02385895354645,6.587086591293322,26.89450983915896,33.939167939617214,37.725072633060776,1577399706.0,-27.68892227804368,-51.117146732537705,15.884687
