,timestamp,acc_x_dashboard,acc_y_dashboard,acc_z_dashboard,acc_x_above_suspension,acc_y_above_suspension,acc_z_above_suspension,acc_x_below_suspension,acc_y_below_suspension,acc_z_below_suspension,gyro_x_dashboard,gyro_y_dashboard,gyro_z_dashboard,gyro_x_above_suspension,gyro_y_above_suspension,gyro_z_above_suspension,gyro_x_below_suspension,gyro_y_below_suspension,gyro_z_below_suspension,mag_x_dashboard,mag_y_dashboard,mag_z_dashboard,mag_x_above_suspension,mag_y_above_suspension,mag_z_above_suspension,temp_dashboard,temp_above_suspension,temp_below_suspension,timestamp_gps,latitude,longitude,speed
112776,1577398185.49,-0.2310696577862993,0.8392552746284292,11.238207407286108,0.7269029820884146,-0.1894923021270001,11.43990429836366,-2.365243221028645,0.102152604166666,11.865891446940102,1.6096161633003048,0.4168254573170732,3.657643387957317,1.3444481826410062,3.671785680259146,4.259621224752287,-2.6148841494605657,22.67056419735863,2.5618416922433034,-11.01417607164942,-9.268862751831502,-2.866098646723648,-26.280718948297075,-3.229432007036167,-42.283314821329306,29.5302662713032,32.597328301434686,32.30979123610986,1577398184.999,-27.70495694675038,-51.10941253993846,22.414103
112777,1577398185.5,-0.4537304121808305,-0.4512194201957885,12.344328574278297,1.1099752477134146,2.487225153927686,11.643411439476942,-1.8624608723958327,-1.5977305745442705,9.13650155436198,-0.2214385241996951,0.3252727229420732,3.108326981707317,0.3984032607660062,-0.8753334603658537,3.0389180997522867,-2.4928138369605657,20.77847435360863,2.3482186453683034,-12.10077640158793,-5.753087225274726,-3.139060422602094,-27.32557050877363,5.532909355305194,-39.93244274850602,29.72195764818641,32.6931739898763,32.16602270344745,1577398184.999,-27.70495694675038,-51.10941253993846,22.414103
112778,1577398185.51,-0.1053740706280966,0.0647310375678828,10.065048593809546,0.3246771031821646,-0.4863733079863751,9.26357498928163,-0.4139688680013014,-1.1955046956380204,6.330497208658854,-1.4268828601371952,-0.2698200504954268,2.726857255144817,3.755336854516006,-0.8448158822408537,3.3746114591272867,-3.3473060244605657,8.083161853608631,3.2332284109933034,-11.804430857059248,-5.433471268315016,-2.866098646723648,-26.280718948297075,3.342324014719859,-37.58157067568273,29.76988049240722,32.64525114565549,32.26186839188906,1577398184.999,-27.70495694675038,-51.10941253993846,22.414103
112779,1577398185.52,-0.1161479780987993,-0.2596832873832885,9.064272299864232,-0.1888791529213509,-0.9316948167754376,10.442719306908582,-0.803026637776692,0.7892884806315097,9.05150739542643,-2.6323271960746952,-0.4071491520579268,2.314869950457317,-0.4408301376714938,-3.194669397865854,2.1844259122522867,0.3300621396019345,-4.413786388578869,3.2484872000558034,-11.409303464354334,-9.268862751831502,-2.3201750949667663,-26.476628615886437,-2.3166881151256065,-24.72523902743034,29.72195764818641,32.81298110042831,32.21394554766826,1577398184.999,-27.70495694675038,-51.10941253993846,22.414103
112780,1577398185.53,-0.5710462935284868,0.1976092297065542,8.231090122129858,-0.3217573450600228,1.3763155836151864,9.265969190941783,1.9299545572916663,1.1148999064127598,11.121294730631508,-0.1909209460746951,-0.7733600895579268,2.711598466082317,-4.820102598608994,5.808016149009147,2.9473653653772867,-0.0208900088355654,-0.003996349516369,2.6533944266183034,-11.804430857059248,-7.351167010073261,-0.6824044396961103,-27.4561769538332,-3.594529563800388,-6.579445215325552,29.67403480396561,32.64525114565549,32.30979123610986,1577398184.999,-27.70495694675038,-51.10941253993846,22.414103
112781,1577398185.54,0.2262228593035434,0.9972725841987417,9.38509532232517,0.5114248326743521,0.4760957593964363,10.118304981957412,-0.6773310506184889,-0.472455794270833,11.482819181315104,1.5180634289253048,-0.3766315739329268,2.864186356707317,-4.484409239233994,3.091951695884146,2.1233907560022867,-2.5843665713355657,3.169831775483631,2.8975350516183034,-11.903212705235472,-9.588478708791207,-2.04721331908832,-27.4561769538332,-3.594529563800388,-7.167163233531377,30.009494713511245,32.789019678317906,32.16602270344745,1577398184.999,-27.70495694675038,-51.10941253993846,22.414103
112782,1577398185.55,-0.553089781077315,-0.0454022387993046,10.008784854795874,1.217714322420446,0.6029884473847176,9.694531288109754,-0.9502700398763014,0.2889003336588535,11.715056742350258,-0.4655791491996952,-0.7886188786204269,2.650563309832317,-0.3950537704839938,0.6200278677591463,4.076515756002287,0.6810142880394345,10.158357166108631,3.721509660993304,-11.60686716070679,-9.908094665750918,-2.866098646723648,-26.411325393356645,6.628202025597865,-1.8777010696789656,29.841764758738428,32.64525114565549,31.97433132656424,1577398184.999,-27.70495694675038,-51.10941253993846,22.414103
112783,1577398185.56,-0.4728840254620805,-0.3937585803520385,9.4928343970322,-1.7642638453041637,0.1181626112030774,11.18492182155702,-1.578747975667317,1.7517575480143222,11.379868509928384,-1.0148955554496952,-0.8343952458079268,2.833668778582317,3.282314393578506,-0.9668861947408538,1.9555440763147869,0.4063560849144346,16.50601341610863,2.8517586844308034,-11.409303464354334,-9.908094665750918,-2.866098646723648,-26.93375117359492,5.532909355305194,-22.15397269777986,29.67403480396561,32.90882678886992,32.118099859226646,1577398184.999,-27.70495694675038,-51.10941253993846,22.414103
112784,1577398185.57,-0.5255564619855181,0.5064612438667104,11.118497324278296,1.660641629549352,0.2486466016815926,11.760727320824598,0.24204238688151,1.098140494791666,11.81561321207682,1.5180634289253048,0.0200969416920732,3.108326981707317,4.976039979516006,-1.9129311166158536,3.0389180997522867,0.2537681942894345,15.529450916108631,0.9444100516183036,-12.001994553411702,-7.351167010073261,-5.595716405508067,-27.19496406371407,-1.4039442232150532,-42.43024432588076,29.67403480396561,32.64525114565549,32.30979123610986,1577398184.999,-27.70495694675038,-51.10941253993846,22.414103
112785,1577398185.58,0.3124141190691684,0.3268961193549917,11.25736102056736,0.2217264317954459,-1.3434975023223126,10.520530860863662,-0.6773310506184889,-0.7070875569661454,10.302477762858071,1.2128876476753048,-0.1935261051829268,2.925221512957317,0.0016747451410061,2.573152867759146,2.6116720060022867,2.4510338192894343,15.346345447358631,0.9138924734933036,-11.11295791982565,-9.588478708791207,-1.501289767331427,-26.54193183841621,-1.038846666450825,-39.93244274850602,30.009494713511245,32.88486536675951,32.26186839188906,1577398184.999,-27.70495694675038,-51.10941253993846,22.414103
112786,1577398185.59,0.0849649613543246,-0.9324539538871948,10.70669463873142,1.564873563143102,2.496801960568311,9.65861826320741,-0.3876326497395826,-2.083753511555989,8.063899210611979,0.0532196789253048,-0.7733600895579268,2.894703934832317,4.091030213891006,2.176424352134146,1.6351095060022869,-0.5091712588355655,-7.023039318266369,4.057203020368304,-10.816612375296966,-6.711935096153848,-2.3201750949667663,-25.88889961311836,-3.594529563800388,-5.991727197119726,29.72195764818641,32.64525114565549,32.07017701500584,1577398184.999,-27.70495694675038,-51.10941253993846,22.414103
112787,1577398185.6,0.6942892838640903,0.4238612865913198,8.474101590635717,-0.0236792383705697,-0.26012125110161,8.558482600365615,-0.1302559712727863,1.1113086039225253,9.193962394205728,-0.1604033679496951,-0.6055134098704268,2.482716630144817,2.031093690453506,2.618929234946646,1.3146749356897869,4.495711553664433,-6.290617443266369,1.8751961844308036,-11.21173976800188,-7.351167010073261,-2.866098646723648,-27.194964063714064,-3.2294320070361664,-6.579445215325551,29.74591907029682,32.7171354119867,32.26186839188906,1577398184.999,-27.70495694675038,-51.10941253993846,22.414103
112788,1577398185.61,-0.314866715891768,0.4657598156440542,8.597402976133765,-1.2291597742592415,0.3851160963104988,9.09119246975038,0.8669290201822913,-0.5562528523763017,12.406981022135415,1.7927216320503048,-0.5902546208079268,2.589528153582317,1.4970360732660062,-3.927091272865854,1.7571798185022869,-2.6454017275855657,-3.391447521391369,1.982007707868304,-11.21173976800188,-7.351167010073261,-2.866098646723648,-27.4561769538332,-3.594529563800388,-2.171560078781876,29.86572618084883,32.6931739898763,32.16602270344745,1577398184.999,-27.70495694675038,-51.10941253993846,22.414103
112789,1577398185.62,0.1232721879168246,1.2031739269721793,10.869500351622046,0.0804685338462271,0.7538231519745613,10.180554225121474,-0.6893020589192702,-0.0055864705403642,11.410993131510414,2.7998017101753048,-0.1324909489329268,2.620045731707317,2.992397401391006,-2.004483850990854,1.5435567716272869,-0.4786536807105654,-1.194181896391369,2.9890877859933034,-11.60686716070679,-12.46502232142857,-2.866098646723648,-27.4561769538332,-3.594529563800388,-2.171560078781876,29.86572618084883,32.50148261299308,32.30979123610986,1577398184.999,-27.70495694675038,-51.10941253993846,22.414103
112790,1577398185.63,-0.2598000777081743,1.1505014904487416,9.811263217832984,1.2057433141196645,0.5072203809784676,7.317089039574599,0.270772806803385,0.533108902994791,7.479714005533854,1.6401337414253048,-0.0409382145579267,2.833668778582317,-0.0898779892339938,0.4674399771341463,3.0999532560022867,-0.1734778994605654,-3.635588146391369,4.057203020368304,-12.10077640158793,-10.227710622710624,-3.684983974358976,-27.0643576186545,-1.7690417799792746,-2.0246305742304176,29.86572618084883,32.6931739898763,32.16602270344745,1577398184.999,-27.70495694675038,-51.10941253993846,22.414103
112791,1577398185.64,-0.4513362105206743,-0.8749931140434447,9.470089481260716,-1.110646792081507,-1.2537149400664531,9.252801081810928,-0.6078992024739577,1.0191318400065104,9.476478190104164,-0.8775664538871952,-0.3155964176829268,2.528492997332317,1.0087548232660062,-3.4388100228658534,1.8945089200647869,1.1692955380394343,-8.289518810453869,3.690992082868304,-11.804430857059248,-7.990398923992673,-2.3201750949667663,-27.4561769538332,-7.975700244971073,-21.860113688676957,29.79384191451762,32.64525114565549,32.38167550244107,1577398184.999,-27.70495694675038,-51.10941253993846,22.414103
112792,1577398185.65,0.1998866410418247,1.3228840099799917,10.237431113340795,-0.0943081873451781,-0.2996255784941876,12.984164369164445,-0.5360731526692701,0.6528189860026035,11.384656913248696,2.3115204601753048,-0.3766315739329268,3.077809403582317,3.419643495141006,0.8031333365091463,2.8252950528772867,0.2232506161644345,-4.673185802641369,2.9585702078683034,-11.804430857059248,-7.990398923992673,-2.3201750949667663,-25.23586738782051,3.342324014719859,-38.46314770299146,29.86572618084883,32.789019678317906,32.07017701500584,1577398184.999,-27.70495694675038,-51.10941253993846,22.414103
112793,1577398185.66,0.1879156327410434,0.559133680390148,10.91259598150486,-0.4223138147865853,0.7538231519745613,13.15175848537538,2.224441361490885,-1.181139485677083,9.107771134440105,2.1894501476753048,0.4473430354420732,2.894703934832317,2.534633729516006,3.488680211509146,2.9473653653772867,2.0543053036644343,-5.222502208891369,3.2027108328683034,-11.705649008883018,-5.113855311355311,-2.5931368708452127,-25.23586738782051,3.342324014719859,-38.46314770299146,29.96157186929044,32.64525114565549,32.16602270344745,1577398184.999,-27.70495694675038,-51.10941253993846,22.414103
112794,1577398185.67,0.7290052079363559,-0.0501906421196166,8.923014401915015,1.1770128941977895,-1.1016831346465314,9.692137086449598,-0.4187572713216139,-0.4604847859700517,6.766241910807291,0.3278778820503048,0.2032024104420732,2.742116044207317,-2.287143614233994,2.634188024009146,2.3980489591272867,0.4368736630394345,-6.046476818266369,3.5689217703683034,-11.557476236618676,-7.510974988553114,-1.63777065527065,-26.80314472853536,-3.229432007036167,-5.550938683465359,29.86572618084883,32.6931739898763,32.07017701500584,1577398184.999,-27.70495694675038,-51.10941253993846,22.414103
112795,1577398185.68,0.6116893265886997,0.5902583019721792,8.130533652403296,0.0098395848716177,0.7633999586151865,8.430392811547256,0.9267840616861976,0.2829148295084633,7.805325431315103,-0.7707549304496951,-0.2545612614329268,2.284352372332317,1.9700585342035064,-0.3260170541158537,2.550636849752287,3.4886314755394343,-15.38485572451637,1.3258797781808036,-11.409303464354334,-6.711935096153848,-1.774251543209873,-29.154060739607623,-1.4039442232150496,-23.0355497250886,29.86572618084883,32.76505825620751,32.16602270344745,1577398184.999,-27.70495694675038,-51.10941253993846,22.414103
112796,1577398185.69,0.2788952958269809,0.9254465343940542,8.10898583746189,-0.774261458829554,1.1584432325409677,7.889303236351942,-0.4522760945638014,-2.081359309895833,9.94574171549479,-0.3129912585746951,-0.2545612614329268,2.314869950457317,-2.683872129858994,1.9322837271341464,2.0928731778772867,3.3970787411644343,-7.908049083891369,1.920972551618304,-11.409303464354334,-6.711935096153848,-1.774251543209873,-37.38226677836053,-15.27765138025554,-7.167163233531377,30.05741755773205,32.789019678317906,32.16602270344745,1577398184.999,-27.70495694675038,-51.10941253993846,22.414103
112797,1577398185.7,0.1831272294207309,1.4665361095893668,9.34678809576267,1.3877026402915396,1.7689646558808114,9.38328507228944,0.5317407877604162,0.044691764322916,10.939335404459634,0.4499481945503049,0.2947551448170732,2.650563309832317,1.6191063857660062,-0.1734291634908536,2.1233907560022867,4.373641241164434,-3.238859630766369,3.1111580984933034,-11.705649008883018,-7.670782967032964,-2.5931368708452127,-37.38226677836053,-18.19843183436933,-3.934714133399346,30.15326324617366,32.597328301434686,32.118099859226646,1577398184.999,-27.70495694675038,-51.10941253993846,22.414103
112798,1577398185.71,-0.0934030623273154,0.2012005321967891,10.24700791998142,0.971111551424352,-1.0729527147246565,6.737692237816787,0.5700480143229162,-1.5977305745442705,11.19072657877604,-0.0688506335746951,0.2947551448170732,2.635304520769817,-3.416294004858994,4.892488805259147,4.625832162252287,0.4673912411644345,0.8504958379836309,4.240308489118304,-11.35991254026622,-7.83059094551282,-1.3648088793922093,-31.504976750679887,3.342324014719859,-6.4325157107741,29.91364902506964,32.64525114565549,32.07017701500584,1577398184.999,-27.70495694675038,-51.10941253993846,22.414103
112799,1577398185.72,-0.4273941939191117,-0.6236019397270385,10.041106577207984,-0.611455745938929,-0.970002043337938,10.896420521508192,-0.7407773946126295,1.0155405375162754,9.931376505533851,-3.0900908679496952,-0.0714557926829267,2.620045731707317,3.755336854516006,-4.125455530678353,1.9708028653772869,0.5131676083519343,-0.2023606073288691,3.599439348493304,-11.804430857059248,-6.072703182234433,-1.774251543209873,-26.672538283475788,-2.4992368935077205,-4.816291160708081,29.62611195974481,32.669212567765896,32.18998412555785,1577398184.999,-27.70495694675038,-51.10941253993846,22.414103
112800,1577398185.73,-0.113753776438643,0.6189887218940542,10.632474387266578,0.1235641637290396,-1.087317924685594,8.858954908715223,-0.4450934895833326,2.371855777994791,12.751746061197917,-0.1909209460746951,-0.2545612614329268,2.742116044207317,1.6801415420160062,-4.598477991615853,3.3440938810022867,1.5049888974144343,3.108796619233631,1.3106209891183036,-11.804430857059248,-6.072703182234433,-1.774251543209873,-27.19496406371407,-3.594529563800388,-4.816291160708081,29.86572618084883,32.789019678317906,32.118099859226646,1577398184.999,-27.70495694675038,-51.10941253993846,22.414103
112801,1577398185.74,0.1256663895769809,0.3628091442573354,12.485586472227515,-0.2834501184975228,1.2039330640839363,7.690584498558974,0.83580439860026,-1.6288551961263016,13.074963285319008,0.7856415539253049,-0.1630085270579268,3.077809403582317,-0.5171240829839938,-2.309659632240854,2.1233907560022867,0.9556724911644344,7.716950916108631,3.2637459891183034,-12.298340097940386,-8.31001488095238,-2.04721331908832,-27.4561769538332,2.2470313444271808,-40.07937225305747,29.86572618084883,32.789019678317906,31.97433132656424,1577398184.999,-27.70495694675038,-51.10941253993846,22.414103
112802,1577398185.75,-0.0084089033917685,0.4023134716499141,10.571422244932592,1.5612822606528678,0.5622870191620619,11.429130390892958,1.48702725016276,0.7402073465983071,8.432606266276041,-0.9233428210746952,0.2184611995045732,2.452199052019817,0.9019432998285062,8.524080602134147,2.7947774747522867,0.4063560849144343,6.435212634858631,3.1874520438058034,-11.557476236618676,-7.83059094551282,-2.1836942070275374,-26.54193183841621,-2.1341393367434955,-6.873304224428464,29.74591907029682,32.6931739898763,32.21394554766826,1577398184.999,-27.70495694675038,-51.10941253993846,22.414103
112803,1577398185.76,0.7457646195574497,-0.6499381579887572,9.260596835997044,-1.377600277188929,-0.0458402025176251,6.4982720718011615,-0.4522760945638014,2.391009391276041,10.458100870768227,-2.9375029773246952,-0.5902546208079268,2.375905106707317,6.623989198266006,-6.704190882240853,2.1233907560022867,1.7491295224144343,1.857575916108631,1.5242440359933036,-11.60686716070679,-6.072703182234433,-2.866098646723648,-27.19496406371407,2.2470313444271808,-44.78111639870406,29.62611195974481,32.789019678317906,32.118099859226646,1577398184.999,-27.70495694675038,-51.10941253993846,22.414103
112804,1577398185.77,0.2956547074480747,-0.0370225329887572,9.198347592832985,-1.0472004480873665,3.6292593458222178,13.412726466332412,0.5604712076822912,-0.9297483113606768,10.400640030924478,-0.7707549304496951,-1.139571027057927,2.772633622332317,-3.599399473608994,20.822664586509145,2.1233907560022867,0.2232506161644345,6.069001697358631,1.3716561453683036,-11.60686716070679,-6.072703182234433,-2.866098646723648,-27.19496406371407,2.2470313444271808,-44.78111639870406,29.67403480396561,32.789019678317906,32.26186839188906,1577398184.999,-27.70495694675038,-51.10941253993846,22.414103
112805,1577398185.78,0.1520026078386996,1.2917593883979603,10.385871616270483,-0.0607893641029906,-1.884587077517625,10.4965888442621,-0.3612964314778639,0.102152604166666,11.130871537272132,1.0602997570503048,-0.1324909489329268,2.681080887957317,-1.3410986923589938,-0.1734291634908536,1.6045919278772869,-0.0208900088355654,8.754548572358631,1.6157967703683036,-11.409303464354334,-10.54732657967033,-1.774251543209873,-27.19496406371407,-2.134139336743496,-44.78111639870406,29.817803336628028,32.789019678317906,32.26186839188906,1577398184.999,-27.70495694675038,-51.10941253993846,22.414103
112806,1577398185.79,-0.0096060042218466,0.3316845226753047,10.159619559385716,0.1618713902915396,1.219495374874952,10.357725147973037,-1.3261597005208328,0.8898449503580722,10.485634189860024,0.2363251476753048,-0.0867145817454267,2.421681473894817,0.3068505263910062,-2.080777796303354,2.4896016935022867,-1.4552161807105657,9.364900134858631,3.2637459891183034,-11.705649008883018,-9.908094665750916,-0.9553662155745508,-27.4561769538332,-2.864334450271942,-5.404009178913904,29.626111959744808,32.54940545721389,32.16602270344745,1577398184.999,-27.70495694675038,-51.10941253993846,22.414103
112807,1577398185.8,-0.2526174727277055,-0.752888829375476,9.854358847715796,-0.2403544886147103,-1.2501236375762188,11.231608753930068,-0.0093487874348952,0.9496999918619784,10.458100870768227,-1.9914580554496952,-0.3461139958079268,2.070729325457317,-1.0054053329839938,3.885408727134146,0.5059591153772867,1.3218834286644343,7.198152087983631,2.0125252859933034,-11.804430857059248,-10.54732657967033,-0.1364808879392288,-27.4561769538332,-3.594529563800388,-7.167163233531377,29.86572618084883,32.64525114565549,32.30979123610986,1577398184.999,-27.70495694675038,-51.10941253993846,22.414103
112808,1577398185.81,-0.228675456126143,-0.2596832873832885,8.882312973692358,1.7516212926352897,0.4832783643769051,10.31702371975038,1.151839017740885,0.159613444010416,12.78765908610026,0.0532196789253048,-0.1630085270579268,2.345387528582317,2.839809510766006,-1.6687904916158536,3.4051290372522867,3.0613853817894343,10.982331775483631,1.0664803641183036,-11.804430857059248,-10.54732657967033,-0.1364808879392288,-26.411325393356645,3.7074215714840806,-42.13638531677784,29.72195764818641,32.45355976877228,32.16602270344745,1577398184.999,-27.70495694675038,-51.10941253993846,22.414103
112809,1577398185.82,0.414167689625809,0.3975250683296011,11.379465305235328,-0.0631835657631468,-0.9197238084746564,8.825436085473036,2.224441361490885,-1.269724947102864,13.790829581705728,1.4570282726753048,-0.3308552067454268,2.513234208269817,5.922084901391006,-9.206632288490852,1.3604513028772869,1.5965416317894343,17.60464622860863,1.3716561453683036,-11.50808531253056,-8.31001488095238,-1.5012897673314385,-25.88889961311836,2.2470313444271808,-40.07937225305747,29.889687602959235,32.45355976877228,32.16602270344745,1577398184.999,-27.70495694675038,-51.10941253993846,22.414103
112810,1577398185.83,0.3339619340105746,0.0778991466987417,11.539876816465796,0.4671321019614615,0.3899044996308119,11.943883747826552,0.2097206644694011,0.4804364664713539,7.144525773111979,1.6401337414253048,0.2032024104420732,2.589528153582317,1.5580712295160062,-3.2404457650533534,1.3909688810022869,2.1305992489769343,12.09622337704613,2.119336809430804,-12.199558249764156,-7.351167010073261,-1.774251543209873,-26.67253828347578,-0.3086515529223821,-23.32940873419151,29.72195764818641,32.669212567765896,32.237906969778656,1577398184.999,-27.70495694675038,-51.10941253993846,22.414103
112811,1577398185.84,0.7242168046160433,0.4609714123237417,10.610926572325171,-0.2307776819740853,0.521585590939405,8.370537770043349,1.1757810343424475,-1.892217378743489,4.865245792643228,-0.0078154773246951,0.0811320979420732,1.9791765910823167,1.5275536513910062,-1.2415443978658536,2.9473653653772867,0.2232506161644345,-16.36141822451637,0.9749276297433036,-11.60686716070679,-7.990398923992673,-1.774251543209873,-30.59073163526289,-2.864334450271945,-6.579445215325552,29.86572618084883,32.64525114565549,31.97433132656424,1577398184.999,-27.70495694675038,-51.10941253993846,22.414103
112812,1577398185.85,0.1974924393816684,0.0826875500190542,8.22390751714939,-0.1948646570717415,0.7394579420136238,5.717762330590224,-0.7300034871419264,-0.0558647054036455,10.78850069986979,-1.7167998523246952,-0.6818073551829268,1.8571062785823167,0.5509911513910062,8.981844274009147,2.0623555997522867,2.7562096005394343,-13.797941662016369,2.7754647391183034,-11.60686716070679,-7.990398923992673,-1.774251543209873,-30.59073163526289,-2.864334450271945,-6.579445215325552,29.62611195974481,32.50148261299308,32.26186839188906,1577398184.999,-27.70495694675038,-51.10941253993846,22.414103
112813,1577398185.86,-0.0658697432355185,0.9781189709174916,10.335593381407202,1.7899285191977896,0.1145713087128426,9.548484986840222,0.6011726359049475,-0.2737370564778642,11.80364220377604,2.0978974133003048,-1.017500714557927,2.253834794207317,-0.4560889267339938,2.176424352134146,1.9402852872522869,0.9251549130394344,-8.670988537016369,2.9585702078683034,-12.001994553411702,-9.908094665750916,-2.593136870845207,-38.94954411907538,-18.19843183436933,-3.640855124296436,29.76988049240722,32.64525114565549,31.97433132656424,1577398184.999,-27.70495694675038,-51.10941253993846,22.414103
112814,1577398185.87,0.1567910111590122,0.3891453625190542,11.815210007383763,0.1762366002524771,0.3324436597870618,9.37251116481874,0.5461059977213538,0.1045468058268227,11.251778721110025,0.2973603039253049,-0.4071491520579268,1.9791765910823167,2.015834901391006,-1.7145668588033534,1.7571798185022869,1.5965416317894343,-4.978361583891369,4.057203020368304,-12.001994553411702,-7.990398923992673,-2.3201750949667663,-29.48057685225654,-5.967663682767844,-3.420460867469255,29.72195764818641,32.74109683409711,32.118099859226646,1577398184.999,-27.70495694675038,-51.10941253993846,22.414103
112815,1577398185.88,-0.0802349531964555,-0.647543956328601,9.674793723204075,1.124340457674352,0.0475336622284676,10.901208924828506,-1.5823392781575516,0.7940768839518222,8.276983158365885,-0.5876494616996951,-0.8954304020579268,2.253834794207317,2.137905213891006,-3.927091272865854,1.7571798185022869,6.479354131789434,0.7589431036086309,3.5384041922433034,-10.619048678944509,-9.268862751831502,-2.3201750949667663,-27.4561769538332,-14.18235870996287,-2.318489583333339,29.72195764818641,32.64525114565549,32.16602270344745,1577398184.999,-27.70495694675038,-51.10941253993846,22.414103
112816,1577398185.89,0.5063444535418247,-0.3291151355278198,10.242219516661107,-1.9210840540443976,-0.2613183519316876,10.767133631859757,0.26119600016276,1.7733053629557285,7.822084842936197,-0.1909209460746951,0.0811320979420732,2.345387528582317,1.3139306045160062,-2.340177210365854,3.0389180997522867,1.3829185849144343,-1.682463146391369,0.5476815359933036,-11.310521616178104,-7.670782967032964,-2.5931368708452127,-27.19496406371407,2.2470313444271808,-41.54866729857202,29.96157186929044,32.789019678317906,32.16602270344745,1577398184.999,-27.70495694675038,-51.10941253993846,22.414103
112817,1577398185.9,0.7002747880144808,1.2773941784370229,9.856753049375952,1.4188272618735709,0.6831942029999525,11.359698542748427,-0.6593745381673171,-1.0470641927083328,10.453312467447915,1.2739228039253048,0.2032024104420732,2.436940262957317,0.8561669326410063,7.3949302115091475,1.3299337247522869,1.4439537411644343,0.2859206426711309,1.9820077078683036,-11.310521616178104,-7.670782967032964,-2.5931368708452127,-27.39087373130341,0.2389947822239571,-23.10901447736433,29.86572618084883,32.597328301434686,32.33375265822026,1577398184.999,-27.70495694675038,-51.10941253993846,22.414103
112818,1577398185.91,0.7170341996355746,0.3364729259956167,9.546703934385718,-0.0560009607826781,0.8735332349823738,7.171042738305068,0.1678221354166663,0.2529873087565097,6.304160990397135,0.3278778820503048,0.3863078791920732,1.8876238567073167,-0.0898779892339938,0.0401938833841463,2.2149434903772867,-0.4176185244605654,-4.337492443266369,3.1416756766183034,-11.409303464354334,-7.990398923992675,-2.593136870845207,-27.4561769538332,-2.134139336743496,-5.991727197119726,29.74591907029682,32.597328301434686,31.97433132656424,1577398184.999,-27.70495694675038,-51.10941253993846,22.414103
112819,1577398185.92,1.057010835377762,0.2430990612495229,8.37713642339939,-0.9801628016029916,0.0906292921112801,6.491089466820693,1.9251661539713536,0.0039903361002597,7.850815262858072,-1.0148955554496952,-0.0104206364329267,1.8265887004573167,1.1613427138910062,-1.7908608041158536,1.2688985685022869,-2.2181556338355657,-8.365812755766369,2.2871834891183034,-11.50808531253056,-10.227710622710624,-2.5931368708452127,-27.4561769538332,-2.134139336743496,-5.991727197119726,29.86572618084883,32.64525114565549,32.07017701500584,1577398184.999,-27.70495694675038,-51.10941253993846,22.414103
112820,1577398185.93,0.6092951249285434,0.5064612438667104,7.843229453184546,2.536919437166539,-1.1711149827910623,6.974718202172255,-0.5983223958333327,1.797247379557291,11.468453971354164,-0.8623076648246951,0.2642375666920732,1.7655535442073171,3.022914979516006,5.411287633384147,1.6656270841272869,-1.5772864932105657,-4.673185802641369,1.5242440359933036,-11.705649008883018,-7.670782967032964,-0.409442663817664,-31.635583195739446,2.2470313444271808,-42.43024432588076,29.67403480396561,32.357714080330666,32.16602270344745,1577398184.999,-27.70495694675038,-51.10941253993846,22.414103
112821,1577398185.94,0.5661994950457309,0.4513946056831167,9.612544480040016,0.1738423985923209,0.0044380323456556,9.860928303490615,1.4463258219401038,-0.8399657491048172,11.571404642740884,0.2363251476753048,0.4778606135670732,1.7045183879573171,2.702480409203506,-2.5690590463033534,2.2607198575647867,1.6575767880394343,2.223786853608631,1.5242440359933034,-11.705649008883018,-7.670782967032964,-0.409442663817664,-27.32557050877363,-16.372944050548213,-4.669361656156629,29.5302662713032,32.64525114565549,32.237906969778656,1577398184.999,-27.70495694675038,-51.10941253993846,22.414103
112822,1577398185.95,0.2501648759051059,0.8631972912299917,10.816827915098608,1.842600955721227,-0.7305818773223126,9.778328346215222,-0.6342354207356764,2.2066558634440097,7.29057207438151,0.1447724133003047,1.225541277629573,1.857106278582317,-0.7612647079839938,5.930086461509147,1.9708028653772869,-0.7838294619605655,-1.712980724516369,4.331861223493304,-11.804430857059245,-9.908094665750916,-1.7742515432098735,-36.85984099812226,-16.738041607312432,-2.4654190878847912,29.93761044718004,32.6931739898763,32.30979123610986,1577398184.999,-27.70495694675038,-51.10941253993846,22.414103
112823,1577398185.96,-0.8942635176495806,-0.9420307605278198,8.834428940489232,-0.611455745938929,-0.4193356615020001,8.858954908715223,-4.120193037923176,2.228203678385416,8.525980131022134,-1.3505889148246952,-0.1935261051829268,1.8876238567073167,1.0697899795160062,-6.948331507240853,1.6045919278772869,-1.7909095400855657,-6.076994396391369,2.7144295828683034,-11.804430857059248,-7.990398923992673,-5.049792853751185,-30.59073163526289,-16.738041607312432,-1.8777010696789656,29.67403480396561,32.789019678317906,32.07017701500584,1577398184.999,-27.70495694675038,-51.10941253993846,22.414103
112824,1577398185.97,-0.037139323313643,0.1569078014838979,8.159264072325172,-1.186064144376429,-1.2381526292754377,11.35131883693788,-0.3517196248372389,-0.2497950398763017,11.65041329752604,-1.1064482898246952,0.2947551448170732,2.009694169207317,0.1237450576410061,-5.880216272865853,2.2759786466272867,1.0472252255394343,1.735505603608631,3.3247811453683034,-11.903212705235472,-8.949246794871796,-2.5931368708452127,-30.982550970441604,-2.4992368935077245,-44.34032788504968,29.5302662713032,32.83694252253871,31.97433132656424,1577398184.999,-27.70495694675038,-51.10941253993846,22.414103
112825,1577398185.98,0.921738441578934,0.5423742687690543,10.63008018560642,-0.0272705408608031,1.7905124708222178,7.817477186547255,1.0417057413736974,2.077368973795572,9.361556510416666,0.7856415539253049,0.3863078791920732,2.162282059832317,-1.4936865829839938,-2.431729944740854,1.5740743497522869,0.0706627255394345,7.686433337983631,2.2566659109933034,-11.656258084794905,-8.150206902472528,-2.72961775878443,-33.594679871633,-3.229432007036167,-44.34032788504968,29.76988049240722,32.789019678317906,32.26186839188906,1577398184.999,-27.70495694675038,-51.10941253993846,22.414103
112826,1577398185.99,0.920541340748856,0.1042353649604604,10.548677329161109,1.8569661656821643,0.6999536146210462,11.38962606350038,0.1390917154947917,-2.3626780049641924,8.437394669596353,-1.1064482898246952,0.7830363948170732,1.6434832317073171,1.0545311904535062,1.5508140005716464,1.8182149747522869,-0.0819251650855655,6.236848377046131,2.195630754743304,-11.310521616178104,-8.31001488095238,-2.5931368708452127,-27.4561769538332,0.4215435606060674,-7.167163233531377,29.86572618084883,32.74109683409711,32.07017701500585,1577398184.999,-27.70495694675038,-51.10941253993846,22.414103
112827,1577398186.0,0.7792834427996371,0.5423742687690543,9.945338510801731,1.9024559972251331,0.1959741651581551,9.888461622582412,-1.0675859212239576,1.1220825113932285,10.61611818033854,-0.5876494616996951,0.5999309260670732,1.7350359660823171,0.3068505263910062,1.9322837271341464,1.8487325528772869,1.5049888974144343,-2.842131115141369,1.0969979422433036,-11.21173976800188,-7.351167010073261,-3.957945750237422,-27.19496406371407,3.7074215714840806,-43.60568036229241,29.86572618084883,32.64525114565549,32.07017701500584,1577398185.999,-27.70515578332937,-51.10936367140111,22.386288
112828,1577398186.01,0.7242168046160433,0.6572959484565543,8.697959445860327,-0.1110675989662718,-1.6667147264434063,9.196537342797257,0.5796248209635413,2.290452921549478,8.818072733561197,-0.7097197741996951,0.6914836604420732,1.7655535442073171,6.746059510766006,-0.0513588509908536,1.8182149747522869,-0.9974525088355656,-2.536955333891369,1.4632088797433036,-11.903212705235472,-7.670782967032964,-1.501289767331427,-27.0643576186545,-19.293724504662,-5.844797692568268,29.72195764818641,32.50148261299308,32.16602270344745,1577398185.999,-27.70515578332937,-51.10936367140111,22.386288
112829,1577398186.02,0.8630805009051059,1.0738870373237417,9.049907089903297,0.4515697911704464,-0.5581993577910631,10.143444099389052,-0.1434240804036457,1.2393983927408847,8.345217905680338,0.0837372570503048,1.942704363567073,1.6740008098323171,6.669765565453506,-4.6900307259908525,2.1691671231897867,-1.7146155947730657,-3.8797287713913686,2.1193368094308034,-11.60686716070679,-9.908094665750918,-1.774251543209873,-26.737841506005573,-11.444127034231194,-4.15510839022653,29.86572618084883,32.597328301434686,32.14206128133705,1577398185.999,-27.70515578332937,-51.10936367140111,22.386288
112830,1577398186.03,0.4393068070574496,0.0204383068549917,9.74901397466892,1.0142071813071647,0.5503160108612801,11.09035085598085,-0.8664729817708327,0.188343863932291,7.872363077799479,-0.6486846179496951,1.698563738567073,1.8265887004573167,6.593471620141006,-9.328702600990852,2.5201192716272867,-2.4317786807105657,-5.222502208891369,2.7754647391183034,-11.11295791982565,-8.31001488095238,-3.139060422602094,-26.411325393356645,-3.594529563800388,-2.4654190878847912,29.86572618084883,32.6931739898763,32.118099859226646,1577398185.999,-27.70515578332937,-51.10936367140111,22.386288
112831,1577398186.04,0.3255822282000277,0.1880324230659292,8.736266672422827,-0.4007659998451791,-0.9771846483184063,9.074433058129284,-1.1585655843098952,0.715068229166666,9.284942057291666,-0.8165312976371952,1.698563738567073,1.765553544207317,0.9782372451410062,-4.720548304115853,1.6045919278772869,-2.0960853213355657,-7.785978771391369,4.240308489118304,-11.656258084794905,-8.789438816391941,-2.456655982905984,-26.280718948297075,-20.754114731718893,-2.318489583333339,29.79384191451762,32.789019678317906,32.16602270344745,1577398185.999,-27.70515578332937,-51.10936367140111,22.386288
112832,1577398186.05,0.2118576493426059,0.3556265392768667,7.723519370176733,0.1307467687095083,-0.3068081834746564,11.432721693383192,0.3785118815104162,-1.2864843587239578,11.626471280924475,-0.9843779773246952,1.698563738567073,1.7045183879573171,-0.8528174423589938,-3.988126429115854,2.5506368497522867,-1.3331458682105657,0.1791091192336309,0.8223397391183036,-12.199558249764156,-9.268862751831502,-1.774251543209873,-31.11315741550117,2.2470313444271808,-41.54866729857202,29.72195764818641,32.83694252253871,32.118099859226646,1577398185.999,-27.70515578332937,-51.10936367140111,22.386288
112833,1577398186.06,0.8187877701922153,0.4717453197944448,10.485230985166968,0.2935524816001334,0.8328318067597176,9.105557679711316,2.0089632120768224,1.2753114176432283,9.730263566080728,-0.5723906726371951,1.668046160442073,1.6740008098323171,1.5580712295160062,2.359529820884146,3.0694356778772867,0.0096275692894345,4.970368884858631,2.0735604422433034,-11.903212705235472,-8.629630837912089,-2.0472133190883195,-34.508924987049994,2.2470313444271808,-42.13638531677784,29.74591907029682,32.64525114565549,32.30979123610986,1577398185.999,-27.70515578332937,-51.10936367140111,22.386288
112834,1577398186.07,0.5350748734636996,0.4370293957221792,10.876682956602515,1.447557681795446,0.6556608839081556,10.777907539330458,-0.1745487019856764,0.3978365091959633,8.133331058756509,-1.2590361804496952,1.881669207317073,1.4298601848323171,-2.119296934546494,9.576937047446648,1.1926046231897869,-0.6922767275855656,4.710969470796131,1.9972664969308036,-10.915394223473193,-8.31001488095238,-0.409442663817664,-30.91724774791181,2.4295801228092957,-36.185740382443896,29.72195764818641,32.789019678317906,32.21394554766825,1577398185.999,-27.70515578332937,-51.10936367140111,22.386288
112835,1577398186.08,0.3531155472918246,0.1904266247260854,9.210318601133764,0.5593088658774771,-0.8670513719512188,6.208573670922255,-0.2272211385091139,1.1532071329752598,7.99925576578776,-2.2966338366996952,1.851151629192073,1.5519304973323171,0.8561669326410062,-3.011563929115854,2.3064962247522867,-6.734757196335566,-6.504240490141369,0.6697518484933036,-11.01417607164942,-8.629630837912085,-2.3201750949667663,-27.4561769538332,-2.134139336743496,-7.167163233531377,29.72195764818641,32.50148261299308,32.16602270344745,1577398185.999,-27.70515578332937,-51.10936367140111,22.386288
112836,1577398186.09,0.2286170609636997,0.3915395641792105,8.063496005918921,-0.8532701136147103,1.3260373487519053,7.882120631371474,-0.0572328206380202,0.399033610026041,7.046363505045573,-1.2590361804496952,1.332352801067073,1.7655535442073171,-0.7917822861089938,2.756258336509146,0.7806173185022867,-1.5162513369605657,-9.311857677641369,1.5547616141183036,-11.903212705235472,-9.588478708791207,-2.04721331908832,-27.4561769538332,4.437616685012523,-43.60568036229241,29.72195764818641,32.50148261299308,32.07017701500584,1577398185.999,-27.70515578332937,-51.10936367140111,22.386288
112837,1577398186.1,0.4608546219988559,1.1385304821479605,9.152857761290011,0.8777376866782584,0.91423466320503,10.45109901271913,1.4415374186197911,-0.1588153767903642,10.601752970377602,0.0837372570503048,1.362870379192073,1.7655535442073171,-2.989047911108994,6.937166539634147,2.0318380216272867,-6.307511102585566,-1.774015880766369,2.9890877859933034,-11.01417607164942,-8.629630837912085,-2.866098646723648,-27.4561769538332,-2.864334450271945,-6.579445215325552,29.817803336628028,32.64525114565549,32.16602270344745,1577398185.999,-27.70515578332937,-51.10936367140111,22.386288
112838,1577398186.11,0.1567910111590122,0.0874759533393667,10.328410776426734,2.0676559117759146,-0.6108717943145001,10.491800440941786,1.1590216227213537,0.7078856241861973,7.905881901041666,-0.3435088366996951,1.454423113567073,1.7045183879573171,-1.3410986923589938,6.723543492759147,1.7876973966272869,2.4815513974144343,3.078279041108631,2.8364998953683034,-11.60686716070679,-9.908094665750918,-5.595716405508067,-26.411325393356645,2.2470313444271808,-5.404009178913907,29.72195764818641,32.64525114565549,32.16602270344745,1577398185.999,-27.70515578332937,-51.10936367140111,22.386288
112839,1577398186.12,-0.1736088179425493,-0.082512364531726,10.25419052496189,-1.1321946070229136,-0.078161924929735,9.037322932396863,1.193737546793619,1.1017317972819003,10.395851627604165,-2.3271514148246952,1.179764910442073,1.4908953410823171,1.7106591201410062,-2.9047524056783534,2.5964132169397867,1.5507652646019343,0.7436843145461309,2.1651131766183034,-11.409303464354334,-9.268862751831502,-2.3201750949667663,-26.737841506005573,0.9691898957523992,-22.374366954607048,29.86572618084883,32.6931739898763,32.14206128133705,1577398185.999,-27.70515578332937,-51.10936367140111,22.386288
112840,1577398186.13,0.3315677323504188,-0.0801181628715702,10.378689011290016,2.7619743932212266,-1.156749772830125,10.149429603539442,1.7575720377604165,0.3439669718424473,13.25931681315104,-0.7402373523246952,1.027177019817073,1.857106278582317,-6.468051817358994,13.101717320884148,1.7571798185022869,3.4275963192894343,6.404695056733631,1.5242440359933036,-11.409303464354334,-9.268862751831502,-2.3201750949667663,-26.54193183841621,-0.3086515529223823,-42.283314821329306,29.69799622607601,32.64525114565549,32.118099859226646,1577398185.999,-27.70515578332937,-51.10936367140111,22.386288
112841,1577398186.14,0.4680372269793246,0.1928208263862417,11.053853879454078,-0.0009343225990853,1.0698577711151862,9.249209779320692,-0.5408615559895826,1.3208012491861971,10.805260111490885,-0.0688506335746951,0.8440715510670732,1.7655535442073171,1.8632470107660064,-5.788663538490853,3.4051290372522867,0.1622154599144345,8.083161853608631,1.3106209891183036,-11.705649008883018,-10.866942536630033,-2.04721331908832,-26.411325393356645,0.7866411173702887,-38.02235918933708,29.72195764818641,32.98071105520113,32.16602270344745,1577398185.999,-27.70515578332937,-51.10936367140111,22.386288
112842,1577398186.15,0.3698749589129184,-0.283625303984851,9.923790695860328,-0.1206444056068968,-0.4097588548613751,8.885291126976941,2.0855776652018223,-0.6496267171223955,9.356768107096354,-1.0759307116996952,0.7830363948170732,1.6740008098323171,2.778774354516006,-7.131436975990853,0.9026876310022868,-2.9200599307105657,5.458650134858631,1.3106209891183036,-11.310521616178104,-7.031551053113555,-3.139060422602094,-26.411325393356645,-0.6737491096866035,-5.404009178913907,29.86572618084883,32.64525114565549,32.16602270344745,1577398185.999,-27.70515578332937,-51.10936367140111,22.386288
112843,1577398186.16,0.4919792435808871,0.0623368359077266,8.519591422178687,1.6390938146079457,-0.303216880984422,7.59721063381288,0.1726105387369793,0.9281521769205724,8.032774589029948,-1.1522246570121952,0.2184611995045731,1.4603777629573171,1.0392724013910062,0.2385581411966464,1.6961446622522869,0.0096275692894345,-8.045378185453869,1.6615731375558034,-11.50808531253056,-6.3923191391941385,-2.04721331908832,-27.4561769538332,-2.1341393367434955,-5.991727197119726,29.67403480396561,32.669212567765896,32.237906969778656,1577398185.999,-27.70515578332937,-51.10936367140111,22.386288
112844,1577398186.17,0.1184837845965121,0.7410930065620229,8.712324655821265,-2.0264289270912728,0.6005942457245613,5.341872669945693,0.443155326334635,0.561839322916666,9.217904410807291,0.4804657726753049,0.1726848323170732,2.009694169207317,0.2763329482660062,-8.138517054115853,2.4896016935022867,2.8477623349144343,-9.372892833891369,1.0664803641183036,-11.50808531253056,-6.3923191391941385,-2.04721331908832,-27.4561769538332,-0.6737491096866035,-5.991727197119726,29.96157186929044,32.64525114565549,32.26186839188906,1577398185.999,-27.70515578332937,-51.10936367140111,22.386288
112845,1577398186.18,0.2286170609636997,0.8129190563667105,9.590996665098608,-1.5763190149818975,0.0738698804901863,9.337795240746471,0.6993349039713538,-3.4676020711263016,11.49718439127604,0.7246063976753049,0.0811320979420732,1.8265887004573167,-2.897495176733994,-3.530362757240854,2.5506368497522867,1.1082603817894343,1.094636462983631,1.829419817243304,-11.60686716070679,-7.351167010073261,-3.4120221984805403,-27.32557050877363,-3.229432007036167,-7.020233728979919,29.817803336628028,32.50148261299308,32.16602270344745,1577398185.999,-27.70515578332937,-51.10936367140111,22.386288
112846,1577398186.19,-0.2071276411847368,0.3364729259956167,11.432137741758766,-0.850875911954554,0.3420204664276863,9.443140113793348,-0.6126876057942702,-1.4852030965169265,9.86912726236979,2.0063446789253048,-0.2240436833079268,2.436940262957317,2.290493104516006,-6.337979944740853,1.5130391935022869,-4.018692743210566,-0.5838303338913691,3.782544817243304,-11.409303464354334,-11.825790407509157,-2.3201750949667663,-32.680434756216016,2.2470313444271808,-2.4654190878847912,29.86572618084883,32.64525114565549,32.16602270344745,1577398185.999,-27.70515578332937,-51.10936367140111,22.386288
112847,1577398186.2,-0.3699333540753619,0.0012846935737422,10.633671488096656,1.5792387731040396,-1.9731725389434065,8.289134913598037,-1.031672896321614,1.3327722574869785,9.031156681315103,-1.1064482898246952,-0.6360309879954268,1.8876238567073167,-1.2190283798589938,8.829256383384147,0.5669942716272867,-1.2415931338355657,-7.297697521391369,2.5313241141183034,-11.60686716070679,-7.990398923992673,-3.957945750237422,-30.329518745143748,-3.594529563800388,-2.4654190878847912,29.72195764818641,32.789019678317906,32.118099859226646,1577398185.999,-27.70515578332937,-51.10936367140111,22.386288
112848,1577398186.21,0.0777823563738559,-0.4895266467582885,9.21989540777439,-0.2559167994057259,0.6377043714569838,8.654250666771864,2.034102329508463,-0.4054181477864584,12.436908542887368,-0.8928252429496951,-0.9564655583079268,1.7960711223323171,0.2000390029535061,1.1540854849466466,2.3370138028772867,2.7104332333519343,-3.8339524042038686,2.500806535993304,-11.60686716070679,-7.990398923992673,-3.957945750237422,-27.4561769538332,2.6121289011914057,-41.69559680312348,29.817803336628028,32.789019678317906,31.99829274867464,1577398185.999,-27.70515578332937,-51.10936367140111,22.386288
112849,1577398186.22,1.064193440358231,0.367597547577648,10.17757607183689,1.4954417149985708,0.9884549146698738,13.223584535180068,1.90840674235026,2.6184585489908856,12.943282194010417,0.9077118664253048,-1.078535870807927,1.9791765910823167,-0.1814307236089938,6.601473180259147,1.0247579435022869,1.4439537411644343,11.318025134858631,3.1111580984933034,-10.619048678944509,-8.629630837912085,-2.3201750949667663,-26.672538283475788,-3.594529563800388,-38.6100772075429,29.86572618084883,32.64525114565549,31.97433132656424,1577398185.999,-27.70515578332937,-51.10936367140111,22.386288
112850,1577398186.23,0.3124141190691684,0.6620843517768668,10.237431113340795,2.905626492830602,-0.2182227220488751,10.690519178734757,1.822215482584635,3.157153922526042,8.284165763346353,1.3044403820503048,-0.1630085270579268,1.9486590129573167,4.029995057641006,-0.8142983041158537,1.6045919278772869,-1.1805579775855657,11.165437244233631,1.6157967703683036,-11.60686716070679,-10.54732657967033,-2.866098646723648,-25.627686722999226,-3.594529563800388,-6.873304224428462,29.96157186929044,32.64525114565549,32.26186839188906,1577398185.999,-27.70515578332937,-51.10936367140111,22.386288
112851,1577398186.24,0.7948457535906528,-0.0621616504203983,9.61493868170017,-1.435061117032679,0.7478376478241708,8.091613276635146,-0.5360731526692707,1.2382012919108063,6.326905906168619,-0.3282500476371952,-0.3461139958079267,1.4908953410823171,0.9934960342035062,-2.3859535775533534,1.4367452481897869,2.0543053036644343,-6.229582287016369,-0.0474112374441964,-11.705649008883016,-9.908094665750916,-2.8660986467236533,-25.758293168058792,-3.594529563800388,-7.167163233531377,29.841764758738428,32.669212567765896,32.04621559289544,1577398185.999,-27.70515578332937,-51.10936367140111,22.386288
112852,1577398186.25,0.2238286576433872,0.6979973766792105,8.693171042540015,1.9024559972251331,-0.3403270067168439,9.596369020043348,0.3449930582682287,-0.7741252034505205,10.477254484049478,-0.0078154773246951,-1.017500714557927,1.6740008098323171,-5.277866270483994,-4.598477991615853,1.5130391935022869,2.7867271786644343,-7.328215099516369,1.5547616141183036,-11.50808531253056,-10.227710622710624,-2.5931368708452127,-30.068305855024608,5.898006912069422,-42.43024432588076,29.86572618084883,32.6931739898763,32.16602270344745,1577398185.999,-27.70515578332937,-51.10936367140111,22.386288
112853,1577398186.26,0.6883037797136996,1.0738870373237417,8.585431967832983,-0.0129053308998656,-0.3642690233184064,9.33300683742616,0.0074106241861975,-2.643996700032552,13.316777652994787,-0.3129912585746951,-0.2850788395579268,1.5519304973323171,0.4899559951410062,2.908846227134146,2.3980489591272867,5.350203741164434,2.712068103608631,2.1040780203683034,-11.11295791982565,-7.031551053113555,-3.139060422602094,-26.80314472853536,-17.103139164076662,-7.020233728979919,29.96157186929044,32.357714080330666,32.16602270344745,1577398185.999,-27.70515578332937,-51.10936367140111,22.386288
112854,1577398186.27,0.5566226884051059,0.1521193981635854,10.34995859136814,1.179407095857946,0.4617305494354988,11.827764967308974,0.079236673990885,-0.5754064656575517,12.287270939127602,1.0908173351753048,0.0048381526295732,1.5214129192073171,2.626186463891006,0.3758872427591463,-0.3790506502477133,6.326766241164434,7.564363025483631,3.4468514578683034,-11.804430857059248,-10.22771062271062,-3.412022198480535,-26.80314472853536,3.342324014719859,-4.669361656156629,29.72195764818641,32.64525114565549,31.97433132656424,1577398185.999,-27.70515578332937,-51.10936367140111,22.386288
112855,1577398186.28,0.3004431107683872,-0.839080089141101,9.6077560767197,0.404882858797399,-0.5438341478301256,9.720867506371476,0.6370856608072919,2.0618066630045573,10.466480576578777,-1.1369658679496952,0.4778606135670732,1.4908953410823171,-0.4408301376714938,-1.1499916634908536,2.0013204435022867,1.779647100539434,10.829743884858631,1.5242440359933034,-11.705649008883018,-9.588478708791207,-3.139060422602094,-27.0643576186545,-3.229432007036167,-6.138656701671178,29.72195764818641,32.52544403510348,32.14206128133705,1577398185.999,-27.70515578332937,-51.10936367140111,22.386288
112856,1577398186.29,0.4249415970965121,-0.7169758044731322,10.184758676817358,2.1059631383384145,-0.0745706224395001,9.919586244164442,2.992980094401041,0.7940768839518222,9.395075333658854,0.3889130383003049,-0.2850788395579268,1.5519304973323171,-2.500766661108994,3.336092320884146,1.3299337247522869,3.2139732724144343,12.782868884858631,-0.7950919015066964,-11.705649008883018,-9.588478708791207,-3.139060422602094,-27.32557050877363,-3.229432007036167,-7.020233728979919,29.67403480396561,32.45355976877228,31.97433132656424,1577398185.999,-27.70515578332937,-51.10936367140111,22.386288
112857,1577398186.3,1.4568425126238558,0.8296784679878042,11.436926145079076,3.889643375154821,0.7226985303925301,8.1215407973871,-0.8449251668294264,-0.3958413411458329,8.066293412272135,1.1213349133003048,0.8440715510670732,1.4908953410823171,2.046352479516006,2.084871617759146,1.7876973966272869,0.7725670224144345,7.076081775483631,0.0899178641183035,-11.804430857059248,-10.54732657967033,-1.228327991452992,-27.4561769538332,-0.6737491096866035,-37.72850018023418,29.72195764818641,32.50148261299308,32.16602270344745,1577398185.999,-27.70515578332937,-51.10936367140111,22.386288
112858,1577398186.31,1.3311469254656527,0.8404523754585074,9.435373557188452,0.1977844151938834,1.6157357496308111,6.6107995498285055,-0.5001601277669264,-2.782860396321614,5.66251494547526,-0.0688506335746951,1.347611590129573,1.0331316692073171,-2.500766661108994,-0.5396401009908537,2.1844259122522867,-6.246475946335566,-1.621427990141369,2.3787362234933034,-11.75503993297113,-8.150206902472528,-2.72961775878443,-27.4561769538332,-0.6737491096866035,-4.816291160708081,29.626111959744808,32.50148261299308,32.16602270344745,1577398185.999,-27.70515578332937,-51.10936367140111,22.386288
112859,1577398186.32,0.8870225175066684,0.2407048595893667,8.547124741270483,0.6419088231528678,-0.8514890611602033,8.401662391625381,1.2440157816569006,1.2537636027018222,7.122977958170573,-1.1369658679496952,2.7361613948170733,0.8195086223323171,-0.3035010361089938,5.930086461509148,0.0329366544397866,-0.6007239932105657,-7.862272716703869,2.226148332868304,-11.60686716070679,-12.46502232142857,-2.3201750949667663,-27.0643576186545,-3.229432007036167,-6.726374719877009,29.817803336628028,32.54940545721388,32.21394554766826,1577398185.999,-27.70515578332937,-51.10936367140111,22.386288
112860,1577398186.33,0.8295616776629183,-0.2333470691215697,7.788162815000953,-0.314574740079554,0.0211974439667488,8.162242225609756,0.8812942301432288,-0.2593718465169267,10.120518436686195,-0.8623076648246951,1.973221941692073,0.9415789348323172,-4.362338926733994,0.4674399771341463,1.7266622403772869,0.8336021786644345,-6.717863537016369,0.1509530203683035,-11.60686716070679,-12.46502232142857,-2.3201750949667663,-27.4561769538332,5.898006912069422,-42.43024432588076,29.86572618084883,32.789019678317906,31.97433132656424,1577398185.999,-27.70515578332937,-51.10936367140111,22.386288
112861,1577398186.34,-0.0012262984112993,0.7841886364448355,9.655640109922826,-0.8484817102943978,0.3204726514862801,11.988176478539442,2.686522281901041,0.2218626871744785,11.49000178629557,0.2973603039253049,2.4309856135670733,0.9720965129573172,-2.378696348608994,6.387850133384147,0.7500997403772867,-4.354386102585566,-7.175627208891369,0.3340584891183036,-11.01417607164942,-9.268862751831502,-4.503869301994303,-27.4561769538332,2.9772264579556307,-42.43024432588076,29.72195764818641,32.45355976877228,32.16602270344745,1577398185.999,-27.70515578332937,-51.10936367140111,22.386288
112862,1577398186.35,0.5338777726336215,1.083463843964367,11.323201566221655,1.545719949861852,1.0243679395722176,12.68488916164491,-0.5911397908528639,1.7541517496744785,10.479648685709634,0.4804657726753048,2.1715861995045733,1.0789080363948171,-2.866977598608994,9.805818883384148,2.7642598966272867,-4.201798211960566,-1.346769787016369,3.2942635672433034,-11.162348843913763,-11.346366472069596,-3.002579534662871,-27.19496406371407,2.2470313444271808,-3.640855124296436,29.72195764818641,32.357714080330666,32.07017701500584,1577398185.999,-27.70515578332937,-51.10936367140111,22.386288
112863,1577398186.36,-0.3316261275128618,-0.6714859729301635,9.502411203672828,-0.9538265833412728,-0.2469531419707506,7.902471345482802,1.303870823160807,1.3231954508463544,10.185161881510416,-3.3342314929496952,1.851151629192073,0.5448504192073171,0.5052147842035063,1.1235679068216464,0.6585470060022868,-3.1794593447730657,-0.7974533807663691,1.982007707868304,-12.001994553411702,-9.908094665750918,-4.503869301994303,-27.4561769538332,-3.594529563800388,-1.583842060576056,29.86572618084883,32.54940545721389,32.09413843711624,1577398185.999,-27.70515578332937,-51.10936367140111,22.386288
112864,1577398186.37,0.5326806718035434,-0.5972657214653198,8.942168015196264,1.2727809606040397,-0.7353702806426251,10.02971952053163,2.4878035441080724,-1.2026873006184893,12.299241947428383,-1.6252471179496952,1.576493426067073,1.1857195598323171,-1.7988623642339938,9.561678258384148,1.6351095060022869,-0.9974525088355656,3.291902087983631,1.2495858328683036,-12.001994553411702,-9.908094665750918,-4.503869301994303,-27.19496406371407,2.2470313444271808,-41.54866729857202,29.67403480396561,32.50148261299308,31.97433132656424,1577398185.999,-27.70515578332937,-51.10936367140111,22.386288
112865,1577398186.38,1.2246049515886996,0.7003915783393667,10.519946909239234,3.0851916173423204,0.2917422315644051,5.70100291896913,0.8717174235026038,1.99596611735026,9.296913065592449,0.6330536633003049,1.698563738567073,1.3688250285823171,-3.538364317358994,2.725740758384146,1.2688985685022869,0.0096275692894345,9.822663806733631,1.5547616141183036,-11.01417607164942,-7.351167010073261,-2.3201750949667663,-27.4561769538332,-3.594529563800388,-35.377628107410885,29.62611195974481,32.64525114565549,32.07017701500584,1577398185.999,-27.70515578332937,-51.10936367140111,22.386288
112866,1577398186.39,1.1623557084246372,0.2299309521186641,9.125324442198217,-0.2439457911049447,0.6604492872284682,7.841419203148818,0.6921522989908855,0.632468271891276,8.628930802408853,-0.8928252429496952,2.4004680354420733,1.0941668254573171,3.816372010766006,-4.6137367806783525,1.6961446622522869,-1.9434974307105657,9.578523181733631,0.5171639578683036,-11.063566995737537,-8.150206902472526,-2.72961775878443,-27.26026728624385,2.4295801228092957,-7.0936984812556485,29.76988049240722,32.42959834666188,32.285829813999456,1577398185.999,-27.70515578332937,-51.10936367140111,22.386288
112867,1577398186.4,0.9109645341082308,0.7530640148628042,9.780138596250952,0.9471695348227896,0.3468088697479988,8.064079957543349,0.0912076822916662,-2.454854768880208,5.245923856608073,-2.5407744616996952,2.6751262385670733,0.8805437785823171,-4.026645567358994,4.739900914634147,1.6351095060022869,-1.1805579775855657,-4.703703380766369,0.0288827078683035,-11.21173976800188,-9.908094665750918,-1.228327991452992,-27.4561769538332,-3.594529563800388,-35.377628107410885,29.86572618084883,32.6931739898763,32.26186839188906,1577398185.999,-27.70515578332937,-51.10936367140111,22.386288
112868,1577398186.41,0.4967676469011996,0.961359559296398,9.686764731504857,1.7899285191977896,1.08661718273628,9.234844569359757,-0.3541138264973952,0.2290452921549472,11.071016495768228,-1.1980010241996952,1.942704363567073,0.8805437785823171,0.7340966201410062,-1.9739662728658536,2.0318380216272867,-2.5843665713355657,-4.520597912016369,1.6157967703683036,-12.001994553411702,-11.186558493589745,-2.866098646723648,-29.545880074786336,-2.864334450271945,-40.9609492803662,29.67403480396561,32.6931739898763,32.07017701500584,1577398185.999,-27.70515578332937,-51.10936367140111,22.386288
112869,1577398186.42,0.7721008378191684,0.4609714123237417,9.543112631895482,2.7093019566977894,0.3420204664276863,10.898814723168348,-0.3062297932942702,-1.142832259114583,10.86511515299479,-1.4421416491996952,2.4309856135670733,1.1246844035823171,-1.2495459579839938,4.099031774009147,2.1233907560022867,1.1692955380394343,1.460847400483631,2.0735604422433034,-11.50808531253056,-9.588478708791207,-2.04721331908832,-27.19496406371407,-3.594529563800388,-5.991727197119726,29.72195764818641,32.6931739898763,32.30979123610986,1577398185.999,-27.70515578332937,-51.10936367140111,22.386288
112870,1577398186.43,0.6595733597918246,-0.235741270781726,9.655640109922826,1.5026243199790397,1.45053583508003,6.740086439476943,0.7855261637369788,-1.9736202351888013,8.480490299479166,-0.8623076648246951,2.7361613948170733,1.3077898723323171,-1.0054053329839938,6.082674352134147,2.9778829435022867,-3.1031653994605657,0.0265212286086309,2.1651131766183034,-11.50808531253056,-9.588478708791207,-2.04721331908832,-27.4561769538332,2.2470313444271808,-1.8777010696789656,29.86572618084883,32.6931739898763,32.30979123610986,1577398185.999,-27.70515578332937,-51.10936367140111,22.386288
112871,1577398186.44,-0.0610813399152055,-0.159126817656726,9.466498178770482,-1.7008175013100226,-0.5869297777129376,7.415251307641006,-0.4379108846028639,0.9042101603190096,9.12931894938151,-1.4726592273246952,2.0342570979420733,1.2772722942073171,-3.141635801733994,3.824373570884146,-0.1654276033727133,-1.3026282900855657,-7.084074474516369,1.7683846609933036,-11.310521616178104,-7.670782967032964,-3.139060422602094,-27.4561769538332,-19.65882206142622,-1.8777010696789656,29.62611195974481,32.6931739898763,32.16602270344745,1577398185.999,-27.70515578332937,-51.10936367140111,22.386288
112872,1577398186.45,-0.1532581038312217,0.3520352367866328,9.82562842779392,0.2911582799399776,-0.3642690233184064,8.963102680932021,1.205708555094401,0.9616710001627604,11.50436699625651,-0.6181670398246951,1.805375262004573,1.5671892863948171,-3.065341856421494,0.3301108755716462,1.3451925138147869,-0.0514075869605656,-1.1941818963913688,2.180371965680804,-11.656258084794905,-9.748286687271063,-1.6377706552706617,-27.26026728624385,-3.046883228654056,-40.00590750078175,29.86572618084883,32.47752119088268,32.14206128133705,1577398185.999,-27.70515578332937,-51.10936367140111,22.386288
112873,1577398186.46,0.5063444535418247,-0.207010850859851,10.019558762266575,0.0158250890220084,1.6133415479706552,10.422368592797255,1.7312358194986974,-0.7118759602864579,10.685550028483071,-1.1980010241996952,1.210282488567073,1.2772722942073171,2.168422792016006,-6.582120569740853,0.8721700528772867,-2.1876380557105657,10.738191150483631,1.829419817243304,-10.915394223473193,-10.227710622710624,-2.04721331908832,-27.32557050877363,-3.229432007036167,-38.16928869388855,29.67403480396561,32.789019678317906,32.07017701500584,1577398185.999,-27.70515578332937,-51.10936367140111,22.386288
112874,1577398186.47,1.2198165482683871,0.1880324230659292,9.942944309141575,1.890484988924352,0.2582234083222176,10.589962709008192,0.39527129313151,-1.2170525105794268,7.618577701822916,-0.8623076648246951,1.271317644817073,0.8805437785823171,-2.256626036108994,4.190584508384147,1.9402852872522869,1.2608482724144343,11.318025134858631,1.1885506766183036,-10.915394223473193,-11.506174450549448,-3.684983974358976,-26.54193183841621,2.6121289011914097,-7.020233728979919,29.67403480396561,32.789019678317906,32.16602270344745,1577398185.999,-27.70515578332937,-51.10936367140111,22.386288
112875,1577398186.48,0.978002180592606,0.0348035168159292,9.976463132383763,-0.6617339808022102,-1.9276827074004372,11.533278163109754,0.5365291910807287,3.219403165690104,6.871586783854166,-1.4116240710746952,2.3699504573170733,1.1246844035823171,2.412563417016006,2.908846227134146,1.2688985685022869,1.6880943661644343,4.634675525483631,-0.4593985421316964,-10.915394223473193,-11.506174450549448,-3.684983974358976,-26.933751173594928,-3.594529563800388,-7.167163233531377,29.817803336628028,32.64525114565549,32.16602270344745,1577398185.999,-27.70515578332937,-51.10936367140111,22.386288
112876,1577398186.49,0.3183996232195595,0.4513946056831167,9.72507195806736,-0.3026037317787728,3.0259205274628425,7.57805702053163,1.2595780924479163,1.80442998453776,9.143684159342447,-0.3282500476371951,1.439164324504573,1.3230486613948171,-4.575961973608994,2.969881383384146,0.8111348966272867,-0.8448646182105655,-1.835051037016369,-1.0392325265066964,-11.656258084794905,-7.83059094551282,-1.091847103513769,-27.19496406371407,4.437616685012523,-44.48725738960115,29.86572618084883,32.6931739898763,32.16602270344745,1577398185.999,-27.70515578332937,-51.10936367140111,22.386288
112877,1577398186.5,-0.017985710032393,0.5543452770698355,12.26531991949314,1.285949069734899,0.0164090406464368,11.48539412990663,-0.2727109700520826,0.0518743693033847,11.3188163675944,-1.1369658679496952,1.332352801067073,1.3993426067073171,-1.0359229111089938,9.897371617759148,1.0400167325647869,1.6270592099144343,-0.003996349516369,1.7989022391183038,-11.804430857059248,-9.908094665750918,-2.866098646723648,-27.26026728624385,0.6040923389881783,-24.57830952287889,29.72195764818641,32.6931739898763,32.18998412555785,1577398185.999,-27.70515578332937,-51.10936367140111,22.386288
112878,1577398186.51,0.3914227738543246,0.5256148571479605,9.298904062559544,0.5856450841391959,1.457718440060499,8.961905580101941,0.6729986857096351,-2.083753511555989,10.005596756998695,-0.9843779773246952,1.149247332317073,1.3993426067073171,-3.355258848608994,-9.054044397865852,2.8252950528772867,-0.2955482119605654,1.582917712983631,3.5994393484933034,-11.21173976800188,-10.54732657967033,-3.957945750237422,-27.32557050877363,-3.229432007036167,-5.844797692568268,29.72195764818641,32.789019678317906,31.97433132656424,1577398185.999,-27.70515578332937,-51.10936367140111,22.386288
112879,1577398186.52,-0.094600163157393,-0.5421990832817261,9.770561789610326,-0.419919613126429,-0.1320314622832501,11.538066566430068,-1.069980122884114,1.9145632609049472,10.254593729654946,-1.2285186023246952,0.5694133479420732,1.3993426067073171,0.4289208388910062,2.908846227134146,0.5364766935022867,-0.6312415713355655,1.094636462983631,4.270826067243304,-11.21173976800188,-10.54732657967033,-3.957945750237422,-30.851944525382034,-3.594529563800388,-4.522432151605171,29.72195764818641,32.597328301434686,32.16602270344745,1577398185.999,-27.70515578332937,-51.10936367140111,22.386288
112880,1577398186.53,0.969622474782059,0.0970527599799922,9.784926999571264,-0.0368473475014281,-1.096894731326219,11.085562452660536,-0.2798935750325514,0.9975840250651036,10.261776334635416,0.0532196789253048,1.057694597942073,1.3383074504573171,-0.8528174423589938,1.5355552115091464,0.0176778653772866,1.7186119442894343,1.308259509858631,-0.0321524483816964,-11.45869438844245,-10.70713455815018,-3.002579534662871,-30.851944525382034,-3.594529563800388,-7.167163233531377,29.841764758738428,32.6931739898763,32.30979123610986,1577398185.999,-27.70515578332937,-51.10936367140111,22.386288
112881,1577398186.54,1.3945932694597931,0.3699917492378042,9.907031284239231,1.8868936864341177,0.4413798353241707,10.041690528832412,0.9866391031901038,0.8539319254557293,10.174387974039712,-0.8012725085746951,1.210282488567073,1.0026140910823171,0.1542626357660061,0.6352866568216463,1.9402852872522869,0.5742027646019344,5.000886462983631,-0.0321524483816964,-10.223921286239596,-11.186558493589745,-1.774251543209873,-26.21541572576729,-11.809224590995418,-22.080507945504134,29.62611195974481,32.669212567765896,31.97433132656424,1577398185.999,-27.70515578332937,-51.10936367140111,22.386288
112882,1577398186.55,0.9349065507097932,-0.3530571521293822,8.788939108946265,1.9431574254477892,0.4066639112519051,8.377720375023818,0.538923392740885,-1.2864843587239578,9.057492899576822,-0.5266143054496951,1.088212176067073,0.8500262004573171,-1.1885108017339938,2.084871617759146,0.5364766935022867,-1.6078040713355657,3.230866931733631,2.7144295828683034,-11.409303464354334,-7.351167010073261,-3.4120221984805403,-25.36647383288008,-3.594529563800388,-4.816291160708081,29.72195764818641,32.597328301434686,32.16602270344745,1577398185.999,-27.70515578332937,-51.10936367140111,22.386288
112883,1577398186.56,0.4800082352801059,0.4298467907417105,10.718665647032202,-0.6641281824623665,0.7921303785370614,9.531725575219127,2.727223710123697,2.623246952311198,9.687167936197916,0.9077118664253048,0.5694133479420732,1.2162371379573171,-1.8293799423589936,3.244539586509146,0.7195821622522867,3.1529381161644343,-1.926603771391369,1.7073495047433036,-11.409303464354334,-7.351167010073261,-3.4120221984805403,-26.672538283475788,-3.594529563800388,-4.816291160708081,29.817803336628028,32.64525114565549,32.16602270344745,1577398185.999,-27.70515578332937,-51.10936367140111,22.386288
112884,1577398186.57,0.6021125199480747,-0.3075673205864135,8.749434781553687,0.6215581090415396,0.4162407178925301,9.741218220482802,0.3485843607584636,0.4181872233072914,10.133686545817056,-0.2824736804496952,0.3100139338795732,0.7889910442073171,-1.8446387314214936,0.1164878286966484,0.7806173185022868,0.2995445614769345,1.7965407598586312,1.3716561453683036,-11.50808531253056,-8.310014880952382,-2.593136870845207,-26.933751173594928,0.0564460038418463,-43.6056803622924,29.62611195974481,32.7171354119867,32.18998412555785,1577398185.999,-27.70515578332937,-51.10936367140111,22.386288
112885,1577398186.58,0.6116893265886997,0.9182639294135856,11.592549252989231,0.7436623937095084,1.1321070142792489,9.395256080590222,1.5612475016276035,0.7868942789713534,11.415781534830728,1.2434052258003048,0.9661418635670732,1.2467547160823171,1.3749657607660062,1.6881431021341464,0.9942403653772868,-1.1805579775855657,9.425935291108631,-0.2457754952566964,-10.520266830768282,-12.784638278388275,-2.04721331908832,-26.933751173594928,3.7074215714840806,-44.78111639870406,29.96157186929044,32.64525114565549,32.118099859226646,1577398185.999,-27.70515578332937,-51.10936367140111,22.386288
112886,1577398186.59,1.150384700123856,0.9541769543159292,10.529523715879858,1.4738939000571645,0.1097829053925301,8.411239198266005,-0.1745487019856764,0.475648063151041,11.085381705729166,0.9382294445503048,1.454423113567073,1.0636492473323171,-1.0969580673589938,11.850496617759148,1.2994161466272869,0.6504967099144345,12.538728259858631,1.1580330984933036,-10.717830527120736,-9.588478708791207,-2.04721331908832,-26.933751173594928,2.2470313444271808,-2.4654190878847912,29.62611195974481,32.6931739898763,32.118099859226646,1577398185.999,-27.70515578332937,-51.10936367140111,22.386288
112887,1577398186.6,0.5829589066668246,-0.551775889922351,9.81964292364353,1.5098069249595083,-1.7864248094512187,8.914021546898816,-0.1721545003255202,1.040679654947916,9.490843400065105,-0.9080840320121952,1.057694597942073,0.5143328410823171,1.6496239638910062,-8.870938929115853,-0.9588846346227132,5.869002569289434,11.806306384858631,1.1885506766183036,-10.717830527120736,-9.588478708791207,-2.04721331908832,-30.59073163526289,-3.594529563800388,-4.816291160708081,29.67403480396561,32.789019678317906,32.07017701500584,1577398185.999,-27.70515578332937,-51.10936367140111,22.386288
112888,1577398186.61,1.1695383134051058,0.827284266327648,9.770561789610326,-0.3492906641518197,0.62693046398628,10.47025262600038,0.7771464579264319,0.2936887369791665,10.061860496012368,1.1823700695503048,1.790116472942073,0.9110613567073172,-1.0511817001714938,-0.6769692025533536,0.1092305997522866,-0.6007239932105656,9.044465564546131,0.6392342703683036,-11.01417607164942,-9.268862751831502,-1.228327991452992,-29.02345429454805,-10.16628558555641,-5.9917271971197295,29.96157186929044,32.64525114565549,32.16602270344745,1577398185.999,-27.70515578332937,-51.10936367140111,22.386288
112889,1577398186.62,1.1862977250261997,0.405904774140148,11.15441034918064,1.1363114659751334,2.434552717404249,9.598763221703503,1.5516706949869787,0.6312711710611972,10.417399442545571,0.9687470226753048,1.545975847942073,0.8195086223323171,1.7106591201410062,-0.5091225228658537,0.6280294278772867,-8.504776727585565,9.822663806733631,1.4021737234933036,-11.50808531253056,-10.227710622710624,-2.04721331908832,-26.280718948297075,-26.595675639946467,-7.020233728979919,29.62611195974481,32.83694252253871,32.16602270344745,1577398185.999,-27.70515578332937,-51.10936367140111,22.386288
112890,1577398186.63,1.0043383988543246,-0.1543384143364135,9.655640109922826,0.4036857579673208,0.8280434034394051,11.748756312523817,1.2547896891276038,0.2362278971354159,5.358451334635416,0.0227021008003048,1.271317644817073,0.1786394817073171,-1.0054053329839938,5.167147008384147,-0.5316385408727133,-1.2721107119605657,1.582917712983631,-0.4593985421316964,-11.804430857059248,-11.825790407509157,-1.228327991452992,-26.280718948297075,-26.595675639946467,-7.020233728979919,29.72195764818641,32.6931739898763,31.97433132656424,1577398185.999,-27.70515578332937,-51.10936367140111,22.386288
112891,1577398186.64,0.8511094926043247,0.3556265392768667,9.051104190733374,-0.6976470057045541,-1.8917696824980936,11.03767841945741,0.5149813761393225,-2.13403174641927,7.956160135904947,-0.0841094226371951,1.729081316692073,-0.0044659870426828,0.3068505263910062,-2.340177210365854,-0.9894022127477132,-0.6922767275855655,-8.548918224516369,0.0899178641183035,-11.804430857059248,-11.825790407509157,-1.228327991452992,-27.4561769538332,-2.864334450271945,-5.404009178913907,29.889687602959235,32.45355976877228,32.16602270344745,1577398185.999,-27.70515578332937,-51.10936367140111,22.386288
112892,1577398186.65,0.0442635331316684,-0.4224890002739135,9.025965073301732,1.716905368563024,0.5000377759979988,6.129565016137099,0.4694915445963538,0.8359754130045571,8.996440757242837,0.7246063976753049,0.4473430354420732,0.2091570598323171,1.3139306045160062,-3.5456215463033525,0.0634542325647867,-0.2497718447730655,-11.783781505766369,-0.6882803780691964,-11.705649008883018,-8.949246794871796,-2.04721331908832,-27.4561769538332,0.4215435606060678,-24.94563328425753,29.62611195974481,32.597328301434686,31.95036990445383,1577398185.999,-27.70515578332937,-51.10936367140111,22.386288
112893,1577398186.66,0.7768892411394809,0.9254465343940542,9.533535825254855,1.545719949861852,-0.5031327196074689,8.863743312035535,1.1159259928385412,-2.203463594563801,10.43655305582682,0.0532196789253048,1.240800066692073,0.2396746379573171,-7.017368223608994,2.390047399009146,0.0481954435022866,-0.7533118838355655,-6.565275646391369,-0.8866446358816964,-11.310521616178104,-10.227710622710624,-0.9553662155745456,-27.19496406371407,0.0564460038418389,-5.404009178913907,29.72195764818641,32.6931739898763,32.16602270344745,1577398185.999,-27.70515578332937,-51.10936367140111,22.386288
112894,1577398186.67,0.8439268876238558,0.9158697277534292,9.6843705298447,-0.0727603724037718,1.1464722242401864,6.321101148949599,2.6721570719401035,-0.1923342000325517,9.220298612467449,1.5485810070503048,1.271317644817073,0.6364031535823171,-2.744907286108994,-3.438810022865854,1.0552755216272869,2.5425865536644343,1.247224353608631,4.270826067243304,-11.903212705235472,-8.949246794871796,-3.684983974358976,-27.4561769538332,-3.594529563800388,-4.2285731425022615,29.72195764818641,32.789019678317906,32.118099859226646,1577398185.999,-27.70515578332937,-51.10936367140111,22.386288
112895,1577398186.68,0.500358949391434,-0.116031187773914,10.633671488096656,0.0840598363364615,-0.3582835191680162,10.070420948754286,0.189369950358073,0.2505931070963541,8.990455253092446,-0.2672148913871951,1.042435808879573,0.4532976848323171,2.717739198266006,-2.3096596322408534,-0.2874979158727133,-2.8285071963355657,-3.1015305292038686,0.1814705984933036,-11.310521616178104,-8.949246794871796,-2.04721331908832,-27.4561769538332,-3.594529563800388,-1.8777010696789656,29.79384191451762,32.7171354119867,32.118099859226646,1577398185.999,-27.70515578332937,-51.10936367140111,22.386288
112896,1577398186.69,1.535851167409012,0.5112496471870229,9.33481708746189,1.5145953282798208,-0.1870981004668439,8.981059193383192,0.8429870035807288,-0.8028556233723955,9.409440543619793,-0.7707549304496951,1.149247332317073,0.1481219035823171,-5.216831114233994,3.824373570884146,1.8182149747522869,-3.2862708682105657,-0.8890061151413691,1.1580330984933036,-11.903212705235472,-12.784638278388275,-3.684983974358976,-27.4561769538332,-2.864334450271945,-5.991727197119726,29.67403480396561,32.83694252253871,32.26186839188906,1577398185.999,-27.70515578332937,-51.10936367140111,22.386288
112897,1577398186.7,1.4400831010027622,0.5711046886909292,10.045894980528296,1.2775693639243522,0.5862290357636238,8.729668019066786,-0.2822877766927077,1.021526041666666,10.59696456705729,0.2363251476753048,1.820634051067073,0.0870867473323171,4.640346620141006,-5.727628382240853,1.2078634122522869,1.2608482724144343,5.458650134858631,0.3645760672433036,-11.409303464354334,-9.268862751831502,-1.774251543209873,-26.80314472853536,-22.214504958775784,-6.726374719877009,29.67403480396561,32.45355976877228,32.26186839188906,1577398185.999,-27.70515578332937,-51.10936367140111,22.386288
112898,1577398186.71,1.0498282303972934,0.2742236828315542,10.519946909239234,1.5529025548423208,1.1680200391815925,9.692137086449598,0.79749717203776,-2.150791158040364,8.786948111979166,-0.0078154773246951,1.149247332317073,0.0565691692073171,-4.514926817358994,12.277742711509148,0.0787130216272866,-1.1500403994605657,6.221589587983631,1.1580330984933036,-11.409303464354334,-11.186558493589745,-2.866098646723648,-27.4561769538332,-3.594529563800388,-6.873304224428462,29.67403480396561,32.789019678317906,32.16602270344745,1577398185.999,-27.70515578332937,-51.10936367140111,22.386288
112899,1577398186.72,1.2018600358172151,0.3975250683296011,8.891889780332983,1.4355866734946643,0.1840031568573743,8.788325959740614,0.941149271647135,0.0470859659830727,8.014818076578775,-1.7625762195121952,2.0495158870045733,-0.4164532917301828,-2.607578184546494,3.534456578696646,0.6890645841272867,-2.7674720400855657,-2.4454025995163686,-0.9171622140066964,-11.804430857059248,-7.990398923992673,0.9553662155745456,-26.93375117359492,-11.261578255849082,-6.726374719877007,29.76988049240722,32.7171354119867,32.02225417078504,1577398185.999,-27.70515578332937,-51.10936367140111,22.386288
112900,1577398186.73,0.4440952103777621,-0.2596832873832885,8.159264072325172,-1.4781567469154917,0.7921303785370614,11.008947999535536,1.362528763834635,-0.300073274739583,8.944965421549478,-0.8928252429496951,1.210282488567073,-0.0044659870426828,-2.866977598608994,6.631990758384147,0.2618184903772866,0.1927330380394345,-2.018156505766369,-1.1918204171316964,-10.915394223473193,-8.949246794871796,-2.04721331908832,-29.545880074786336,-16.738041607312432,-6.579445215325552,29.62611195974481,32.597328301434686,32.07017701500584,1577398185.999,-27.70515578332937,-51.10936367140111,22.386288
112901,1577398186.74,0.6045067216082309,1.4713245129096792,9.777744394590796,2.2520094396079458,-1.9540189256621563,9.395256080590222,2.478226737467448,-1.0877656209309892,12.131647831217446,-0.7707549304496951,1.698563738567073,0.1481219035823171,0.4899559951410062,-1.4246498666158536,-0.6842264314977133,-1.4552161807105657,0.6979079473586309,0.6087166922433036,-11.50808531253056,-11.506174450549448,-0.9553662155745456,-33.72528631669257,0.7866411173702887,-5.404009178913907,29.72195764818641,32.50148261299308,32.118099859226646,1577398185.999,-27.70515578332937,-51.10936367140111,22.386288
112902,1577398186.75,0.8822341141863559,0.5543452770698355,10.206306491758763,1.8737255773032584,1.02915634289253,10.678548170433974,-0.9023860066731764,1.5554330118815096,10.410216837565102,0.1447724133003048,1.484940691692073,0.3617449504573171,-0.0288428329839938,-5.391935022865853,2.5201192716272867,-2.9200599307105657,2.712068103608631,2.2261483328683034,-11.409303464354334,-10.54732657967033,-1.228327991452992,-27.4561769538332,-2.134139336743496,-1.8777010696789656,29.72195764818641,32.6931739898763,32.16602270344745,1577398185.999,-27.70515578332937,-51.10936367140111,22.386288
112903,1577398186.76,0.2058721451922157,-0.317144127227039,10.43255854864353,1.4391779759848986,-0.2385734361602037,7.708541011010146,1.8090473734537755,1.3674881815592448,8.970104538981118,-1.6252471179496952,0.8745891291920732,0.0107928020198171,-1.8598975204839936,3.473421422446646,-0.2569803377477133,-0.9974525088355656,-2.002897716703869,1.0054452078683038,-10.717830527120736,-10.227710622710624,-3.684983974358976,-32.092705753447945,-2.6817856718898314,-4.522432151605171,29.76988049240722,32.64525114565549,32.237906969778656,1577398185.999,-27.70515578332937,-51.10936367140111,22.386288
112904,1577398186.77,0.9660311722918246,0.0012846935737417,8.93737961187595,0.4826944127524771,0.4377885328339364,12.093521351586318,2.415977494303385,-0.1229023518880205,11.954476908365884,-0.6486846179496951,0.9356242854420732,0.1481219035823171,1.9242821670160064,0.0096763052591463,1.8487325528772869,-2.8285071963355657,-0.6448654901413691,-0.1847403390066964,-11.60686716070679,-9.908094665750918,0.4094426638176527,-27.4561769538332,-1.4039442232150532,-6.873304224428462,29.72195764818641,32.50148261299308,31.926408482343422,1577398185.999,-27.70515578332937,-51.10936367140111,22.386288
112905,1577398186.78,1.1575673051043247,0.6022293102729604,10.428967246153295,0.5832508824790397,-0.9269064134551253,5.641147877465224,-0.1817313069661452,0.4828306681315097,11.205091788736976,-0.7402373523246951,0.6304485041920732,-0.0655011432926828,-1.8598975204839936,-4.262784632240853,-0.0433572908727133,-0.8448646182105655,5.489167712983631,1.3411385672433036,-12.10077640158793,-11.506174450549448,-1.501289767331427,-26.411325393356645,-2.134139336743496,-4.522432151605171,29.817803336628028,32.45355976877228,31.83056279390182,1577398185.999,-27.70515578332937,-51.10936367140111,22.386288
112906,1577398186.79,1.189889027516434,0.0096643993842891,10.36911220464939,0.1163815587485709,1.5893995313690927,14.846853260766006,1.8006676676432287,0.5307147013346347,9.258605839029949,-0.1146270007621951,0.7067424495045732,-0.1265362995426828,-2.165073301733994,3.946443883384146,-0.3485330721227133,-1.9129798525855648,10.768708728608631,0.7613045828683036,-11.557476236618676,-9.428670730311351,-2.7296177587844244,-26.80314472853536,-20.754114731718893,-7.020233728979919,29.79384191451763,32.64525114565549,31.97433132656424,1577398185.999,-27.70515578332937,-51.10936367140111,22.386288
112907,1577398186.8,0.9133587357683872,0.0683223400581167,9.318057675840794,1.8868936864341177,-0.9029643968535628,7.613970045433974,0.9339666666666664,-0.0391052937825522,7.63533711344401,-1.8999053210746952,0.8135539729420732,-0.4927472370426828,-0.0441016220464938,2.725740758384146,0.3991475919397866,-0.6159827822730657,-1.5146164667038686,-0.6577627999441964,-11.310521616178104,-10.866942536630033,-1.501289767331427,-27.129660841184283,-20.93666351010101,-7.0936984812556485,29.62611195974481,32.64525114565549,32.18998412555785,1577398185.999,-27.70515578332937,-51.10936367140111,22.386288
112908,1577398186.81,0.1232721879168246,-0.1854630359184448,8.858370957090795,-0.4941398645912728,2.666790278439405,8.396873988305067,1.1638100260416662,0.264958317057291,10.362332804361978,-0.4960967273246951,0.1421672541920732,-0.0044659870426828,-3.019565489233994,4.770418492759147,0.1397481778772866,-0.2039954775855654,-1.712980724516369,0.2119881766183035,-11.01417607164942,-9.268862751831502,-2.866098646723648,-27.4561769538332,2.2470313444271808,-44.78111639870406,29.86572618084883,32.64525114565549,31.97433132656424,1577398185.999,-27.70515578332937,-51.10936367140111,22.386288
112909,1577398186.82,0.5925357133074496,0.980513172577648,9.567054648497043,2.232855826326696,-1.6284074998809064,9.37849666896913,1.6234967447916662,1.8116125895182285,10.242622721354165,-0.6792021960746951,0.5083781916920732,0.1176043254573171,0.8866845107660062,5.441805211509147,0.8721700528772867,-0.2345130557105654,-1.316252208891369,-0.8256094796316964,-11.804430857059248,-12.46502232142857,-1.228327991452992,-26.80314472853536,-3.229432007036167,-1.7307715651275075,29.817803336628028,32.64525114565549,32.16602270344745,1577398185.999,-27.70515578332937,-51.10936367140111,22.386288
112910,1577398186.83,0.3555097489519814,0.5806814953315542,10.481639682676734,-0.2714791101967416,0.4330001295136239,8.049714747582412,0.7041233072916663,0.3679089884440097,8.293742569986978,0.5720185070503048,0.0658733088795732,0.3617449504573171,-1.0664404892339938,-2.614835413490854,0.5975118497522867,1.4744713192894343,-2.628508068266369,0.9444100516183036,-12.001994553411702,-9.268862751831502,-1.7742515432098735,-33.202860536454295,-3.594529563800388,-2.4654190878847912,29.74591907029682,32.597328301434686,32.16602270344745,1577398185.999,-27.70515578332937,-51.10936367140111,22.386288
112911,1577398186.84,0.4129705887957309,-0.685851182891101,10.390660019590795,0.7173261754477896,-0.3618748216582504,8.360960963402723,1.4642823343912754,-0.3647167195638022,9.800892515055336,-1.7167998523246952,-0.1630085270579268,0.1481219035823171,1.0697899795160062,-5.514005335365853,0.0939718106897866,0.4826500302269345,-3.8339524042038686,1.4632088797433034,-12.10077640158793,-8.949246794871796,-1.501289767331427,-29.284667184667185,-0.6737491096866035,-3.640855124296436,29.817803336628028,32.54940545721388,32.118099859226646,1577398185.999,-27.70515578332937,-51.10936367140111,22.386288
112912,1577398186.85,0.8295616776629183,0.3652033459174917,9.619727085020482,1.3182707921470085,-0.6132659959746564,13.14457588039491,1.7910908610026035,0.3726973917643222,13.762099161783851,0.5109833508003049,-0.0104206364329267,0.5448504192073171,-7.902377989233994,3.519197789634146,1.0552755216272869,3.2444908505394343,7.472810291108631,0.1509530203683035,-11.60686716070679,-9.268862751831502,-0.6824044396961103,-27.4561769538332,-0.6737491096866035,-4.816291160708081,29.62611195974481,32.50148261299308,32.16602270344745,1577398185.999,-27.70515578332937,-51.10936367140111,22.386288
112913,1577398186.86,1.286854194752762,0.0036788952338979,12.425731430723609,-0.2235950769936165,2.578204817013624,10.02253691555116,1.8174270792643223,2.05342695719401,12.881032950846352,0.7856415539253049,-0.4071491520579268,0.1176043254573171,4.365688417016006,-3.286222132240854,0.9942403653772868,5.838484991164434,11.928376697358631,0.3645760672433036,-11.11295791982565,-10.227710622710624,-4.776831077872739,-27.4561769538332,-3.594529563800388,-4.816291160708081,29.817803336628028,32.789019678317906,32.30979123610986,1577398185.999,-27.70515578332937,-51.10936367140111,22.386288
112914,1577398186.87,1.0222949113054964,-0.0346283313286015,10.206306491758763,1.652261923738805,0.1217539136933119,11.815793959008191,0.5736393168131512,0.2517902079264321,7.383945939127604,-0.8165312976371952,-0.2545612614329268,-0.0197247761051828,-0.7307471298589938,0.5284751333841463,-0.1806863924352133,2.4357750302269343,10.555085681733631,-0.2610342843191964,-11.804430857059245,-10.22771062271062,-2.8660986467236533,-27.064357618654498,-14.547456266727094,-5.697868188016816,29.74591907029682,32.669212567765896,32.16602270344745,1577398185.999,-27.70515578332937,-51.10936367140111,22.386288
112915,1577398186.88,0.7074573929949496,0.5040670422065542,8.506423313047828,-0.3696413782631478,1.1297128126190925,5.593263844262099,2.382458671061197,0.8802681437174472,5.7774366251627605,-0.4655791491996951,-0.3461139958079268,0.1176043254573171,0.8561669326410062,-13.295987757240852,-0.0738748689977133,-0.6922767275855655,-6.504240490141369,-0.5814688546316964,-12.10077640158793,-10.866942536630033,-2.5931368708452127,-27.4561769538332,-19.65882206142622,-7.167163233531377,29.86572618084883,32.64525114565549,32.16602270344745,1577398185.999,-27.70515578332937,-51.10936367140111,22.386288
112916,1577398186.89,0.4464894120379183,-0.0753297595512572,9.164828769590796,-1.8061623743568975,1.1584432325409677,9.321035829125378,1.7025053995768225,1.3615026774088534,8.865956766764322,-0.5571318835746951,-0.4376667301829268,0.2091570598323171,-4.392856504858994,6.265779820884147,-0.7147440096227133,-0.9364173525855656,-10.502043224516369,-0.2457754952566964,-11.705649008883018,-8.949246794871796,-1.501289767331427,-26.933751173594928,2.2470313444271808,-44.48725738960115,29.86572618084883,32.6931739898763,31.97433132656424,1577398185.999,-27.70515578332937,-51.10936367140111,22.386288
112917,1577398186.9,1.1072890702410434,0.6680698559272573,8.373545120909155,2.216096414705602,-1.135201957888719,9.34497784572694,1.3768939737955723,-1.9736202351888013,12.057427579752602,0.0379608898628048,-0.1019733708079267,0.2701922160823171,-4.057163145483994,10.110994664634148,0.5975118497522867,1.3829185849144343,-1.468840099516369,1.4937264578683036,-11.952603629323589,-8.78943881639194,-1.9107324311490963,-26.933751173594928,2.2470313444271808,-44.48725738960115,29.65007338185521,32.6931739898763,32.30979123610986,1577398185.999,-27.70515578332937,-51.10936367140111,22.386288
112918,1577398186.91,0.6404197465105747,0.463365613983898,9.911819687559548,0.8956941991294303,0.386313197140577,9.929163050805068,0.5317407877604168,1.7840792704264317,12.53267660929362,1.7011688976753048,0.4778606135670732,0.7889910442073171,-0.0746192001714938,-1.2110268197408536,0.4144063810022867,-0.9364173525855656,14.40030052548363,1.5395028250558034,-11.705649008883018,-8.949246794871796,1.774251543209873,-27.26026728624385,-0.491200331304493,-23.402873486467243,29.72195764818641,32.52544403510348,32.26186839188906,1577398185.999,-27.70515578332937,-51.10936367140111,22.386288
112919,1577398186.92,0.6619675614519809,-0.5541700915825073,11.412984128477516,-0.0200879358803343,-0.7760717088652814,14.164505787621474,-0.1051168538411452,1.5219141886393222,12.950464798990884,-1.8083525866996952,0.2947551448170732,-0.0655011432926828,-5.277866270483994,-2.431729944740854,-0.7452615877477133,0.5894615536644345,21.87710716610863,-1.8021719796316964,-11.705649008883018,-8.949246794871796,1.774251543209873,-27.4561769538332,-16.738041607312432,-6.873304224428462,29.62611195974481,32.64525114565549,31.97433132656424,1577398185.999,-27.70515578332937,-51.10936367140111,22.386288
112920,1577398186.93,1.2916425980730746,-0.1423674060356322,9.215107004454076,2.2376442296470085,-0.3882110399199689,12.440680592308974,2.4901977457682283,-1.422953853352864,11.549856827799475,0.1447724133003048,1.210282488567073,0.3312273723323171,-2.378696348608994,0.8336509146341463,-0.1959451814977133,-2.7979896182105657,20.65640404110863,-1.0697501046316964,-11.11295791982565,-9.588478708791207,-2.5931368708452127,-33.202860536454295,0.7866411173702887,-41.84252630767494,29.86572618084883,32.357714080330666,32.16602270344745,1577398185.999,-27.70515578332937,-51.10936367140111,22.386288
112921,1577398186.94,1.2246049515886996,0.2682381786811636,11.88943025884861,1.409250455232946,2.7362221265839364,11.705660682641003,0.8693232218424476,-0.759759993489583,9.63928390299479,0.1142548351753048,1.149247332317073,-0.0044659870426828,1.2528954482660062,-6.032804163490853,0.9942403653772868,-0.1734778994605654,19.83242943173363,-0.8256094796316964,-11.50808531253056,-9.588478708791213,-2.8660986467236533,-33.202860536454295,0.7866411173702887,-41.84252630767494,29.72195764818641,32.64525114565549,32.26186839188906,1577398185.999,-27.70515578332937,-51.10936367140111,22.386288
112922,1577398186.95,1.552610579030106,-0.350662950469226,9.832811032774387,0.8801318883384146,0.2414639967011243,9.62749364162538,0.577230619303385,0.2984771402994789,6.270642167154947,-0.2824736804496951,0.6304485041920732,0.3312273723323171,1.2071190810785062,5.304476109946647,-0.5621561189977132,-1.6535804385230657,4.970368884858631,1.6920907156808034,-11.409303464354334,-10.54732657967033,-2.3201750949667663,-25.627686722999226,-21.849407402011565,-6.285586206222642,29.72195764818641,32.54940545721389,32.26186839188906,1577398185.999,-27.70515578332937,-51.10936367140111,22.386288
112923,1577398186.96,0.5542284867449496,0.3987221691596792,8.832034738829078,0.6478943273032584,0.4545479444550301,9.412015492211316,1.2547896891276038,2.783658463541667,4.95383125406901,0.0227021008003048,1.607011004192073,-0.2486066120426828,1.1918602920160062,2.756258336509146,0.5059591153772867,1.2608482724144343,-16.94125220889137,-1.4359610421316964,-11.409303464354334,-10.54732657967033,-2.3201750949667663,-27.4561769538332,-18.19843183436933,-6.873304224428462,30.009494713511245,32.50148261299308,32.30979123610986,1577398185.999,-27.70515578332937,-51.10936367140111,22.386288
112924,1577398186.97,0.9325123490496372,0.2119744396674917,7.9988525610947026,-2.1030433802162727,0.2103393751190926,4.604458558617568,-0.2224327351888014,-1.3966176350911452,12.14840724283854,0.2363251476753048,1.210282488567073,0.1786394817073171,-0.2424658798589938,1.6881431021341464,-0.7452615877477133,3.2750084286644343,-9.525480724516369,0.2730233328683036,-11.409303464354334,-10.54732657967033,-2.3201750949667663,-27.4561769538332,-18.19843183436933,-6.873304224428462,29.67403480396561,32.64525114565549,32.16602270344745,1577398185.999,-27.70515578332937,-51.10936367140111,22.386288
112925,1577398186.98,0.8894167191668246,0.8679856945503042,9.336014188291967,1.447557681795446,0.1911857618378426,10.996976991234757,1.5875837198893226,2.757322245279948,11.849132035319007,1.1213349133003048,1.103470965129573,0.224415848894817,-0.8528174423589938,7.669588414634147,-0.0128397127477133,0.1622154599144345,1.827058337983631,-0.0321524483816964,-12.001994553411702,-9.908094665750914,-1.228327991452992,-30.329518745143748,-20.38901717495467,-7.167163233531377,29.76988049240722,32.789019678317906,32.30979123610986,1577398185.999,-27.70515578332937,-51.10936367140111,22.386288
112926,1577398186.99,0.6763327714129184,0.3005599010932729,11.93252588873142,1.315876590486852,0.553907313351515,9.070841755639051,0.4287901163736975,-1.5690001546223953,9.808075120035806,1.7927216320503048,1.607011004192073,0.2091570598323171,3.160244081078506,1.6271079458841462,0.4907003263147867,-2.8132484072730657,0.5453200567336309,1.3411385672433034,-11.11295791982565,-8.949246794871796,-3.139060422602094,-27.194964063714064,0.7866411173702886,-2.1715600787818783,29.72195764818641,32.45355976877228,31.902447060233023,1577398185.999,-27.70515578332937,-51.10936367140111,22.386288
112927,1577398187.0,0.2765010941668246,0.0036788952338979,10.95090320806736,1.2536273473227897,0.0618988721894051,11.578767994652724,0.1893699503580725,1.1603897379557284,11.157207755533852,-1.8999053210746952,1.362870379192073,-0.1570538776676828,-2.439731504858994,1.3219321646341464,-1.1114725252477131,2.0543053036644343,-0.431242443266369,0.7307870047433036,-11.11295791982565,-8.949246794871796,-3.139060422602094,-30.19891230008417,-0.3086515529223823,-7.020233728979919,29.86572618084883,32.64525114565549,32.26186839188906,1577398186.999,-27.705353183448427,-51.10930592731166,22.54863
112928,1577398187.01,0.9564543656511996,-1.021039415312976,9.126521543028296,0.5257900426352896,-0.3977878465605939,11.83015916896913,1.975444388834635,-1.7509594807942703,13.695061515299477,-1.7778350085746952,0.0506145198170732,-0.0044659870426828,-5.033725645483994,5.869051305259147,0.4449239591272866,0.3453209286644345,5.733308337983631,-0.8256094796316964,-11.11295791982565,-8.949246794871796,-3.139060422602094,-33.07225409139472,4.0725191282483015,-2.318489583333339,29.96157186929044,32.64525114565549,32.07017701500584,1577398186.999,-27.705353183448427,-51.10930592731166,22.54863
112929,1577398187.02,1.322767219655106,0.1174034740913203,10.74500186529392,1.324256296297399,0.4425769361542493,9.911206538353897,0.4455495279947918,-0.1875457967122394,11.810824808756507,1.1823700695503048,1.378129168254573,0.3159685832698171,1.6801415420160062,0.0707114615091464,-0.5926736971227132,1.1998131161644343,20.04605247860863,-0.5967276436941964,-11.903212705235475,-9.588478708791213,-1.5012897673314385,-26.868447951065143,-0.491200331304489,-36.4795993915468,29.65007338185521,32.62128972354509,32.118099859226646,1577398186.999,-27.705353183448427,-51.10930592731166,22.54863
112930,1577398187.03,1.6459844437761997,0.3268961193549917,9.933367502500952,1.8282357457602896,0.0355626539276863,9.862125404320691,2.2172587565104163,-1.978408638509114,6.96496064860026,0.3889130383003049,1.790116472942073,-0.3096417682926828,0.7340966201410062,6.235262242759147,-0.1043924471227133,-2.2791907900855657,12.141999744233631,-0.5204336983816964,-12.10077640158793,-9.588478708791207,-2.5931368708452127,-26.150112503237505,-26.96077319671069,-5.697868188016817,29.62611195974481,32.64525114565549,32.16602270344745,1577398186.999,-27.705353183448427,-51.10930592731166,22.54863
112931,1577398187.04,1.3514976395769809,0.7937654430854605,8.812881125547827,-0.2068356653725228,-0.1727328905059063,9.174989527855848,-0.0093487874348952,2.477200651041666,6.08389443766276,0.4499481945503049,1.942704363567073,0.0260515910823171,1.6191063857660062,9.500643102134148,0.3533712247522866,0.1927330380394345,-0.8584885370163691,-0.5204336983816964,-11.11295791982565,-7.670782967032964,-4.230907526115857,-27.19496406371407,-19.65882206142622,-35.377628107410885,29.86572618084883,32.357714080330666,32.30979123610986,1577398186.999,-27.705353183448427,-51.10930592731166,22.54863
112932,1577398187.05,0.7457646195574497,0.0778991466987417,9.160040366270485,1.459528690096227,1.0411273511933112,7.94197567287538,-0.2296153401692702,-0.6663861287434892,7.757441398111979,-0.2824736804496951,2.0037395198170733,-0.2180890339176828,3.938442323266006,1.4440024771341464,-0.3790506502477133,2.7867271786644343,-9.342375255766369,0.0899178641183035,-11.11295791982565,-7.670782967032964,-4.230907526115857,-27.19496406371407,-19.65882206142622,-35.377628107410885,29.86572618084883,32.789019678317906,32.07017701500584,1577398186.999,-27.705353183448427,-51.10930592731166,22.54863
112933,1577398187.06,0.5338777726336215,0.7590495190131948,9.64127489996189,-0.2690849085365853,0.0475336622284681,9.645450154076553,1.022552128092448,0.6228914652506509,9.55788104654948,0.8466767101753048,1.988480730754573,0.2854510051448171,0.4441796279535063,2.756258336509146,0.5364766935022868,-0.3413245791480654,-7.801237560453869,1.1275155203683038,-11.310521616178107,-9.588478708791213,-1.5012897673314385,-27.26026728624385,-0.491200331304489,-21.93357844095268,29.74591907029682,32.64525114565549,31.97433132656424,1577398186.999,-27.705353183448427,-51.10930592731166,22.54863
112934,1577398187.07,0.2669242875261997,0.1593020031440542,11.06582488775486,2.091597928377477,0.4760957593964363,9.426380702172256,2.4710441324869783,-1.1260728474934891,10.225863309733072,1.8232392101753048,1.362870379192073,0.8805437785823171,-0.9443701767339938,-0.3260170541158537,0.5975118497522867,-0.7533118838355655,-1.774015880766369,2.0735604422433034,-11.60686716070679,-10.54732657967033,-2.866098646723648,-27.32557050877363,2.6121289011914097,-2.318489583333339,29.62611195974481,32.789019678317906,31.97433132656424,1577398186.999,-27.705353183448427,-51.10930592731166,22.54863
112935,1577398187.08,0.6069009232683872,-0.302778917266101,11.195111777403296,0.4132625646079459,-0.2732893602324688,11.724814295922256,-1.1322293660481764,1.873861832682291,10.058269193522134,0.3889130383003049,0.7220012385670732,0.5753679973323171,-1.3410986923589938,0.5284751333841463,0.4144063810022866,-1.4552161807105657,-0.248136974516369,0.4866463797433036,-11.903212705235472,-10.227710622710624,-3.684983974358976,-27.4561769538332,3.7074215714840806,-6.579445215325552,29.86572618084883,32.64525114565549,32.16602270344745,1577398186.999,-27.705353183448427,-51.10930592731166,22.54863
112936,1577398187.09,1.2617150773211214,-0.3937585803520385,9.860344351866187,-0.0464241541420531,-1.0418280931426251,10.89163211818788,2.02332842203776,0.1931322672526035,11.597740861002602,0.4499481945503048,1.164506121379573,0.3922625285823171,2.473598573266006,-0.5701576791158537,-0.6537088533727133,0.3453209286644345,1.674470447358631,-0.6425040108816964,-11.656258084794905,-10.06790264423077,-2.183694207027543,-27.4561769538332,3.7074215714840806,-6.579445215325552,29.841764758738428,32.789019678317906,32.16602270344745,1577398186.999,-27.705353183448427,-51.10930592731166,22.54863
112937,1577398187.1,1.562187385670731,0.8248900646674917,10.75218447027439,1.7623952001059924,0.9058549573944832,11.43990429836366,0.8226362894694007,-1.5570291463216144,11.711465439860024,1.7927216320503048,1.729081316692073,0.5448504192073171,1.9853173232660064,4.083772984946647,0.6738057950647868,0.7267906552269343,9.044465564546131,0.3340584891183036,-11.60686716070679,-10.54732657967033,-3.4120221984805403,-26.99905439612471,-12.17432214775964,-20.905071909092488,29.62611195974481,32.597328301434686,32.07017701500584,1577398186.999,-27.705353183448427,-51.10930592731166,22.54863
112938,1577398187.11,1.5789467972918243,0.348443934296398,9.35397070074314,1.0453318028891958,0.4784899610565926,8.868531715355848,0.6179320475260414,0.1907380655924472,6.60104199625651,0.0227021008003048,2.0647746760670733,-0.0044659870426828,-2.805942442358994,6.326814977134147,-2.0575174471227133,-0.2955482119605654,0.3622145879836309,1.4632088797433036,-11.11295791982565,-8.949246794871796,-3.684983974358976,-27.4561769538332,-25.5003829696538,-6.579445215325552,29.86572618084883,32.45355976877228,32.26186839188906,1577398186.999,-27.705353183448427,-51.10930592731166,22.54863
112939,1577398187.12,1.3084020096941684,0.6620843517768668,7.66845273199314,-0.3097863367592415,0.6891797071503426,8.104781385766005,-0.5456499593098951,1.2872824259440097,7.182832999674479,-0.1909209460746951,2.4309856135670733,0.0870867473323171,3.541713807641006,4.251619664634147,1.6045919278772869,0.4063560849144345,-7.419767833891369,-0.5509512765066964,-11.60686716070679,-9.908094665750918,-3.957945750237422,-26.933751173594928,-25.5003829696538,-6.873304224428462,29.67403480396561,32.50148261299308,31.97433132656424,1577398186.999,-27.705353183448427,-51.10930592731166,22.54863
112940,1577398187.13,0.8487152909441684,0.1389512890327266,8.49205810308689,-0.2212008753334603,-1.6284074998809064,7.783958363305068,0.5317407877604162,0.7845000773111972,10.687944230143229,-0.3740264148246951,2.3699504573170733,-0.0807599323551828,2.961879823266006,-1.3330971322408536,-1.7523416658727131,-2.9810950869605657,-7.847013927641369,-0.2457754952566964,-11.804430857059245,-9.908094665750918,-3.957945750237422,-26.933751173594928,-25.5003829696538,-6.873304224428462,29.67403480396561,32.50148261299308,32.26186839188906,1577398186.999,-27.705353183448427,-51.10930592731166,22.54863
112941,1577398187.14,1.0306746171160432,1.0978290539253042,10.931749594786108,1.0345578954184926,1.0602809644745614,10.631861238060926,0.0337468424479167,-0.1408588643391928,10.898633976236978,1.7011688976753048,3.1634074885670733,0.3312273723323171,0.8103905654535062,3.336092320884146,0.6738057950647867,-0.1734778994605655,2.498445056733631,0.1662118094308036,-11.705649008883018,-10.866942536630033,-3.684983974358976,-34.70483465463935,-7.79315146658896,-24.13752100922452,29.67403480396561,32.64525114565549,32.02225417078504,1577398186.999,-27.705353183448427,-51.10930592731166,22.54863
112942,1577398187.15,0.8535036942644809,0.7817944347846792,11.788873789122048,-0.0033285242592406,-0.1799154954863751,10.798258253441784,0.72088271891276,2.218626871744791,8.473307694498697,1.2739228039253048,2.9192668635670733,0.3617449504573171,-1.5547217392339938,13.040682164634148,-1.3250955721227131,-0.7227943057105655,-0.6753830682663691,1.1885506766183036,-11.903212705235472,-11.506174450549448,-0.9553662155745456,-27.4561769538332,-18.19843183436933,-1.8777010696789656,29.817803336628028,32.789019678317906,32.07017701500584,1577398186.999,-27.705353183448427,-51.10930592731166,22.54863
112943,1577398187.16,0.6332371415301059,-0.341086143828601,11.312427658750952,1.710919864412633,0.6077768507050301,14.5188476333246,-0.2320095418294264,2.103705192057291,10.063057596842446,-1.4116240710746952,2.3089153010670733,0.2396746379573171,-0.9443701767339938,5.930086461509147,1.3909688810022869,0.9861900692894344,-1.346769787016369,0.5781991141183036,-11.21173976800188,-9.268862751831502,-2.3201750949667663,-31.243763860560744,-16.372944050548213,-2.318489583333339,29.817803336628028,32.789019678317906,32.16602270344745,1577398186.999,-27.705353183448427,-51.10930592731166,22.54863
112944,1577398187.17,0.9480746598406528,0.1006440624702266,9.695144437315406,-0.6234267542397103,-0.8718397752715313,7.63551786037538,-0.4929775227864577,-0.491609407552083,11.181149772135416,-0.3587676257621952,2.1410686213795733,0.209157059832317,4.823452088891006,-5.758145960365853,0.4144063810022866,2.1763756161644343,-0.7059006463913691,0.3340584891183036,-11.557476236618676,-8.469822859432233,-2.183694207027543,-30.72133808032246,1.1517386741345172,-39.6385837394031,29.74591907029682,32.64525114565549,32.26186839188906,1577398186.999,-27.705353183448427,-51.10930592731166,22.54863
112945,1577398187.18,1.2198165482683871,0.8416494762885854,10.359535398008765,2.0257573827231803,1.6923502027558115,10.117107881127334,0.5089958719889324,-2.4500663655598958,10.926167295328774,1.2128876476753048,2.1868449885670733,0.3617449504573171,-0.0898779892339938,0.2385581411966466,0.9332052091272868,1.8711998349144343,3.7344069707961314,0.7613045828683036,-11.804430857059248,-8.629630837912085,-1.774251543209873,-26.41132539335664,0.0564460038418426,-20.096959634059484,29.817803336628028,32.7171354119867,32.04621559289544,1577398186.999,-27.705353183448427,-51.10930592731166,22.54863
112946,1577398187.19,1.1623557084246372,0.128177381562023,9.428190952207984,1.9766762486899767,-1.8199436326934064,8.643476759301162,2.935519254557291,1.241792594401041,6.54358115641276,-0.7402373523246951,2.2478801448170733,-0.3401593464176828,-1.6157568954839938,-2.675870569740854,-2.5152811189977133,1.9322349911644343,0.4232497442336309,1.859937395368304,-12.199558249764156,-9.908094665750918,-0.6824044396961103,-27.19496406371407,-0.6737491096866035,-5.991727197119726,29.67403480396561,32.64525114565549,32.16602270344745,1577398186.999,-27.705353183448427,-51.10930592731166,22.54863
112947,1577398187.2,1.2317875565691685,0.2718294811713979,7.340447104551734,1.373337430330602,1.4409590284394052,9.328218434105848,1.1662042277018223,3.7987999674479167,8.423029459635416,-0.6792021960746951,3.1023723323170733,-0.1570538776676828,-1.1274756454839938,0.0707114615091463,0.7195821622522867,3.6717369442894334,-1.957121349516369,-0.7340567452566964,-11.310521616178104,-8.31001488095238,-3.139060422602094,-27.4561769538332,-3.594529563800388,-7.167163233531377,29.62611195974481,32.50148261299308,32.118099859226646,1577398186.999,-27.705353183448427,-51.10930592731166,22.54863
112948,1577398187.21,0.5781705033465121,0.2442961620796016,9.152857761290017,-0.5097021753822886,0.1337249219940931,9.34497784572694,0.6143407450358069,-0.582589070638021,9.266985544840496,-0.2061797351371951,2.1410686213795733,-0.0655011432926828,-0.1051367782964938,4.465242711509147,-0.3180154939977133,3.6717369442894334,-2.155485607328869,-1.0239737374441966,-11.606867160706788,-8.949246794871794,-2.320175094966761,-29.154060739607612,-12.356870926141754,-40.52016076671184,29.67403480396561,32.62128972354509,32.18998412555786,1577398186.999,-27.705353183448427,-51.10930592731166,22.54863
112949,1577398187.22,0.7266110062761997,0.8584088879096792,10.263767331602514,2.9128090978110706,0.6293246656464363,12.031272108422256,0.3880886881510412,-0.3982355428059892,10.972854227701822,1.1518524914253048,2.9192668635670733,0.6058855754573171,-4.606479551733994,6.387850133384147,1.0552755216272869,-0.7838294619605655,0.1180739629836309,-0.5814688546316964,-11.409303464354334,-10.54732657967033,-2.3201750949667663,-27.4561769538332,2.2470313444271808,-5.404009178913907,29.67403480396561,32.50148261299308,32.07017701500584,1577398186.999,-27.705353183448427,-51.10930592731166,22.54863
112950,1577398187.23,0.9277239457293246,0.5950467052924917,11.329187070372043,-1.6146262415443975,0.0882350904511238,8.111963990746474,0.49103935953776,-0.9010178914388016,9.90025188395182,0.2363251476753048,2.3394328791920733,-0.0655011432926828,6.440883729516006,-8.046964319740853,0.9332052091272868,-2.4928138369605657,-1.407804943266369,1.951490129743304,-11.903212705235472,-8.949246794871796,-2.5931368708452127,-26.933751173594928,-3.594529563800388,-0.7022650332673206,29.86572618084883,32.789019678317906,32.16602270344745,1577398186.999,-27.705353183448427,-51.10930592731166,22.54863
112951,1577398187.24,0.3674807572527621,-0.4380513110649291,10.352352793028295,-0.477380452970179,1.1297128126190925,12.201260426293349,-0.5791687825520827,0.5977523478190098,7.8795456827799475,-1.4268828601371952,1.790116472942073,0.0718279582698171,-1.5242041611089938,8.554598180259147,-1.4471658846227131,1.9627525692894343,-4.978361583891369,2.4092538016183034,-11.50808531253056,-8.31001488095238,-3.139060422602094,-26.933751173594928,-3.594529563800388,-0.7022650332673206,29.69799622607601,32.64525114565549,32.118099859226646,1577398186.999,-27.705353183448427,-51.10930592731166,22.54863
112952,1577398187.25,1.3514976395769809,0.4609714123237417,8.824852133848609,1.2560215489829456,-0.0350662950469224,10.53369896999452,0.1307120096842449,0.0075816385904949,12.434514341227212,-0.8317900866996951,2.2173625666920733,-0.2791241901676828,1.8632470107660064,0.2843345083841462,0.5975118497522868,-1.4704749697730657,-3.2388596307663686,-0.5051749093191964,-11.60686716070679,-7.351167010073261,-2.866098646723648,-27.0643576186545,-1.4039442232150496,-24.06405625694879,29.67403480396561,32.62128972354509,32.14206128133705,1577398186.999,-27.705353183448427,-51.10930592731166,22.54863
112953,1577398187.26,1.4903613358660432,0.7051799816596792,9.318057675840794,1.3398186070884146,-0.3594806199980939,8.128723402367568,2.404006486002604,-0.0869893269856767,12.055033378092446,0.7551239758003049,2.0342570979420733,0.6669207317073171,-3.233188536108994,5.716463414634147,-0.6842264314977133,-0.5702064150855655,11.592683337983631,2.2871834891183034,-11.705649008883018,-8.31001488095238,-3.139060422602094,-26.933751173594928,-2.864334450271945,-5.404009178913907,29.67403480396561,32.6931739898763,32.16602270344745,1577398186.999,-27.705353183448427,-51.10930592731166,22.54863
112954,1577398187.27,0.8487152909441684,0.1784556164253042,10.891048166563452,1.8354183507407584,0.7155159254120613,14.487723011742569,1.4367490152994788,1.1484187296549473,9.701533146158852,0.1142548351753048,3.4380656916920733,-0.0044659870426828,-5.522006895483994,7.242342320884147,-0.9588846346227132,-0.1429603213355654,12.935456775483631,0.2119881766183035,-11.409303464354334,-9.268862751831502,-2.3201750949667663,-26.933751173594928,-2.864334450271945,-6.579445215325552,29.72195764818641,32.789019678317906,32.50148261299308,1577398186.999,-27.705353183448427,-51.10930592731166,22.54863
112955,1577398187.28,0.8367442826433871,0.2179599438178828,9.089411417295874,-1.7870087610756478,-1.384198930544969,6.474330055199599,-0.7802817220052076,3.284046610514323,5.650543937174479,-1.1369658679496952,2.2631389338795733,-0.2333478229801828,4.609829042016006,-0.7837807259908537,0.5364766935022867,-0.1429603213355654,0.0875563848586309,-1.4664786202566964,-12.10077640158793,-8.31001488095238,-3.139060422602094,-27.4561769538332,-26.96077319671069,-7.167163233531377,29.69799622607601,32.789019678317906,32.16602270344745,1577398186.999,-27.705353183448427,-51.10930592731166,22.54863
112956,1577398187.29,0.6092951249285434,-0.0130805163871947,8.884707175352514,1.496638815828649,0.5179942884491707,8.756004237328506,1.2895056131998694,-0.3671109212239584,9.05150739542643,-1.8083525866996952,2.1868449885670733,-0.2486066120426828,-0.2424658798589938,0.9557212271341462,0.3381124356897867,-0.1887366885230654,-8.777800060453869,-0.9324210030691964,-12.298340097940386,-9.588478708791207,-3.684983974358976,-27.0643576186545,-2.4992368935077245,-7.020233728979919,29.62611195974481,32.54940545721389,32.118099859226646,1577398186.999,-27.705353183448427,-51.10930592731166,22.54863
112957,1577398187.3,0.6476023514910434,1.1074058605659292,8.365165415098609,-0.3887949915443978,0.5934116407440926,4.870214942894911,0.0744482706705725,-0.7956730183919267,9.897857682291663,-0.2824736804496951,2.4920207698170733,0.2396746379573171,2.382045838891006,1.0472739615091464,1.3604513028772869,1.2608482724144343,-5.527677990141369,0.7918221609933036,-10.915394223473193,-12.784638278388275,-2.04721331908832,-27.4561769538332,2.9772264579556307,-3.934714133399346,29.96157186929044,32.6931739898763,32.30979123610986,1577398186.999,-27.705353183448427,-51.10930592731166,22.54863
112958,1577398187.31,0.3818459672136996,0.9781189709174916,10.436149851133765,-0.1254328089272093,0.8136781934784676,12.146193788109755,-0.0117429890950514,0.0015961344401035,8.885110380045573,1.7622040539253048,2.7056438166920733,0.4532976848323171,-2.622836973608994,2.390047399009146,-1.1114725252477131,-2.5538489932105657,-6.443205333891369,2.5008065359933034,-11.409303464354334,-11.186558493589745,-3.957945750237422,-27.4561769538332,3.7074215714840806,-2.171560078781876,29.67403480396561,32.64525114565549,32.30979123610986,1577398186.999,-27.705353183448427,-51.10930592731166,22.54863
112959,1577398187.32,0.5314835709734652,-0.1758862292778202,9.913016788389625,-0.0703661707436156,0.1026003004120613,12.562784876976943,0.251619193522135,0.6911262125651035,8.84201475016276,-1.4116240710746952,1.439164324504573,0.0870867473323171,-5.583042051733994,3.336092320884146,-0.0128397127477133,5.624861944289434,-8.152189708891369,1.5852791922433036,-11.804430857059248,-9.908094665750918,-3.4120221984805403,-26.411325393356645,-3.594529563800388,-2.171560078781876,29.76988049240722,32.64525114565549,32.16602270344745,1577398186.999,-27.705353183448427,-51.10930592731166,22.54863
112960,1577398187.33,0.8175906693621371,-0.2620774890434448,10.20870069341892,0.3510133214438834,0.0295771497772962,8.15865092311952,1.1913433451334632,0.1033497049967446,10.804063010660805,-1.5642119616996952,1.759598894817073,0.2701922160823171,1.8174706435785064,2.435823766196646,0.2618184903772866,-3.2099769228980657,-5.253019787016369,0.3187997000558036,-11.409303464354334,-9.908094665750918,-3.957945750237422,-26.868447951065136,1.3342874525166244,-41.69559680312348,29.72195764818641,32.64525114565549,32.118099859226646,1577398186.999,-27.705353183448427,-51.10930592731166,22.54863
112961,1577398187.34,0.9564543656511996,1.133742078827648,10.816827915098608,2.1251167516196645,2.9445176710175303,8.638688355980848,-0.3660848347981764,-2.0047448567708326,8.523585929361978,0.2058075695503048,1.027177019817073,0.2701922160823171,-0.4866065048589938,10.538240758384148,1.6351095060022869,-1.7298743838355657,-8.091154552641369,-0.0931876046316964,-12.001994553411702,-9.268862751831502,-2.866098646723648,-26.411325393356645,0.0564460038418389,-43.31182135318951,29.86572618084883,32.64525114565549,31.83056279390182,1577398186.999,-27.705353183448427,-51.10930592731166,22.54863
112962,1577398187.35,0.8989935258074496,0.5471626720893668,8.788939108946265,3.530513126131383,-2.830296733279344,9.309064820824595,1.6665923746744788,0.4924074747721347,6.976931656901042,-2.1745635241996952,1.790116472942073,-0.3401593464176828,-1.0664404892339938,7.852693883384147,-1.0199197908727131,-1.8824622744605648,-7.847013927641369,1.7378670828683036,-11.60686716070679,-11.186558493589745,-1.774251543209873,-27.4561769538332,-0.6737491096866035,-35.08376909830798,29.86572618084883,32.64525114565549,32.26186839188906,1577398186.999,-27.705353183448427,-51.10930592731166,22.54863
112963,1577398187.36,0.4297300004168246,0.1772585155952266,6.946600931456031,-1.6924377954994758,0.2929393323944832,8.147877015648818,1.3709084696451816,0.9520941935221356,7.4090850565592445,-2.0524932116996952,1.271317644817073,-0.3706769245426828,-1.7225684189214938,0.4216636099466462,-0.3027567049352133,-1.1652991885230657,-15.84261939639137,1.0207039969308034,-11.60686716070679,-9.268862751831502,-3.957945750237422,-26.346022170826856,-11.444127034231194,-23.549802991018694,29.76988049240722,32.54940545721388,31.97433132656424,1577398186.999,-27.705353183448427,-51.10930592731166,22.54863
112964,1577398187.37,-0.0227741133527055,0.0826875500190542,8.168840878965796,0.0804685338462271,-1.2046338060332502,7.384126686058974,1.5420938883463535,-1.7054696492513015,9.63928390299479,-2.1745635241996952,0.5388957698170732,0.0260515910823171,-3.721469786108994,2.115389195884146,0.6585470060022867,-0.3260657900855654,-14.255705333891369,0.2119881766183035,-11.705649008883018,-9.588478708791207,-3.139060422602094,-27.4561769538332,-26.96077319671069,-6.579445215325552,29.86572618084883,32.64525114565549,31.97433132656424,1577398186.999,-27.705353183448427,-51.10930592731166,22.54863
112965,1577398187.38,0.8439268876238558,1.018820399140148,8.597402976133765,2.0197718785727896,0.5982000440644051,9.402438685570692,1.0129753214518225,2.7429570353190105,10.393457425944009,-1.3505889148246952,0.7525188166920732,0.1176043254573171,-0.7307471298589938,-12.075284632240852,0.9637227872522868,-5.697159540085566,-11.142912365141369,0.1204354422433035,-12.298340097940386,-9.588478708791207,-2.5931368708452127,-27.4561769538332,-24.039992742596905,-6.579445215325552,29.72195764818641,32.789019678317906,31.83056279390182,1577398186.999,-27.705353183448427,-51.10930592731166,22.54863
112966,1577398187.39,0.5877473099871371,0.694406074188976,10.173984769346657,-0.0919139856850218,2.111335493283155,7.568480213891005,1.6474387613932286,-2.4452779622395826,12.890609757486978,-1.0911895007621952,0.5388957698170732,0.178639481707317,-4.514926817358994,7.028719274009147,1.7571798185022869,-2.0350501650855657,-2.353849865141369,1.982007707868304,-11.606867160706791,-11.825790407509151,-2.320175094966761,-32.811041201275586,4.0725191282483015,-0.8491945378187784,29.841764758738428,32.6931739898763,32.26186839188906,1577398186.999,-27.705353183448427,-51.10930592731166,22.54863
112967,1577398187.4,0.1615794144793247,-0.2046166491996947,11.144833542540017,0.136732272859899,-0.0769648240996568,10.510954054223037,-0.3457341206868488,-0.0139661763509115,10.403034232584634,-2.0524932116996952,0.2337199885670732,0.3922625285823171,-3.477329161108994,0.4369223990091463,-0.3943094393102132,-0.8753821963355656,2.132234119233631,1.5700204031808034,-12.10077640158793,-12.784638278388275,-1.501289767331427,-30.133609077554397,3.159775236337741,-21.63971943184977,29.62611195974481,32.64525114565549,31.97433132656424,1577398186.999,-27.705353183448427,-51.10930592731166,22.54863
112968,1577398187.41,1.2509411698504185,0.0180441051948354,9.4928343970322,0.8035174352134146,-0.2325879320098126,9.682560279808971,2.293873209635416,1.500366373697916,10.836384733072917,-2.5407744616996952,0.0811320979420732,-0.1570538776676828,1.3444481826410062,2.573152867759146,0.6890645841272867,-1.3941810244605657,5.214509509858631,-1.1307852608816964,-11.310521616178104,-8.949246794871796,-2.5931368708452127,-27.4561769538332,2.2470313444271808,-42.43024432588076,29.72195764818641,32.64525114565549,32.07017701500584,1577398186.999,-27.705353183448427,-51.10930592731166,22.54863
112969,1577398187.42,0.7457646195574497,-0.5661410998832885,9.574237253477513,0.9974477696860709,1.314066340451124,8.047320545922256,0.1534569254557288,0.0590569742838535,11.410993131510414,-1.9609404773246952,-0.4071491520579268,0.1176043254573171,-1.1885108017339938,-4.384854944740853,0.9942403653772868,-1.6688392275855657,9.486970447358631,0.8223397391183036,-12.10077640158793,-9.588478708791207,-4.230907526115857,-27.19496406371407,2.2470313444271808,-38.90393621664583,29.72195764818641,32.6931739898763,31.97433132656424,1577398186.999,-27.705353183448427,-51.10930592731166,22.54863
112970,1577398187.43,0.9660311722918246,0.3352758251655386,8.978081040098608,2.7883106114829457,-0.4001820482207501,5.001896034203505,1.1662042277018223,-0.8267976399739579,6.845250565592448,-1.1980010241996952,-0.1630085270579268,0.0565691692073171,-2.256626036108994,-6.154874475990853,0.2618184903772866,1.8711998349144343,8.266267322358631,-0.5509512765066964,-11.45869438844245,-10.387518601190475,-2.7296177587844244,-27.32557050877363,1.1517386741345172,-7.020233728979919,29.69799622607601,32.64525114565549,31.926408482343422,1577398186.999,-27.705353183448427,-51.10930592731166,22.54863
112971,1577398187.44,0.6021125199480747,0.6118061169135854,8.719507260801734,-0.5073079737221322,0.5012348768280774,9.32702133327577,1.14226221110026,-0.4269659627278647,6.97812875773112,-2.4187041491996952,-0.0409382145579267,-0.5537823932926829,-2.607578184546494,-4.247525843178353,0.0176778653772866,-1.5315101260230657,-7.724943615141369,0.3340584891183035,-11.804430857059248,-12.46502232142857,-4.503869301994303,-27.39087373130341,-12.17432214775964,-23.255943981915784,29.67403480396561,32.81298110042831,32.118099859226646,1577398186.999,-27.705353183448427,-51.10930592731166,22.54863
112972,1577398187.45,0.0801765580340121,-0.1375790027153197,8.116168442442358,-0.4606210413490853,0.4353943311737801,10.09915136867616,0.0002280192057291,-2.256136031087239,9.802089615885416,-1.7473174304496952,-0.5292194645579268,-0.1875714557926828,-5.125278379858994,4.007479039634147,-0.1959451814977133,-0.3565833682105654,-7.236662365141369,0.0594002859933035,-11.804430857059248,-12.46502232142857,-4.503869301994303,-27.4561769538332,-0.6737491096866035,-39.49165423485165,29.86572618084883,32.64525114565549,32.16602270344745,1577398186.999,-27.705353183448427,-51.10930592731166,22.54863
112973,1577398187.46,0.7337936112566684,1.0260030041206167,8.286156760313453,-0.1757110437904915,-1.1591439744902814,8.923598353539441,1.42956641031901,1.490789567057291,11.59295245768229,-0.2519561023246951,-0.4681843083079268,0.1481219035823171,1.9853173232660064,-5.330899866615853,0.9332052091272868,-2.2486732119605657,-0.156584240141369,-0.1237051827566964,-12.001994553411702,-9.908094665750918,-3.4120221984805403,-37.25166033330097,-26.595675639946467,-4.669361656156629,29.86572618084883,32.597328301434686,31.97433132656424,1577398186.999,-27.705353183448427,-51.10930592731166,22.54863
112974,1577398187.47,0.6930921830340121,-0.0621616504203984,10.774929386045876,1.823447342439977,0.5503160108612801,11.662565052758191,1.2212708658854163,3.906539042154948,10.32881398111979,-0.3129912585746951,-0.3918903629954268,0.224415848894817,0.3678856826410062,-5.391935022865853,0.5975118497522867,5.075545538039434,8.876618884858631,1.4632088797433036,-11.261130692089992,-11.026750515109889,-1.9107324311491023,-27.32557050877363,-26.595675639946467,-4.669361656156629,29.76988049240722,32.50148261299308,32.16602270344745,1577398186.999,-27.705353183448427,-51.10930592731166,22.54863
112975,1577398187.48,0.2238286576433872,-0.561352696562976,11.417772531797826,0.0816656346763052,-0.2972313768340319,11.129855183373428,0.3246423441569006,0.1177149149576821,11.285297544352211,0.0837372570503048,-0.9869831364329268,0.2396746379573171,2.626186463891006,-3.2557045541158525,-0.5011209627477132,-1.8519446963355657,3.505525134858631,0.5781991141183036,-10.915394223473193,-11.506174450549448,-2.5931368708452127,-28.89284784948848,-8.705895358499522,-22.0070431932284,29.817803336628028,32.64525114565549,32.04621559289544,1577398186.999,-27.705353183448427,-51.10930592731166,22.54863
