,timestamp,acc_x_dashboard,acc_y_dashboard,acc_z_dashboard,acc_x_above_suspension,acc_y_above_suspension,acc_z_above_suspension,acc_x_below_suspension,acc_y_below_suspension,acc_z_below_suspension,gyro_x_dashboard,gyro_y_dashboard,gyro_z_dashboard,gyro_x_above_suspension,gyro_y_above_suspension,gyro_z_above_suspension,gyro_x_below_suspension,gyro_y_below_suspension,gyro_z_below_suspension,mag_x_dashboard,mag_y_dashboard,mag_z_dashboard,mag_x_above_suspension,mag_y_above_suspension,mag_z_above_suspension,temp_dashboard,temp_above_suspension,temp_below_suspension,timestamp_gps,latitude,longitude,speed
65618,1577399661.58,0.509789768125952,2.2425494232922056,5.389815098311261,-3.170682135158632,-2.277761706245236,5.2089652802258,2.931203573980564,-0.5006801227848702,2.2864625854492187,12.896095834127289,10.837089724657012,-2.0670076695884143,7.712573539919969,-1.0725812214176829,1.2296350990853655,-5.261118819073933,5.578762147484756,6.647249547446647,-25.122095352564106,-17.07597302350427,-0.3757347976097998,-1.629031725486053,0.3665943431568428,-2.5575899461115803,26.84658699493815,34.27462784916285,38.92314373858088,1577399661.0,-27.68784197608112,-51.12175166063516,10.326208
65619,1577399661.59,1.341774845030249,-2.0622251616687306,7.007098319746808,2.5347004209937114,2.4579691775438257,2.350288497999237,7.259920175543063,9.064155509539347,13.441048120117186,0.8721700528772862,-5.794990353467988,-2.0059725133384143,-2.1751217725800305,7.869069169207317,-2.9817906821646343,-29.24793522532393,2.191310975609756,6.830355016196647,-24.76950454059829,-17.07597302350427,-0.3757347976097998,-1.2181413338264289,0.3665943431568428,-1.6726212489433638,27.15808548237338,34.46631922604607,38.92314373858088,1577399661.0,-27.68784197608112,-51.12175166063516,10.326208
65620,1577399661.6,1.2017140479111084,5.378953598096893,8.859013303877667,-0.1611706483422254,2.736893670952029,6.5509153107433775,1.4479956455137677,-4.075223201398151,4.85184966430664,17.626320443502287,-4.513252072217988,-1.2125154820884143,0.2815432664824695,-1.0115460651676829,0.6192835365853658,-1.4311627643864324,22.89748773342226,-2.7674233041158534,-24.9457999465812,-17.689481036324786,0.9769104737854758,-4.91615485876303,-3.48264625999001,-2.410095163250211,27.18204690448378,34.49028064815647,39.01898942702249,1577399661.0,-27.68784197608112,-51.12175166063516,10.326208
65621,1577399661.61,0.4858477515243896,-1.803651382371856,7.805564573408917,-2.8091576844750383,-4.585772106635861,4.72294234321408,-9.71496959496475,-7.70243871653487,9.09796630859375,-5.750144400247714,-2.499091915967988,-1.3345857945884143,6.217212211794969,2.009694169207317,0.7718714272103658,-7.031138350323933,18.39614495998476,-4.064420374428353,-25.298390758547008,-19.32550240384615,0.9769104737854758,-7.586942404550577,-42.34164663461538,-2.115105597527472,26.990355527600563,34.46631922604607,38.68352951747686,1577399661.0,-27.68784197608112,-51.12175166063516,10.326208
65622,1577399661.62,-1.2954382836318592,-5.224965554735137,13.56840796940501,-1.5617786195336312,-3.8890594235303926,5.6878056122570495,7.501734543218844,10.63954020192216,11.911153259277343,-19.39150182212272,5.588066287157012,-2.0670076695884143,3.501147758669969,-4.734690596417683,-1.4864293540396345,16.131703446551068,35.15029535060975,-6.292203577553353,-25.65098157051282,-18.098486378205127,-0.8266165547415584,-3.2725932921245406,-3.299349088411588,-1.0826421174978862,27.18204690448378,34.27462784916285,39.1148351154641,1577399661.0,-27.68784197608112,-51.12175166063516,10.326208
65623,1577399661.63,1.3956443823837643,0.1332577606945494,13.42236166813548,4.13163292831793,3.238478918754763,15.04913410346799,-0.5451772365663102,-5.00177924387862,1.9728221679687497,-15.088523306497711,0.1254198027820121,-3.4708162633384143,-5.257397163205031,-0.4622296589176829,2.1756800209603657,10.302846024676068,57.64175042873475,3.412386266196646,-24.9457999465812,-19.734507745726493,0.0751469595219524,-3.2725932921245406,-3.299349088411588,-1.0826421174978862,27.18204690448378,34.562164914487674,38.92314373858088,1577399661.0,-27.68784197608112,-51.12175166063516,10.326208
65624,1577399661.64,2.7136523962997803,1.4536599762707212,11.139490385176495,0.2530262388648058,-0.140936724555783,6.391700900342987,-0.5499656398866241,-2.162256074933308,14.30774912109375,8.989845834127287,0.1711961699695123,-0.9225984899009144,1.8837161180449693,6.266896317644816,-0.1589147056021343,17.764393876238568,52.60635003810975,-16.21041646817835,-24.9457999465812,-18.098486378205127,0.3757347976097936,4.123433757748661,-2.5661604020979016,0.3923057111158077,27.03827837182137,34.53820349237728,38.80333662802887,1577399661.0,-27.68784197608112,-51.12175166063516,10.326208
65625,1577399661.65,2.360507651426733,5.639921579053925,10.00583589909251,-0.2138430848656624,2.180241784965701,7.722877023389862,-3.8970595607850607,1.7067738078791912,9.375693701171874,21.074806771627287,7.419120974657012,-1.0599275914634143,2.524585258669969,-0.1570538776676829,0.4972132240853658,19.000355790301068,53.76601800685975,-19.567350061928355,-27.23764022435897,-17.484978365384613,-0.6763226356976347,10.286789632642996,-3.665943431568431,0.9822848425612848,26.89450983915896,34.370473537604454,38.92314373858088,1577399661.0,-27.68784197608112,-51.12175166063516,10.326208
65626,1577399661.66,3.9382865454697034,-2.5506423003406056,6.096104588057354,4.933690484470274,0.0733443240282008,7.751607443311737,-0.0783079128358415,1.2255392741877849,7.539341027832031,-2.8814920564977133,11.752617068407012,-2.9214998570884143,1.6395754930449695,16.230885575457318,-4.324564119664634,12.805287430926068,55.32241449123475,5.945345250571647,-26.00357238247863,-18.098486378205127,-1.4277922309172344,10.286789632642996,-3.665943431568431,0.9822848425612848,26.89450983915896,34.70593344715009,38.77937520591847,1577399661.0,-27.68784197608112,-51.12175166063516,10.326208
65627,1577399661.67,3.787451840879859,-2.881042129442168,-1.0146743426067066,2.5011815977515246,-2.7745585507276576,2.8530708466320496,2.2716010166075167,2.3627850627620046,11.550825909423828,10.241066537252289,12.973320193407012,-1.7313143102134143,-2.312450874142531,6.999318192644818,1.0770472084603655,8.578602860613568,29.35195550685976,-8.748868616615855,-23.88802751068376,-18.098486378205127,-0.2254408785658824,10.69768002430262,-2.749457573676324,-1.230136900359256,26.990355527600563,34.49028064815647,38.68352951747686,1577399661.0,-27.68784197608112,-51.12175166063516,10.326208
65628,1577399661.68,0.3062826270126713,-2.274112008592559,6.565368113447979,1.8164399229468364,1.6702768313524197,12.209610934522678,0.2856107395079075,-9.476542146710653,14.46576643066406,-3.522361197122713,4.992973513719512,-2.4637361852134143,1.4259524461699695,13.606373856707316,-3.1648961509146343,-2.178843428448933,-2.966159727515244,4.114290563071647,-22.653959668803417,-18.3029890491453,-0.9769104737854758,10.286789632642996,-2.5661604020979016,-37.07136913567202,27.014316949710967,34.370473537604454,38.82729805013928,1577399661.0,-27.68784197608112,-51.12175166063516,10.326208
65629,1577399661.69,-1.4438787865615468,4.892930661085174,10.886902110030013,-1.444462738185975,-0.1086150021436732,10.978991281202363,1.2815986301329074,5.539890665789348,16.61336531982422,2.5811544278772867,26.49260730278201,0.1912931116615854,-3.639965522580032,12.721364091082316,-1.8526402915396345,-11.517222334698932,-41.66244879001525,-6.444791468178353,-24.9457999465812,-19.734507745726493,-0.5260287166537173,-6.55971642540152,-4.032537774725275,-32.05654651838546,27.18204690448378,34.562164914487674,38.77937520591847,1577399661.0,-27.68784197608112,-51.12175166063516,10.326208
65630,1577399661.7,-1.108690554139672,-1.8778716338366996,14.770297202803448,3.894606963962461,0.9927177615282008,15.93738291938596,-3.9066363674256857,5.154424198504192,22.838289636230467,-20.18495885337272,13.339531130907012,0.0081876429115854,-1.2595944288300305,2.833668778582317,-0.2352086509146341,-2.972300459698933,-76.42197027439025,1.3371909536966462,-25.122095352564106,-18.3029890491453,0.2254408785658761,-6.55971642540152,-2.1995660589410586,-32.05654651838546,26.89450983915896,34.562164914487674,38.92314373858088,1577399661.0,-27.68784197608112,-51.12175166063516,10.326208
65631,1577399661.71,-0.6394270287490473,-2.823581289598418,14.572775565840557,1.058675097507383,-2.881100524604611,16.090611825635957,-0.7067858486268577,-6.555616121320026,11.83573590698242,-10.999167837747716,17.840873904344512,-1.6092439977134143,3.012866508669969,6.907765458269816,0.2988489662728656,-23.35804264719893,-73.93478765720275,6.906648961509147,-25.91542467948718,-16.564716346153844,-0.3005878380878412,-6.456993827486615,-1.924620301573427,-36.26014782993449,27.014316949710967,34.63404918081888,38.73145236169766,1577399661.0,-27.68784197608112,-51.12175166063516,10.326208
65632,1577399661.72,0.3876854834579833,-0.369524587938262,7.209408360030011,-2.2201840760766,-2.5937963253858616,14.07229982612424,1.7795925754454074,7.258927457781535,9.014169250488282,3.649269662252287,11.996757693407012,4.097543111661586,10.123462211794967,-1.5303448932926829,0.1920374428353658,-10.998423506573932,-53.93051519626525,23.309847203696645,-26.35616319444444,-16.462465010683758,0.0751469595219524,-13.133962691955478,-4.032537774725275,-4.032537774725275,26.990355527600563,34.370473537604454,38.82729805013928,1577399661.0,-27.68784197608112,-51.12175166063516,10.326208
65633,1577399661.73,-1.350504921815453,5.297550741651581,12.000205882002666,0.9425563169898054,1.1267930544969509,12.60944261176877,-0.494899001703029,-8.454218037823932,6.947973217773437,7.616554818502286,1.132499880907012,-1.3345857945884143,-0.5271725538300305,3.901784012957317,0.3751429115853658,-14.324839522198932,-27.502292540015244,3.748079625571646,-23.35914129273504,-17.484978365384613,-0.3757347976097998,-9.8468395586785,-4.032537774725275,-2.2626003803888417,27.038278371821367,34.370473537604454,38.68352951747686,1577399661.0,-27.68784197608112,-51.12175166063516,10.326208
65634,1577399661.74,0.3685318701767333,5.2568493134289245,7.992312302901104,-1.4779815614281624,1.742102881157107,7.952720382764862,-2.8962832668397485,-0.1152136554997139,4.074931225585937,16.008888802877287,-8.602607540967988,-2.7994295445884143,0.9376711961699696,3.077809403582317,-3.1954137290396343,-4.742319990948933,-0.0364722275152439,-0.7685219369283537,-25.47468616452992,-17.893983707264955,-0.0751469595219649,-6.55971642540152,-4.032537774725275,-2.852579511834319,26.89450983915896,34.562164914487674,38.92314373858088,1577399661.0,-27.68784197608112,-51.12175166063516,10.326208
65635,1577399661.75,1.114325687315405,-1.480434158250762,6.273275510908917,0.1476813658179308,-0.1050236996534396,7.950326181104706,3.882898733892672,-1.5888447773258862,6.89530078125,6.502663216939788,-7.549751095655488,-2.4027010289634143,-2.9838375928925305,6.633107255144816,-1.3033238852896345,7.022206376238567,21.85989007717226,-3.1183754525533534,-25.122095352564106,-19.120999732905982,0.225440878565873,-6.55971642540152,-0.3665943431568431,-3.4425586432797965,27.038278371821367,34.370473537604454,38.87522089436008,1577399661.0,-27.68784197608112,-51.12175166063516,10.326208
65636,1577399661.76,-0.1988939232802969,0.4780227997570495,9.735291111494856,0.8060868223608991,3.2025658938524195,7.176999044874237,-5.012757534417874,-5.238805208234089,5.212177014160156,-4.773581900247714,2.8414842559070124,-1.2735506383384143,-8.858471381955031,0.148121903582317,1.5958460365853655,6.518666337176067,39.39223870998475,0.5742515005716463,-24.76950454059829,-18.3029890491453,-0.3757347976097998,-6.55971642540152,-1.099783029470529,-4.032537774725275,26.798664150717343,34.46631922604607,38.82729805013928,1577399661.0,-27.68784197608112,-51.12175166063516,10.326208
65637,1577399661.77,0.2560043921493896,-1.4205791167468556,6.139200217940167,-0.2090546815453499,-0.2762091183546107,10.485785739210176,0.8913437595274387,-8.351267366437213,0.0670376464843749,-3.705466665872713,3.909599490282013,-1.1209627477134143,1.4869876024199695,1.2162371379573171,-1.7610875571646345,9.539906571551068,54.31533441310975,-4.125455530678353,-24.76950454059829,-18.3029890491453,-0.3757347976097998,-6.55971642540152,-1.099783029470529,-4.032537774725275,26.990355527600563,34.22670500494204,38.68352951747686,1577399661.0,-27.68784197608112,-51.12175166063516,10.326208
65638,1577399661.78,0.6199230444931395,-3.2689027983874808,9.608398423506577,0.7127129576148054,-4.379870763862424,5.618373764112518,-8.441254311761623,-22.919984468488,18.478448413085932,-14.142478384622711,7.144462771532012,-2.0059725133384143,0.6019778367949695,3.169362137957317,-1.3948766196646345,2.063099930926067,30.66421136623476,-7.268766077553353,-25.122095352564106,-17.484978365384613,1.127204392829393,-6.148826033741899,-4.032537774725275,-2.852579511834319,27.08620121604217,34.370473537604454,38.77937520591847,1577399661.0,-27.68784197608112,-51.12175166063516,10.326208
65639,1577399661.79,-0.4622561058974844,1.1627644745617374,14.607491489912825,-1.0314629518090228,2.996664551078982,19.68430851753049,-3.1799961635682634,-0.0505702106754951,21.574151159667966,-15.241111197122711,7.358085818407012,-0.8310457555259144,1.8989749071074693,-6.230051924542684,-0.4488316977896344,-9.457285811261432,-29.989475157202747,-12.517789515053352,-25.915424679487177,-17.791732371794872,0.4508817571317522,-8.614168383699631,-43.99132117882117,-2.852579511834319,27.038278371821367,34.41839638182526,38.92314373858088,1577399661.0,-27.68784197608112,-51.12175166063516,10.326208
65640,1577399661.8,-3.189251796815453,2.419720346143768,11.178994712569072,3.1595870542944926,-3.077425060737424,14.960548642042207,-3.5690539333436546,21.174027506609654,24.217349792480466,5.846535287252286,14.102470584032012,0.2828458460365854,3.9589114305449695,11.744801591082316,-2.2798863852896343,-52.288706709698936,-71.63071050876525,3.015657750571646,-25.827276976495725,-17.484978365384613,0.526028716653711,9.875899240983376,-2.5661604020979016,-1.9676108146661029,26.990355527600563,34.562164914487674,38.82729805013928,1577399661.0,-27.68784197608112,-51.12175166063516,10.326208
65641,1577399661.81,-1.2954382836318592,-4.5785311064929495,9.907673631026103,3.877847552341368,-6.556200072944455,11.323756320264865,13.092195419683687,-5.032903865460651,6.710947253417968,-9.870017447122711,5.069267459032012,-0.8157869664634145,2.555102836794969,-6.718333174542683,-3.8973180259146334,-15.087778975323932,-73.46176519626525,18.030306188071645,-25.827276976495725,-17.484978365384613,0.526028716653711,-0.6018057463369949,-0.916485857892108,0.8347900596999165,26.990355527600563,34.46631922604607,38.82729805013928,1577399661.0,-27.68784197608112,-51.12175166063516,10.326208
65642,1577399661.82,-1.024893496034203,-2.7733030547351367,10.89408471501048,-5.749237323146914,0.3367065066453882,11.132220187452363,-3.707917629632717,15.24837839772294,5.224148022460938,-9.412253775247711,6.778251834032012,1.1373380335365857,-3.1211666944550305,-12.974436690167684,3.6710413490853657,-11.334116865948932,-57.59262457126525,7.990022984946647,-24.24061832264957,-18.91649706196581,-0.2254408785658824,-3.067148096294731,-0.916485857892108,-3.8850429918639056,27.08620121604217,34.562164914487674,38.68352951747686,1577399661.0,-27.68784197608112,-51.12175166063516,10.326208
65643,1577399661.83,0.6977345984482186,0.8060284271984561,6.33552475407298,-1.0362513551293353,0.1667181887742946,7.682175595167207,-3.388291708001858,-3.857350850323933,-6.580463262939452,-3.308738150247714,-9.029853634717988,-2.8299471227134143,4.004687797732469,6.816212723894817,-3.0275670493521343,-1.1717633503239329,5.716091249047258,18.503328649009145,-25.56283386752137,-19.223251068376065,1.3526452713952692,3.4043755723443225,-0.0916485857892105,2.088495714021556,27.03827837182137,34.514242070266874,38.80333662802887,1577399661.0,-27.68784197608112,-51.12175166063516,10.326208
65644,1577399661.84,1.5847863135361082,0.3128228852062682,5.430516526533917,-0.3000343446312874,-1.8683532223585169,1.0382659882336118,12.467308786382906,16.835734098406537,3.268085266113281,22.966896615377287,-12.325752072217988,-1.1209627477134143,-4.952221381955031,1.0636492473323171,-4.934915682164634,9.295765946551068,37.56118402248475,-5.864957483803353,-25.65098157051282,-17.689481036324786,-0.5260287166537173,4.945214541067904,1.832971715784216,1.867253539729502,26.990355527600563,34.27462784916285,38.82729805013928,1577399661.0,-27.68784197608112,-51.12175166063516,10.326208
65645,1577399661.85,2.8561073950790776,-0.0367305571765433,6.802394077803448,0.6360985044898053,9.812956677543829,9.200099447706268,-8.161132717523342,-15.301634785870808,8.379705810546875,3.801857552877287,-8.022773556592988,-3.0435701695884143,-4.311352241330031,-0.9505109089176828,0.8939417397103658,13.964955399676068,54.80361566310975,-5.987027796303353,-25.65098157051282,-17.689481036324786,-0.5260287166537173,1.6580914077909268,-0.3665943431568428,-35.74391608991969,27.18204690448378,34.370473537604454,38.82729805013928,1577399661.0,-27.68784197608112,-51.12175166063516,10.326208
65646,1577399661.86,0.9180011511825926,0.1488200714855655,9.664662162520244,0.6911651426733991,-1.3176868405225797,10.907165231397675,-4.581801235589748,4.084216056414348,15.976507678222656,4.229103646627288,0.8883592559070124,-0.2054354039634144,2.005786430544969,14.003102372332316,-0.8760777915396342,28.552357743426068,52.63686761623475,-18.926480921303355,-25.739129273504272,-18.405240384615382,-0.1502939190439205,-3.2725932921245406,0.3665943431568428,-41.79120218723584,27.062239793931774,34.46631922604607,38.77937520591847,1577399661.0,-27.68784197608112,-51.12175166063516,10.326208
65647,1577399661.87,2.597533615782203,-1.2553792021960744,11.26279177067454,2.4485091612280865,-0.9525710873487522,10.212846749952362,-0.4853221950624045,-1.6786273395817457,20.414160455322264,-3.3087381502477133,9.097587771532012,0.2523282679115854,0.128955375857469,2.299611161394817,2.0536097084603657,13.034169266863568,11.621242616234758,-22.11556783536585,-24.76950454059829,-18.71199439102564,-0.3757347976097998,-2.7589803025500137,-3.757592017357642,-41.56996001294379,26.84658699493815,34.53820349237728,38.80333662802887,1577399661.0,-27.68784197608112,-51.12175166063516,10.326208
65648,1577399661.88,0.4978187598251708,-0.5634549224109183,13.903596201826884,1.5363183287085551,1.770833301078982,19.540656417921117,-1.5076463039491226,6.387438053484661,18.89264530029297,-9.412253775247711,11.233818240282012,-2.4332186070884143,-5.806713569455031,12.996022294207316,0.5887659584603658,0.3235979778010671,-7.574314024390244,5.182405797446647,-25.47468616452992,-17.07597302350427,1.127204392829393,10.081344436813186,-3.48264625999001,-41.34871783865174,26.89450983915896,34.46631922604607,38.97106658280169,1577399661.0,-27.68784197608112,-51.12175166063516,10.326208
65649,1577399661.89,1.352548752500952,-2.557824905321074,10.384119761397198,1.553077740329649,-1.7031533078077357,9.724429611280486,-4.689540310296779,-5.399216719464557,19.455282690429687,3.4051290372522867,8.700859255907012,0.8931974085365855,6.705493461794969,9.791676591082316,1.6873987709603655,-7.549937178448933,-6.689304258765244,-2.233365686928354,-25.47468616452992,-17.07597302350427,1.127204392829393,10.081344436813186,-3.48264625999001,-38.98880131286983,26.89450983915896,34.46631922604607,38.77937520591847,1577399661.0,-27.68784197608112,-51.12175166063516,10.326208
65650,1577399661.9,0.2679754004501713,0.0841766266613468,12.066046427656964,-5.670228668361757,-2.162840026557736,9.911177340772678,6.807416061773532,6.291669987078411,14.693215588378903,0.1397481778772871,1.4987108184070124,-1.6397615758384143,8.292407524294969,-0.0349835651676829,-0.5709020102896342,-3.704722334698933,-18.377536680640244,7.318636266196647,-25.386538461538464,-17.178224358974358,0.7514695952195903,9.875899240983376,-4.032537774725275,-3.147569077557058,27.03827837182137,34.41839638182526,38.92314373858088,1577399661.0,-27.68784197608112,-51.12175166063516,10.326208
65651,1577399661.91,0.5600680029892333,1.730190268018768,2.528744114424542,2.0929702146948834,0.17629499541492,6.780758670118377,-2.1696430629823267,-0.7640423054020582,6.664260321044922,18.297707162252287,8.883964724657012,0.3743985804115854,-2.754955756955031,5.198781083269816,-0.2657262290396343,0.7508440715510671,-21.856540586890244,18.228670445884145,-25.65098157051282,-17.280475694444444,0.6763226356976285,-9.8468395586785,-3.299349088411588,-3.885042991863905,27.038278371821367,34.41839638182526,38.92314373858088,1577399661.0,-27.68784197608112,-51.12175166063516,10.326208
65652,1577399661.92,0.4642999365829833,-1.691123904344512,2.2629877301471986,2.0079760557593365,2.3957199343797635,7.459514840772674,-0.1764701809022477,-26.154550911359088,-0.833182177734375,5.388771615377286,-4.879463009717988,-2.6468416539634143,-0.4051022413300305,-1.1030987995426829,2.5724085365853657,-6.725962569073933,-24.725192930640244,-3.301480921303354,-26.179867788461536,-19.120999732905982,0.526028716653711,-9.230503971189066,-1.649674544205794,-3.5900534261411665,26.990355527600563,34.46631922604607,38.82729805013928,1577399661.0,-27.68784197608112,-51.12175166063516,10.326208
65653,1577399661.93,0.3350130469345458,-2.203483059617949,4.999560227705792,1.6272979917944927,-4.145239001167111,9.96145557563596,8.114650168218844,11.575673051043252,4.639962817382812,16.222511849752287,0.2780076934070121,1.5035489710365857,5.759448539919969,4.298512528582317,-0.4793492759146341,0.9644671184260672,-12.304538633765244,8.691927281821647,-25.65098157051282,-17.689481036324786,0.6763226356976285,-1.2181413338264289,1.832971715784216,-3.737548209002536,26.990355527600563,34.41839638182526,38.82729805013928,1577399661.0,-27.68784197608112,-51.12175166063516,10.326208
65654,1577399661.94,-4.106231032655296,1.6655468231945494,14.233996030928449,-3.350247259670351,-0.9058841549757044,13.321717605665256,-5.650812276849513,-3.348582997540729,15.963339569091795,-0.8978494783727134,1.040947146532012,0.1302579554115854,1.5785403367949693,-7.710154463605184,1.9773157631478655,-2.499277998761433,-7.681125547827744,-1.0889565072408516,-25.65098157051282,-17.689481036324786,0.6763226356976285,-1.012696137996618,-3.665943431568431,-3.0000742946956884,27.08620121604217,34.46631922604607,38.94710516069129,1577399661.0,-27.68784197608112,-51.12175166063516,10.326208
65655,1577399661.95,0.5265491797470467,1.2525470368175968,12.593967893721416,-1.2289845887719124,-0.7526552487257044,14.83844435737424,5.919167245855563,7.06499712330888,5.9591679321289055,-3.705466665872714,-1.1563184784679876,1.4882901819740857,4.080981743044969,9.578053544207316,-2.5850621665396343,5.603138993426067,19.06753167873476,2.740999547446646,-25.386538461538464,-18.814245726495724,0.1502939190439205,-2.450812508805297,-4.032537774725275,-3.4425586432797965,27.27789259292539,34.562164914487674,38.635606673256056,1577399661.0,-27.68784197608112,-51.12175166063516,10.326208
65656,1577399661.96,-3.704005153749047,3.635974789503143,10.800710850264386,0.8108752256812116,2.479516992485232,10.73957111518674,-2.075072097406154,-13.187554719952836,18.856732275390623,12.163673959127289,10.135185427782012,0.7100919397865855,6.400317680544969,-6.687815596417683,1.6263636147103655,-1.4464215534489329,10.308986756859756,-3.118375452553354,-25.827276976495725,-16.66696768162393,0.526028716653711,-3.2725932921245406,-4.032537774725275,-41.79120218723584,27.08620121604217,34.46631922604607,38.92314373858088,1577399661.0,-27.68784197608112,-51.12175166063516,10.326208
65657,1577399661.97,-0.6513980370498281,-2.160387429735137,12.263568064619854,0.7438375791968366,-0.9992580197217982,17.124906942823458,4.817834482183689,10.03859558522294,11.470620153808593,-16.614402212747713,-3.780830197217988,-2.0670076695884143,-7.515697944455031,6.221119950457317,-2.4019566977896343,1.9410296184260671,-4.614108946265244,-14.867643030678352,-24.9457999465812,-17.280475694444444,0.6763226356976285,-9.641394362848688,-44.907807036713294,-2.4100951632502112,27.18204690448378,34.46631922604607,39.01898942702249,1577399661.0,-27.68784197608112,-51.12175166063516,10.326208
65658,1577399661.98,-0.0983374535537349,-2.2250308745593563,9.352218845869857,-4.669452374416444,-1.6720286862257043,6.441979135206268,-1.8835359645936536,5.178366215105754,7.936778503417968,4.656349740377288,0.4000780059070123,1.7934659632240857,1.6090579149199695,0.239674637957317,-1.2422887290396345,5.542103837176067,7.104641053734756,17.297884313071645,-25.474686164529917,-18.098486378205127,0.225440878565873,-9.641394362848688,-44.907807036713294,-2.4100951632502112,27.110162638152573,34.562164914487674,38.68352951747686,1577399661.0,-27.68784197608112,-51.12175166063516,10.326208
65659,1577399661.99,1.2256560645126708,-0.4293796294421683,10.925209336592513,0.7941158140601177,-1.6229475521925012,4.926449484327362,-0.830087234124905,-5.107124116925496,3.736151690673828,-5.200827993997714,-11.379707150342988,-3.0435701695884143,-0.9086422803925304,-0.1875714557926828,-0.3115025962271341,1.9715471965510671,5.258327577172256,-0.3107582650533536,-25.298390758547008,-18.098486378205127,-0.5260287166537173,0.939033222386588,-43.533078249875125,0.4660531025464922,26.89450983915896,34.442357803935664,38.87522089436008,1577399661.0,-27.68784197608112,-51.12175166063516,10.326208
65660,1577399662.0,3.3612839453720467,1.1579760712414244,7.230956174971417,3.487592681735898,7.184123254692263,5.690199813917206,0.3143411594297824,6.985988468523723,6.979097839355468,13.811623177877289,-13.271796994092988,-0.4190584508384145,-1.5037350538300305,1.7045183879573171,-2.2493688071646343,3.131215165301067,25.01845941310976,17.969271031821645,-25.298390758547008,-18.507491720085472,-0.2254408785658824,-7.9978327962102,-41.97505229145854,0.5398004939771768,26.990355527600563,34.46631922604607,38.635606673256056,1577399662.0,-27.687900150740017,-51.12167205038235,10.25059
65661,1577399662.01,-1.647385927674828,-0.7837214751452932,9.098433469893292,-3.364612469631288,-1.971303893745236,0.925738510206268,-5.898612148675686,-25.08913117258956,3.002328881835937,1.0247579435022869,0.8883592559070121,-2.6468416539634143,3.8368411180449695,-2.171214033917683,0.5887659584603658,-2.392466475323933,4.205471131859756,-10.503629358803352,-23.88802751068376,-20.143513087606834,0.6763226356976285,-5.7379356420822765,-3.299349088411588,-2.5575899461115803,27.038278371821367,34.70593344715009,38.77937520591847,1577399662.0,-27.687900150740017,-51.12167205038235,10.25059
65662,1577399662.02,0.4439492224716556,-2.4441003264636523,8.022239823653058,2.165993365329649,-0.0990381955030482,6.827445602491425,7.204853537359469,20.434219193621377,10.002974536132813,-3.3850320955602125,-1.720893673780488,-2.3111482945884143,-2.2056393507050305,8.143727372332316,-3.3785191977896343,6.366078446551067,-8.947605040015244,-9.771207483803352,-23.88802751068376,-20.143513087606834,0.6763226356976285,9.875899240983376,1.832971715784216,0.9822848425612848,27.110162638152573,34.46631922604607,38.82729805013928,1577399662.0,-27.687900150740017,-51.12167205038235,10.25059
65663,1577399662.03,-3.8189268334365463,-0.0750377837390433,11.03294841129954,2.230636810153868,-1.9808807003858613,14.084270834425022,3.1383020175840795,-10.009252016095417,14.993687896728517,4.290138802877286,25.88225574028201,2.1444181116615857,0.8308596727324695,-5.299265791730183,-0.7845250571646344,2.826039384051067,-11.877292540015244,-7.329801233803352,-24.9457999465812,-18.098486378205127,-0.2254408785658824,10.184067034728091,-1.3747287868381612,-35.81766348135038,27.038278371821367,34.562164914487674,38.89918231647049,1577399662.0,-27.687900150740017,-51.12167205038235,10.25059
65664,1577399662.04,-0.792655934999047,-0.7454142485827931,14.310610484053448,-3.905702044826601,5.077225793754764,17.031533078077366,4.068449362554783,12.040148173113566,9.68454571533203,-20.39858190024772,2.6888963652820124,0.1302579554115854,-1.3511471632050305,-5.558665205792683,2.5724085365853657,9.326283524676068,-14.288181211890244,4.327913609946647,-24.76950454059829,-18.3029890491453,-0.3757347976097998,-7.381497208720765,2.1995660589410586,-41.201223055790365,26.990355527600563,34.370473537604454,38.82729805013928,1577399662.0,-27.687900150740017,-51.12167205038235,10.25059
65665,1577399662.05,-1.6042902977920157,4.251284616163299,16.168510972334698,-0.4077734193383186,2.189818591606326,17.40981694038205,-5.063035769281155,-11.293741206769244,19.29965958251953,1.9097677091272869,-6.405341915967988,-0.4495760289634145,4.538745414919969,5.366627762957317,-2.9512731040396343,-10.937388350323932,-18.377536680640244,10.156771031821648,-26.532458600427347,-18.3029890491453,-0.6763226356976347,-7.381497208720765,2.1995660589410586,-41.201223055790365,27.08620121604217,34.46631922604607,38.77937520591847,1577399662.0,-27.687900150740017,-51.12167205038235,10.25059
65666,1577399662.06,-0.6849168602920157,-1.8359731047839656,12.057666721846417,2.1851469786108995,-2.5243644772413303,9.63943545234494,6.564404593267672,9.383781431170206,8.532934716796875,-7.092917837747713,-8.343208126905488,-1.8381258336509143,1.0750002977324693,-5.024607588605184,0.1767786537728657,-3.994639326886433,-21.642917540015244,0.8946860708841484,-24.41691372863248,-18.71199439102564,-0.0751469595219649,-7.278774610805861,-0.8248372721028971,-38.76755913857777,27.206008326594183,34.562164914487674,38.73145236169766,1577399662.0,-27.687900150740017,-51.12167205038235,10.25059
65667,1577399662.07,-0.1605866967177969,4.430849740675018,10.84141227848704,-2.842676507717226,0.1739007937547633,11.558388082960178,-13.68455594750381,-24.8568936115544,10.036493359375,15.154396615377289,-1.736152462842988,2.5106290491615857,3.9894290086699695,-7.328684737042683,-2.3409215415396343,-12.493784834698932,-6.292575743140244,6.525179234946647,-25.65098157051282,-18.098486378205127,0.3757347976097936,-16.421085825232456,-4.032537774725275,-35.89141087278106,27.373738281367,34.46631922604607,38.92314373858088,1577399662.0,-27.687900150740017,-51.12167205038235,10.25059
65668,1577399662.08,1.390855979063452,0.5570314545422057,1.492054795576886,5.769266863864805,-2.8906773312452363,0.8491240570812681,-1.9074779811952165,9.88057827565263,7.036558679199218,11.156593881002289,-10.281074337842988,-3.4097811070884143,7.163257133669969,6.251637528582317,-0.1436559165396341,-8.587534834698932,-7.726901915015244,-11.419156702553352,-26.179867788461536,-18.3029890491453,-0.0751469595219649,-9.641394362848688,-3.48264625999001,-3.2950638604184275,26.89450983915896,34.70593344715009,38.92314373858088,1577399662.0,-27.687900150740017,-51.12167205038235,10.25059
65669,1577399662.09,3.3517071387314217,-1.7414021392077932,5.112087705733136,1.2705619444312115,-2.012005321967892,-1.0638430693835743,5.9742338840391565,2.946970267840129,10.364498986816406,11.644875131002289,-38.32672863471799,-3.9590975133384143,3.8673586961699695,-6.809885908917683,-1.4559117759146345,5.847279618426067,13.787990663109756,10.736605016196648,-24.9457999465812,-18.91649706196581,-0.5260287166537173,-9.641394362848688,-3.48264625999001,-3.2950638604184275,26.990355527600563,34.562164914487674,39.01898942702249,1577399662.0,-27.687900150740017,-51.12167205038235,10.25059
65670,1577399662.1,1.8625137061142332,1.098121029737518,8.32750053532298,-1.4205207215844131,0.9125120059129666,9.781890451124235,-4.814038796624905,-11.016013814191124,11.495759271240232,14.681374154439789,-6.039130978467988,-1.9296785680259143,-4.067211616330031,-0.9505109089176828,-0.7997838462271343,2.932850907488568,20.31875238185976,-7.451871546303352,-26.532458600427347,-18.3029890491453,0.8266165547415459,-9.744116960763597,-3.207700502622377,-3.811295600433221,27.014316949710967,34.514242070266874,38.73145236169766,1577399662.0,-27.687900150740017,-51.12167205038235,10.25059
65671,1577399662.11,-0.4502850975967032,-3.359882461473418,13.034500999190168,1.3471763975562114,-1.7127301144483609,13.89991730659299,1.7149491306211886,16.04804175221513,20.118476550292968,-14.600242056497711,-3.750312619092988,2.3885587366615857,1.9142336961699693,3.321950028582317,0.2835901772103658,8.136097977801068,9.057766053734756,3.656526891196646,-25.122095352564106,-17.893983707264955,-0.0751469595219649,-8.819613579529443,-2.749457573676323,-3.000074294695689,26.84658699493815,34.562164914487674,38.82729805013928,1577399662.0,-27.687900150740017,-51.12167205038235,10.25059
65672,1577399662.12,-1.6306265160537343,-0.5299360991687307,13.75994410221751,-0.9153441712914436,-1.7606141476514856,13.160108993604709,-1.0527479885194353,-7.374433089093463,18.77293521728516,-12.738669790872711,28.53728503715701,1.7476895960365857,-0.8018307569550305,0.3312273723323171,-0.9065953696646342,-17.712290694073932,-7.269138243140244,-6.383756311928353,-25.122095352564106,-18.71199439102564,0.526028716653711,-2.450812508805297,-2.9327547452547447,-2.5575899461115803,27.038278371821367,34.562164914487674,38.92314373858088,1577399662.0,-27.687900150740017,-51.12167205038235,10.25059
65673,1577399662.13,-0.0348911095595943,0.1380461640148624,13.787477421309308,-3.3358820497094133,-0.7023770138624232,13.59345949409299,-6.626449453363186,6.5789741862971605,11.475408557128906,-11.548484243997716,3.695976443407013,0.9847501429115856,-0.4661373975800305,-5.009348799542683,2.0841272865853657,-2.392466475323933,-13.403171446265244,-6.383756311928353,-24.857652243589744,-18.609743055555555,-3.0808688933348094e-15,-2.450812508805297,-3.299349088411588,-1.3776316832206257,27.038278371821367,34.46631922604607,38.82729805013928,1577399662.0,-27.687900150740017,-51.12167205038235,10.25059
65674,1577399662.14,0.394868088438452,0.1667765839367369,12.682553355147196,-0.3275676637230847,-0.9477826840284388,13.084691641309789,0.9811263217832986,1.9198577556330985,9.773131176757811,-4.041160025247714,-16.720283322217988,-1.2125154820884143,3.775805961794969,2.192799637957317,1.0312708412728655,-9.16736881907393,-18.636936094702744,1.4287436880716464,-24.41691372863248,-18.3029890491453,-0.3757347976097998,-6.765161621231332,-22.72884927572428,-21.141932586644124,26.990355527600563,34.370473537604454,38.92314373858088,1577399662.0,-27.687900150740017,-51.12167205038235,10.25059
65675,1577399662.15,-0.7591371117568594,2.848282443311737,9.498265147139389,2.029523870700743,-1.0208058346632043,10.627043637159396,13.331615585699312,18.566741898699505,11.803414184570313,20.067726693502287,5.313408084032012,1.5645841272865857,-0.3745846632050305,-7.511790205792683,-2.9512731040396343,10.852162430926068,-11.968845274390244,-8.977750452553353,-25.65098157051282,-17.689481036324786,0.6763226356976285,9.875899240983376,-42.89153814935064,-2.852579511834319,27.038278371821367,34.562164914487674,38.82729805013928,1577399662.0,-27.687900150740017,-51.12167205038235,10.25059
65676,1577399662.16,3.2272086524032964,-1.3822718901843556,6.100892991377667,3.631244781345274,4.2536204226610135,6.985462912061737,6.948673959722751,-3.864533455304401,4.80755693359375,4.931007943502286,-12.783515744092988,-0.8463045445884145,2.585620414919969,1.6434832317073171,-2.6155797446646343,-0.6529645221989329,0.7875023818597561,17.053743688071645,-26.179867788461536,-18.3029890491453,-0.0751469595219649,9.875899240983376,-1.832971715784216,-2.852579511834319,26.990355527600563,34.562164914487674,38.92314373858088,1577399662.0,-27.687900150740017,-51.12167205038235,10.25059
65677,1577399662.17,1.0604561499618894,0.3223996918468932,5.067794975020245,1.744613873142149,-3.1731931271436737,4.603232260206268,-9.81552606469131,-24.27031420481612,4.127603662109375,12.056862435689789,-10.204780392530488,-1.1972566930259143,-5.135326850705031,-11.448557783917684,1.5653284584603655,-8.190806319073932,8.966213319359756,-5.590299280678353,-25.210243055555555,-19.63225641025641,0.6011756761756728,9.875899240983376,-1.832971715784216,-2.852579511834319,27.08620121604217,34.46631922604607,38.77937520591847,1577399662.0,-27.687900150740017,-51.12167205038235,10.25059
65678,1577399662.18,2.2360091650986083,-2.4740278472156056,8.933233555342511,0.7270781675757433,2.873363165580935,8.645841763380096,0.3921527133848602,14.9658626018245,14.714763403320312,-1.935447134622713,-17.208564572217988,-2.3721834508384143,1.0444827196074693,-1.0878400104801833,-0.8608190024771343,5.206410477801067,7.364040467797256,11.621614781821648,-24.76950454059829,-19.530005074786324,1.127204392829393,10.081344436813186,-1.099783029470529,-0.0501786374683004,27.229969748704587,34.46631922604607,38.87522089436008,1577399662.0,-27.687900150740017,-51.12167205038235,10.25059
65679,1577399662.19,-0.5508415673232657,2.110868331983612,8.777610447432354,-0.8459123231469123,0.497118017875857,9.573594906690644,9.034023605718843,-13.060662031964556,0.373495458984375,12.133156381002289,13.186943240282012,1.5645841272865857,-2.7244381788300305,1.0026140910823171,0.4056604897103658,5.816762040301067,25.90346917873476,-11.785367640053352,-24.76950454059829,-19.530005074786324,1.127204392829393,2.890762582769793,1.832971715784216,0.6872952768385466,27.421661125587804,34.41839638182526,38.77937520591847,1577399662.0,-27.687900150740017,-51.12167205038235,10.25059
65680,1577399662.2,3.6198577246689214,0.6288575043468931,15.028870982100322,5.4316844297827735,-1.5858374264600794,8.82899819038205,-8.814749770746,0.6269888591487225,7.151480358886718,-5.048240103372714,-0.0576856659679878,0.3438810022865854,-2.8159909132050305,2.833668778582317,1.9925745522103653,8.960072587176068,49.24941644435975,-1.8976723275533536,-22.301368856837605,-17.07597302350427,0.526028716653711,0.8363106244716829,0.3665943431568428,-37.07136913567202,26.990355527600563,34.370473537604454,38.77937520591847,1577399662.0,-27.687900150740017,-51.12167205038235,10.25059
65681,1577399662.21,-0.5089430382705313,-1.7773151641101368,13.248782047774151,-3.680647088771914,-1.818074987495236,11.048423129346896,7.180911520757907,11.908467081804972,13.354856860351562,-10.419333853372711,4.886161990282012,-0.4495760289634144,1.8226809617949693,0.9110613567073172,1.1991175209603655,14.911000321551068,39.30068597560975,-6.322721155678353,-25.739129273504275,-19.223251068376065,-3.1641356201816957e-15,1.041755820301493,-3.849240603146853,-36.92387435281065,27.038278371821367,34.41839638182526,38.68352951747686,1577399662.0,-27.687900150740017,-51.12167205038235,10.25059
65682,1577399662.22,2.513736557676734,0.8946138886242369,7.233350376631573,1.222677911228087,-1.6313272580030485,7.876105929639862,1.3211029575254856,0.6964207072932548,8.655039001464843,3.649269662252287,3.5433885527820124,0.2523282679115854,0.4646487352324696,1.8265887004573167,-1.0134068931021345,6.533925126238568,19.87624749904726,-18.74337545255335,-25.47468616452992,-18.71199439102564,0.526028716653711,5.972440520216962,-3.1160519168331664,-35.74391608991969,26.990355527600563,34.41839638182526,38.75541378380807,1577399662.0,-27.687900150740017,-51.12167205038235,10.25059
65683,1577399662.23,0.8761026221298582,-0.1564406401843558,8.162300620772198,5.31915695175543,0.1667181887742945,10.818579769971896,-0.4996874050233414,-4.506179500226276,17.597382202148438,8.959328256002287,1.468193240282012,-0.6631990758384145,-3.0601315382050305,6.404225419207317,-2.4629918540396343,5.877797196551067,-4.614108946265244,10.431429234946648,-25.47468616452992,-18.71199439102564,0.526028716653711,-6.55971642540152,-1.832971715784216,-37.07136913567202,27.08620121604217,34.61008775870848,38.77937520591847,1577399662.0,-27.687900150740017,-51.12167205038235,10.25059
65684,1577399662.24,-1.4869744164443592,-0.7741446685046682,8.985905991865948,-3.027030035549257,3.5832439578172632,5.932014181592987,-7.205846255120998,-12.646465144757526,17.46570111083984,2.1844259122522867,1.559745974657012,-0.4495760289634145,-4.463940131955031,-4.643137862042683,3.3353479897103657,-23.14441960032393,-30.737155821265244,-20.482877405678355,-26.708754006410253,-18.507491720085472,0.0751469595219524,-6.55971642540152,-2.5661604020979016,-37.07136913567202,27.229969748704587,34.46631922604607,38.92314373858088,1577399662.0,-27.687900150740017,-51.12167205038235,10.25059
65685,1577399662.25,-0.3329692162490473,-0.8016779875964656,8.789581455733135,-0.3108082521019916,-3.608937829292111,8.791888064649628,10.110217251959078,9.89254928395341,6.750451580810546,-3.247702993997712,2.9330369902820124,-0.8157869664634144,4.706592094607469,-2.094920088605183,0.0089319740853658,-0.4240826862614328,-22.054904844702744,16.122957555259145,-25.474686164529917,-16.25796233974359,0.526028716653711,-11.079510733657369,-2.932754745254745,-20.40445867233728,27.134124060262977,34.46631922604607,38.85125947224968,1577399662.0,-27.687900150740017,-51.12167205038235,10.25059
65686,1577399662.26,-0.3114214013076407,-0.5562723174304496,6.586915928389385,-0.3934082093773811,2.9799051394578884,12.14496748969846,-8.141979104242093,-15.584150581769244,2.2290017456054687,-2.6068338533727133,10.440361209032012,1.4730313929115857,-12.886791694455033,-12.821848799542684,1.7789515053353655,-12.768443037823932,13.940578553734756,11.743685094321648,-24.76950454059829,-18.71199439102564,-0.0751469595219649,-9.641394362848688,-39.77548623251748,-3.000074294695689,26.990355527600563,34.46631922604607,38.92314373858088,1577399662.0,-27.687900150740017,-51.12167205038235,10.25059
65687,1577399662.27,0.4499347266220458,2.3670479096203305,8.545372886397198,-1.4995293763695683,0.6647121340867945,15.45135998237424,-8.266477590570217,-5.523715205792683,9.430760339355468,0.2618184903772865,-7.687080197217988,-2.0364900914634143,8.902759086794969,-6.962473799542683,-0.2352086509146341,-3.979380537823933,7.562404725609756,-0.5854164681783537,-24.76950454059829,-18.71199439102564,-0.0751469595219649,-7.9978327962102,-1.649674544205794,-1.8201160318047327,26.990355527600563,34.562164914487674,39.01898942702249,1577399662.0,-27.687900150740017,-51.12167205038235,10.25059
65688,1577399662.28,-0.5352792565322505,-0.1181334136218562,10.489464634444072,0.4278029600562116,-2.1891762448194543,9.463461630323456,-2.7837557888124045,9.004300468035442,19.043480004882813,-0.5316385408727133,-10.097968869092988,-0.8310457555259145,-0.6797604444550305,7.228200028582317,-2.3409215415396343,0.4761858684260671,0.970607850609756,-0.0361000619283536,-24.24061832264957,-17.280475694444444,-0.5260287166537204,-2.450812508805297,-0.3665943431568428,-2.852579511834319,27.08620121604217,34.46631922604607,38.82729805013928,1577399662.0,-27.687900150740017,-51.12167205038235,10.25059
65689,1577399662.29,0.4666941382431395,4.129180331495331,14.154987376143293,-1.5210771913109753,-0.8998986508253138,12.835694668653534,-4.40822161522842,-5.171767561749714,13.697227697753906,5.602394662252286,-7.473457150342988,-3.2266756383384143,0.4188723680449694,-10.456736494855184,-1.2117711509146345,-7.046397139386432,-15.234226133765244,-11.876920374428355,-25.122095352564106,-19.530005074786324,0.8266165547415459,-2.450812508805297,-0.3665943431568428,-2.2626003803888413,27.18204690448378,34.442357803935664,38.75541378380807,1577399662.0,-27.687900150740017,-51.12167205038235,10.25059
65690,1577399662.3,-2.351281215760765,-4.671904971239043,10.24286186344798,-0.5897327455101936,-3.2162887570264864,9.463461630323456,-3.5379293117616237,-5.490196382550495,18.071434130859373,-9.229148306497711,8.243095584032012,2.6632169397865857,3.8673586961699695,-3.819163252667683,-0.8150426352896342,-2.819712569073933,-13.189548399390244,-0.4938637338033537,-25.298390758547008,-15.644454326923077,0.9769104737854758,10.081344436813186,-3.849240603146853,-0.0501786374683009,27.038278371821367,34.562164914487674,38.82729805013928,1577399662.0,-27.687900150740017,-51.12167205038235,10.25059
65691,1577399662.31,0.8042765723251708,-0.6735881987781057,11.281945383955792,-0.1037098084984749,1.6199985964891384,14.716340072706272,4.729249020757908,7.448069388933879,10.754753857421877,-10.236228384622711,-4.665839962842988,0.0997403772865854,1.1818118211699695,-14.286692549542684,4.250875333460366,-0.8971051471989329,-24.297946836890244,-7.116178186928353,-25.298390758547008,-15.644454326923077,0.9769104737854758,10.081344436813186,-2.3828632305194803,-2.115105597527472,26.89450983915896,34.562164914487674,38.68352951747686,1577399662.0,-27.687900150740017,-51.12167205038235,10.25059
65692,1577399662.32,-0.1689664025283443,0.1595939789562687,10.627131229903055,-1.858659625393006,-1.3583882687452358,14.864780575635958,-5.410195010003811,1.2901827190120037,6.5218053222656245,-1.0809549471227111,-4.421699337842988,-0.0070711461509143,3.226489555544969,-1.5913800495426829,-3.9888707602896334,-6.481821944073933,-6.902927305640244,10.614534703696648,-25.915424679487177,-17.5872297008547,-3.1641356201816957e-15,-7.792387600380388,-43.62472683566433,-4.032537774725275,26.96639410549016,34.46631922604607,38.82729805013928,1577399662.0,-27.687900150740017,-51.12167205038235,10.25059
65693,1577399662.33,1.9534933692001708,-0.407831814500762,8.475941038252667,1.9493181150855083,0.6730918398973416,4.606823562696503,-1.7255186550233428,-0.2959758808415113,1.9656395629882808,-0.3180154939977134,-2.651679806592988,-1.1514803258384143,-4.204540717892531,1.2009783488948171,-1.0134068931021345,-5.215342451886432,13.726955506859758,8.905550328696648,-25.47468616452992,-18.71199439102564,0.526028716653711,-8.614168383699631,-43.25813249250749,-1.377631683220625,27.038278371821367,34.562164914487674,38.73145236169766,1577399662.0,-27.687900150740017,-51.12167205038235,10.25059
65694,1577399662.34,0.452328928282202,0.9017964936047056,6.931680967451886,3.3319695738257424,-0.1541048336866419,11.529657663038302,-2.738265957269436,-7.144589729718463,15.856797595214845,13.109718881002289,0.3390428496570121,-0.8463045445884145,-2.6634030225800305,3.505055497332317,-5.484232088414634,-2.392466475323933,13.635402772484756,-9.862760218178352,-25.122095352564106,-19.120999732905982,-0.6763226356976347,9.875899240983376,-42.15834946303696,-4.032537774725275,27.18204690448378,34.562164914487674,38.92314373858088,1577399662.0,-27.687900150740017,-51.12167205038235,10.25059
65695,1577399662.35,3.521695456602515,-5.002304800340606,5.12884711735423,0.6360985044898053,0.1260167605516383,5.623162167432831,17.473584457769626,12.444768253679973,11.3006318359375,-1.843894400247713,-6.130683712842988,-1.1514803258384143,0.4493899461699695,-3.178294112042683,0.4666956459603658,9.753529618426068,-2.935642149390244,-4.949430140053353,-25.122095352564106,-19.120999732905982,-0.6763226356976347,9.875899240983376,-0.3665943431568428,-4.032537774725275,27.038278371821367,34.370473537604454,38.77937520591847,1577399662.0,-27.687900150740017,-51.12167205038235,10.25059
65696,1577399662.36,1.6290790442489989,2.353879800489471,12.793883732344463,0.221901617282774,-1.4613389401319543,8.34297525337033,-2.541941421136624,-7.994531319073932,9.05965908203125,1.4825216153772869,-2.590644650342988,-1.5634676305259143,2.921313774294969,-9.373362471417684,3.9151819740853657,5.236928055926067,4.358059022484756,-7.299283655678353,-26.444310897435894,-18.200737713675213,0.1502939190439143,10.69768002430262,-0.3665943431568428,0.6872952768385466,27.014316949710967,34.46631922604607,38.92314373858088,1577399662.0,-27.687900150740017,-51.12167205038235,10.25059
65697,1577399662.37,0.3398014502548583,-3.826751785203887,5.892597446944073,1.477660388034727,-0.7538523495557834,9.15580671699338,-2.322871969232327,-0.2014049152653389,11.944672082519531,-6.635154165872714,7.510673709032012,3.1209806116615857,-2.175121772580031,3.3372088176448167,-1.3491002524771338,9.753529618426068,27.26150140529726,-1.5924965463033536,-25.122095352564106,-18.71199439102564,-0.0751469595219649,9.875899240983376,2.1995660589410586,1.2772744082840235,26.990355527600563,34.39443495971486,38.68352951747686,1577399662.0,-27.687900150740017,-51.12167205038235,10.25059
65698,1577399662.38,2.149817905332984,1.1412166596203306,5.897385850264386,0.2242958189429303,4.0668726931688255,12.60944261176877,1.298358041754001,-3.840591438702839,11.827356201171874,9.264504037252289,8.212578005907012,-1.3040682164634143,-3.1822018507050305,-4.704173018292683,2.1146448647103657,-0.8665875690739329,13.818508241234756,-9.618619593178352,-26.179867788461536,-17.893983707264955,0.526028716653711,9.875899240983376,-1.099783029470529,-3.4425586432797965,27.18204690448378,34.27462784916285,38.92314373858088,1577399662.0,-27.687900150740017,-51.12167205038235,10.25059
65699,1577399662.39,0.6989316992782958,2.316769674757049,11.523759751631571,5.6184321592749615,-1.8372286007764855,12.43227168891721,-1.1341508449647475,6.001971586199504,12.524068884277344,-0.6842264314977134,-8.938300900342988,-3.3792635289634143,-2.6939206007050305,12.202565262957316,-2.9512731040396343,-1.9652203815739329,-6.048435118140244,-7.177213343178353,-26.179867788461536,-17.893983707264955,0.526028716653711,10.081344436813186,-2.3828632305194803,-41.64370740437448,27.08620121604217,34.46631922604607,38.68352951747686,1577399662.0,-27.687900150740017,-51.12167205038235,10.25059
65700,1577399662.4,-1.0069369835830315,0.7162458649425968,10.872536900069074,-3.307151629787538,0.3821963381883575,10.71922040107541,0.5920685520079074,-5.114306721905964,9.855731134033205,1.4672628263147869,3.1466600371570124,-0.4648348180259143,-2.7091793897675305,-4.597361494855184,-0.0368443931021345,-14.64527409251143,-17.965549375952744,0.4826987661966462,-26.091720085470083,-17.382727029914527,0.6011756761756697,-5.840658239997181,-3.757592017357642,-38.6200643557164,27.110162638152573,34.49028064815647,38.82729805013928,1577399662.0,-27.687900150740017,-51.12167205038235,10.25059
65701,1577399662.41,-0.5101401391006094,-6.261654873582794,12.491017222334698,0.2649972471655866,-5.246571764838986,3.5952733612804866,-3.815656704339749,8.70502526051591,17.53752716064453,-22.26015416587272,-9.487617306592988,-1.3345857945884143,3.6232180711699695,6.770436356707317,-4.019388338414634,-10.998423506573932,-37.54257574314025,-6.444791468178353,-25.827276976495725,-18.3029890491453,-0.0751469595219649,10.081344436813186,-3.849240603146853,-36.33389522136517,27.038278371821367,34.70593344715009,38.58768382903526,1577399662.0,-27.687900150740017,-51.12167205038235,10.25059
65702,1577399662.42,0.2631869971298583,-1.920967263719512,7.221379368330791,-3.706983307033632,-1.545135998237423,6.590419638135955,10.800944430914155,3.969294376726849,7.264007836914062,-4.315818228372714,7.602226443407012,2.9378751429115857,4.172534477419969,-8.701975752667684,2.4808558022103657,-5.016978194073933,-41.54037847751525,14.581819859946648,-23.535436698717945,-17.689481036324786,1.2774983118733108,9.875899240983376,-2.5661604020979016,-37.07136913567202,27.038278371821367,34.27462784916285,38.77937520591847,1577399662.0,-27.687900150740017,-51.12167205038235,10.25059
65703,1577399662.43,2.106722275450171,2.151569760206268,10.05132573063548,1.0287475767554304,0.8442772585985132,10.512121957471896,-17.242339614495997,-19.242490718487996,2.916137622070312,6.716286263814788,-1.7666700409679876,-0.1138826695884145,0.5714602586699695,0.8195086223323171,0.1920374428353658,-18.10901920969893,-20.178073790015244,9.851595250571648,-23.535436698717945,-17.689481036324786,1.2774983118733108,9.875899240983376,-2.5661604020979016,-34.71145260989011,26.94243268337976,34.562164914487674,38.82729805013928,1577399662.0,-27.687900150740017,-51.12167205038235,10.25059
65704,1577399662.44,2.4730351294540776,0.6073096894054869,12.759167808272196,2.2833092466773053,1.0968655337449982,6.825051400831268,7.326957822027438,-2.660250020245808,-5.844246252441406,-1.0199197908727131,-4.055488400342988,-0.4495760289634145,-1.7478756788300305,3.550831864519817,-0.7692662681021344,3.054921219988567,39.22439203029725,8.875032750571648,-25.47468616452992,-17.893983707264955,1.127204392829393,-16.215640629402646,-0.7331886863136856,-35.891410872781066,27.038278371821367,34.46631922604607,38.92314373858088,1577399662.0,-27.687900150740017,-51.12167205038235,10.25059
65705,1577399662.45,2.219249753477514,0.3822547333507994,3.814430405928448,0.8946722837866803,0.2074196169969508,3.992710836866424,-0.5116584133241228,-7.034456453351276,1.7597382202148435,-2.2711404939977133,9.952079959032012,-0.3580232945884145,-4.647045600705031,3.962819169207317,-3.9583531821646334,19.763295243426068,80.89614495998475,-7.909635218178353,-24.24061832264957,-16.871470352564103,0.0751469595219524,-16.421085825232456,1.0997830294705304,-37.07136913567202,27.3258154371462,34.46631922604607,38.82729805013928,1577399662.0,-27.687900150740017,-51.12167205038235,10.25059
65706,1577399662.46,2.2958642066025146,-3.434102712938262,4.499172080733136,0.5451188414038678,-1.504434570014767,6.676610897901581,-0.5954554714295914,-5.188526973370808,14.022839123535157,5.327736459127286,9.158622927782012,-1.2430330602134143,-0.0694088819550304,-6.260569502667683,0.2835901772103658,21.746937821551068,87.57949456935975,-15.996793421303352,-24.593209134615385,-17.689481036324786,-0.8266165547415584,-16.421085825232456,1.0997830294705304,-37.07136913567202,27.08620121604217,34.562164914487674,38.635606673256056,1577399662.0,-27.687900150740017,-51.12167205038235,10.25059
65707,1577399662.47,0.3481811560654057,0.7150487641125187,10.886902110030013,-4.123574395900819,0.985535156547732,15.132931161573458,-1.9098721828553729,15.564413016863568,14.49210264892578,-1.5234598299352136,-0.9884717987804874,0.3591397913490857,5.759448539919969,-1.5913800495426829,1.5348108803353655,27.606312821551068,57.55019769435975,-18.346646936928355,-24.9457999465812,-18.91649706196581,-0.2254408785658824,-3.067148096294731,-0.916485857892108,-0.345168203191039,27.062239793931766,34.46631922604607,38.82729805013928,1577399662.0,-27.687900150740017,-51.12167205038235,10.25059
65708,1577399662.48,-0.6442154320693594,-1.4828283599109182,10.827047068526104,2.825595922702696,-1.2470578915479709,8.609928738477754,-5.247389297113187,-6.517308894757526,16.485275531005858,-5.383933462747714,-3.414619259717988,0.9542325647865856,-2.8007321241425305,8.097951005144816,-2.0052281821646343,8.075062821551068,17.17544183498476,-10.335782679115852,-23.71173210470085,-19.120999732905982,0.526028716653711,-2.450812508805297,-2.932754745254745,-2.85257951183432,27.038278371821367,34.514242070266874,38.75541378380807,1577399662.0,-27.687900150740017,-51.12167205038235,10.25059
65709,1577399662.49,0.5121839697861084,-1.643239871141387,5.868655430342511,1.208312701267149,2.0629259036180447,15.544733847120334,4.877689523687595,10.66587642018388,13.328520642089844,0.0481954435022865,13.675224490282012,1.3814786585365857,-1.5037350538300305,-9.281809737042684,5.502096036585366,-1.9652203815739329,-15.142673399390244,6.555696813071647,-26.35616319444444,-17.280475694444444,-0.2254408785658824,-2.861702900464919,-2.1995660589410586,-3.737548209002536,27.18204690448378,34.562164914487674,38.77937520591847,1577399662.0,-27.687900150740017,-51.12167205038235,10.25059
65710,1577399662.5,-1.070383327577172,3.4228908417492367,13.221248728682356,-1.8921784486351936,0.3941673464891382,13.380375546339083,-0.5930612697694352,5.278922684832317,19.84793176269531,-1.0809549471227131,-2.712714962842988,0.4659513147865854,1.7311282274199695,3.535573075457317,-3.5005895102896343,-16.155894209698932,-41.96762457126525,4.999300328696647,-25.47468616452992,-17.484978365384613,0.8266165547415459,-6.55971642540152,-4.032537774725275,-2.5575899461115803,26.990355527600563,34.46631922604607,39.1148351154641,1577399662.0,-27.687900150740017,-51.12167205038235,10.25059
65711,1577399662.51,-1.1745310997939693,-1.783300668260528,5.735777238203839,2.94410890488043,-1.801315575874142,9.85850490424924,-4.780519973382717,3.006825309344036,13.986926098632813,-1.4471658846227136,4.306328005907012,0.7253507288490856,-8.187084663205031,11.500660966082316,-4.263528963414634,-20.85560124094893,-67.90756597751525,-5.803922327553353,-25.65098157051282,-18.098486378205127,0.9769104737854758,-5.532490446252464,-41.24186360514485,2.30973788831361,26.990355527600563,34.41839638182526,38.82729805013928,1577399662.0,-27.687900150740017,-51.12167205038235,10.25059
65712,1577399662.52,2.054049838926733,0.983199350050018,6.127229209639386,2.417384539646055,0.59767448760242,11.007721701124238,2.63312546729111,2.220330063982708,4.526238238525391,4.656349740377286,-2.682197384717988,-0.2359529820884145,-3.746777046017531,-1.0725812214176829,0.2530725990853655,-7.10743229563643,-66.09177007907775,20.13601907869665,-24.064322916666665,-18.71199439102564,0.2254408785658761,3.7125433660890392,-1.4663773726273723,0.6872952768385466,26.990355527600563,34.514242070266874,38.77937520591847,1577399662.0,-27.687900150740017,-51.12167205038235,10.25059
65713,1577399662.53,-1.9227191185927968,0.8922196869640806,8.602833726240949,0.6049738829077741,-4.049470934760861,8.410012899854706,4.573625912847751,-22.77633236887862,10.409988818359375,1.1468282560022869,-14.461982540967988,-2.3111482945884143,1.4869876024199695,-0.9810284870426828,-3.5616246665396343,-12.524302412823932,-45.47714605564025,-4.033902796303353,-23.88802751068376,-18.098486378205127,1.2774983118733108,9.875899240983376,-0.7331886863136862,0.6872952768385466,27.08620121604217,34.562164914487674,38.82729805013928,1577399662.0,-27.687900150740017,-51.12167205038235,10.25059
65714,1577399662.54,1.036514133360327,-1.7150659209460744,7.252503989912823,-0.958439801174256,1.5266247317430446,6.439584933546112,15.553434726324312,31.22249187428544,-15.581464404296874,1.6656270841272869,-8.388984494092988,2.3275235804115857,-2.0530514600800305,-6.138499190167683,2.6029261147103657,8.380238602801068,14.581447694359756,12.598177281821648,-24.9457999465812,-16.462465010683758,-0.2254408785658824,10.081344436813186,-0.5498915147352641,0.8347900596999165,27.038278371821367,34.562164914487674,38.82729805013928,1577399662.0,-27.687900150740017,-51.12167205038235,10.25059
65715,1577399662.55,1.1574213171982175,1.4979527069836125,10.551713877608137,2.923758190769102,-0.2917714291456268,5.219739187696503,-0.1920324916932647,-13.440142995099322,-2.8131869506835936,-0.4553445955602133,-5.367744259717988,-0.8615633336509144,3.058642875857469,-4.612620283917683,-2.8139440024771343,9.738270829363568,86.93862542873475,-6.704190882240854,-26.00357238247863,-19.734507745726493,0.9769104737854758,0.528142830726966,1.1914316152597406,2.5309800626056638,26.91847126126936,34.65801060292928,38.89918231647049,1577399662.0,-27.687900150740017,-51.12167205038235,10.25059
65716,1577399662.56,3.983776377012672,-2.6176799468249805,4.039485361983136,4.126844524997617,1.9982824587938255,8.70689390571408,-4.787702578363186,11.53257742116044,5.360617517089843,-0.3485330721227134,-10.494697384717988,-0.3275057164634145,-8.431225288205031,4.420582841082317,1.2296350990853655,41.15611750905106,120.56899652248477,-15.111783655678352,-26.35616319444444,-17.689481036324786,0.3757347976097936,10.081344436813186,-3.849240603146853,3.1947065854818257,27.18204690448378,34.370473537604454,38.92314373858088,1577399662.0,-27.687900150740017,-51.12167205038235,10.25059
65717,1577399662.57,2.456275717832984,1.5817497650890806,9.18941313297923,3.755743267673399,-2.2681848996046106,4.859411837842987,4.7148838107969695,-4.360133198956745,12.356474768066406,12.133156381002289,2.4447557402820124,-2.6468416539634143,3.9589114305449695,5.122487137957317,-3.5616246665396343,37.524525712176064,119.89760980373477,-21.093228968178355,-25.65098157051282,-18.91649706196581,0.0751469595219524,10.081344436813186,-3.849240603146853,3.1947065854818257,26.89450983915896,34.562164914487674,38.49183814059364,1577399662.0,-27.687900150740017,-51.12167205038235,10.25059
65718,1577399662.58,3.595915708067359,-0.8196345000476369,13.156605283858136,2.0558600889624614,0.554578857719607,5.185023263624237,-5.345551565179592,-0.2468947468083077,11.77947216796875,-6.970847525247714,-2.224433712842988,-3.0130525914634143,-6.722240913205031,8.113209794207316,-1.0897008384146345,33.496205399676064,105.31020745998477,-12.945035608803352,-26.00357238247863,-18.507491720085472,-1.1272043928293995,10.286789632642996,-3.665943431568431,-31.761556952662723,26.89450983915896,34.46631922604607,38.635606673256056,1577399662.0,-27.687900150740017,-51.12167205038235,10.25059
65719,1577399662.59,1.6470355567001709,0.1260751557140812,9.468337626387433,1.89066017441168,1.2465031375047633,7.022573037794159,-0.1381629543397491,5.611716715594036,22.49951010131836,-7.886374868997712,4.580986209032012,-3.2114168492759143,-6.890087592892531,6.358449052019816,-0.0215856040396342,10.440175126238568,23.935085389672253,-17.11068502286585,-26.708754006410253,-15.644454326923077,0.9769104737854758,10.081344436813186,-2.932754745254745,-4.032537774725275,27.038278371821367,34.41839638182526,38.97106658280168,1577399662.0,-27.687900150740017,-51.12167205038235,10.25059
65720,1577399662.6,0.4666941382431395,1.232196322706268,10.616357322432354,-4.571290106350038,0.0613733157274195,9.5376818817883,-10.912070425042874,-8.748704842023152,18.703503369140623,-6.329978384622714,10.104667849657012,-1.0599275914634143,-9.621410835080033,1.0941668254573171,3.2132776772103657,-24.51771061594893,-49.84115972751525,-8.519986780678353,-26.708754006410253,-15.644454326923077,0.9769104737854758,-8.614168383699631,-4.032537774725275,-4.032537774725275,27.18204690448378,34.370473537604454,38.92314373858088,1577399662.0,-27.687900150740017,-51.12167205038235,10.25059
65721,1577399662.61,-1.6330207177138905,-1.595355837938262,12.17019419987376,-3.783597760158632,2.05334909697742,5.819486703565644,8.351676132574314,13.874106644793256,14.724340209960936,-13.410056509622711,17.398369021532012,-0.8768221227134145,-10.384350288205033,9.883229325457316,0.2835901772103658,-34.619028975323936,-91.58920660251523,-1.7450844369283538,-25.298390758547008,-17.280475694444444,0.9769104737854758,-8.614168383699631,-4.032537774725275,-4.032537774725275,26.990355527600563,34.46631922604607,38.92314373858088,1577399662.0,-27.687900150740017,-51.12167205038235,10.25059
65722,1577399662.62,-0.6059082055068599,-1.1560198332995906,8.495094651533917,-3.4196791078148823,-4.255372277534299,7.892865341260956,9.579901584234468,6.926133427019817,4.6064439941406246,-13.776267447122716,13.00383777153201,-1.2430330602134143,-3.3347897413300305,-4.673655440167683,0.6803186928353658,-38.220103194073936,-108.98422613376523,16.351839391196645,-25.56283386752137,-17.178224358974358,-0.3005878380878412,-9.025058775359255,-1.099783029470529,-4.032537774725275,26.990355527600563,34.70593344715009,38.77937520591847,1577399662.0,-27.687900150740017,-51.12167205038235,10.25059
65723,1577399662.63,-2.260301552674828,-1.7318253325671682,7.080121470381573,-4.793950860744569,-1.943770574653439,9.992580197217988,-6.414562606439357,-10.903486336163777,20.7900501159668,-2.0269998689977133,5.282890505907012,-0.2664705602134145,-6.722240913205031,-5.711253096417683,0.5277308022103658,-83.53870670969893,-126.21139898532776,21.92129739900915,-25.47468616452992,-16.25796233974359,-0.6763226356976347,-5.429767848337558,-0.274945757367632,-2.631337337542265,26.990355527600563,34.61008775870848,38.70749093958727,1577399662.0,-27.687900150740017,-51.12167205038235,10.25059
65724,1577399662.64,-0.5795719872451407,0.5235126313000182,8.384961375166728,-0.2282082948265999,-2.986445397651486,14.572687973096896,9.895936203375092,4.452923112078411,9.327809667968747,-7.703269400247714,-5.276191525342988,-1.1819979039634143,-4.189281928830031,11.134450028582316,-2.0052281821646343,-43.652232100323936,-105.32211675876523,21.906038609946645,-25.47468616452992,-16.25796233974359,-0.6763226356976347,-1.629031725486053,-0.7331886863136862,-4.032537774725275,27.038278371821367,34.562164914487674,38.77937520591847,1577399662.0,-27.687900150740017,-51.12167205038235,10.25059
65725,1577399662.65,-0.4431024926162344,-0.9082199614734182,14.198083006026105,1.4980111021460552,-3.166010522163205,11.692463375928927,-6.916147854242093,-7.745534346417682,7.898471276855468,-8.649314322122713,-12.173164181592988,-2.4942537633384143,-7.393627631955031,3.169362137957317,-1.1507359946646345,-26.34876530344893,-103.82675543064023,23.309847203696645,-24.41691372863248,-18.3029890491453,1.4277922309172282,-2.450812508805297,-1.099783029470529,-4.032537774725275,27.18204690448378,34.27462784916285,38.68352951747686,1577399662.0,-27.687900150740017,-51.12167205038235,10.25059
65726,1577399662.66,-1.7970235314345937,-0.5694404265613089,12.931550327803448,-2.433268023830506,-1.2314955807569543,18.91576978462033,-1.1054204250428727,-1.3601985187809638,-2.1116858642578125,-6.314719595560212,7.663261599657012,0.9542325647865856,-6.813793647580031,-9.892161299542684,-0.2046910727896341,-42.584116865948936,-63.57406988376525,3.687044469321646,-26.708754006410253,-17.07597302350427,0.225440878565873,-3.2725932921245406,-4.032537774725275,-3.4425586432797965,27.110162638152573,34.41839638182526,38.77937520591847,1577399662.0,-27.687900150740017,-51.12167205038235,10.25059
65727,1577399662.67,1.046090940000952,0.2649388520031432,11.89007260563548,-0.1946894715844135,-0.3013482357862517,14.53078944404416,1.7616360629942365,-3.4778698871891667,-0.507570751953125,-0.7452615877477134,0.949394412157012,0.7711270960365855,-5.257397163205031,7.884327958269816,-1.4253941977896345,-9.182627608136432,15.756374452172254,-2.1418129525533534,-25.122095352564106,-17.07597302350427,0.2254408785658761,-2.450812508805297,-4.032537774725275,-3.4425586432797965,27.18204690448378,34.562164914487674,38.75541378380807,1577399662.0,-27.687900150740017,-51.12167205038235,10.25059
65728,1577399662.68,2.602322019102515,-0.5083882842273245,13.3337762067097,2.5562482359351177,-1.0088348263624232,6.731677536085175,1.774804172125095,15.37048268239091,4.855440966796874,2.9168477872522867,-3.811347775342988,-1.3956209508384143,-4.616528022580031,-3.117258955792683,-0.2657262290396341,19.152943680926068,68.04824456935975,1.7949546255716462,-25.122095352564106,-17.07597302350427,0.2254408785658761,-1.629031725486053,-4.032537774725275,-3.4425586432797965,27.08620121604217,34.41839638182526,38.82729805013928,1577399662.0,-27.687900150740017,-51.12167205038235,10.25059
65729,1577399662.69,3.5576084815048588,-1.8108339873523245,12.148646384932354,1.1269098448218366,2.4627575808641384,3.214595297315643,-3.2625961208436545,-1.97550834544112,16.857573889160154,-2.5763162752477133,-16.598213009717988,-2.5247713414634143,-5.135326850705031,3.199879716082317,-1.1507359946646345,19.824330399676068,50.89736566310975,-7.757047327553353,-25.298390758547008,-18.507491720085472,-0.2254408785658824,-1.834476921315863,-3.849240603146853,-3.8850429918639056,27.18204690448378,34.46631922604607,38.68352951747686,1577399662.0,-27.687900150740017,-51.12167205038235,10.25059
65730,1577399662.7,3.714428690245093,-2.391427889940215,8.468758433272198,6.687443200534727,-1.4900693600538302,10.860478299024631,0.3322976718809543,-3.196551192120808,16.735469604492188,7.830177865377287,3.3908006621570124,-1.2582918492759143,-1.7478756788300307,6.541554520769817,0.6040247475228658,8.166615555926068,17.923122499047253,-11.693814905678352,-24.68135683760684,-18.20073771367521,-0.1502939190439205,-1.629031725486052,-3.1160519168331664,-3.5900534261411665,27.110162638152573,34.370473537604454,38.82729805013928,1577399662.0,-27.687900150740017,-51.12167205038235,10.25059
65731,1577399662.71,-0.2539605614638907,-2.0502541533679493,7.767257346846417,-4.4036959901391,0.3007934817430445,10.986173886182836,1.6646708957579073,8.81994694020341,16.515203051757812,0.5975118497522866,31.03972644340701,2.7852872522865857,-6.020336616330031,4.664723466082317,3.2437952553353657,5.694691727801067,-18.438571836890244,-3.057340296303354,-25.65098157051282,-18.507491720085472,-0.2254408785658824,-6.55971642540152,-1.099783029470529,-3.737548209002536,27.08620121604217,34.46631922604607,38.92314373858088,1577399662.0,-27.687900150740017,-51.12167205038235,10.25059
65732,1577399662.72,-1.6713279442763904,-2.0215237334460743,14.983381150557356,-2.833099701076601,0.1451703738328883,9.504163058546112,2.409267612066501,4.304482609148724,16.69476817626953,-17.621482290872713,10.196220584032012,-0.2359529820884145,-0.7713131788300305,8.143727372332316,5.074849942835366,-3.918345381573933,-15.386814024390244,12.537142125571648,-25.65098157051282,-18.507491720085472,-0.2254408785658824,-2.450812508805297,0.3665943431568428,0.9822848425612848,26.990355527600563,34.562164914487674,38.92314373858088,1577399662.0,-27.687900150740017,-51.12167205038235,10.25059
65733,1577399662.73,-1.781461220643578,0.9125704010754092,12.814234446455792,-3.1922299501000384,-3.419795898139768,12.43227168891721,4.106756589117283,-2.5812413654606514,19.36909143066406,5.800758920064788,13.14116687309451,1.5951017054115857,3.592700493044969,-0.4927472370426829,3.1827600990853657,-4.345591475323933,-19.293064024390244,-4.369596155678353,-25.122095352564106,-17.484978365384613,0.8266165547415522,3.3016529744294165,2.932754745254746,-3.737548209002536,27.134124060262977,34.61008775870848,38.82729805013928,1577399662.0,-27.687900150740017,-51.12167205038235,10.25059
65734,1577399662.74,0.4188101050400145,-4.813162869188262,11.765574119307354,-0.0474460694848035,-1.7378692318800015,12.453819503858616,0.3634222934629857,6.290472886248333,15.734693310546874,-5.872214712747714,2.0480272246570124,-0.5716463414634145,1.8684573289824693,12.294117997332316,0.6345423256478658,-12.631113936261434,-20.086521055640244,5.029817906821648,-26.35616319444444,-17.280475694444444,0.0751469595219524,2.4798721911101707,-3.849240603146853,-22.026901283812343,27.18204690448378,34.58612633659808,38.68352951747686,1577399662.0,-27.687900150740017,-51.12167205038235,10.25059
65735,1577399662.75,-0.7830791283584219,-2.8475233061999807,11.894861008955791,5.271272918552305,-1.8707474240186728,15.712327963331273,-0.0615485012147477,-17.449233675030964,18.86152067871093,10.729347787252289,19.35149402153201,2.6326993616615857,-0.7407956007050305,2.772633622332317,5.196920255335366,-10.266001631573932,-28.875583555640244,-2.508023890053354,-26.179867788461536,-19.939010416666665,0.526028716653711,-4.916154858763031,-4.032537774725275,-36.48139000422654,27.18204690448378,34.46631922604607,38.77937520591847,1577399662.0,-27.687900150740017,-51.12167205038235,10.25059
65736,1577399662.76,-2.049611806581078,1.5985091767101742,11.406443870283915,1.1484576597632428,1.0406017947313255,16.655643417432834,9.098667050543062,9.028242484637005,11.099518896484376,11.004005990377289,6.473076052782012,1.3814786585365857,2.005786430544969,4.451100419207317,-2.0967809165396343,-4.711802412823933,-36.77963629001525,-6.231168421303353,-26.179867788461536,-19.939010416666665,0.526028716653711,-8.614168383699631,1.0997830294705304,-41.79120218723584,27.038278371821367,34.41839638182526,38.68352951747686,1577399662.0,-27.687900150740017,-51.12167205038235,10.25059
65737,1577399662.77,-1.2439629479385006,0.5019648163586125,10.797119547774152,-4.161881622463319,1.330300195610232,13.75387100532346,5.574402206793063,6.641223429461223,11.164162341308591,5.846535287252286,-0.957954220655488,0.3438810022865854,8.750171196169969,1.3993426067073171,-0.8150426352896342,2.337758134051067,-29.577487852515244,10.278841344321648,-26.35616319444444,-18.098486378205127,0.8266165547415522,-9.641394362848688,-3.48264625999001,-40.46374914148351,27.03827837182137,34.41839638182526,38.82729805013928,1577399662.0,-27.687900150740017,-51.12167205038235,10.25059
65738,1577399662.78,-2.315368190858422,1.2944455658703309,13.831770152022198,-1.6790945008812874,-0.7502610470655486,10.899982626417207,6.287874301519627,-1.227320326642292,9.107543115234376,12.468849740377289,9.097587771532012,1.7476895960365857,8.048266899294969,3.794972489519817,2.4198206459603657,-3.521616865948933,-8.856052305640244,-5.6665932259908525,-27.76652644230769,-18.098486378205127,0.0751469595219524,-8.100555394125106,-3.940889188936064,-38.47256957285504,26.990355527600563,34.562164914487674,38.80333662802887,1577399662.0,-27.687900150740017,-51.12167205038235,10.25059
65739,1577399662.79,3.164959409239234,-2.0406773467273243,11.487846726729227,2.3934425230444925,0.9328627200242944,14.668456039503146,4.27435070532822,15.329781254168251,12.064382165527345,0.5059591153772866,-4.116523556592988,0.0997403772865854,5.240649711794969,11.012379716082316,1.5653284584603655,21.350209305926068,-5.316013243140244,26.514192906821645,-26.708754006410253,-18.098486378205127,-0.2254408785658824,-9.8468395586785,-4.032537774725275,-39.431285661453934,26.89450983915896,34.753856291370894,38.77937520591847,1577399662.0,-27.687900150740017,-51.12167205038235,10.25059
65740,1577399662.8,-0.9841920678115468,-4.260102285692168,8.732120615889386,-2.749302642971132,-4.269737487495236,7.191364254835174,-9.099659768304594,-33.772900593976274,18.55745706787109,21.654640756002287,13.003837771532012,6.813607564786586,6.980151664919969,4.512135575457317,2.6639612709603657,-7.641489912823933,-14.990085508765244,-1.2262856088033538,-26.708754006410253,-18.098486378205127,-0.2254408785658824,-9.8468395586785,1.832971715784216,-38.84130653000845,26.84658699493815,34.46631922604607,38.82729805013928,1577399662.0,-27.687900150740017,-51.12167205038235,10.25059
65741,1577399662.81,0.7192824133896245,0.3583127167492374,12.32940861027415,1.3567532041968364,-0.3552177731397669,14.560716964796114,13.0586765964415,7.725796781512004,12.66772098388672,8.471047006002287,-4.406440548780488,0.0081876429115856,9.543628227419967,-3.452952315167683,8.218160489710366,-2.117808272198933,-22.894138243140244,-16.698697718178355,-25.91542467948718,-18.405240384615382,-0.1502939190439236,-6.148826033741899,-1.099783029470529,-1.3776316832206257,26.990355527600563,34.41839638182526,38.68352951747686,1577399662.0,-27.687900150740017,-51.12167205038235,10.25059
65742,1577399662.82,-2.734353481385765,-1.6001442412585745,6.811970884444073,-0.7501442567406629,-0.893913146674924,15.22151662299924,3.887687137212985,3.895074125262004,4.355052819824219,11.583839974752289,19.50408191215701,5.623422017911586,15.235156547732467,6.968800614519816,0.6955774818978656,15.750233719988568,-13.021701719702744,16.45865091463415,-25.47468616452992,-18.3029890491453,2.028967907092904,-2.861702900464919,-1.0997830294705293,-1.6726212489433638,27.038278371821367,34.514242070266874,38.92314373858088,1577399662.0,-27.687900150740017,-51.12167205038235,10.25059
65743,1577399662.83,-1.8939886986709216,-2.1963004546374805,11.073649839522195,-2.172300042873475,-0.613791552436642,8.3118506317883,0.4148976291563449,6.717837882586223,3.1747114013671878,-4.834617056497714,1.620781130907012,1.5951017054115857,-2.2056393507050305,10.859791825457316,2.9996546303353657,6.213490555926067,36.24892816310975,-0.1581703744283537,-24.41691372863248,-17.893983707264955,0.2254408785658761,0.219975036982249,-3.849240603146853,-1.525126466081995,27.18204690448378,34.370473537604454,38.92314373858088,1577399662.0,-27.687900150740017,-51.12167205038235,10.25059
65744,1577399662.84,-1.360081728456078,1.459645480421112,10.068085142256573,-1.0637846742211312,-2.65843977021008,10.61746683051877,5.619892038336032,0.172090543719035,5.329492895507812,10.027443490377289,1.224052615282012,5.653939596036586,11.435718071169967,-0.7979230182926829,5.227437833460366,14.514271805926068,40.24673089748475,7.806917516196647,-24.24061832264957,-18.507491720085472,0.6763226356976285,-3.067148096294731,-3.849240603146853,-41.64370740437448,27.18204690448378,34.46631922604607,38.77937520591847,1577399662.0,-27.687900150740017,-51.12167205038235,10.25059
65745,1577399662.85,-0.281493880555688,-2.110109194871856,9.20138414128001,-1.2708831178246467,0.7676628054735138,5.475918765333222,3.3861018894102517,2.113788090105754,11.179724652099608,9.752785287252289,-16.918647580030488,1.2899259241615857,12.091846000857467,-6.260569502667684,2.4655970131478657,24.447743485613568,26.71218499904726,-0.9363686166158536,-24.76950454059829,-18.71199439102564,0.9769104737854696,-8.614168383699631,-4.032537774725275,-43.85612914729501,27.08620121604217,34.46631922604607,38.82729805013928,1577399662.0,-27.687900150740017,-51.12167205038235,10.25059
65746,1577399662.86,1.4818356421493897,2.9440505097179868,10.06329673893626,0.0686727110327741,1.2967813723680446,6.997433920362519,-20.697172610101468,-16.055808308820026,10.551246716308594,29.955422006002287,2.6278612090320124,4.128060689786586,12.534350883669967,-5.253489424542683,3.6405237709603657,19.549672196551068,48.85268792873475,1.0320151724466462,-24.76950454059829,-17.893983707264955,0.526028716653711,-7.586942404550577,-44.907807036713294,-3.8850429918639056,27.18204690448378,34.27462784916285,38.82729805013928,1577399662.0,-27.687900150740017,-51.12167205038235,10.25059
65747,1577399662.87,-2.885188185975609,1.2082543061047055,15.991340049483137,-1.8179581971703496,-2.8811005246046117,8.967861886671113,-4.028740652093655,-21.014199947003625,14.638148950195312,5.541359506002286,-2.132880978467988,2.2054532679115857,15.280932914919967,-0.2486066120426829,4.800191739710366,4.657094071551067,28.98574456935976,-11.510709436928352,-24.9457999465812,-17.280475694444444,1.5780861499611456,-4.710709662933221,-3.48264625999001,-3.8850429918639056,26.89450983915896,34.27462784916285,38.97106658280169,1577399662.0,-27.687900150740017,-51.12167205038235,10.25059
65748,1577399662.88,0.4690883399032958,-1.5115587798327932,11.04013101628001,-3.1922299501000384,-5.306426806342892,8.216082565382049,-2.295338650140529,23.79088992116044,15.026009619140623,-5.811179556497714,-4.726875119092988,1.6256192835365857,18.24113799304497,-4.093821455792683,3.7625940834603657,25.744740555926068,7.531887147484756,-15.294889124428352,-25.122095352564106,-18.3029890491453,0.526028716653711,-2.861702900464919,-4.032537774725275,-3.737548209002536,27.18204690448378,34.46631922604607,38.77937520591847,1577399662.0,-27.687900150740017,-51.12167205038235,10.25059
65749,1577399662.89,-0.0312998070693599,1.8103960236340029,8.940416160322979,1.1293040464819928,-0.1768497494581268,5.052145071485565,-2.8699470485780303,-0.0649354206364326,3.001131781005859,15.001808724752289,0.995170779344512,1.8239835413490857,6.690234672732468,3.047291825457317,0.7566126381478657,19.061390946551068,15.146022889672258,9.119173375571648,-25.56283386752137,-18.200737713675213,0.6011756761756697,1.8635366036207384,-2.3828632305194803,-3.4425586432797965,27.134124060262977,34.442357803935664,38.85125947224968,1577399662.0,-27.687900150740017,-51.12167205038235,10.25059
65750,1577399662.9,0.2847348120712645,1.2393789276867369,9.787963548018292,-2.375807183986756,-0.6305509640577357,7.856952316358612,-3.4924394802186547,-4.67616781809737,5.846640454101562,5.602394662252286,-4.238593869092988,0.2218106897865854,13.907641899294967,-3.636057783917683,-0.3572789634146341,11.889760087176068,25.17104730373476,-3.240445765053354,-26.179867788461536,-18.71199439102564,-0.0751469595219649,9.875899240983376,-3.665943431568431,-4.032537774725275,26.84658699493815,34.562164914487674,38.68352951747686,1577399662.0,-27.687900150740017,-51.12167205038235,10.25059
65751,1577399662.91,3.124257981016578,3.451621261671112,7.980341294600323,-2.3542593690453497,6.6238800662157,8.129891305616425,13.209511301031345,16.42393141285966,7.805097412109374,19.365822396627287,-15.346992306592988,-0.6937166539634145,5.484790336794969,2.803151200457317,1.0465296303353655,13.049428055926068,23.03481683498476,-8.581021936928353,-26.179867788461536,-18.3029890491453,1.127204392829393,9.875899240983376,-3.665943431568431,-4.032537774725275,27.038278371821367,34.41839638182526,38.82729805013928,1577399662.0,-27.687900150740017,-51.12167205038235,10.25059
65752,1577399662.92,1.0652445532822028,-0.3695245879382625,10.301519804121808,4.07417208847418,-0.3480351681592982,6.497045773389862,7.070778244390719,1.1944146526057535,1.7214309936523438,4.885231576314788,1.3918992949695124,0.0081876429115856,8.536548149294969,11.897389481707316,-0.6624547446646342,14.392201493426068,32.22060785060975,-3.606656702553354,-24.593209134615385,-19.32550240384615,-0.2254408785658824,0.0145298411524369,-0.3665943431568428,-41.4962126215131,27.014316949710967,34.46631922604607,38.77937520591847,1577399662.0,-27.687900150740017,-51.12167205038235,10.25059
65753,1577399662.93,0.279946408750952,-0.503599880907012,8.8901379254597,0.3009102720679308,0.7580859988328887,3.747305166700409,-3.5666597316834987,-1.8342504474919008,5.440823272705078,-7.398093618997714,3.2992479277820124,-0.9683748570884144,1.3343997117949695,4.161183427019817,1.8094690834603655,17.123524735613568,49.21889886623475,-4.445890100990853,-26.35616319444444,-18.91649706196581,0.6763226356976285,3.096207778599606,0.6415401005244756,-36.997621744241336,27.038278371821367,34.46631922604607,38.75541378380807,1577399662.0,-27.687900150740017,-51.12167205038235,10.25059
65754,1577399662.94,0.5241549780868896,0.0470665009289244,8.334683140303447,-0.6256457704125373,-2.4764804440382053,7.306285934522674,17.882992941656344,5.257374869890911,5.173869787597656,-2.5152811189977133,10.379326052782012,-0.4800936070884145,4.660815727419969,0.087086747332317,2.4808558022103657,23.333851884051068,44.82436761623475,-11.693814905678352,-25.47468616452992,-17.893983707264955,-0.9769104737854758,9.875899240983376,0.3665943431568428,-40.61124392434488,27.18204690448378,34.27462784916285,38.68352951747686,1577399662.0,-27.687900150740017,-51.12167205038235,10.25059
65755,1577399662.95,1.1107343848251707,0.1571997772961119,5.9979423199909485,2.1995121885718363,3.9304031985399193,11.972584970167208,-3.286538137445217,1.9940780070979407,3.9552211425781247,3.3440938810022867,3.5739061309070124,2.8463224085365857,-1.4426998975800305,-0.4927472370426829,0.0394495522103658,15.551869462176068,59.80849847560975,4.846712438071647,-27.23764022435897,-19.120999732905982,0.8266165547415459,9.875899240983376,2.566160402097902,-35.89141087278106,27.08620121604217,34.27462784916285,38.68352951747686,1577399662.0,-27.687900150740017,-51.12167205038235,10.25059
65756,1577399662.96,-0.1174910668349849,3.0350301728039244,11.082029545332745,0.1285277525366803,0.420503564750857,5.850611325147675,-0.3081512722108415,-10.910668941144245,7.158662963867188,4.396950326314786,-1.965034298780488,0.0387052210365856,-3.5484127882050305,4.512135575457317,-0.5098668540396342,7.647816727801067,61.70058831935975,-3.728727015053354,-24.24061832264957,-17.689481036324786,0.0751469595219524,9.875899240983376,1.832971715784216,-37.07136913567202,26.89450983915896,34.41839638182526,38.92314373858088,1577399662.0,-27.687900150740017,-51.12167205038235,10.25059
65757,1577399662.97,2.3916322730087645,-0.3072753447741995,7.278840208174542,2.1755701719702745,-0.2654352108839084,8.718864914014864,-4.105355105218655,1.4254551128108328,12.73116732788086,-10.724509634622711,-2.010810665967988,-2.7994295445884143,-1.5495114210175305,4.084889481707317,0.0547083412728655,15.658680985613568,47.09792718654725,-13.601163538490852,-24.24061832264957,-17.689481036324786,0.0751469595219524,-10.668620341997745,-4.032537774725275,-0.7876525517751477,27.038278371821367,34.514242070266874,38.89918231647049,1577399662.0,-27.687900150740017,-51.12167205038235,10.25059
65758,1577399662.98,1.7978702612900144,-2.2537612944812304,6.13680601628001,1.7206718565405863,0.296005078422732,6.367758883741424,6.45068001441025,-3.92917690012862,0.7230489013671875,-2.2101053377477133,3.3602830840320124,0.9237149866615856,-6.142406928830031,-2.720530440167683,2.1146448647103657,6.457631180926067,44.03091058498475,-3.789762171303354,-25.47468616452992,-17.893983707264955,0.526028716653711,-8.203277992040011,-4.032537774725275,-2.852579511834319,27.08620121604217,34.27462784916285,38.77937520591847,1577399662.0,-27.687900150740017,-51.12167205038235,10.25059
65759,1577399662.99,0.4331753150009521,2.5944970673351744,9.198989939619857,0.288939263767149,4.483463782036013,8.82181558540158,-4.521946194085842,-4.156626057843464,4.642357019042969,-8.618796743997713,7.663261599657012,0.7100919397865855,-7.790356147580031,-1.8660382526676829,1.4432581459603655,2.948109696551067,60.60195550685975,5.853792516196647,-24.064322916666665,-17.484978365384613,-0.6763226356976347,-3.2725932921245406,-1.099783029470529,-1.6726212489433638,26.798664150717343,34.46631922604607,38.92314373858088,1577399662.0,-27.687900150740017,-51.12167205038235,10.25059
65760,1577399663.0,1.5680269019150148,2.425705850294159,4.191517167403058,2.462874371189024,-0.0008759274366425,5.376559396436737,-2.084648904046779,-3.859745051984089,0.2657563842773437,7.250343881002288,-4.772651486280488,-0.7547518102134145,-7.668285835080031,11.348073075457316,-2.6766149009146343,8.746449540301068,76.53213128810975,-7.207730921303353,-25.21024305555556,-17.99623504273504,-0.4508817571317617,-1.2181413338264289,0.7331886863136862,-2.852579511834319,26.96639410549016,34.46631922604607,38.82729805013928,1577399663.0,-27.687958201685724,-51.12159313987421,10.128049
65761,1577399663.01,1.467470432188452,1.969610434034393,5.502342576338604,1.4118198423804302,2.09165632353992,5.358602883985565,1.7269201389219695,-2.935583211163776,6.69059653930664,-0.9283670564977134,4.489433474657012,-0.8463045445884145,-9.072094428830033,0.1328631145198171,-0.3420201743521345,15.384022782488568,72.70217523342225,-13.128141077553355,-25.47468616452992,-17.07597302350427,0.2254408785658761,-3.2725932921245406,-0.3665943431568428,3.0472118026204567,27.08620121604217,34.58612633659808,38.87522089436008,1577399663.0,-27.687958201685724,-51.12159313987421,10.128049
65762,1577399663.02,0.4571173316025145,1.3375411957531431,6.8047882794636045,0.5953970762671491,-0.2426902951124232,2.5777376557140803,3.860153818121189,8.779245511980754,6.308721374511719,-7.062400259622714,3.0245897246570124,-1.5482088414634143,-13.863354194455033,13.545338700457316,-3.9278356040396334,8.136097977801068,61.27334222560975,-2.874234827553354,-24.9457999465812,-17.689481036324786,0.6763226356976285,-2.450812508805297,-0.7331886863136862,1.867253539729502,27.18204690448378,34.370473537604454,38.68352951747686,1577399663.0,-27.687958201685724,-51.12159313987421,10.128049
65763,1577399663.03,0.155447922422827,-1.5283181914538868,9.0050596051472,0.5642724546851179,-0.709559618842892,-0.0487015654773245,-0.8899422756288102,-8.798983076886433,7.905653881835937,-21.49721471274772,1.529228396532012,-2.1890779820884143,-10.842113960080033,-0.6758527057926829,-1.7610875571646345,-1.7821149128239329,46.62490472560975,-8.611539515053353,-26.179867788461536,-18.3029890491453,0.2254408785658761,10.69768002430262,-2.9327547452547447,1.867253539729502,27.18204690448378,34.46631922604607,38.82729805013928,1577399663.0,-27.687958201685724,-51.12159313987421,10.128049
65764,1577399663.04,0.7132969092392343,2.370639212110565,9.318700022627668,0.8791099729956645,1.5517638491746857,11.156162204053926,-6.207464162835842,-3.7951016071598698,14.362815759277344,-14.417136587747711,6.686699099657012,-1.4108797399009143,-14.412670600705033,-1.6371564167301838,-1.1965123618521338,-9.335215498761432,18.48769769435976,-8.092740686928352,-25.915424679487177,-17.791732371794872,1.0520574333074344,10.69768002430262,-3.665943431568431,-0.935147334636517,27.18204690448378,34.514242070266874,38.68352951747686,1577399663.0,-27.687958201685724,-51.12159313987421,10.128049
65765,1577399663.05,-0.2994503930068594,-2.3231931426257617,10.501435642744854,1.610538580173399,-0.824481298530392,7.119538205030487,4.719672214117282,11.197389188738567,5.597643481445312,-18.93373815024772,9.219658084032012,-0.0833650914634145,-14.961987006955033,1.3688250285823171,-0.9676305259146342,-7.519419600323933,-3.332370665015244,2.954622594321646,-25.298390758547008,-16.462465010683758,0.9769104737854758,10.69768002430262,-2.5661604020979016,2.1622431054522404,27.038278371821367,34.562164914487674,38.92314373858088,1577399663.0,-27.687958201685724,-51.12159313987421,10.128049
65766,1577399663.06,-0.7854733300185782,-1.087785085985137,11.090409251143292,-1.2218019837914436,-0.9082783566358608,11.374034555128146,-9.188245229730375,-10.539567683820026,21.1838962890625,-35.96254674399771,5.801689334032012,0.7100919397865855,-10.536938178830033,-7.176096846417683,-1.2422887290396345,-24.27356999094893,-16.363376524390244,2.313753453696646,-24.593209134615385,-19.734507745726493,1.2774983118733108,11.519460807621863,-1.099783029470529,4.227170065511412,27.038278371821367,34.370473537604454,38.68352951747686,1577399663.0,-27.687958201685724,-51.12159313987421,10.128049
65767,1577399663.07,-3.1222141503310783,1.921726400831268,5.94526988346751,1.543500933689024,-0.1517106320264857,12.84646857612424,-7.495544655999905,-13.49401253245284,17.164031701660154,-12.494529165872711,20.57219714653201,-1.2125154820884143,-13.832836616330033,1.8571062785823167,-5.087503572789634,-29.61414616282393,-41.20468511814025,-16.729215296303355,-26.179867788461536,-17.484978365384613,0.526028716653711,9.875899240983376,0.0,3.0472118026204567,26.990355527600563,34.46631922604607,38.82729805013928,1577399663.0,-27.687958201685724,-51.12159313987421,10.128049
65768,1577399663.08,0.9419431677841552,-1.157216934129668,6.238559586836652,0.6241274961890241,0.8574453677293726,4.630765579298065,0.9895060275938454,3.4258105998713795,9.907206469726562,-11.533225454935211,-0.2713087128429876,-2.1127840367759143,-14.229565131955033,-0.1417950886051828,-1.7610875571646345,-30.361826826886432,-65.29831304782775,10.645052281821648,-25.033947649572653,-17.5872297008547,-0.1502939190439237,10.69768002430262,0.549891514735265,-0.3451682031910399,27.038278371821367,34.41839638182526,38.80333662802887,1577399663.0,-27.687958201685724,-51.12159313987421,10.128049
65769,1577399663.09,2.68851327886814,-1.8706890288562303,1.896674876143292,4.74454855331793,-4.494792443549924,2.359865304639862,-5.901006350335843,0.6892381023127849,12.042834350585936,-3.888572134622713,1.285087771532012,-3.4402986852134143,-10.750561225705033,0.9415789348323172,-3.7142125571646334,-30.40760319407393,-95.22079839939023,11.865755406821648,-24.9457999465812,-17.689481036324786,0.0751469595219524,10.69768002430262,0.0,-4.032537774725275,27.038278371821367,34.562164914487674,38.92314373858088,1577399663.0,-27.687958201685724,-51.12159313987421,10.128049
65770,1577399663.1,0.4116275000595458,-2.450085830614043,9.084068259932357,0.9521331236304303,-4.528311266792112,11.31417951362424,-12.145084280023342,-7.913128462628619,17.90862841796875,-13.379538931497711,-9.762275509717988,-3.6234041539634143,-11.757641303830033,-8.030589033917684,-0.2352086509146341,-32.910044600323936,-93.38974371189023,7.867952672446647,-25.827276976495725,-18.71199439102564,0.8266165547415459,11.10857041596224,0.0,-2.852579511834319,26.84658699493815,34.370473537604454,38.92314373858088,1577399663.0,-27.687958201685724,-51.12159313987421,10.128049
65771,1577399663.11,0.5133810706161869,2.352682699659393,14.57636686833079,-3.7213485169945697,-0.1636816403272669,15.913440902784396,17.468796054449314,12.878118754168254,4.197035510253906,-13.577903189310211,2.4752733184070124,-3.7607332555259134,-8.797436225705031,-6.016428877667683,-3.9278356040396334,-46.642954756573936,-92.19955816501523,9.637972203696648,-25.56283386752137,-17.382727029914527,0.4508817571317522,9.875899240983376,-3.299349088411588,-35.89141087278106,27.062239793931766,34.562164914487674,38.92314373858088,1577399663.0,-27.687958201685724,-51.12159313987421,10.128049
65772,1577399663.12,-2.183687099549828,-6.2065882353992,10.573261692549542,2.892633569187071,-0.587455334174924,15.718313467481662,3.1299223117735324,5.908597721453411,8.18457837524414,-18.90322057212272,14.285576052782012,-1.4871736852134143,-16.96088837414253,0.8347674113948171,-5.362161775914634,-28.286631514386432,-63.11630621189025,1.5355552115091475,-27.590231036324784,-16.66696768162393,0.526028716653711,0.6308654286418722,-3.849240603146853,-35.15393695847422,26.89450983915896,34.41839638182526,38.73145236169766,1577399663.0,-27.687958201685724,-51.12159313987421,10.128049
65773,1577399663.13,-3.610631289002953,-2.3088279326648244,17.205200291182354,-3.446015326076601,0.765268603813357,16.880698373487522,10.681234347906344,11.25245582692216,-6.124367846679687,-32.48354283774771,16.177665896532012,-0.0528475133384145,-10.048656928830033,-7.115061690167683,0.7413538490853658,-9.808237959698932,11.438137147484756,19.739290563071645,-27.590231036324784,-16.66696768162393,0.526028716653711,-8.614168383699631,-4.032537774725275,-33.53149434699915,27.08620121604217,34.61008775870848,38.68352951747686,1577399663.0,-27.687958201685724,-51.12159313987421,10.128049
65774,1577399663.14,-0.2659315697646719,3.944826803663299,14.830152244307351,-3.000693817287538,-1.7606141476514856,9.1163023896008,-5.448502236566311,-11.68639027903487,5.7125651611328125,-31.04921666587272,-2.132880978467988,-1.7923494664634143,-3.0601315382050305,5.275075028582317,-5.362161775914634,-14.965708662823932,19.03701410060976,0.5132163443216463,-27.590231036324784,-16.66696768162393,0.526028716653711,9.875899240983376,-4.032537774725275,-33.53149434699915,27.08620121604217,34.27462784916285,38.58768382903526,1577399663.0,-27.687958201685724,-51.12159313987421,10.128049
65775,1577399663.15,2.431136600401343,-2.202285958787871,5.909356858565167,4.011922845310117,0.6527411257860133,-0.4964172759265433,9.618208810796968,10.27562154957841,15.492878942871092,-0.241721548685212,0.5068895293445124,-3.4708162633384143,-14.443188178830033,8.082692216082316,-2.5850621665396343,-6.237681319073933,-3.729099180640244,-10.442594202553352,-26.35616319444444,-18.3029890491453,0.8266165547415459,9.875899240983376,-4.032537774725275,-33.53149434699915,27.08620121604217,34.370473537604454,38.58768382903526,1577399663.0,-27.687958201685724,-51.12159313987421,10.128049
65776,1577399663.16,2.22882656011814,-1.3439646636218556,7.520654575850323,3.0614247862280863,0.4264890689012481,8.848151803663301,-2.642497890863185,-3.3294293842594795,8.790311395263672,-11.731589712747711,-18.337714962842988,-3.9896150914634143,-15.724926460080033,3.459279130144817,-2.2188512290396343,-8.816416670636432,-6.506198790015244,-0.8142983041158538,-24.593209134615385,-18.91649706196581,0.3757347976097936,-11.901291516976611,-3.665943431568431,-3.737548209002536,27.038278371821367,34.58612633659808,38.75541378380807,1577399663.0,-27.687958201685724,-51.12159313987421,10.128049
65777,1577399663.17,-2.3081855858779528,1.6032975800304867,12.433556382490949,-8.39483015761957,-1.5666838131788294,8.431560714796111,-2.719112343988186,2.5160139690120045,4.548983154296875,-0.5011209627477134,-3.689277462842988,-1.7313143102134143,-6.264477241330031,-0.0960187214176829,-0.7234899009146342,-13.958628584698932,-5.895847227515244,-12.914518030678352,-24.593209134615385,-18.91649706196581,0.3757347976097936,-3.2725932921245406,-4.032537774725275,-2.5575899461115803,26.990355527600563,34.27462784916285,38.92314373858088,1577399663.0,-27.687958201685724,-51.12159313987421,10.128049
65778,1577399663.18,0.1626305274032958,-2.615285745164824,10.034566319014385,1.962486224216368,-4.250583874213986,11.431495394971895,2.7755804660704078,20.441401798601845,19.09854664306641,-11.945212759622711,5.191337771532012,-2.2501131383384143,-8.278637397580031,0.4532976848323171,0.0699671303353658,-6.085093428448933,-19.384616758765244,7.410189000571647,-24.593209134615385,-18.91649706196581,0.3757347976097936,-7.381497208720765,-3.665943431568431,-3.737548209002536,27.229969748704587,34.46631922604607,38.58768382903526,1577399663.0,-27.687958201685724,-51.12159313987421,10.128049
65779,1577399663.19,-0.7806849266982655,-1.865900625535918,13.018938688399151,-2.7385287355004286,0.3163557925340607,15.21553111884885,3.139499118414157,-6.048045369366901,16.994043383789062,-17.362082876810213,12.713920779344512,-0.4800936070884145,-9.453564155392533,-7.221873213605184,0.2072962318978657,-21.71009342844893,-35.07065191501525,-1.8213783822408525,-25.827276976495725,-19.32550240384615,1.2774983118733074,-4.710709662933219,-3.849240603146853,-1.672621248943364,26.94243268337976,34.58612633659808,38.82729805013928,1577399663.0,-27.687958201685724,-51.12159313987421,10.128049
65780,1577399663.2,-0.7160414818740469,-0.1612290435046683,11.272368577315168,-1.9568218934594124,0.564155664360232,13.801755038526585,4.79149826392197,8.523065934344036,14.827290881347656,-3.980124868997713,6.106865115282012,0.1302579554115854,1.4869876024199695,19.09953791920732,-5.148538729039634,22.326771805926068,-46.66733160251525,4.633089391196647,-25.122095352564106,-17.07597302350427,0.8266165547415459,-5.943380837912087,-3.48264625999001,-3.8850429918639056,26.990355527600563,34.46631922604607,38.68352951747686,1577399663.0,-27.687958201685724,-51.12159313987421,10.128049
65781,1577399663.21,0.6199230444931395,-3.031876834032012,9.1965957379597,5.144380230564024,-3.431766906440549,6.813080392530488,-4.438149135980374,6.100133854265911,16.92461153564453,-0.4400858064977134,-1.827705197217988,-0.5106111852134145,-12.429028022580033,1.2162371379573171,2.1451624428353657,-22.47303288157393,-62.87216558689025,0.2080405630716463,-25.122095352564106,-18.3029890491453,1.127204392829393,-9.8468395586785,-45.09110420829171,-2.2626003803888417,27.18204690448378,34.41839638182526,38.82729805013928,1577399663.0,-27.687958201685724,-51.12159313987421,10.128049
65782,1577399663.22,-0.9003950097060781,-1.9903991118640432,12.354547727705793,-0.3455241761742561,-3.618514635932737,16.21032190864377,-3.231471499261624,16.790244266863567,14.947000964355468,1.2994161466272869,-5.550849728467988,-0.9988924352134144,0.4799075242949695,-11.448557783917684,1.3211878334603655,-11.425669600323932,-63.87924566501525,20.990511266196645,-25.122095352564106,-18.3029890491453,1.127204392829393,-6.55971642540152,-43.62472683566433,-1.6726212489433638,26.990355527600563,34.41839638182526,38.97106658280169,1577399663.0,-27.687958201685724,-51.12159313987421,10.128049
65783,1577399663.23,-0.4933807274795161,-2.2537612944812304,11.326238114668682,-4.197794647365662,-1.095026086128049,11.577541696241424,3.77635676001572,-4.097968117169636,6.961141326904296,-2.8662332674352133,4.138481326219512,0.8931974085365854,-1.702099311642531,0.0413103801448171,-0.5251256431021344,-12.98206608469893,-38.73276129001525,9.912630406821648,-25.56283386752137,-17.5872297008547,0.7514695952195872,-5.6352130441673705,-23.370389376248745,-2.4838425546808955,27.062239793931766,34.46631922604607,38.75541378380807,1577399663.0,-27.687958201685724,-51.12159313987421,10.128049
65784,1577399663.24,2.4706409277939216,-0.3934666045398245,13.688118052412822,3.181134869235899,1.8977259890672635,15.487273007276585,-3.3559699855897485,-3.0361396808903387,9.516951599121091,-2.2711404939977133,-8.266914181592988,-0.9988924352134144,-0.9239010694550304,12.263600419207316,2.3282679115853657,-0.4088238971989328,-0.4637183212652439,9.637972203696648,-25.65098157051282,-16.871470352564103,1.2774983118733108,-4.710709662933221,-3.849240603146853,-3.2950638604184275,27.038278371821367,34.562164914487674,38.68352951747686,1577399663.0,-27.687958201685724,-51.12159313987421,10.128049
65785,1577399663.25,1.196925644590796,-3.932096658250762,12.40003755924876,4.129238726657774,-2.866735314643674,10.852098593214084,6.275903293218844,-6.8213725055973695,19.58696378173828,9.722267709127289,0.3390428496570121,1.9307950647865848,1.9752688524199693,9.272877762957316,0.3446253334603658,4.626576493426067,-0.951999571265244,-2.996305140053354,-25.827276976495725,-18.71199439102564,0.2254408785658761,-5.7379356420822765,-3.299349088411588,-3.4425586432797965,27.18204690448378,34.61008775870848,38.68352951747686,1577399663.0,-27.687958201685724,-51.12159313987421,10.128049
65786,1577399663.26,1.1813633337997802,-3.3814302764148247,15.250334635664776,-1.2864454286156624,-2.3926833859327354,10.607890023878149,3.9774696994688448,-6.605894356183307,10.96783780517578,-4.788840689310213,4.855644412157012,1.4730313929115857,5.393237602419969,-7.084544112042683,7.668844083460366,9.478871415301068,4.174953553734756,-12.090543421303352,-26.091720085470083,-18.200737713675213,-0.1502939190439206,-5.532490446252464,-3.849240603146853,-3.2950638604184275,27.038278371821367,34.562164914487674,38.82729805013928,1577399663.0,-27.687958201685724,-51.12159313987421,10.128049
65787,1577399663.27,-2.174110292909203,0.6336459076672056,16.903530882002666,-4.031397631984804,-0.6485074765089076,13.230737942579315,3.5836235263731417,5.547073270769817,13.480552447509766,13.140236459127289,5.618583865282012,2.0528653772865857,13.648242485232467,6.099049637957316,2.6181849037728657,0.201527665301068,-0.6010474228277438,-5.285123499428353,-27.41393563034188,-19.734507745726493,0.6763226356976285,-0.8072509421668073,-4.032537774725275,-22.32189084953508,26.84658699493815,34.514242070266874,38.75541378380807,1577399663.0,-27.687958201685724,-51.12159313987421,10.128049
65788,1577399663.28,-1.503733828065453,-4.262496487352324,12.519747642256572,3.987980828708555,-2.749419433296018,12.535222360303928,6.292662704839938,17.44625552174638,26.491841369628904,-1.5997537752477131,-0.3628614472179878,2.2970060022865857,12.137622368044967,20.65593440358232,-0.7845250571646342,17.108265946551068,-26.586765196265244,6.952425328696647,-26.35616319444444,-18.91649706196581,0.6763226356976285,-1.629031725486053,-2.5661604020979016,-40.61124392434488,27.08620121604217,34.562164914487674,38.68352951747686,1577399663.0,-27.687958201685724,-51.12159313987421,10.128049
65789,1577399663.29,2.9470870581650157,-2.438114822313262,10.252438670088605,5.790814678806211,-1.8539880123975796,16.033150985792208,-13.674979140863186,-34.1272424396794,16.529568261718747,19.060646615377287,6.778251834032012,2.4801114710365857,4.996509086794969,5.336110184832317,7.058492520960366,-24.48719303782393,-21.764987852515244,-1.7450844369283538,-25.47468616452992,-17.893983707264955,0.2254408785658761,-6.55971642540152,-4.032537774725275,-41.79120218723584,27.038278371821367,34.27462784916285,38.82729805013928,1577399663.0,-27.687958201685724,-51.12159313987421,10.128049
65790,1577399663.3,-0.938702236268578,-1.1643995391101374,15.30540127384837,-0.4388980409203499,0.9639873416063256,17.541498031690647,-1.67524042016006,-12.131711787823932,16.68279716796875,7.784401498189787,4.199516482469512,2.0376065882240857,11.374682914919967,9.639088700457316,2.5113733803353657,-10.815318037823932,-47.49130621189025,-17.339566858803355,-25.21024305555556,-18.609743055555555,0.6011756761756759,-9.8468395586785,-2.9327547452547447,-41.79120218723584,27.110162638152573,34.562164914487674,38.82729805013928,1577399663.0,-27.687958201685724,-51.12159313987421,10.128049
65791,1577399663.31,-1.3361397118545155,-0.446139041063262,11.315464207197978,0.619339092868712,-2.2382573788526585,10.105107675245332,7.936282144537204,10.910084989519817,7.32865128173828,32.97666224037729,7.480156130907012,4.677377096036586,45.58488799304497,-28.44684879954269,4.220357755335366,13.659779618426068,-39.37363043064025,36.85965189119665,-25.827276976495725,-18.71199439102564,1.7283800690050692,-8.306000589954916,-3.207700502622377,-39.06254870430051,26.89450983915896,34.63404918081888,38.80333662802887,1577399663.0,-27.687958201685724,-51.12159313987421,10.128049
65792,1577399663.32,-4.247488930604516,1.2657151459484557,12.699312766768292,-2.050195758205506,5.69253562041492,12.626202023389864,-2.699958730706936,-10.992071797589556,12.203245861816406,19.304787240377287,12.362968630907012,3.3040860804115857,7.651538383669969,-30.97980778391768,2.1756800209603657,16.711537430926068,-8.764499571265244,-0.4328285775533537,-24.76950454059829,-18.71199439102564,1.127204392829393,-16.421085825232456,0.0,-41.79120218723584,27.038278371821367,34.562164914487674,38.68352951747686,1577399663.0,-27.687958201685724,-51.12159313987421,10.128049
65793,1577399663.33,-1.8149800438857653,0.8251820404797057,16.103867527510477,-3.6758586854516007,2.671053125297732,24.417645199659397,-1.1892174831483415,-2.9786788410465888,10.740388647460938,11.187111459127289,-8.022773556592988,3.5482267054115857,-17.12873505383003,43.17790705983232,5.715719083460366,9.417836259051068,13.726955506859756,-5.925992640053353,-26.88504941239316,-18.3029890491453,2.028967907092904,6.794221303536206,-43.44142966408592,-3.8850429918639056,27.18204690448378,34.27462784916285,38.49183814059364,1577399663.0,-27.687958201685724,-51.12159313987421,10.128049
65794,1577399663.34,-0.8405399682021725,-2.9408971709460743,10.998232487227275,-1.8083813905297248,-6.391000158393673,-1.5690196196765431,-2.9824745266053734,-1.3314680988590888,3.651157531738281,10.866676888814789,-5.093086056592988,3.0599454554115857,21.87272978991997,4.725758622332317,3.7015589272103657,24.737660477801068,17.450100038109756,7.806917516196647,-26.88504941239316,-18.3029890491453,2.028967907092904,-7.792387600380388,-42.15834946303696,-1.0826421174978862,27.038278371821367,34.562164914487674,38.92314373858088,1577399663.0,-27.687958201685724,-51.12159313987421,10.128049
65795,1577399663.35,2.8800494116806403,2.793215805128143,8.909291538740948,-4.396513385158632,-1.5427417965772676,2.6304100922375184,-1.9637417202088896,0.3396846599299735,11.27549271850586,39.90415247475229,-8.297431759717988,1.6866544397865857,21.56755400866997,-20.29865544016769,4.083028653772866,30.947987626238568,15.558010194359758,-5.3614174447408525,-26.35616319444444,-19.734507745726493,0.9769104737854758,-7.792387600380388,-21.629066246253743,-3.4425586432797965,27.18204690448378,34.46631922604607,38.70749093958727,1577399663.0,-27.687958201685724,-51.12159313987421,10.128049
65796,1577399663.36,1.477047238829077,-0.0487015654773245,11.581220591475322,4.521887798923399,0.9783525515672632,10.105107675245334,-1.27301454125381,-6.766305867413776,15.035586425781249,24.645363412252287,-16.262519650342988,1.9613126429115848,9.146899711794967,19.40471370045732,0.9854944740853658,5.908314774676067,15.405422303734756,2.435823766196646,-26.708754006410253,-18.91649706196581,0.9769104737854758,-7.792387600380388,-1.099783029470529,-3.4425586432797965,27.18204690448378,34.27462784916285,38.635606673256056,1577399663.0,-27.687958201685724,-51.12159313987421,10.128049
65797,1577399663.37,1.7021021948837645,0.6719531342297056,15.572354758955791,0.1333161558569928,-1.037565246284298,11.362063546827365,2.6989660129454074,5.305258903094035,10.103531005859374,16.588722787252287,-1.705634884717988,0.4659513147865854,19.06511260241997,13.972584794207316,5.410543302210366,15.368763993426068,11.193996522484756,-11.571744593178352,-26.179867788461536,-18.71199439102564,0.526028716653711,-7.792387600380388,-1.099783029470529,8.357023985629755,26.990355527600563,34.562164914487674,38.77937520591847,1577399663.0,-27.687958201685724,-51.12159313987421,10.128049
65798,1577399663.38,-1.1266470665908437,2.8925751740246275,10.296731400801496,-2.955203985744569,-0.2929685299757053,10.903573928907443,-0.164499172601467,-0.9615639423649482,13.371616271972655,18.435036263814787,8.212578005907012,4.204354635099086,17.31035186023247,-1.0420636432926838,3.8236292397103657,22.708241532488568,10.537868592797256,4.449983922446647,-24.593209134615385,-18.507491720085472,0.0751469595219524,-2.348089910890392,-44.0829697646104,-43.487392190141584,26.990355527600563,34.514242070266874,38.73145236169766,1577399663.0,-27.687958201685724,-51.12159313987421,10.128049
65799,1577399663.39,0.4738767432236083,-6.084483950731231,11.178994712569072,0.0519132994116803,-4.911383532417111,11.682886569288302,9.493710324468845,7.761709806414348,15.576676000976562,-3.644431509622713,1.986992068407012,-0.1749178258384145,13.480395805544967,17.970387528582318,3.0912073647103657,36.120717118426064,9.454494569359756,1.1540854849466462,-25.827276976495725,-17.893983707264955,1.127204392829393,-9.8468395586785,-45.09110420829171,-45.92105610735418,26.990355527600563,34.27462784916285,38.68352951747686,1577399663.0,-27.687958201685724,-51.12159313987421,10.128049
65800,1577399663.4,-0.7351950951552969,-4.26489068901248,8.780004649092511,-0.7621152650414437,1.6056333865282009,6.717312326124237,1.2025899753477511,0.0116790324885662,4.929661218261718,6.548439584127286,26.73674792778201,7.362923971036586,14.945239555544967,6.404225419207317,6.844869474085366,21.136586259051068,18.88442620998476,11.011263219321648,-24.064322916666665,-17.893983707264955,1.4277922309172282,-6.148826033741899,-49.49023632617382,1.867253539729502,26.990355527600563,34.27462784916285,38.92314373858088,1577399663.0,-27.687958201685724,-51.12159313987421,10.128049
65801,1577399663.41,2.042078830625952,4.969545114210175,6.958017185713604,-1.4899525697289435,0.4348687747117945,5.955956198194549,-7.670321377191311,-17.705413252667682,9.277531433105468,28.551613412252287,3.757011599657013,1.5035489710365857,16.83732939929497,2.894703934832317,3.7015589272103657,12.072865555926068,17.236476991234756,1.6728843130716462,-23.006550480769228,-18.71199439102564,1.127204392829393,-2.861702900464919,-3.299349088411588,0.3923057111158077,26.89450983915896,34.46631922604607,38.92314373858088,1577399663.0,-27.687958201685724,-51.12159313987421,10.128049
65802,1577399663.42,-0.5089430382705317,-0.5347245024890438,12.13787247746165,0.092614727634337,-0.0523512631300017,9.273122598341034,1.7939577854063449,10.886142972918254,6.029796881103516,19.579445443502287,-9.350288205030488,0.8321622522865857,10.977954399294967,9.745900223894816,2.1909388100228657,23.303334305926068,18.36562738185976,-5.4834877572408525,-24.9457999465812,-19.32550240384615,-0.2254408785658824,-2.5535351067202026,-2.4745118163086914,-2.631337337542265,27.014316949710967,34.514242070266874,38.75541378380807,1577399663.0,-27.687958201685724,-51.12159313987421,10.128049
65803,1577399663.43,1.611122531797827,0.0997389374523619,5.152789133955792,2.7573611753882425,2.4196619509813257,9.643026754835176,5.710871701421969,-12.038337923077838,2.786850732421875,23.424660287252287,5.740654177782012,2.1444181116615857,8.597583305544969,9.394948075457316,0.9549768959603658,17.199818680926068,48.57802972560975,4.114290563071647,-24.593209134615385,-18.507491720085472,0.6763226356976285,-5.121600054592842,-0.916485857892108,-2.70508472897295,26.89450983915896,34.41839638182526,38.68352951747686,1577399663.0,-27.687958201685724,-51.12159313987421,10.128049
65804,1577399663.44,-1.1805166039443593,1.098121029737518,14.193294602705793,-2.3614419740258183,-2.330434142768673,7.440361227491424,-4.5937722438905295,0.4785483562190349,4.99909306640625,4.320656381002286,15.231620974657012,2.8463224085365857,14.304370414919967,4.267994950457317,4.830709317835366,32.092396805926064,54.49843988185975,-12.731412561928352,-24.41691372863248,-18.71199439102564,1.127204392829393,0.6308654286418709,-0.916485857892108,-3.8850429918639056,27.08620121604217,34.22670500494204,39.01898942702249,1577399663.0,-27.687958201685724,-51.12159313987421,10.128049
65805,1577399663.45,0.3457869544052489,-0.6975302153796682,9.955557664229229,0.0543075010718366,0.085315332328982,9.63823835151486,-3.291326540765529,-3.9459363117497137,10.402806213378906,3.679787240377286,-0.9732130097179876,0.6948331507240857,13.755054008669967,8.967701981707316,3.1827600990853657,26.171986649676068,60.57143792873475,-1.2262856088033538,-24.857652243589747,-19.223251068376065,0.7514695952195933,5.150659736897719,-0.916485857892108,-36.03890565564243,27.134124060262977,34.562164914487674,38.68352951747686,1577399663.0,-27.687958201685724,-51.12159313987421,10.128049
65806,1577399663.46,-2.0639770165420157,5.879341745069549,11.550095969893292,0.7139100584448839,0.979549652397342,10.755133425977752,0.3514512851622048,1.0088640239436455,11.59392153930664,21.013771615377287,10.196220584032012,3.0904630335365857,8.460254203982469,4.649464677019817,0.4209192787728659,31.176869462176064,36.21841058498475,-11.449674280678352,-24.76950454059829,-19.530005074786324,0.526028716653711,-1.0126961379966188,-3.849240603146853,-41.64370740437448,27.08620121604217,34.514242070266874,38.65956809536646,1577399663.0,-27.687958201685724,-51.12159313987421,10.128049
65807,1577399663.47,1.984617990782202,-0.2115072783679495,9.261239182783918,1.54589513534918,0.9999003665086696,5.335857968214081,12.407453744879,10.0409897868831,8.2360537109375,4.198586068502286,-6.985175900342988,-2.0670076695884143,7.804126274294969,7.594410966082317,2.5418909584603657,32.611195634051064,32.34267816310975,-0.9821449838033536,-25.122095352564106,-18.71199439102564,0.2254408785658761,10.081344436813186,-1.2830802010489508,-41.34871783865174,27.18204690448378,34.41839638182526,38.77937520591847,1577399663.0,-27.687958201685724,-51.12159313987421,10.128049
65808,1577399663.48,2.0755976538681398,2.429297152784393,6.500724668623761,-2.7708504579125384,5.029341760551638,10.921530441358614,-3.9425493923280297,-4.422382442120807,10.955866796875,29.802834115377287,9.006035037157012,3.8534024866615857,10.153979789919967,5.305592606707317,2.7860315834603657,18.390004227801068,30.35903558498476,-9.008268030678352,-26.179867788461536,-19.530005074786324,0.526028716653711,-1.2181413338264289,-2.1995660589410586,-41.79120218723584,27.229969748704587,34.41839638182526,38.82729805013928,1577399663.0,-27.687958201685724,-51.12159313987421,10.128049
65809,1577399663.49,0.6929461951279057,0.1188925507336124,10.29314009831126,4.1196619200171485,-2.2203008664014856,5.390924606397674,7.590320004644625,7.038660905047161,10.50815108642578,4.747902474752287,-0.5001905487804876,-0.0375887242759143,7.254809868044969,8.876149247332316,0.2530725990853658,26.233021805926068,7.776027772484756,-10.656217249428352,-24.41691372863248,-17.893983707264958,-0.075146959521965,-1.2181413338264289,-2.1995660589410586,-41.79120218723584,27.18204690448378,34.46631922604607,38.635606673256056,1577399663.0,-27.687958201685724,-51.12159313987421,10.128049
65810,1577399663.5,-2.059188613221703,0.4133793549328307,10.405667576338605,-0.052234472805116,1.475149396049685,8.35614336250119,-1.671649117669826,4.650444749041301,9.938331091308592,-8.130515493997713,6.503593630907012,-1.5176912633384143,-1.3664059522675305,2.040211747332317,0.8481653725228656,9.539906571551068,6.860500428734756,2.466341344321646,-24.593209134615385,-17.689481036324786,0.0751469595219524,-12.517627104466044,-4.032537774725275,-16.4220995350803,26.89450983915896,34.39443495971486,38.77937520591847,1577399663.0,-27.687958201685724,-51.12159313987421,10.128049
65811,1577399663.51,-2.1381972680068597,2.929685299757049,9.993864890791729,-1.4875583680687874,0.7437207888719507,5.690199813917206,11.27739056128525,-8.221980476788776,4.642357019042969,12.285744271627289,12.607109255907012,0.6795743616615855,-0.1304440382050304,4.084889481707317,0.8023890053353658,8.197133134051068,9.301906678734756,-0.5243813119283537,-24.593209134615385,-17.689481036324786,0.0751469595219524,-13.133962691955478,-3.665943431568431,1.2772744082840235,26.84658699493815,34.41839638182526,38.77937520591847,1577399663.0,-27.687958201685724,-51.12159313987421,10.128049
65812,1577399663.52,1.4435284155868895,2.426902951124237,5.06420367253001,0.1859885923804303,-0.5706959225538294,7.167422238233612,-1.960150417718654,3.88549731862138,3.864241479492187,2.7947774747522867,-4.818427853467988,1.5035489710365857,-0.5576901319550305,9.578053544207316,1.1991175209603655,11.218373368426068,36.06582269435975,7.227083531821647,-26.35616319444444,-19.32550240384615,0.9769104737854758,-7.9978327962102,-37.94251451673326,-3.8850429918639056,27.18204690448378,34.41839638182526,38.77937520591847,1577399663.0,-27.687958201685724,-51.12159313987421,10.128049
65813,1577399663.53,0.6127404395126708,0.0183360810070499,6.3750290814655575,0.0626872068823839,-0.9633449948194543,5.759631662061737,-0.4087077419374053,-17.92567980540206,7.437587457275391,3.0084005216272875,-1.6751173065929876,-1.2125154820884143,-1.7326168897675307,2.528492997332317,-0.4030553306021341,4.214589188738568,53.00307855373475,-2.9352699838033525,-24.68135683760684,-18.814245726495727,-3.1086244689504387e-15,-3.06714809629473,-1.099783029470529,-3.4425586432797965,26.94243268337976,34.32255069338365,38.61164525114566,1577399663.0,-27.687958201685724,-51.12159313987421,10.128049
65814,1577399663.54,-0.3257866112685782,-1.7485847441882618,9.888520017744854,-0.3167937562523811,-0.3911307980421106,4.816316207960174,-7.145991213617092,6.945287040301067,9.797073193359374,-3.1866678377477133,1.163017459032012,-0.2664705602134145,-5.745678413205031,-1.3167218464176829,-1.2728063071646345,17.199818680926068,53.03359613185975,-6.597379358803353,-24.593209134615385,-19.32550240384615,0.6763226356976285,0.0145298411524369,-1.099783029470529,-1.6726212489433638,26.89450983915896,34.41839638182526,38.635606673256056,1577399663.0,-27.687958201685724,-51.12159313987421,10.128049
65815,1577399663.55,-0.8213863549209219,5.527394101026581,8.930839353682355,-4.418061200100039,6.379671496879763,6.6454862763195495,-1.6872114284608415,-2.947554219464557,12.030863342285157,1.0857930997522869,1.437675662157012,-0.1749178258384145,-0.9239010694550304,-2.476389815167683,-2.4629918540396343,7.220570634051067,36.46255120998475,-9.893277796303352,-24.593209134615385,-19.32550240384615,0.6763226356976285,0.219975036982249,-3.849240603146853,0.8347900596999165,26.798664150717343,34.46631922604607,38.82729805013928,1577399663.0,-27.687958201685724,-51.12159313987421,10.128049
65816,1577399663.56,-1.0296818993545156,6.559295016553925,11.765574119307354,1.1125446348608992,0.104468945610232,11.919912533643773,1.5138361911680636,1.9246461589534096,14.391546179199215,-5.109275259622714,-8.297431759717988,-2.0670076695884143,-0.5882077100800305,1.0331316692073171,-0.1436559165396341,1.5137835246760671,-1.7149390243902438,-8.184293421303353,-24.76950454059829,-17.484978365384613,0.8266165547415459,-3.2725932921245406,-4.032537774725275,0.6872952768385466,27.18204690448378,34.562164914487674,38.77937520591847,1577399663.0,-27.687958201685724,-51.12159313987421,10.128049
65817,1577399663.57,0.2548072913193114,-4.242145773240996,9.161879813887431,3.5905433531226176,-3.8746942135694553,8.542891091993377,0.6818511142637668,7.560596866961223,6.010643267822266,-13.776267447122711,5.130302615282012,-0.9988924352134144,-3.853588569455031,1.3688250285823171,-3.5158482993521343,-11.486704756573932,-14.303440000952744,1.3524497427591466,-24.064322916666665,-19.120999732905982,0.2254408785658761,-6.35427122957171,-24.19522664835164,-1.672621248943364,27.014316949710967,34.41839638182526,38.87522089436008,1577399663.0,-27.687958201685724,-51.12159313987421,10.128049
65818,1577399663.58,0.471482541563452,2.8075810150890805,11.504606138350322,3.166769659274961,3.633522192680545,15.40108174751096,1.7604389621641574,-2.6506732136051827,1.2928688964843749,-14.478171743997711,6.961357302782012,-1.8839022008384143,-9.560375678830033,7.746998856707317,-0.7540074790396342,-2.484019209698933,7.501369569359756,14.032503453696648,-26.179867788461536,-18.71199439102564,0.8266165547415459,-4.710709662933221,-43.07483532092907,0.8347900596999165,26.89450983915896,34.41839638182526,38.82729805013928,1577399663.0,-27.687958201685724,-51.12159313987421,10.128049
