,timestamp,acc_x_dashboard,acc_y_dashboard,acc_z_dashboard,acc_x_above_suspension,acc_y_above_suspension,acc_z_above_suspension,acc_x_below_suspension,acc_y_below_suspension,acc_z_below_suspension,gyro_x_dashboard,gyro_y_dashboard,gyro_z_dashboard,gyro_x_above_suspension,gyro_y_above_suspension,gyro_z_above_suspension,gyro_x_below_suspension,gyro_y_below_suspension,gyro_z_below_suspension,mag_x_dashboard,mag_y_dashboard,mag_z_dashboard,mag_x_above_suspension,mag_y_above_suspension,mag_z_above_suspension,temp_dashboard,temp_above_suspension,temp_below_suspension,timestamp_gps,latitude,longitude,speed
40455,1577399409.95,-0.9446322650146476,-0.7020996368408202,12.88427652404785,-0.6843037110863655,0.5738200637445221,9.43391367812738,0.4636770548502602,-3.373487143961589,12.382354947916664,6.0810089111328125,8.185577392578125,-1.416778564453125,0.883707186070884,5.9741880835556405,-0.4037996617759147,0.8817400251116072,8.199055989583334,2.5434948149181547,-9.038242366925402,7.052792404354905,-1.3010327635327552,-40.34375857338821,-64.98603988603988,-2.304391679010971,29.817803336628028,33.148441009973936,30.704375954712912,1577399409.0,-27.69021278098574,-51.125762967866045,6.9570136
40456,1577399409.96,1.4208389752197266,0.6578069061279297,9.369588486938476,-1.1044861024437873,-0.6436314804449305,14.808896405178162,0.2781264261881503,9.682094508870442,13.7266991800944,3.975296020507813,8.643341064453125,-1.203155517578125,4.973062654820884,6.2641050757431405,-0.9378572789634148,3.124782017299107,7.024129231770833,-3.5752795991443453,-9.580536908940926,6.112420083774249,-2.114178240740737,-92.14674022822172,-65.22344322344321,8.288376522894284,30.009494713511245,33.02863389942193,30.77626022104412,1577399409.0,-27.69021278098574,-51.125762967866045,6.9570136
40457,1577399409.97,-0.2287659686279286,0.0137666595458984,16.853862876586913,5.249725103610898,2.4496770644769432,10.484968206935974,1.4129780131022127,-1.549105478922526,8.0189224222819,0.8319854736328125,4.553985595703125,-0.775909423828125,1.2804357016958845,7.7594664038681405,0.8931974085365852,4.192897251674108,4.185994466145833,-11.509849911644343,-9.038242366925402,6.676643476122644,-0.9757745726495664,-23.433976996939982,-65.22344322344321,6.9503426447588845,30.009494713511245,32.88486536675951,30.680414532602512,1577399409.0,-27.69021278098574,-51.125762967866045,6.9570136
40458,1577399409.98,0.1890222210693364,-0.5201403106689453,11.022784733276366,-0.6866979127465223,-0.462869255103134,8.206885327297302,0.6312711710611972,1.5286407552083343,7.824992087809244,2.6172637939453125,4.447174072265625,-0.348663330078125,4.835733553258384,2.4341490210556405,-2.0059725133384148,4.482814243861608,0.8443196614583333,0.4225231352306549,-9.761301756279437,7.805090260819431,-1.3010327635327552,-20.749884683218013,29.737891737891733,7.247683506566751,29.96157186929044,32.88486536675951,30.656453110492105,1577399409.0,-27.69021278098574,-51.125762967866045,6.9570136
40459,1577399409.99,-1.2056002459716786,1.4000094207763671,9.738295542602538,-0.8722485414086312,4.920493177758193,6.814657061916444,-0.9453106221516924,-6.452430478922526,5.679787400309245,5.0128936767578125,4.553985595703125,0.231170654296875,-2.259603360804116,8.67499374761814,-1.4566561070884148,4.589625767299108,-14.277140299479166,-2.7818225678943453,-9.399772061602416,7.052792404354905,-3.5778400997150968,-19.13942929498485,31.63711843711844,7.247683506566751,30.15326324617366,33.12447958786354,30.680414532602512,1577399409.0,-27.69021278098574,-51.125762967866045,6.9570136
40460,1577399410.0,-0.3796006732177724,2.118269918823242,10.31050973937988,-1.753314752346131,-1.1009239975347742,6.685370172268007,0.6348624735514317,1.4747712178548176,8.763519138590494,6.2946319580078125,2.875518798828125,0.261688232421875,10.100015779820884,3.3344175757431405,-1.9449373570884148,5.138942173549108,-19.526163736979168,9.120032900855657,-8.31518297757137,7.052792404354905,-3.252581908831901,-23.433976996939982,41.133251933251934,7.545024368374619,29.817803336628028,32.88486536675951,30.77626022104412,1577399410.0,-27.690216890821706,-51.125833864494666,7.001921
40461,1577399410.01,-0.9973047015380848,1.7280150482177734,9.982504111938477,1.842776141208555,-0.0426868637457117,9.395606451564882,2.533464390055338,11.200018361409509,7.925548557535807,7.454299926757812,5.225372314453125,0.902557373046875,4.637369295445884,-2.0061585961318595,0.1302579554115852,6.084987095424108,-26.880900065104168,-2.9649280366443453,-8.495947824909878,6.864717940238775,-0.8131454772079686,-22.8971585341956,32.1119251119251,7.024677860210852,29.86572618084883,32.88486536675951,30.5366459999401,1577399410.0,-27.690216890821706,-51.125833864494666,7.001921
40462,1577399410.02,-1.0966640704345698,-1.58316584777832,9.344449369506837,-0.4508690492211311,-0.6496169845953211,7.346169830471131,-1.0530496968587242,-2.263774674479167,6.7883027689615885,2.1137237548828125,-2.571868896484375,0.566864013671875,5.110391756383384,-1.70098281488186,-0.9836336461509148,5.978175571986608,-43.75712076822917,-0.1115344819568453,-8.857477519586892,8.745462581400087,-1.138403668091164,-37.928075491038456,-18.21758241758242,7.173348291114785,29.91364902506964,32.90882678886992,30.5606074220505,1577399410.0,-27.690216890821706,-51.125833864494666,7.001921
40463,1577399410.03,-1.7802086444091794,1.292270346069336,12.005604514770509,-0.8890079530297249,2.3754568130121,9.36448182998285,3.7042290018717448,-1.6424793436686196,10.463402317301432,7.0575714111328125,-0.3898620605468749,0.566864013671875,3.3556310141958843,-7.04155898675686,-2.7078768102134148,7.183619907924108,-47.05301920572917,0.6666637602306548,-8.857477519586892,8.745462581400087,-1.138403668091164,-38.46489395378285,-65.22344322344321,6.9503426447588845,30.009494713511245,33.31617096474676,30.5845688441609,1577399410.0,-27.690216890821706,-51.125833864494666,7.001921
40464,1577399410.04,0.5876567974853515,0.7870937957763672,10.569083518676758,0.6097622862280866,0.4409418716058497,8.009363690334412,-4.708995631917317,-4.149208481852213,14.35876841837565,4.8603057861328125,-5.516815185546875,0.353240966796875,8.665689607945884,-3.86773086175686,-1.9144197789634148,6.237574986049108,-42.96366373697917,12.965247744605657,-9.038242366925402,7.428941332587169,-1.6262909544159505,-40.61216780476041,-61.42498982498982,7.247683506566751,29.86572618084883,33.02863389942193,30.728337376823312,1577399410.0,-27.690216890821706,-51.125833864494666,7.001921
40465,1577399410.05,0.4511873028564458,0.0460883819580078,8.367615092163085,-2.643957769924256,-1.3954108017339928,5.890495221096132,1.5590243143717442,5.544914040120442,14.993231858317056,3.0445098876953125,-6.142425537109375,0.765228271484375,3.4777013266958843,-7.9570863305068595,0.4049161585365852,6.237574986049108,-20.472208658854168,6.922767275855655,-8.947859943256148,6.5826062440645785,-1.8702345975783403,-32.02307240085019,-65.22344322344321,7.99103566108642,29.98553329140084,33.02863389942193,30.680414532602512,1577399410.0,-27.690216890821706,-51.125833864494666,7.001921
40466,1577399410.06,-0.2120065570068349,2.379237899780273,10.628938560180664,0.590608672946837,0.7617648940667877,8.76473431411371,2.376644181315104,2.7628517110188797,10.498118241373698,7.8510284423828125,-2.434539794921875,1.940155029296875,6.727823397008384,-3.24212051019436,-0.4800936070884147,5.535670689174108,0.3560384114583335,1.3075329008556549,-8.495947824909878,6.488569012006514,-2.7646946225071147,-17.260564675379506,-62.13719983719983,7.284851114292737,30.05741755773205,33.10051816575314,30.632491688381705,1577399410.0,-27.690216890821706,-51.125833864494666,7.001921
40467,1577399410.07,0.5014655377197265,-0.2543839263916015,9.683228904418945,-2.2201840760766,-2.961218687476181,8.667769146877381,-5.106433107503255,8.051643178304035,8.655780063883464,8.736038208007812,2.906036376953125,0.109100341796875,4.942545076695884,-5.79033828363186,-1.4566561070884148,6.023951939174108,-0.0254313151041666,-9.800865536644343,-8.495947824909878,6.488569012006514,-2.7646946225071147,-16.99215544400731,-61.42498982498982,8.139706091990352,30.201186090394465,32.789019678317906,30.5845688441609,1577399410.0,-27.690216890821706,-51.125833864494666,7.001921
40468,1577399410.08,1.4040795635986327,-2.7371710479736326,8.634568577270507,1.9457268125952736,2.933305799828506,10.520881231838318,-0.4066152486165361,-8.382157017008463,9.364463755289714,-0.2666473388671875,-1.457977294921875,0.994110107421875,4.088052889195884,4.0058042944931405,-0.0833650914634147,5.962916782924108,-13.422648111979166,-4.124596005394345,-9.038242366925402,7.052792404354905,-1.6262909544159505,-35.780801640060886,34.011151811151805,7.024677860210852,29.86572618084883,33.12447958786354,30.680414532602512,1577399410.0,-27.690216890821706,-51.125833864494666,7.001921
40469,1577399410.09,0.3230975140380864,2.5923218475341794,9.34205516784668,2.0833934080542584,1.0454777907953037,7.208503235012148,0.1799641581217441,4.957137532552083,3.844631827799479,10.002517700195312,1.380157470703125,0.536346435546875,3.813394686070884,-0.5413148461318598,0.4201749475990852,5.001613071986608,-26.896158854166664,-2.171471005394345,-9.309389637933164,7.334904100529103,-1.219718215811963,-36.04921087143308,33.77374847374847,7.061845467936836,29.93761044718004,32.93278821098032,30.704375954712912,1577399410.0,-27.690216890821706,-51.125833864494666,7.001921
40470,1577399410.1,0.4727351177978515,-0.4650736724853515,7.27945043762207,-2.3207405458031625,1.5207268203363185,11.112249041896913,-1.5342842305501296,-16.749891819254554,12.48889692179362,-0.4802703857421875,-6.707000732421875,0.322723388671875,1.0668126548208845,-0.2666566430068597,-1.4261385289634148,4.528590611049108,-36.86014811197917,6.678626650855655,-9.038242366925402,7.052792404354905,-0.6505163817663776,-40.61216780476041,33.536345136345126,8.734387815606086,30.009494713511245,33.12447958786354,30.48872315571929,1577399410.0,-27.690216890821706,-51.125833864494666,7.001921
40471,1577399410.11,0.2620453717041015,-1.3054384552001952,7.049607078247069,-0.2258140931664436,-4.072128257788681,8.074007135158633,3.0003337137858077,-4.019921592203776,10.33650962931315,3.1513214111328125,-3.136444091796875,0.536346435546875,10.313638826695884,-3.65410781488186,-0.4495760289634147,3.521510532924107,-24.592081705729168,17.420814150855655,-9.038242366925402,7.052792404354905,-0.6505163817663776,-21.2867031459624,27.838665038665027,7.545024368374619,30.05741755773205,32.88486536675951,30.680414532602512,1577399410.0,-27.690216890821706,-51.125833864494666,7.001921
40472,1577399410.12,-0.2335543719482412,-2.124255422973633,8.699212022094725,0.3033044737280865,-3.210215660132431,6.544112274318788,0.9868101175944004,8.025306960042316,7.772319651285807,1.3202667236328125,-3.899383544921875,-0.470733642578125,-0.9778650795541156,-4.56963515863186,-1.4566561070884148,5.322047642299108,-19.495646158854168,1.3075329008556549,-8.857477519586892,8.369313653167822,-1.7889200498575484,-35.780801640060886,42.55767195767196,7.322018722018717,29.86572618084883,32.98071105520113,30.48872315571929,1577399410.0,-27.690216890821706,-51.125833864494666,7.001921
40473,1577399410.13,-0.1736993304443354,3.365648983764648,9.891524448852538,-0.5490313172875374,2.826763825951553,7.3306075196801155,1.106520200602214,1.5298378560384114,10.285034293619791,7.8510284423828125,0.281524658203125,0.658416748046875,3.4777013266958843,-4.50860000238186,0.023446431974085,3.979274204799108,-12.552897135416666,-2.720787411644345,-9.0382423669254,6.676643476122642,-1.138403668091164,-18.60261083224046,32.11192511192511,7.396353937470685,29.91364902506964,32.98071105520113,30.632491688381705,1577399410.0,-27.690216890821706,-51.125833864494666,7.001921
40474,1577399410.14,1.5692794781494142,2.376843698120117,9.204388572387694,1.4597038755835552,-4.120012290991806,10.4562377870141,-0.0283313863118486,5.573644460042317,5.009410935465494,4.9213409423828125,-3.899383544921875,1.543426513671875,1.7381993735708845,-1.2432191430068598,0.2218106897865852,2.972194126674107,-5.640665690104167,1.6127086821056549,-8.13441813023286,6.112420083774249,-1.4636618589743595,-22.8971585341956,34.011151811151805,7.024677860210852,29.86572618084883,32.83694252253871,30.680414532602512,1577399410.0,-27.690216890821706,-51.125833864494666,7.001921
40475,1577399410.15,1.435204185180664,-5.1888335479736325,12.920189548950194,1.014382366794493,-1.407381810034774,11.928671808010192,1.2262302836100254,10.330923158772787,9.050823337809245,-13.236618041992188,-4.875946044921875,1.238250732421875,7.628091951695884,-4.05083633050686,4.219613424161585,3.368922642299107,-2.8940836588541665,-13.005211239769343,-8.13441813023286,6.112420083774249,-1.4636618589743595,-40.61216780476041,18.34253154253154,6.9503426447588845,30.009494713511245,33.02863389942193,30.680414532602512,1577399410.0,-27.690216890821706,-51.125833864494666,7.001921
40476,1577399410.16,2.5628731671142577,0.7404068634033203,8.923069877319335,-0.2018720765648811,-2.9731896957769623,6.043724127346132,-2.76011548055013,-19.35478322550456,7.975826792399088,2.403640747070312,-0.786590576171875,-0.028228759765625,5.430826326695884,7.0880796851181405,0.1607755335365852,0.9275163922991072,-9.028116861979166,0.0563121977306547,-8.767095095917638,7.146829636412972,-1.544976406695152,-37.92807549103848,26.41424501424502,9.254734323769853,30.009494713511245,32.789019678317906,30.728337376823312,1577399410.0,-27.690216890821706,-51.125833864494666,7.001921
40477,1577399410.17,1.396896958618164,3.4925416717529294,11.706329307250977,2.855523443454649,4.6595251968011615,10.604678289943786,0.5558538187662758,5.394079335530599,9.66014766031901,4.4330596923828125,-3.563690185546875,0.505828857421875,-3.922811368616616,-0.0682923851943595,-0.1444002477134147,-0.3237043108258928,1.836140950520833,1.8873668852306549,-9.580536908940926,7.6170157967033,-1.7889200498575484,-40.075349342016025,24.989824989824985,7.842365230182484,30.009494713511245,32.95674963309072,30.5366459999401,1577399410.0,-27.690216890821706,-51.125833864494666,7.001921
40478,1577399410.18,2.6394876202392576,5.333682748413086,9.688017307739257,-1.9616102967797249,-2.094517686499618,3.3382762513695696,2.0498356547037755,-9.916840281168616,8.425936704508462,11.848831176757812,-6.310272216796875,0.170135498046875,5.919107576695884,-2.2502992211318595,2.083382955411585,-2.948216029575893,3.575642903645833,9.516761416480657,-9.580536908940926,7.6170157967033,-1.7889200498575484,-36.31762010280528,29.737891737891733,7.545024368374619,30.201186090394465,33.02863389942193,30.728337376823312,1577399410.0,-27.690216890821706,-51.125833864494666,7.001921
40479,1577399410.19,1.815882249145508,-2.5288755035400388,9.05355386779785,-1.425309124904725,-3.2628880966558684,11.5671473573266,2.5238875834147136,11.470563149007164,9.077159556070963,-8.323287963867188,-2.831268310546875,0.597381591796875,-4.212728360804116,7.60687851324314,0.3743985804115852,-2.643040248325893,6.017049153645833,2.0094371977306547,-9.580536908940926,7.6170157967033,-1.7889200498575484,-36.31762010280528,29.737891737891733,7.545024368374619,30.009494713511245,33.12447958786354,30.5845688441609,1577399410.0,-27.690216890821706,-51.125833864494666,7.001921
40480,1577399410.2,1.9260155255126956,0.2316390106201172,8.866806138305662,4.07417208847418,-1.012338536108993,13.458566668850036,2.334745652262369,6.277539748128254,5.725277231852213,-3.3184051513671875,3.577423095703125,0.170135498046875,-8.668294767054116,10.81122421636814,1.0457852991615852,-1.2392316545758928,0.0661214192708333,-16.972496396019345,-9.580536908940925,6.864717940238776,-2.11417824074074,-36.31762010280528,33.536345136345126,-9.700745616481662,29.93761044718004,33.17240243208434,30.5366459999401,1577399410.0,-27.690216890821706,-51.125833864494666,7.001921
40481,1577399410.21,-1.1960234393310536,2.5899276458740235,14.634437937622067,-0.4891762757836316,2.613679878197647,6.648260046535585,2.249751493326823,-1.362357749430339,10.725567399088542,10.109329223632812,6.262969970703125,0.780487060546875,-0.6574305092416157,1.7932798804306405,0.664315572599085,2.697535923549108,-5.076090494791667,1.2312389555431549,-9.038242366925402,7.428941332587169,-0.6505163817663776,-36.31762010280529,34.48595848595849,-10.89010906371313,29.72195764818641,33.07655674364274,30.65645311049211,1577399410.0,-27.690216890821706,-51.125833864494666,7.001921
40482,1577399410.22,-0.2455253802490224,0.5668272430419922,9.683228904418945,5.060583172458555,3.692267726098037,11.459408282619568,0.9101956644694004,-6.3734218241373695,8.564800400797525,0.4352569580078124,5.530548095703125,-0.501251220703125,-7.905355313929116,9.13275741949314,-1.8228670445884148,-5.328587123325892,0.0356038411458333,0.7887340727306548,-9.94206660361794,7.240866868471035,-2.114178240740737,-40.07534934201602,26.41424501424502,7.024677860210852,30.201186090394465,32.98071105520113,30.5845688441609,1577399410.0,-27.690216890821706,-51.125833864494666,7.001921
40483,1577399410.23,1.463934605102539,2.029684457397461,4.995382053833007,-0.2784865296898811,0.6683910293206935,4.260043890529726,-0.2174733174641923,1.5609624776204427,4.944767490641276,-9.269332885742188,-3.563690185546875,-0.501251220703125,-7.752767423304116,-3.98980117425686,3.700814596036585,-3.894260951450893,0.2187093098958333,6.007239932105655,-9.94206660361794,7.240866868471035,-2.114178240740737,-22.8971585341956,27.363858363858363,7.619359583826587,30.009494713511245,33.02863389942193,30.680414532602512,1577399410.0,-27.690216890821706,-51.125833864494666,7.001921
40484,1577399410.24,1.0964246502685546,-0.8972270721435547,8.069536985473633,0.2398581297339464,0.1943391006097562,7.380885754543397,2.6052904398600263,0.3375254292806019,8.069200657145181,-8.506393432617188,-1.213836669921875,-1.187896728515625,-3.846517423304116,-0.52605605706936,-1.0141512242759148,-2.932957240513393,-8.188883463541666,-5.558922177269345,-9.399772061602416,6.676643476122644,-2.276807336182332,-23.165567765567797,26.65164835164835,7.730862407004537,29.79384191451762,32.98071105520113,30.704375954712912,1577399410.0,-27.690216890821706,-51.125833864494666,7.001921
40485,1577399410.25,3.5061886212158204,3.133411422729492,7.619427073364257,3.142827642673399,-0.993184922827743,7.485033526760194,-2.400985231526692,-11.070845481363929,8.710846702067057,-1.1516571044921875,1.654815673828125,-0.470733642578125,-10.011068204554116,1.6254332007431402,1.8697599085365848,-5.420139857700892,-6.556193033854167,15.345618838355657,-8.495947824909878,6.112420083774249,-1.7889200498575484,-23.433976996939982,33.536345136345126,6.9503426447588845,30.009494713511245,32.88486536675951,30.5845688441609,1577399410.0,-27.690216890821706,-51.125833864494666,7.001921
40486,1577399410.26,3.7575797955322265,2.036867062377929,6.779062290649414,0.5068116148413678,0.9868198501214748,7.997392682033632,3.823939084879557,17.274107973225913,9.371646360270184,-2.4028778076171875,4.340362548828125,-0.897979736328125,-6.959310392054116,-0.2056214867568597,0.6795743616615852,-4.992893763950892,-5.091349283854167,1.7042614164806549,-9.219007214263907,8.745462581400087,-1.7889200498575484,-23.433976996939982,33.536345136345126,6.9503426447588845,29.67403480396561,32.88486536675951,30.5845688441609,1577399410.0,-27.690216890821706,-51.125833864494666,7.001921
40487,1577399410.27,2.819052744750977,0.1765723724365234,5.775891795043944,1.8930543760718364,5.229345191918349,10.073165521389098,-1.747368178304036,-0.2418713724772134,7.111519993082682,-4.111862182617188,5.072784423828125,-1.081085205078125,-3.053060392054116,3.3954527319931405,0.4354337366615852,-5.816868373325892,-5.488077799479167,-1.3474963960193451,-9.219007214263907,8.745462581400087,-1.7889200498575484,-39.00171241652724,26.41424501424502,7.024677860210852,30.009494713511245,33.02863389942193,30.5366459999401,1577399410.0,-27.690216890821706,-51.125833864494666,7.001921
40488,1577399410.28,0.9228450299072266,0.0281318695068359,9.71076222351074,0.1357103575171496,-2.0143119308843844,5.272791192775819,3.2265857706705727,-1.148076700846354,7.28509961344401,-6.629562377929688,5.713653564453124,-1.294708251953125,-5.936971524866616,7.1033384741806405,1.122079244474085,-5.130222865513392,-16.733805338541668,-2.4003528413318453,-9.309389637933164,6.95875517229684,-1.2197182158119595,-35.24398317731652,24.04021164021164,8.21404130744232,29.841764758738428,33.17240243208434,30.608530266271305,1577399410.0,-27.690216890821706,-51.125833864494666,7.001921
40489,1577399410.29,0.6546944439697265,-0.230441909790039,7.29860405090332,4.198670574802305,0.701909852562881,8.030911505275819,-0.0786096211751298,-0.9601318705240884,8.10271948038737,-5.881881713867188,5.927276611328125,-0.104522705078125,-5.158773282679116,-0.9990785180068598,0.2218106897865852,-5.694798060825892,-20.472208658854168,1.3075329008556549,-8.676712672248383,8.933537045516216,-1.6262909544159505,-40.07534934201602,28.313471713471703,8.66005260015412,29.86572618084883,33.02863389942193,30.728337376823312,1577399410.0,-27.690216890821706,-51.125833864494666,7.001921
40490,1577399410.3,-1.0834959613037098,1.2108674896240237,14.809214658813476,-3.481928350978944,-0.7202459335699305,5.335040435939882,0.6324682718912754,0.2656993794759105,13.240676243082682,-2.8911590576171875,7.575225830078125,-1.966094970703125,-10.835042813929116,1.0150816382431402,0.7406095179115852,-6.579807826450892,-14.307657877604166,2.3146129789806547,-8.31518297757137,7.052792404354905,-1.6262909544159505,-40.61216780476041,27.838665038665027,7.247683506566751,30.15326324617366,32.98071105520113,30.728337376823312,1577399410.0,-27.690216890821706,-51.125833864494666,7.001921
40491,1577399410.31,0.7372944012451171,2.014122146606445,7.76427627380371,-1.0637846742211312,0.5175563247308497,10.6094666932641,-0.6795542378743487,-1.158850608317057,17.5191146097819,-6.599044799804688,4.080963134765625,-0.730133056640625,-6.745687345179116,3.4564878882431405,0.2828458460365852,-7.586887904575892,6.963094075520833,12.171790713355657,-8.31518297757137,7.240866868471038,-1.4636618589743529,-36.31762010280528,28.78827838827839,7.247683506566751,29.841764758738428,32.98071105520113,30.5845688441609,1577399410.0,-27.690216890821706,-51.125833864494666,7.001921
40492,1577399410.32,0.065720835571289,1.4526818572998046,12.35515795715332,2.205497692722227,1.8523237502679597,4.9268290528832415,3.602475431315104,10.221986983235675,16.985207639567058,-10.154342651367188,-1.122283935546875,-0.531768798828125,-10.117879727991616,7.68317245855564,2.922616353849085,-10.272434779575892,55.39449055989584,10.355994814918152,-8.31518297757137,7.428941332587169,-1.3010327635327552,-37.928075491038456,-18.217582417582413,7.099013075662818,29.72195764818641,33.148441009973936,30.608530266271305,1577399410.0,-27.690216890821706,-51.125833864494666,7.001921
40493,1577399410.33,1.7967286358642578,-0.7523778717041015,6.917925986938476,2.5490656309546487,-1.6468019760503991,10.9159245057641,3.3403103495279947,-2.1859631205240886,8.059623850504558,-10.001754760742188,5.042266845703125,-1.172637939453125,-10.987630704554116,2.2357847632431405,4.738412252286585,-10.486057826450892,84.50826009114583,-23.503258114769345,-9.580536908940926,7.6170157967033,-2.114178240740737,-37.92807549103848,-64.74863654863654,8.957393461961988,29.67403480396561,33.17240243208434,30.680414532602512,1577399410.0,-27.690216890821706,-51.125833864494666,7.001921
40494,1577399410.34,0.7576451153564452,-0.9271545928955076,9.450991343383787,-1.3750308900414436,-0.5622286239996179,4.023017926174257,0.3260104593912754,-5.219416623942057,-1.270580019124348,-10.154342651367188,3.302764892578125,-0.775909423828125,-2.595296720179116,3.639593356993141,2.510629049161585,-9.112766810825892,68.60860188802083,-12.944176083519343,-8.857477519586892,6.864717940238775,-2.7646946225071147,-40.07534934201602,-64.74863654863654,-10.221092124645429,29.86572618084883,32.98071105520113,30.728337376823312,1577399410.0,-27.690216890821706,-51.125833864494666,7.001921
40495,1577399410.35,-0.1772906329345698,0.1430535491943359,7.967783414916991,3.07818419784918,-1.1679616440191491,10.573553668361756,-0.5071717183430986,12.401907594807945,2.095667515055338,-7.606124877929687,1.776885986328125,-0.562286376953125,-10.651937345179116,8.36981796636814,-0.8157869664634148,-6.884983607700892,43.43159993489584,-7.756187802269345,-8.405565401240622,7.522978564645233,-2.032863693019935,-40.61216780476041,35.435571835571835,-8.511382169250194,29.79384191451763,33.12447958786354,30.680414532602512,1577399410.0,-27.690216890821706,-51.125833864494666,7.001921
40496,1577399410.36,1.042555112915039,2.010530844116211,12.204323252563476,1.0287475767554308,0.026744984398819,4.894507330471132,-1.037487386067708,-18.130149076334632,5.611552652994791,-1.8840789794921875,5.103302001953125,-2.271270751953125,-4.395833829554116,-3.4252259789443595,3.471932760099085,-10.180882045200892,6.322224934895834,5.229041689918154,-8.676712672248383,6.300494547890383,-2.2768073361823347,-38.46489395378285,35.435571835571835,-8.214041307442326,29.96157186929044,32.93278821098032,30.728337376823312,1577399410.0,-27.690216890821706,-51.125833864494666,7.001921
40497,1577399410.37,-0.8871714251708974,-0.5704185455322265,8.16051664855957,-0.1372286317406624,1.209480604516006,17.26055890517816,-1.5031596089680983,2.7460922993977857,8.916748044840496,-9.818649291992188,-2.617645263671875,0.078582763671875,-5.341878751429116,-8.84209609613186,1.7476895960365852,-12.256077357700892,1.9276936848958333,29.53629266648065,-10.122831450956449,5.924345619658119,-2.2768073361823347,-19.13942929498485,33.536345136345126,11.707796433684758,29.86572618084883,33.02863389942193,30.872105909485725,1577399410.0,-27.690216890821706,-51.125833864494666,7.001921
40498,1577399410.38,-0.5950788226318349,-1.561618032836914,10.035176548461912,-1.3822134950219125,-1.5941295395269617,6.879300506740663,2.81358598429362,15.361140846761067,7.6310617533365885,-13.480758666992188,-3.319549560546875,-1.691436767578125,-6.989827970179116,0.3742124976181402,3.578744283536585,-7.434300013950892,5.650838216145833,-3.788902646019345,-9.94206660361794,7.240866868471035,-1.7889200498575484,-36.31762010280528,48.73015873015872,6.9503426447588845,29.72195764818641,33.02863389942193,30.680414532602512,1577399410.0,-27.690216890821706,-51.125833864494666,7.001921
40499,1577399410.39,1.0641029278564451,-0.8194155181884765,9.278608823852538,2.0833934080542584,-0.4520953476324317,14.579053045803162,2.473609348551432,-1.410241782633464,15.123715848795571,-8.308029174804688,-0.0389099121093748,-1.386260986328125,-8.241048673304116,2.0526792944931405,0.5422452600990852,-6.411961146763392,14.668782552083334,-9.495689755394343,-10.032449027287194,6.95875517229684,-2.3581218839031304,-28.533752393011653,41.845461945461935,7.284851114292733,29.841764758738428,33.07655674364274,30.704375954712912,1577399410.0,-27.690216890821706,-51.125833864494666,7.001921
40500,1577399410.4,0.9779116680908202,2.862866635131836,12.951314170532225,-0.1515938417015999,2.009143959008193,6.0149937074242565,-3.171918166097005,-2.7677541239420567,10.901541221110026,0.8625030517578125,6.446075439453125,-2.271270751953125,-6.287923673304116,2.1442320288681405,1.7171720179115852,-6.701878138950892,15.294392903645834,-10.899498349144343,-9.761301756279437,5.924345619658119,-1.6262909544159505,-19.13942929498485,18.34253154253154,11.707796433684758,29.96157186929044,33.12447958786354,30.728337376823312,1577399410.0,-27.690216890821706,-51.125833864494666,7.001921
40501,1577399410.41,1.2580332623291015,-2.10031340637207,9.613797056274413,0.4325913633765241,-2.8917868393316497,9.436307879787538,3.124832200113932,-4.424541672770181,6.77393755900065,-12.504196166992188,-4.753875732421875,-1.844024658203125,-8.088460782679116,9.13275741949314,-0.5411287633384148,-6.884983607700892,13.371785481770834,-5.436851864769345,-9.580536908940926,6.112420083774249,-2.439436431623926,-22.8971585341956,20.71656491656492,7.024677860210852,30.009494713511245,33.22032527630515,30.872105909485725,1577399410.0,-27.690216890821706,-51.125833864494666,7.001921
40502,1577399410.42,0.8558073834228515,-2.6390087799072264,9.005669834594725,1.9529094175757429,-1.340344163550399,10.848886859279723,2.988362705485026,-3.536292856852213,7.154615622965495,-7.9875946044921875,0.1289367675781251,-1.386260986328125,-7.020345548304116,-0.1445863305068597,2.327523580411585,-7.098606654575892,11.113484700520834,1.0939098539806549,-7.772888435555846,5.7362711555419885,-1.4636618589743595,-37.92807549103848,26.41424501424502,8.808723031058054,30.009494713511245,33.12447958786354,30.680414532602512,1577399410.0,-27.690216890821706,-51.125833864494666,7.001921
40503,1577399410.43,-0.0468066424560542,0.1957259857177734,9.06073647277832,-0.9081615663109754,1.2621530410394437,8.148227386623475,-2.0598114949544266,1.308374202473958,7.307844529215495,-4.935836791992188,0.9986877441406252,-1.782989501953125,-8.561483243616616,-0.8312318383193598,-0.7700105992759148,-5.923679896763392,-7.563273111979166,3.459022158668155,-8.676712672248385,6.112420083774252,-1.7889200498575484,-30.949435475361405,27.838665038665035,8.288376522894284,29.86572618084883,32.95674963309072,30.77626022104412,1577399410.0,-27.690216890821706,-51.125833864494666,7.001921
40504,1577399410.44,-1.6964115863037108,1.687313619995117,10.990463010864255,2.6208916807593363,2.794442103539444,8.155409991603944,3.9795621927897136,-5.35828032023112,9.668527366129558,1.6254425048828125,-0.6950378417968749,-1.538848876953125,-9.736410001429116,4.6466734351181405,1.9002774866615848,-7.037571498325892,-5.457560221354167,3.5047985258556547,-9.761301756279437,6.676643476122644,-2.2768073361823347,-39.00171241652724,30.21269841269841,7.024677860210852,30.201186090394465,33.31617096474676,30.728337376823312,1577399410.0,-27.690216890821706,-51.125833864494666,7.001921
40505,1577399410.45,-2.225530153198242,0.5979518646240234,9.901101255493163,-1.0470252626000374,-4.160713719214463,8.871276287990662,-0.4114036519368486,4.144306068929035,13.405876157633465,-4.081344604492188,-0.5119323730468749,-1.508331298828125,-5.128255704554116,-6.91948867425686,-0.2359529820884147,-6.366184779575892,-1.3987223307291667,5.641028994605655,-8.676712672248383,8.181239189051691,-2.602065527065524,-40.07534934201602,34.011151811151805,-11.70779643368476,29.86572618084883,32.88486536675951,30.5845688441609,1577399410.0,-27.690216890821706,-51.125833864494666,7.001921
40506,1577399410.46,0.3434482281494145,-2.413953823852539,12.01039291809082,-2.7564852479516,0.4792490981683497,9.869658380275816,1.2573549051920565,10.273462318929038,9.678104172770183,-10.505294799804688,-8.446502685546875,-1.493072509765625,-7.935872892054116,0.7404234351181402,0.8321622522865852,-4.321507045200892,4.491170247395833,-7.451012021019345,-10.30359629829496,6.488569012006514,-2.439436431623926,-40.07534934201602,34.011151811151805,-11.70779643368476,29.91364902506964,33.12447958786354,30.680414532602512,1577399410.0,-27.690216890821706,-51.125833864494666,7.001921
40507,1577399410.47,0.084874448852539,0.3609259002685546,12.4054361920166,3.076987097019102,-1.3583006760015717,12.458987475734803,0.1093352091471357,-3.4273566813151035,14.270182956949869,-1.5789031982421875,-3.441619873046875,-0.165557861328125,-4.609456876429116,-2.4791810570693604,1.030526510099085,-4.580906459263392,14.165242513020834,-5.146934872581844,-9.761301756279437,6.300494547890383,-0.6505163817663776,-39.27012164789944,-18.45498575498576,-1.4867043090393386,30.249108934615272,32.88486536675951,30.632491688381705,1577399410.0,-27.690216890821706,-51.125833864494666,7.001921
40508,1577399410.48,0.5469553692626953,2.111087313842773,13.748583323364256,-1.820352398830506,3.622835877953506,10.140203167873477,-2.611674977620442,9.028477455647783,10.281442991129556,0.4657745361328124,-1.244354248046875,-1.325225830078125,0.0292149985708842,-4.72222304925686,0.7406095179115852,-4.718235560825892,14.409383138020834,-3.3616565522693453,-9.038242366925402,7.052792404354905,-2.2768073361823347,-22.36034007145118,33.536345136345126,8.139706091990352,29.96157186929044,33.02863389942193,30.5366459999401,1577399410.0,-27.690216890821706,-51.125833864494666,7.001921
40509,1577399410.49,0.7767987286376953,-1.808220803833008,9.977715708618163,1.0694490049780865,0.816831532250381,11.284631561428162,-2.980382033284505,-4.3096199930826815,3.5106406962076817,-8.445358276367188,-4.692840576171875,-1.355743408203125,-4.914632657679116,3.0597593726181405,0.2523282679115852,-2.765110560825893,-6.586710611979167,-0.8592151460193452,-10.484361145633464,5.548196691425858,-1.951549145299146,-23.433976996939982,31.63711843711844,7.545024368374619,30.009494713511245,32.88486536675951,30.728337376823312,1577399410.0,-27.690216890821706,-51.125833864494666,7.001921
40510,1577399410.5,1.6710330487060547,1.045667575073242,8.71477433288574,2.17796437363043,-0.5215271957769617,6.252019671779726,1.2166534769694004,-5.214628220621745,3.623168174235025,-3.5930633544921875,-2.495574951171875,-1.203155517578125,-3.022542813929116,-4.05083633050686,0.7711270960365852,-2.185276576450893,-21.540323893229168,3.962562197730655,-9.580536908940926,7.6170157967033,-2.439436431623926,-23.433976996939982,31.63711843711844,6.9503426447588845,29.96157186929044,32.98071105520113,30.5845688441609,1577399410.0,-27.690216890821706,-51.125833864494666,7.001921
40511,1577399410.51,2.888484592895508,-2.231994497680664,2.562873167114257,-0.9404832887230848,0.2577854446038966,9.633829516750428,-1.0734004109700523,4.139517665608725,8.720423508707682,-6.217575073242188,0.2815246582031251,-1.081085205078125,-2.473226407679116,-1.3195130883193595,0.5422452600990852,-2.063206263950893,-24.927775065104168,-1.774742489769345,-7.230593893540322,7.805090260819431,-0.9757745726495664,-22.8971585341956,42.082865282865285,7.173348291114785,30.15326324617366,32.88486536675951,30.752298798933715,1577399410.0,-27.690216890821706,-51.125833864494666,7.001921
40512,1577399410.52,3.206913413696289,0.1981201873779296,6.498940696411132,4.076566290134337,-3.4472416244879,9.955849640041444,-0.3060587788899736,-16.086697959391273,11.615013315836588,-1.8535614013671875,2.051544189453125,-0.653839111328125,-2.869954923304116,8.91913437261814,0.8321622522865852,-4.687717982700892,-17.786661783854168,13.484046572730657,-7.772888435555846,7.993164724935561,-2.439436431623926,-21.2867031459624,33.536345136345126,7.545024368374619,29.96157186929044,33.12447958786354,30.728337376823312,1577399410.0,-27.690216890821706,-51.125833864494666,7.001921
40513,1577399410.53,0.9060856182861328,0.9020154754638672,9.783785374145507,2.9465031065405864,-1.1296544174566492,15.108171612697692,0.0387062601725253,16.436137392171226,14.763388498942057,1.6559600830078125,3.028106689453125,-0.196075439453125,-2.290120938929116,-4.38652968988186,1.3814786585365852,-3.161839076450893,7.024129231770833,4.328773135230655,-9.580536908940926,7.6170157967033,-1.138403668091164,-40.61216780476041,30.68750508750508,7.545024368374619,29.86572618084883,33.17240243208434,30.872105909485725,1577399410.0,-27.690216890821706,-51.125833864494666,7.001921
40514,1577399410.54,1.309508598022461,-0.9319429962158202,11.462120737915038,0.2051422056616808,0.0686435134515531,10.343710308986756,3.5713508097330724,-6.840291147867838,14.947742026774089,-1.762008666992188,4.874420166015625,-0.440216064453125,-2.107015470179116,7.1033384741806405,1.0915616663490852,-3.5890851702008923,23.228963216145832,-4.322960263206844,-9.219007214263907,7.240866868471035,-1.4636618589743595,-39.53853087927163,-63.32421652421652,7.099013075662818,29.86572618084883,33.00467247731153,30.608530266271305,1577399410.0,-27.690216890821706,-51.125833864494666,7.001921
40515,1577399410.55,-1.6150087298583982,0.1430535491943359,16.5426166607666,1.5578661436499617,-1.3930166000738369,11.373217022853945,-0.5718151631673174,7.079597304280599,9.761901230875653,0.8930206298828125,3.089141845703125,-0.043487548828125,-3.907552579554116,-0.4802796898818597,0.1912931116615852,-2.795628138950893,27.867635091145832,-3.5752795991443453,-9.038242366925402,7.805090260819431,-1.6262909544159505,-35.780801640060886,-64.74863654863654,8.36271173834625,29.86572618084883,33.02863389942193,30.680414532602512,1577399410.0,-27.690216890821706,-51.125833864494666,7.001921
40516,1577399410.56,-0.4801571429443349,-3.484161965942383,12.747807029418944,2.04388908066168,3.1655433608636625,10.5711594667016,0.8359754130045566,-0.4046770853678384,9.158562412516275,-10.459518432617188,-9.423065185546877,0.658416748046875,-2.595296720179116,2.5714781226181405,1.2899259241615852,-0.1405988420758928,22.160847981770832,-7.878258114769345,-9.399772061602416,7.428941332587169,-0.6505163817663776,-33.633527789083345,31.16231176231176,7.173348291114784,29.86572618084883,32.789019678317906,30.5366459999401,1577399410.0,-27.690216890821706,-51.125833864494666,7.001921
40517,1577399410.57,0.4535815045166015,3.911526962280273,10.5666893170166,-0.4556574525414436,-0.9860023178472742,8.217659234768007,2.1647573343912754,-6.536227537027995,9.089130564371745,1.3202667236328125,2.600860595703125,0.566864013671875,1.2499181235708845,4.7992613257431405,1.1983731897865852,-0.9645734514508928,12.151082356770834,4.481361025855655,-8.495947824909878,7.240866868471035,-1.4636618589743595,-38.46489395378285,39.234025234025225,7.842365230182486,30.009494713511245,32.88486536675951,30.872105909485725,1577399410.0,-27.690216890821706,-51.125833864494666,7.001921
40518,1577399410.58,0.8115146527099614,0.4578910675048828,7.364444596557616,0.1728204832495714,1.66677312160585,8.6174909120141,1.4393142313639324,4.129940858968099,5.947937986246744,-2.0824432373046875,-0.145721435546875,1.116180419921875,-4.639974454554116,-0.8159730492568598,0.359139791349085,-1.2544904436383928,1.653035481770833,2.299354189918155,-9.038242366925402,7.428941332587169,-0.3252581908831888,-40.61216780476041,39.234025234025225,-10.592768201905258,29.79384191451762,32.98071105520113,30.608530266271305,1577399410.0,-27.690216890821706,-51.125833864494666,7.001921
40519,1577399410.59,1.866160484008789,-0.172981069946289,10.157280833129882,1.160428668064024,-3.107264988745712,12.108236932521912,0.0339178568522128,-7.321525681559245,11.521639451090492,2.5104522705078125,1.441192626953125,1.360321044921875,-1.7102869545541155,7.1796324194931405,1.7476895960365852,-2.368382045200893,7.329305013020833,3.4132457914806547,-9.399772061602416,8.55738811728395,-2.2768073361823347,-30.949435475361405,-63.32421652421653,8.139706091990352,30.15326324617366,33.02863389942193,30.92002875370653,1577399410.0,-27.690216890821706,-51.125833864494666,7.001921
40520,1577399410.6,1.914044517211914,-3.132214321899414,10.55471830871582,2.7669379820288675,-1.5630049179449303,14.054722882228942,2.298832627360025,7.730820155843098,14.131319260660806,0.5573272705078125,3.089141845703125,1.116180419921875,-1.1609705483041155,-1.5178773461318598,1.7782071741615852,-0.2321515764508928,3.362019856770833,7.044837588355655,-9.219007214263907,6.864717940238775,-1.4636618589743595,-14.84488159302974,-65.22344322344321,-9.700745616481662,29.96157186929044,33.12447958786354,30.5366459999401,1577399410.0,-27.690216890821706,-51.125833864494666,7.001921
40521,1577399410.61,0.5026626385498046,-1.0384849700927734,12.745412827758788,0.4182261534155866,2.3658800063714747,15.381110601955506,-2.111286830647786,6.047696388753255,14.346797410074869,3.2886505126953125,3.195953369140625,1.512908935546875,2.4401036704458843,1.1676695288681402,-1.0599275914634148,2.331324986049107,7.359822591145833,-3.0259631928943453,-9.0382423669254,7.240866868471038,-2.439436431623929,-14.84488159302974,-65.22344322344321,-9.700745616481662,29.86572618084883,32.88486536675951,30.77626022104412,1577399410.0,-27.690216890821706,-51.125833864494666,7.001921
40522,1577399410.62,0.7337030987548827,1.127070431518555,12.166016026000976,2.17197886948004,-0.1456375351324309,10.641788415676208,-0.1205081502278646,0.2441515645345053,6.252001597086588,6.2641143798828125,5.927276611328125,1.543426513671875,2.6842442954458843,3.56329941168064,0.7100919397865852,4.009791782924108,-7.975260416666666,-2.3698352632068453,-9.94206660361794,6.864717940238775,-3.415211004273499,-30.949435475361412,35.43557183557182,6.9503426447588845,29.86572618084883,33.00467247731153,30.656453110492105,1577399410.0,-27.690216890821706,-51.125833864494666,7.001921
40523,1577399410.63,-0.8368931903076162,-0.7404068634033203,7.631398081665038,-1.0182948426781624,0.1919448989495997,6.656639752346132,-0.4473166768391923,4.86256656697591,10.156944504801432,-2.0061492919921875,1.074981689453125,1.940155029296875,5.919107576695884,-0.5718324242568598,0.8321622522865852,4.986354282924108,-22.974650065104168,-1.6831897553943451,-9.94206660361794,6.864717940238775,-3.415211004273499,-22.36034007145118,37.33479853479852,11.707796433684758,29.72195764818641,33.12447958786354,30.5845688441609,1577399410.0,-27.690216890821706,-51.125833864494666,7.001921
40524,1577399410.64,0.592445200805664,0.0113724578857421,6.36007700012207,-1.2241961854516,0.0171681777581935,7.338987225490663,2.255736997477213,-15.777845945231116,10.082724253336588,-2.9827117919921875,-4.051971435546875,1.726531982421875,5.522379061070884,4.6161558569931405,1.5951017054115852,3.033229282924107,-18.702189127604168,9.455726260230657,-9.219007214263907,6.864717940238775,-0.4878872863247798,-39.00171241652724,43.5072853072853,7.173348291114784,29.86572618084883,32.789019678317906,30.5845688441609,1577399410.0,-27.690216890821706,-51.125833864494666,7.001921
40525,1577399410.65,1.4172476727294925,-1.580771646118164,8.312548453979492,1.6057501768530864,-3.679479185523056,7.846557977443788,-0.7609570943196611,0.4165340840657543,12.601424399820964,4.6466827392578125,2.051544189453125,2.001190185546875,5.369791170445884,3.914251560118141,1.1983731897865852,1.3547624860491072,-4.023234049479167,23.89054071335565,-9.309389637933164,6.95875517229684,-2.195492788461536,-39.00171241652724,43.5072853072853,7.173348291114784,29.841764758738428,33.02863389942193,30.728337376823312,1577399410.0,-27.690216890821706,-51.125833864494666,7.001921
40526,1577399410.66,0.7001842755126952,1.1222820281982422,10.475709653930664,-0.7537355592308973,1.3926370315179597,9.915148211818789,1.948082084147135,4.829047743733725,4.755625559488932,5.4096221923828125,4.126739501953125,1.177215576171875,4.500040193883384,0.09955429449314,-0.0375887242759147,4.543849400111608,-12.034098307291668,-7.359459286644345,-9.761301756279437,5.924345619658119,-2.2768073361823347,-29.607389318500434,22.378388278388275,9.366237146947803,29.96157186929044,32.836942522538706,30.728337376823312,1577399410.0,-27.690216890821706,-51.125833864494666,7.001921
40527,1577399410.67,3.1638177838134767,-0.1370680450439453,9.747872349243163,0.5690608580054304,-1.8527033188238369,8.095554950100038,-0.6005455830891924,-8.157102060953775,1.7987865091959632,3.1818389892578125,3.821563720703125,0.383758544921875,-0.1233728920541157,10.50604843511814,-0.3275057164634147,3.155299595424107,-35.944620768229164,-4.155113583519345,-9.761301756279437,5.924345619658119,-2.2768073361823347,-40.07534934201602,26.41424501424502,8.511382169250187,29.96157186929044,32.98071105520113,30.5845688441609,1577399410.0,-27.690216890821706,-51.125833864494666,7.001921
40528,1577399410.68,1.1981782208251952,2.338536471557617,4.937921213989257,3.157192852634336,4.42489343410585,9.122667462307067,-0.5335079366048173,5.626316896565754,4.700558921305338,1.6864776611328125,4.615020751953125,1.329803466796875,-5.433431485804116,6.8744566382431405,0.4659513147865852,3.521510532924107,-46.13749186197917,0.3920055571056547,-10.122831450956449,6.676643476122644,-0.9757745726495664,-39.53853087927163,25.93943833943834,7.545024368374619,29.817803336628028,33.12447958786354,30.728337376823312,1577399410.0,-27.690216890821706,-51.125833864494666,7.001921
40529,1577399410.69,-0.4633977313232412,2.040458364868164,10.570280619506836,-2.8378881043969124,-2.089729283179306,7.82620726333246,-1.2086728047688804,-5.980772751871744,13.791342624918618,-0.4955291748046875,3.638458251953124,0.551605224609375,4.240640779820884,1.39655136480564,1.457772603849085,0.5002702985491072,-33.01493326822917,7.273719424293156,-8.495947824909877,7.805090260819431,-1.7889200498575448,-39.27012164789944,28.076068376068378,7.730862407004535,30.009494713511245,33.07655674364273,30.608530266271305,1577399410.0,-27.690216890821706,-51.125833864494666,7.001921
40530,1577399410.7,-0.9925162982177724,-2.1314380279541014,9.606614451293945,4.289650237888242,-1.1703558456793055,10.760301397853944,5.911682932535807,12.286985915120445,12.836056162516275,-2.7996063232421875,3.302764892578125,1.451873779296875,-8.576742032679116,14.13764023199314,1.6256192835365852,1.5989031110491072,-7.563273111979167,12.080237978980657,-8.31518297757137,7.805090260819431,-1.3010327635327552,-36.31762010280528,37.33479853479852,7.545024368374619,30.009494713511245,32.98071105520113,30.728337376823312,1577399410.0,-27.690216890821706,-51.125833864494666,7.001921
40531,1577399410.71,-2.2590489764404293,0.5285200164794922,12.996804002075194,1.0909968199194928,1.1017415298089748,9.02689939590082,2.1503921244303377,5.504212611897786,8.545646787516276,4.1889190673828125,4.553985595703125,0.933074951171875,2.3485509360708843,-8.44536758050686,2.968392721036585,0.1950945172991072,-1.1545817057291667,-4.795982724144345,-8.31518297757137,7.805090260819431,-1.3010327635327552,-23.433976996939982,37.33479853479852,-9.552075185577726,29.96157186929044,33.12447958786354,30.392877467277685,1577399410.0,-27.690216890821706,-51.125833864494666,7.001921
40532,1577399410.72,-0.1641225238037099,-0.1490390533447265,6.822157920532225,-4.104420782619568,-0.7729183700933681,10.868040472560974,-0.5335079366048173,-5.226599228922526,8.878440818277996,3.3039093017578125,4.889678955078125,0.475311279296875,5.430826326695884,-2.4334046898818595,0.5880216272865852,1.6904558454241072,-0.5747477213541667,-3.880455380394345,-9.94206660361794,7.6170157967033,-1.7889200498575484,-23.433976996939982,37.33479853479852,-9.552075185577726,29.86572618084883,33.12447958786354,30.728337376823312,1577399410.0,-27.690216890821706,-51.125833864494666,7.001921
40533,1577399410.73,0.7241262921142577,0.1909375823974609,10.102214194946288,2.271338238376524,0.3320056960687403,9.32018909926996,0.2769293253580727,-1.8136647623697912,9.846895389811197,-2.585983276367188,-3.533172607421875,1.009368896484375,-1.771322110804116,3.609075778868141,1.885018697599085,0.1188005719866072,3.560384114583333,0.0257946196056548,-10.484361145633466,8.181239189051691,-2.114178240740737,-34.170346251827745,-15.843549043549045,6.9503426447588845,29.98553329140084,33.10051816575314,30.80022164315452,1577399410.0,-27.690216890821706,-51.125833864494666,7.001921
40534,1577399410.74,0.9491812481689452,2.556408822631836,8.129392026977538,-1.7078249208031624,1.0035792617425685,5.512211358791444,-0.4664702901204424,-1.5993837137858071,8.19130494181315,4.0668487548828125,2.814483642578125,0.963592529296875,3.5997716391958843,-5.60723281488186,1.7782071741615852,-1.4833722795758928,10.442097981770834,-1.6221545991443451,-10.665125992971973,8.369313653167822,-2.114178240740737,-30.949435475361405,-65.22344322344321,7.247683506566751,30.05741755773205,32.789019678317906,30.680414532602512,1577399410.0,-27.690216890821706,-51.125833864494666,7.001921
40535,1577399410.75,1.8709488873291016,-1.3269862701416015,5.45985717590332,-0.3024285462914436,-2.096911888159774,9.309415191799255,-0.8232063374837236,-0.4597437235514321,6.055677060953776,-9.330368041992188,-3.136444091796875,0.872039794921875,-2.168050626429116,8.12567734136814,1.9613126429115848,-1.9716535295758928,11.113484700520834,1.8568493071056549,-10.665125992971973,8.369313653167822,-2.114178240740737,-22.8971585341956,34.96076516076515,7.173348291114784,29.817803336628028,33.02863389942193,30.728337376823312,1577399410.0,-27.690216890821706,-51.125833864494666,7.001921
40536,1577399410.76,0.0717063397216802,-0.297479556274414,9.63534487121582,0.0567017027319928,-1.970019200171493,11.227170721584413,3.12004379679362,3.162683388264973,10.173703916422523,2.4951934814453125,2.936553955078125,1.253509521484375,-1.893392423304116,3.731146091368141,2.907357564786585,-1.8495832170758928,11.906941731770834,1.4906383696056549,-9.0382423669254,7.240866868471038,-2.276807336182332,-22.8971585341956,34.96076516076515,7.173348291114784,30.009494713511245,33.12447958786354,30.680414532602512,1577399410.0,-27.690216890821706,-51.125833864494666,7.001921
40537,1577399410.77,-0.614232435913085,-0.4938040924072265,12.058276951293944,1.1005736265601185,1.208283503685928,13.579473852687928,0.6252856669108071,-1.655647452799479,8.774293046061198,2.4188995361328125,8.216094970703125,0.688934326171875,-2.763143399866616,0.9235289038681402,2.037606588224085,-1.7427716936383928,-4.221598307291666,-0.3098987397693452,-9.219007214263907,6.864717940238775,-0.162629095441591,-24.50761392242876,35.435571835571835,7.099013075662818,29.96157186929044,33.07655674364273,30.5845688441609,1577399410.0,-27.690216890821706,-51.125833864494666,7.001921
40538,1577399410.78,-1.0427945330810535,3.346495370483398,11.2945266217041,-1.7221901307641,3.608470667992568,11.97416163955316,1.156798435465494,5.659835719807942,10.22158794962565,3.609085083007813,10.535430908203123,1.024627685546875,2.2264806235708843,1.5033628882431402,-0.4190584508384147,0.1645769391741072,-18.671671549479168,-0.6761096772693452,-9.399772061602416,6.676643476122644,-0.6505163817663776,-25.58125084791753,35.435571835571835,7.247683506566751,30.05741755773205,32.98071105520113,30.48872315571929,1577399410.0,-27.690216890821706,-51.125833864494666,7.001921
40539,1577399410.79,-2.113002675170898,2.7383681488037106,11.318468638305664,1.6560284117163675,-1.3475267685308678,9.749948297268007,-2.58773296101888,-3.854721677652994,12.611001206461587,-5.820846557617188,-1.641082763671875,-0.043487548828125,-9.766927579554116,5.7453062476181405,2.693734517911585,-2.337864467075893,-10.737101236979166,-0.8897327241443452,-9.399772061602416,6.676643476122644,-0.6505163817663776,-27.728524698895075,35.435571835571835,7.842365230182486,29.96157186929044,32.98071105520113,30.680414532602512,1577399410.0,-27.690216890821706,-51.125833864494666,7.001921
40540,1577399410.8,1.3262680096435546,-3.346495370483398,8.786600382690429,-0.9153441712914436,-2.3099958359136803,10.566371063381286,5.691416379801432,-9.394904319254556,13.396299350992836,-10.657882690429688,-8.675384521484375,1.268768310546875,2.6842442954458843,-1.3042542992568598,2.297006002286585,-3.222874232700893,-1.2461344401041667,7.197425478980655,-10.12283145095645,7.240866868471038,-1.7889200498575448,-40.61216780476041,29.737891737891733,7.247683506566751,29.91364902506964,33.12447958786354,30.680414532602512,1577399410.0,-27.690216890821706,-51.125833864494666,7.001921
40541,1577399410.81,-1.8017564593505857,4.833294601440429,9.795756382446289,0.7390491758765241,2.443691560326553,10.282658166652771,-1.5079480122884112,3.414074562581379,8.10870498453776,8.522415161132812,6.049346923828125,0.048065185546875,-5.586019376429116,5.0281431616806405,1.411996236661585,-1.5749250139508928,5.589803059895833,-0.4624866303943449,-9.94206660361794,6.488569012006514,-1.7889200498575484,-34.43875548319993,-64.98603988603988,7.061845467936836,30.15326324617366,33.00467247731153,30.632491688381705,1577399410.0,-27.690216890821706,-51.125833864494666,7.001921
40542,1577399410.82,0.8821436016845703,0.5452794281005859,9.036794456176755,-3.268844403225037,-0.5957474472418054,9.125061663967225,3.007516318766276,-7.79078920694987,13.05632271525065,1.6559600830078125,0.2815246582031251,0.902557373046875,1.1583653891958845,-4.56963515863186,-0.2664705602134147,-3.924778529575893,6.200154622395833,4.176185244605655,-8.676712672248383,8.55738811728395,-2.2768073361823347,-36.31762010280528,35.435571835571835,8.139706091990352,30.009494713511245,33.12447958786354,30.680414532602512,1577399410.0,-27.690216890821706,-51.125833864494666,7.001921
40543,1577399410.83,-0.2981978167724599,-0.2950853546142578,9.292974033813476,1.7781326963843365,2.5143205093011622,9.553623761135194,1.1903172587076816,9.79222778523763,9.445866611735026,-4.447555541992188,-5.333709716796875,1.634979248046875,-10.255208829554116,3.1818296851181405,0.6185392054115852,-3.039768763950893,8.153279622395834,5.213782900855655,-8.676712672248383,8.55738811728395,-2.2768073361823347,-36.31762010280528,-57.62653642653642,8.437046953798218,29.96157186929044,32.98071105520113,30.5845688441609,1577399410.0,-27.690216890821706,-51.125833864494666,7.001921
40544,1577399410.84,-1.0152612139892567,0.650624301147461,11.748227836303707,-1.2912338319359749,-0.8028458908453218,10.502924719387146,0.5714161295572915,-3.875072391764323,9.431501401774089,-4.294967651367188,-2.388763427734375,0.734710693359375,0.1360265220083842,-7.545099025819359,1.686654439786585,-4.153660365513392,13.417561848958334,-0.6303333100818449,-8.134418130232863,7.052792404354907,-1.95154914529914,-28.80216162438384,-11.570288970288964,8.585717384702152,29.93761044718004,32.95674963309072,30.77626022104412,1577399410.0,-27.690216890821706,-51.125833864494666,7.001921
40545,1577399410.85,0.7384915020751952,-3.6349966705322254,9.541971006469726,0.9928345518530866,1.0442806899652246,15.718693036037536,-0.7011020528157549,6.351759999593098,5.442761435953776,-7.6824188232421875,-2.983856201171875,1.818084716796875,-4.243245938929116,1.3812925757431402,0.5269864710365852,-0.2321515764508928,-6.098429361979167,0.7887340727306548,-9.761301756279437,7.805090260819431,-2.2768073361823347,-29.875798549872645,33.536345136345126,7.693694799278552,29.96157186929044,32.789019678317906,30.872105909485725,1577399410.0,-27.690216890821706,-51.125833864494666,7.001921
40546,1577399410.86,-0.0013168109130849,-0.814627114868164,11.713511912231445,-0.4053792176781624,0.2446173354730372,9.47940350967035,-1.814405824788411,-4.525098142496744,5.177005051676432,-2.0061492919921875,-2.129364013671875,2.031707763671875,0.7921544516958843,-1.3347718773818598,0.6185392054115852,0.5613054547991072,-20.167032877604168,-1.866295224144345,-9.761301756279437,8.181239189051691,-0.9757745726495664,-16.99215544400731,35.435571835571835,-8.95739346196199,29.96157186929044,33.02863389942193,30.728337376823312,1577399410.0,-27.690216890821706,-51.125833864494666,7.001921
40547,1577399410.87,1.1407173809814453,1.4239514373779296,6.745543467407225,1.2538025328101177,-2.736163731421493,6.228077655178163,1.760137253824869,4.79313471883138,8.873652414957682,6.5692901611328125,4.584503173828125,1.085662841796875,4.118570467320884,-5.36309218988186,1.6866544397865852,1.5989031110491072,-31.061808268229168,2.2535778227306547,-9.761301756279437,8.181239189051691,-0.9757745726495664,-23.433976996939982,35.435571835571835,-8.511382169250194,30.009494713511245,33.12447958786354,30.680414532602512,1577399410.0,-27.690216890821706,-51.125833864494666,7.001921
40548,1577399410.88,-0.8716091143798826,0.0891840118408203,8.366417991333007,-1.3008106385765998,-0.2988664413824309,6.247231268459413,1.5422649027506503,-5.199065909830729,16.15322256266276,-1.472091674804688,-7.347869873046876,2.184295654296875,-0.1233728920541157,-6.62957168206936,0.4964688929115852,-0.1253400530133928,-17.283121744791668,8.891151064918155,-8.676712672248383,7.805090260819428,-1.9515491452991427,-22.897158534195583,36.38518518518519,8.511382169250185,29.721957648186415,33.12447958786354,30.632491688381705,1577399410.0,-27.690216890821706,-51.125833864494666,7.001921
40549,1577399410.89,0.1830367169189453,-0.7428010650634765,12.589789719848632,0.6337043028296491,-2.4991377670660246,9.388423846584413,2.590925229899089,2.9855124654134104,11.68444516398112,1.5033721923828125,-2.281951904296875,1.482391357421875,-7.783285001429116,-6.61431289300686,0.5269864710365852,-2.215794154575893,15.782674153645834,11.683509463355657,-8.676712672248383,6.676643476122644,-2.2768073361823347,-36.31762010280528,42.08286528286528,7.247683506566751,29.817803336628028,32.88486536675951,30.728337376823312,1577399410.0,-27.690216890821706,-51.125833864494666,7.001921
40550,1577399410.9,0.793558140258789,-2.710834829711914,8.174881858520507,0.4469565733374616,1.1376545547113184,13.760236078029724,1.7840792704264317,2.6670836446126294,9.816967869059244,-7.2551727294921875,-4.998016357421875,2.458953857421875,0.1512853110708842,-10.70366836175686,0.0997403772865852,-1.8495832170758928,24.419148763020832,9.028480166480657,-9.038242366925402,6.676643476122644,-2.602065527065524,-33.633527789083345,43.5072853072853,7.024677860210852,30.009494713511245,32.98071105520113,30.872105909485725,1577399410.0,-27.690216890821706,-51.125833864494666,7.001921
40551,1577399410.91,1.1191695660400391,2.9287071807861325,10.865964524536132,-5.351799847560976,4.575728138695694,10.370046527248476,0.5127581888834629,14.106579176839196,8.167362925211588,2.2052764892578125,-1.625823974609375,1.543426513671875,-1.893392423304116,-8.90313125238186,3.304086080411585,0.5002702985491072,24.754842122395832,-5.833580380394345,-8.947859943256148,6.5826062440645785,-1.544976406695152,-35.780801640060886,43.5072853072853,7.619359583826587,29.96157186929044,33.02863389942193,30.728337376823312,1577399410.0,-27.690216890821706,-51.125833864494666,7.001921
40552,1577399410.92,3.0943859356689454,-0.1490390533447265,5.230013816528319,4.20824738144293,1.6093122817621,8.779099524074647,-0.7046933553059892,-6.724172367350258,8.631838047281901,2.9071807861328125,0.3730773925781251,3.466033935546875,-4.624715665491616,0.7099058569931402,2.861581197599085,-2.124241420200893,12.639363606770832,-8.732750302269345,-9.038242366925402,6.300494547890383,-1.6262909544159505,-28.80216162438385,24.04021164021164,6.9503426447588845,29.817803336628028,32.93278821098032,30.632491688381705,1577399410.0,-27.690216890821706,-51.125833864494666,7.001921
40553,1577399410.93,0.592445200805664,-0.1011550201416015,10.92342536437988,-2.3925665956078497,-0.8902342514410242,9.644603424221131,-1.0123482686360674,0.3973804707845043,8.94547846476237,-1.6399383544921875,-0.7865905761718749,1.787567138671875,1.0668126548208845,-7.6824281273818595,2.602181783536585,-3.589085170200893,7.176717122395833,7.380530947730655,-9.580536908940926,6.864717940238775,-2.439436431623926,-40.61216780476041,31.63711843711844,6.9503426447588845,29.96157186929044,33.12447958786354,30.5366459999401,1577399410.0,-27.690216890821706,-51.125833864494666,7.001921
40554,1577399410.94,1.542943259887695,-1.3628992950439451,6.654563804321288,-1.3702424867211311,3.117659327660537,8.806632843166444,3.783237656656901,1.4939248311360676,11.126596177164712,-5.759811401367188,-2.861785888671875,1.146697998046875,-5.433431485804116,0.4047300757431402,-1.4261385289634148,-3.772190638950893,14.531453450520834,1.8873668852306549,-7.953653282894354,6.300494547890383,-1.951549145299146,-39.00171241652724,29.26308506308507,7.322018722018717,29.96157186929044,32.98071105520113,30.77626022104412,1577399410.0,-27.690216890821706,-51.125833864494666,7.001921
40555,1577399410.95,0.2261323468017577,0.3082534637451172,11.553100401000975,3.4109782286108987,-2.8582680160894625,16.13767832656488,1.7721082621256503,2.7245444844563798,8.880835019938152,-1.6246795654296875,2.082061767578125,0.856781005859375,-6.287923673304116,4.0058042944931405,1.1068204554115852,-3.375462123325893,8.641560872395834,5.976722353980655,-8.134418130232863,8.557388117283951,-2.276807336182335,-40.61216780476041,30.68750508750508,7.0990130756628185,30.009494713511245,32.98071105520113,30.5366459999401,1577399410.0,-27.690216890821706,-51.125833864494666,7.001921
40556,1577399410.96,2.83581215637207,1.294664547729492,7.916308079223632,-0.549031317287538,2.5023495010003813,4.956756573635195,0.7473899515787754,0.4584326131184896,6.313053739420573,-8.170700073242188,-6.066131591796875,0.383758544921875,-1.6492517983041155,-3.4557435570693595,1.930795064786585,-3.451756068638393,-6.159464518229166,-1.4543079194568451,-8.31518297757137,5.172047763193601,-1.6262909544159505,-36.049210871433104,35.198168498168485,-1.858380386299173,29.86572618084883,33.00467247731153,30.512684577829692,1577399410.0,-27.690216890821706,-51.125833864494666,7.001921
40557,1577399410.97,2.696948460083008,3.6170401580810543,9.32888705871582,4.215429986423398,-1.7162338241949302,11.385188031154724,1.8966067484537752,0.5386383687337231,10.128214084879556,-2.5249481201171875,2.204132080078125,0.078582763671875,-3.236165860804116,6.9354917944931405,3.029427877286585,-4.443577357700892,-2.6194254557291665,8.326575869605655,-9.219007214263907,6.112420083774249,-1.138403668091164,-36.31762010280528,41.133251933251934,-10.890109063713126,30.009494713511245,33.12447958786354,30.680414532602512,1577399410.0,-27.690216890821706,-51.125833864494666,7.001921
40558,1577399410.98,2.0624850201416014,-1.532887612915039,7.593090855102538,-2.0741377748070686,-1.5749759262457117,6.886483111721132,-1.8096174214680985,13.953350270589194,11.387564158121744,-6.339645385742188,1.563262939453125,0.749969482421875,-2.595296720179116,-10.85625625238186,0.2828458460365852,-3.405979701450893,2.446492513020833,-4.795982724144345,-10.122831450956449,6.676643476122644,-0.6505163817663776,-36.31762010280528,-65.22344322344321,-10.592768201905258,30.009494713511245,33.12447958786354,30.728337376823312,1577399410.0,-27.690216890821706,-51.125833864494666,7.001921
40559,1577399410.99,1.194586918334961,-2.627037771606445,8.797374290161132,-1.5474134095726937,-1.960442393530868,7.470668316799257,3.594095725504557,-9.442788352457685,9.460231821695965,-4.462814331054688,4.813385009765625,0.353240966796875,-3.083577970179116,8.61395859136814,1.1678556116615852,-3.009251185825893,-4.358927408854167,-11.265709286644343,-10.122831450956449,7.240866868471038,-0.1626290954415911,-38.46489395378285,33.536345136345126,6.9503426447588845,29.86572618084883,32.88486536675951,30.728337376823312,1577399410.0,-27.690216890821706,-51.125833864494666,7.001921
40560,1577399411.0,-0.1784877337646474,2.855684030151367,11.572254014282226,2.9488973082007424,0.8527445571527247,8.27152877212152,2.3850238871256506,2.566527174886067,11.07152953898112,5.1959991455078125,9.619903564453123,-0.226593017578125,-5.265584806116616,2.5257017554306405,2.693734517911585,-3.726414271763393,5.193074544270834,-0.5845569428943453,-10.122831450956449,8.55738811728395,-1.6262909544159505,-39.27012164789944,-13.706919006919009,7.582191976100602,29.96157186929044,33.07655674364274,30.656453110492105,1577399411.0,-27.69021942911841,-51.12590479777783,7.0376015
40561,1577399411.01,0.7289146954345702,1.0001777435302734,13.097360471801757,-0.7357790467797248,1.887039674340225,10.032464093166444,0.4816335673014316,-3.957672349039713,14.667620432535806,1.8390655517578125,4.615020751953125,-0.409698486328125,-2.473226407679116,7.36273788824314,0.8321622522865852,-5.023411342075892,16.240437825520832,9.791419619605657,-8.857477519586892,7.6170157967033,-1.7889200498575484,-40.61216780476041,-63.32421652421653,8.139706091990352,29.86572618084883,33.12447958786354,30.5845688441609,1577399411.0,-27.69021942911841,-51.12590479777783,7.0376015
40562,1577399411.02,-0.0324414324951162,0.3824737152099609,11.055106455688476,-1.05181366592035,1.2429994277581935,14.96930791640863,0.2302423929850253,9.109880312093098,12.10582465616862,-4.813766479492188,4.126739501953125,0.383758544921875,-2.045980313929116,5.0434019507431405,0.9237149866615852,-3.528050013950893,20.909627278645832,10.218665713355657,-10.122831450956449,8.55738811728395,-1.6262909544159505,-22.36034007145118,-65.22344322344321,7.247683506566751,29.86572618084883,33.22032527630515,30.48872315571929,1577399411.0,-27.69021942911841,-51.12590479777783,7.0376015
40563,1577399411.03,0.8079233502197265,-2.223614791870117,8.206006480102538,0.4505478758276964,-2.088532182349228,5.762405432277773,0.9808246134440104,-2.9377424418131497,3.7380898539225256,-7.423019409179687,-1.457977294921875,0.643157958984375,-2.274862149866616,1.0303404273056402,3.151498189786585,-2.490452357700893,15.370686848958332,-7.039024716331844,-9.49015448527167,8.275276421109755,-1.544976406695155,-22.897158534195583,-65.22344322344321,7.396353937470685,29.91364902506964,33.05259532153234,30.632491688381705,1577399411.0,-27.69021942911841,-51.12590479777783,7.0376015
40564,1577399411.04,-0.4514267230224599,-1.935113491821289,7.957009507446288,2.5299120176733987,-4.139165904273056,8.174563604885194,2.0211052347819,6.572026552327474,10.17849231974284,-4.142379760742188,1.624298095703125,1.726531982421875,-1.923910001429116,12.48969101324314,2.541146627286585,6.329127720424108,2.965291341145833,1.9789196196056549,-9.761301756279437,6.676643476122644,-1.3010327635327552,-27.191706236150686,30.21269841269841,7.322018722018717,29.817803336628028,33.02863389942193,30.728337376823312,1577399411.0,-27.69021942911841,-51.12590479777783,7.0376015
40565,1577399411.05,1.4088679669189454,3.5787329315185543,6.283462546997069,-0.6902892152367561,7.649883070336318,9.2304065370141,-2.4895706929524737,2.7341212910970043,8.763519138590494,6.0199737548828125,5.957794189453125,0.658416748046875,-7.935872892054116,-4.41704726800686,1.5645841272865852,-1.3613019670758928,-10.004679361979166,-2.2935413178943453,-9.94206660361794,7.240866868471035,-1.4636618589743595,-27.191706236150686,30.21269841269841,7.322018722018717,30.009494713511245,33.17240243208434,30.728337376823312,1577399411.0,-27.69021942911841,-51.12590479777783,7.0376015
40566,1577399411.06,-0.3592499591064448,2.7946318878173826,14.080180253295897,2.041494879001524,2.188709083519912,10.190481402736756,1.5518417093912753,-4.34313881632487,10.34369223429362,3.761672973632813,2.631378173828125,0.673675537109375,-0.2759607826791157,0.8319761694931402,3.304086080411585,-1.9411359514508928,-8.326212565104166,3.4132457914806547,-10.30359629829496,6.864717940238775,-1.138403668091164,-19.13942929498485,-64.27382987382987,7.99103566108642,29.841764758738428,33.31617096474676,30.48872315571929,1577399411.0,-27.69021942911841,-51.12590479777783,7.0376015
40567,1577399411.07,-0.0851138690185537,-4.353257168579101,7.102279514770507,2.523926513523008,-1.868265629614853,7.045697522121523,1.0550448649088544,2.983118263753254,8.08955137125651,-20.133590698242188,-13.634490966796877,1.177215576171875,-4.075399259241616,-4.73748183831936,1.1831144007240852,-1.9869123186383928,-12.171427408854166,1.429603213355655,-9.761301756279437,7.805090260819431,-2.2768073361823347,-40.61216780476041,-15.368742368742373,7.842365230182485,29.86572618084883,33.10051816575314,30.680414532602512,1577399411.0,-27.69021942911841,-51.12590479777783,7.0376015
40568,1577399411.08,0.2596511700439453,0.4854243865966796,7.705618333129882,-1.3463004701195689,-2.6810970932379,12.290196258693786,-0.7944759175618485,-3.6153015116373695,15.103365134684244,-4.783248901367188,-2.373504638671875,1.055145263671875,5.034097811070884,-0.7549378930068598,3.090463033536585,0.0119890485491072,-9.638468424479166,3.901527041480655,-9.399772061602416,7.805090260819431,-2.2768073361823347,-34.17034625182773,39.234025234025225,7.247683506566751,30.009494713511245,33.17240243208434,30.680414532602512,1577399411.0,-27.69021942911841,-51.12590479777783,7.0376015
40569,1577399411.09,2.2157139263916017,-0.7906850982666015,8.97693941467285,2.94410890488043,1.4632659804925685,10.858463665920349,-0.0857922261555986,1.2257742451985667,12.0794884379069,2.9987335205078125,-2.739715576171875,0.994110107421875,-5.341878751429116,2.2968199194931405,-0.1138826695884147,-0.4457746233258928,-11.957804361979166,6.465003603980655,-7.953653282894354,7.428941332587169,-1.951549145299146,-34.17034625182773,39.234025234025225,7.247683506566751,29.96157186929044,33.17240243208434,30.728337376823312,1577399411.0,-27.69021942911841,-51.12590479777783,7.0376015
40570,1577399411.1,-0.2000355487060537,1.963843911743164,9.176855253295898,4.507522588962461,3.9460531020746,10.298220477443786,1.970826999918619,-0.7829609476725259,9.012516111246743,4.6009063720703125,1.776885986328125,1.329803466796875,-0.9778650795541156,-6.12603164300686,1.6256192835365852,0.0730242047991072,-9.485880533854166,3.1996227446056547,-11.02665568764899,7.240866868471035,-1.138403668091164,-19.13942929498485,-65.22344322344321,6.9503426447588845,29.889687602959235,33.17240243208434,30.5366459999401,1577399411.0,-27.69021942911841,-51.12590479777783,7.0376015
40571,1577399411.11,-0.3724180682373036,-2.117072817993164,9.858005625610351,-3.8949281373558966,-0.9393153854742272,7.452711804348085,0.3116452494303384,2.5449793599446604,13.105403849283851,-8.414840698242188,-14.275360107421877,2.428436279296875,0.4717198813833844,-6.85845351800686,0.649056783536585,-0.5373273577008928,12.852986653645832,4.206702822730655,-9.580536908940926,6.864717940238775,-2.439436431623926,-29.607389318500434,-64.98603988603988,-0.7433521545196702,29.96157186929044,32.93278821098032,30.82418306526492,1577399411.0,-27.69021942911841,-51.12590479777783,7.0376015
40572,1577399411.12,-0.5471947894287099,0.8876502655029296,8.134180430297851,4.002346038669493,2.023509168969131,14.24147061172113,-0.7082846577962236,3.449987587483723,12.108218857828776,0.8014678955078125,0.2815246582031251,1.024627685546875,-1.923910001429116,4.0058042944931405,1.5645841272865852,6.603785923549108,22.496541341145832,2.5282360258556547,-9.038242366925402,7.428941332587169,-1.951549145299146,-36.85443856554967,42.55767195767196,-8.437046953798225,29.86572618084883,32.789019678317906,30.5366459999401,1577399411.0,-27.69021942911841,-51.12590479777783,7.0376015
40573,1577399411.13,-0.5208585711669912,-1.35332248840332,11.557888804321289,1.014382366794493,-3.844679100073837,5.421231695705507,-4.443239247639974,-0.2897554056803384,6.69732310587565,-3.959274291992188,-2.465057373046875,0.414276123046875,6.865152498570884,-10.82573867425686,3.456673971036585,-1.7275129045758928,22.435506184895832,-3.849937802269345,-9.399772061602416,7.428941332587169,-1.6262909544159505,-21.2867031459624,35.435571835571835,6.9503426447588845,29.86572618084883,32.83694252253871,30.5845688441609,1577399411.0,-27.69021942911841,-51.12590479777783,7.0376015
40574,1577399411.14,2.0086154827880858,0.2029085906982421,8.765052567749022,-1.9759755067406624,2.7297986587152248,6.196953033596132,0.5175465922037754,1.1898612202962229,3.0868670023600253,0.1453399658203125,0.1136779785156251,1.818084716796875,-3.327718595179116,1.4728453101181402,1.5340665491615852,1.3242449079241072,5.803426106770833,-5.253746396019345,-9.038242366925402,7.805090260819431,-1.6262909544159505,-23.433976996939982,35.435571835571835,7.693694799278552,29.91364902506964,33.17240243208434,30.5845688441609,1577399411.0,-27.69021942911841,-51.12590479777783,7.0376015
40575,1577399411.15,-0.1066616839599599,1.6753426116943355,10.126156211547851,2.5634308409155864,0.2661651504144438,10.568765265041444,-0.3838703328450517,-0.1149786844889325,5.7204888285319,1.6864776611328125,2.387237548828125,0.749969482421875,1.2804357016958845,6.7371275366806405,1.946053853849085,0.7291521344866072,-24.042765299479168,-2.3545764741443453,-9.219007214263907,6.864717940238775,-2.439436431623926,-40.61216780476041,34.96076516076516,12.153807726396556,29.86572618084883,33.10051816575314,30.608530266271305,1577399411.0,-27.69021942911841,-51.12590479777783,7.0376015
40576,1577399411.16,1.1526883892822264,-1.7555483673095702,6.709630442504882,-4.427638006740662,0.6205069961175684,8.976621161037539,-3.413732533772786,-18.21993163859049,16.91816999308268,-3.623580932617188,-1.000213623046875,0.566864013671875,-4.823079923304116,-8.17070937738186,1.1983731897865852,-2.520969935825893,-16.993204752604168,5.976722353980655,-9.219007214263907,6.112420083774249,-0.8131454772079686,-40.61216780476041,31.63711843711844,11.707796433684758,30.009494713511245,33.12447958786354,30.680414532602512,1577399411.0,-27.69021942911841,-51.12590479777783,7.0376015
40577,1577399411.17,-1.2989741107177732,-0.7260416534423828,10.897089146118162,1.9074195860327736,0.3547506118402247,13.784178094631288,3.0937075785319013,-3.172374204508463,13.709939768473308,-2.8606414794921875,0.5561828613281251,1.116180419921875,1.9823399985708845,15.96869491949314,-0.9378572789634148,-3.436497279575893,9.953816731770834,29.44473993210565,-10.122831450956449,7.052792404354905,-2.602065527065524,-20.749884683218028,28.313471713471703,7.024677860210852,30.009494713511245,33.02863389942193,30.5845688441609,1577399411.0,-27.69021942911841,-51.12590479777783,7.0376015
40578,1577399411.18,0.477523521118164,0.0688332977294921,11.866740818481444,-0.0929359010277723,-0.6065213547125095,11.591089373928162,2.929704764811198,8.476613972981772,17.361097300211586,2.0374298095703125,0.891876220703125,1.222991943359375,-4.563680509241616,-3.79143691644436,1.259408346036585,-1.3307843889508928,43.11116536458334,-1.957847958519344,-7.592123588217336,7.052792404354905,-1.6262909544159505,-29.60738931850044,26.65164835164834,9.366237146947803,30.10534040195285,32.93278821098032,30.5606074220505,1577399411.0,-27.69021942911841,-51.12590479777783,7.0376015
40579,1577399411.19,0.678636460571289,-1.0277110626220702,10.952155784301755,5.30000333847418,2.0977294204339745,12.405117938381286,-1.2134612080891922,0.7277802998860667,4.262420017496744,-2.2197723388671875,-0.3898620605468749,0.505828857421875,0.5785314048208843,9.46845077886814,0.5269864710365852,0.4087175641741072,30.309041341145832,-7.542564755394345,-7.592123588217336,7.052792404354905,-1.6262909544159505,-35.780801640060886,31.16231176231176,8.511382169250187,30.009494713511245,32.88486536675951,30.728337376823312,1577399411.0,-27.69021942911841,-51.12590479777783,7.0376015
40580,1577399411.2,0.487100327758789,-0.546476528930664,8.124603623657226,-6.615938324123476,0.1105420425042872,8.3110330995141,3.31157992960612,10.292615932210287,0.1515757670084632,-4.142379760742188,-1.732635498046875,0.811004638671875,-3.541341642054116,-6.98052383050686,2.205453267911585,2.209254673549107,6.383260091145833,-18.467857724144345,-8.495947824909878,7.993164724935561,-2.439436431623926,-40.61216780476041,29.737891737891733,7.247683506566751,29.86572618084883,33.02863389942193,30.5366459999401,1577399411.0,-27.69021942911841,-51.12590479777783,7.0376015
40581,1577399411.21,0.8965088116455078,0.947505307006836,7.968980515747069,2.213877398532774,3.682690919457413,6.529747064357851,2.267708005777994,-9.320684067789712,6.161021934000651,1.2897491455078125,-1.976776123046875,1.146697998046875,0.5785314048208843,10.13983749761814,-2.0364900914634148,2.728053501674107,-20.960489908854168,-13.462974911644343,-9.038242366925402,7.428941332587169,-2.2768073361823347,-40.61216780476041,26.889051689051684,6.9503426447588845,29.86572618084883,32.83694252253871,30.5366459999401,1577399411.0,-27.69021942911841,-51.12590479777783,7.0376015
40582,1577399411.22,-0.452623823852539,-0.5584475372314452,8.793782987670898,-0.033080859523866,1.0119589675531158,5.391304174953554,-0.079806722005208,-8.48510768839518,14.104983042399088,-1.5483856201171875,-5.318450927734376,0.368499755859375,-1.6187342201791155,-9.29985976800686,0.6643155725990852,-1.6207013811383928,0.7069905598958339,12.126014346168152,-9.580536908940925,6.864717940238775,-1.9515491452991396,-29.87579854987263,30.687505087505087,-2.4158945021889218,29.86572618084883,33.07655674364274,30.680414532602512,1577399411.0,-27.69021942911841,-51.12590479777783,7.0376015
40583,1577399411.23,2.6466702252197267,-1.2288240020751953,8.852440928344725,-2.5314302918969123,0.2781361587152248,9.910359808498477,0.1225033182779941,1.5394146626790364,13.487279014078776,2.9682159423828125,-1.335906982421875,0.688934326171875,-1.3745935951791155,-4.63067031488186,-1.3040682164634148,-4.046848842075892,31.438191731770832,20.13687860398065,-9.94206660361794,6.488569012006514,-1.138403668091164,-24.50761392242875,38.28441188441188,-12.079472510944596,29.96157186929044,33.12447958786354,30.728337376823312,1577399411.0,-27.69021942911841,-51.12590479777783,7.0376015
40584,1577399411.24,-0.4897339495849599,2.5923218475341794,16.16672700012207,4.91693107284918,1.7194455581292871,14.43300674453363,2.708241111246745,12.799345070393882,16.290889158121743,6.7829132080078125,-1.641082763671875,0.017547607421875,1.7381993735708845,4.8602964819931405,0.2828458460365852,-2.582005092075893,44.25557454427084,7.594153994605655,-9.94206660361794,6.488569012006514,-1.138403668091164,-37.92807549103848,38.75921855921855,-10.815773848261165,29.817803336628028,33.12447958786354,30.680414532602512,1577399411.0,-27.69021942911841,-51.12590479777783,7.0376015
40585,1577399411.25,2.7208904766845703,-1.4634557647705078,14.22502945373535,2.2186658018530863,-3.238946080054306,16.065852276760193,0.1608105448404941,8.341341579182942,12.237505747477211,-3.959274291992188,-3.838348388671875,-0.592803955078125,1.1278478110708845,-12.56524062738186,1.6866544397865852,0.3171648297991072,44.53023274739584,-17.949058896019345,-10.665125992971973,7.6170157967033,-0.8131454772079686,-84.63128174980028,-63.32421652421653,6.9503426447588845,29.86572618084883,32.98071105520113,30.680414532602512,1577399411.0,-27.69021942911841,-51.12590479777783,7.0376015
40586,1577399411.26,3.242826438598632,1.12347912902832,11.457332334594726,2.826793023532774,1.4297471572503817,13.03479297500238,-3.2018456868489578,-5.30081948038737,5.464309250895182,0.6946563720703125,1.822662353515625,0.139617919921875,3.4777013266958843,6.3251402319931405,0.4659513147865852,1.2174333844866072,15.019734700520832,-12.837364560081843,-9.128624790594657,7.899127492877495,-1.2197182158119628,-56.71672168709205,34.011151811151805,6.9503426447588845,29.98553329140084,33.028633899421926,30.512684577829692,1577399411.0,-27.69021942911841,-51.12590479777783,7.0376015
40587,1577399411.27,1.241273850708008,-1.8441338287353517,9.221147984008788,-0.6615587953148812,0.1871564956292872,5.533759173732851,-2.209449098714192,6.572026552327474,11.866404490152997,-2.1587371826171875,5.835723876953125,-0.104522705078125,5.522379061070884,-11.52764297113186,1.5951017054115852,0.9275163922991072,5.956013997395833,-9.251549130394343,-8.495947824909878,6.864717940238775,-1.4636618589743595,-23.433976996939982,-65.22344322344321,6.9503426447588845,30.009494713511245,33.17240243208434,30.728337376823312,1577399411.0,-27.69021942911841,-51.12590479777783,7.0376015
40588,1577399411.28,2.948339634399414,-1.3437456817626952,8.342475974731444,0.6720115293921491,-2.38661028903868,12.005286261135192,-1.0937511250813798,-18.52399524943034,10.669303660074869,0.7404327392578125,5.683135986328125,0.139617919921875,3.2335607016958843,6.9965269507431405,-2.4027010289634148,-1.7275129045758928,7.085164388020833,3.779456728980655,-8.495947824909878,6.864717940238775,-1.4636618589743595,-23.433976996939982,-65.22344322344321,6.9503426447588845,29.86572618084883,32.88486536675951,30.680414532602512,1577399411.0,-27.69021942911841,-51.12590479777783,7.0376015
40589,1577399411.29,-2.603814015502929,2.2738930267333983,20.52177981994629,2.4604801695288674,1.5590340468988184,9.948667035060977,-0.9884062520345048,-4.953660239664713,10.429883494059244,14.076614379882812,6.354522705078125,0.017547607421875,1.2804357016958845,6.7829039038681405,-0.0223299352134147,-1.8495832170758928,5.894978841145833,21.47965204148065,-8.31518297757137,7.428941332587169,-1.951549145299146,-40.61216780476041,42.08286528286528,6.9503426447588845,30.009494713511245,33.02863389942193,30.728337376823312,1577399411.0,-27.69021942911841,-51.12590479777783,7.0376015
40590,1577399411.3,1.3346477154541017,-2.342127774047851,10.486483561401366,0.4301971617163682,-1.3187963486089929,10.88958828750238,3.828727488199869,7.113116127522788,8.405585990397135,-4.127120971679688,4.126739501953124,-0.226593017578125,-1.0389002358041155,6.9660093726181405,-0.0833650914634147,0.8359636579241072,-1.3376871744791663,-8.091881161644345,-9.49015448527167,6.95875517229684,-2.1954927884615323,-40.34375857338821,-13.706919006919009,7.210515898840768,29.86572618084883,33.00467247731153,30.80022164315452,1577399411.0,-27.69021942911841,-51.12590479777783,7.0376015
40591,1577399411.31,0.4847061260986328,0.5548562347412109,14.72302339904785,0.3871015318335553,0.6085359878167872,7.983027472072695,0.1057439066569003,-7.242517026774088,13.877533884684244,2.1747589111328125,2.143096923828125,0.658416748046875,3.965982576695884,6.4472105444931405,2.815804830411585,2.544948032924107,-0.6052652994791667,-0.7066272553943452,-10.122831450956449,7.428941332587169,-1.6262909544159505,-39.00171241652724,-64.74863654863654,7.470689152922654,30.009494713511245,32.88486536675951,30.48872315571929,1577399411.0,-27.69021942911841,-51.12590479777783,7.0376015
40592,1577399411.32,-0.2790442034912099,-1.6047136627197265,10.921031162719723,2.589767059177305,-0.2150693832769617,11.411524249416445,1.202288267008463,8.913555775960285,9.419530393473307,4.9518585205078125,4.309844970703125,2.123260498046875,-2.045980313929116,7.91205429449314,-1.6702791539634148,4.253932407924108,-2.1311442057291665,-2.1714710053943453,-10.122831450956449,7.428941332587169,-1.6262909544159505,-39.53853087927163,-65.22344322344321,6.9503426447588845,29.86572618084883,32.88486536675951,30.5845688441609,1577399411.0,-27.69021942911841,-51.12590479777783,7.0376015
40593,1577399411.33,-1.401924782104492,0.1646013641357421,10.894694944458006,1.0095939634741804,-0.6220836655035242,13.997262042385191,4.197434543863932,-12.12908261515299,11.694021970621744,6.2030792236328125,1.715850830078125,1.421356201171875,-0.9473475014291156,3.3649351538681405,-0.1138826695884147,2.117701939174107,13.890584309895834,-2.6292346772693453,-8.495947824909878,6.864717940238775,-1.4636618589743595,-40.61216780476041,16.443304843304844,7.545024368374619,30.201186090394465,33.02863389942193,30.680414532602512,1577399411.0,-27.69021942911841,-51.12590479777783,7.0376015
40594,1577399411.34,0.4954800335693359,2.270301724243164,10.65766898010254,3.612091168064024,0.1871564956292877,10.134217663723083,3.129620603434245,8.001364943440757,11.107442563883463,7.5458526611328125,3.745269775390625,1.665496826171875,-1.1762293373666155,1.01508163824314,0.740609517911585,1.7667497907366072,22.05403645833333,9.562537783668152,-9.49015448527167,6.770680708180709,-1.0570891203703652,-40.07534934201602,-62.374603174603166,7.6193595838265855,29.96157186929044,33.10051816575314,30.84814448737532,1577399411.0,-27.69021942911841,-51.12590479777783,7.0376015
40595,1577399411.35,1.1024101544189453,-2.689287014770508,12.735836021118162,-1.8083813905297248,-1.0913471908941492,15.37871640029535,1.022723142496744,-7.941623911539713,13.401087754313153,-7.4077606201171875,-11.071014404296877,1.604461669921875,8.879312654820884,1.5643980444931402,-1.5482088414634148,2.117701939174107,35.19185384114584,-2.4461292085193453,-10.484361145633464,7.052792404354905,-2.2768073361823347,-36.31762010280528,-64.27382987382987,6.9503426447588845,29.86572618084883,33.12447958786354,30.392877467277685,1577399411.0,-27.69021942911841,-51.12590479777783,7.0376015
40596,1577399411.36,2.7208904766845703,-0.0365115753173828,9.541971006469726,1.5363183287085551,-0.5358924057378992,10.935078119045349,-2.8822197652180988,-3.529110251871744,8.80422056681315,4.1889190673828125,2.753448486328125,2.428436279296875,2.8673497641958843,10.50604843511814,1.6256192835365852,2.392360142299107,26.677449544270832,2.7113414946056547,-10.484361145633464,7.052792404354905,-2.2768073361823347,-19.13942929498485,-65.22344322344321,7.842365230182486,30.009494713511245,33.17240243208434,30.728337376823312,1577399411.0,-27.69021942911841,-51.12590479777783,7.0376015
40597,1577399411.37,2.488652915649414,-0.278325942993164,11.258613596801757,1.2059184996069927,1.9492889175042871,11.717982061916445,0.8551290262858066,14.159251613362631,6.548882602945963,4.4483184814453125,4.782867431640625,2.046966552734375,-2.595296720179116,4.0363218726181405,-0.6631990758384148,6.908961704799108,9.557088216145834,-18.498375302269345,-9.67091933261018,6.394531779948447,-1.3823473112535574,-35.243983177316515,37.33479853479852,7.545024368374619,29.98553329140084,32.98071105520113,30.728337376823312,1577399411.0,-27.69021942911841,-51.12590479777783,7.0376015
40598,1577399411.38,2.366548630981445,1.8381483245849608,9.324098655395506,1.6679994200171488,-0.8495328232183689,11.763471893459412,0.5007871805826825,-13.108311094156898,9.30341161295573,8.217239379882812,13.678741455078123,0.688934326171875,4.591592928258384,5.9741880835556405,0.923714986661585,3.964015415736608,-11.545817057291666,-0.8744739350818431,-9.219007214263907,6.864717940238775,-2.7646946225071147,-37.39125702829408,39.7088319088319,7.545024368374619,29.62611195974481,33.12447958786354,30.80022164315452,1577399411.0,-27.69021942911841,-51.12590479777783,7.0376015
40599,1577399411.39,-0.1353921038818349,-3.687669107055664,7.957009507446288,-7.350958233791444,8.42081600490663,8.761143011623476,-1.843136244710286,2.916080617268879,10.57353559366862,-3.654098510742188,3.485870361328125,2.397918701171875,-0.5811365639291157,1.83905624761814,-2.1280428258384148,1.8735613141741072,-9.028116861979166,19.12979852585565,-8.857477519586892,7.993164724935561,-2.7646946225071147,-40.61216780476041,41.133251933251934,6.9503426447588845,29.96157186929044,32.83694252253871,30.5366459999401,1577399411.0,-27.69021942911841,-51.12590479777783,7.0376015
40600,1577399411.4,-1.7754202410888669,3.789422677612305,12.209111655883788,4.39978351425543,0.0482927993402247,15.077046991115662,4.082512864176432,-5.4899614115397135,11.55036987101237,11.085891723632812,10.291290283203123,0.994110107421875,7.841714998570884,16.94525741949314,0.8016446741615852,1.9040788922991072,-2.4058024088541665,10.493323916480657,-8.857477519586892,7.993164724935561,-2.7646946225071147,-23.433976996939982,33.536345136345126,7.247683506566751,29.86572618084883,33.22032527630515,30.5366459999401,1577399411.0,-27.69021942911841,-51.12590479777783,7.0376015
40601,1577399411.41,0.0633266339111332,-1.7244237457275389,13.436140006713869,5.173110650485898,-5.939605552710557,8.174563604885194,3.65634496866862,4.603992787679036,10.889570212809245,2.5409698486328125,2.433013916015625,1.634979248046875,5.705484529820884,-3.98980117425686,1.4730313929115852,3.643580845424107,2.934773763020833,6.739661807105655,-9.49015448527167,7.146829636412972,-1.0570891203703685,-37.391257028294085,48.73015873015872,7.0990130756628185,30.009494713511245,32.789019678317906,30.5845688441609,1577399411.0,-27.69021942911841,-51.12590479777783,7.0376015
40602,1577399411.42,-1.9549853656005856,0.8062474090576172,12.707105601196288,-2.4871375611840216,1.5841731643304595,6.3525761415062885,1.0311028483072917,7.1179045308431,7.13187070719401,5.7453155517578125,4.218292236328125,1.451873779296875,6.117471834508384,4.1583921851181405,0.3896573694740852,7.229396275111608,-10.142008463541668,-5.833580380394344,-8.676712672248383,5.548196691425858,-2.602065527065524,-40.61216780476041,48.73015873015872,6.9503426447588845,29.86572618084883,33.148441009973936,30.5606074220505,1577399411.0,-27.69021942911841,-51.12590479777783,7.0376015
40603,1577399411.43,0.400909067993164,-0.7068880401611328,9.027217649536132,2.4868163877905864,-4.294789012183212,13.822485321193788,2.399389097086588,-5.892187290445963,9.426712998453777,3.3649444580078125,-0.6340026855468749,1.573944091796875,-1.0694178139291155,4.7992613257431405,-1.6702791539634148,5.688258579799108,-23.646036783854168,-14.622642880394343,-8.676712672248383,6.676643476122644,-1.951549145299146,-39.00171241652724,41.60805860805861,7.173348291114784,30.009494713511245,32.88486536675951,30.48872315571929,1577399411.0,-27.69021942911841,-51.12590479777783,7.0376015
40604,1577399411.44,0.8677783917236327,2.058414877319336,6.259520530395507,0.3847073301733991,4.266876124535537,10.118655352932068,-3.021083461507161,-15.548002585856116,4.441985142008463,7.1796417236328125,2.570343017578125,1.818084716796875,2.6232091391958843,-9.60503554925686,2.174935689786585,4.345485142299108,-35.669962565104164,7.105872744605655,-8.676712672248383,6.676643476122644,-1.951549145299146,-37.391257028294085,15.49369149369149,7.0990130756628185,30.009494713511245,33.12447958786354,30.680414532602512,1577399411.0,-27.69021942911841,-51.12590479777783,7.0376015
40605,1577399411.45,-0.3568557574462886,-0.4818330841064452,7.928279087524413,-2.087305883937929,0.8204228347406153,8.86529078384027,0.9892043192545568,5.677792232259114,10.319750217692055,2.2815704345703125,-1.000213623046875,0.917816162109375,4.835733553258384,3.5480406226181405,-1.471914896150915,3.841945103236608,-23.264567057291668,10.676429385230657,-8.405565401240622,6.394531779948447,-1.7076055021367462,-38.196484722410645,25.227228327228325,7.582191976100602,29.91364902506964,33.07655674364274,30.77626022104412,1577399411.0,-27.69021942911841,-51.12590479777783,7.0376015
40606,1577399411.46,0.1974019268798828,2.8987796600341795,10.023205540161133,0.928191107028868,1.5901586684808495,11.02366358047113,-1.826376833089192,-4.3838402445475255,12.855209775797526,9.315872192382812,4.645538330078125,0.658416748046875,2.5621739829458843,1.6559507788681402,2.419076314786585,3.246852329799107,-15.497843424479166,6.953284853980655,-8.676712672248383,7.805090260819431,-0.3252581908831888,-40.07534934201602,20.71656491656492,7.024677860210852,30.009494713511245,32.88486536675951,30.5845688441609,1577399411.0,-27.69021942911841,-51.12590479777783,7.0376015
40607,1577399411.47,0.7767987286376953,-1.1474211456298828,15.103701463012694,-1.51150038467035,-3.0067085190191496,7.051683026271913,-0.5287195332845048,13.967715480550131,12.606212803141275,1.8390655517578125,0.2204895019531251,0.048065185546875,4.332193514195884,0.1911070288681402,-0.2054354039634147,5.077907017299108,-7.227579752604167,-1.2254260835193451,-10.122831450956449,6.300494547890383,-1.6262909544159505,-38.46489395378285,29.737891737891733,7.545024368374619,29.86572618084883,33.12447958786354,30.5366459999401,1577399411.0,-27.69021942911841,-51.12590479777783,7.0376015
40608,1577399411.48,2.1558588848876954,-2.555211721801758,9.561124619750975,6.3893650938452735,1.2908834609613185,13.745870868068788,-0.9692526387532548,1.738133400472005,8.756336533610027,2.2968292236328125,1.990509033203125,0.383758544921875,-2.473226407679116,11.63519882574314,-0.2969881383384147,4.498073032924108,-8.112589518229166,-5.009605771019345,-10.122831450956449,6.300494547890383,-1.6262909544159505,-38.46489395378285,29.737891737891733,7.545024368374619,29.86572618084883,33.02863389942193,30.728337376823312,1577399411.0,-27.69021942911841,-51.12590479777783,7.0376015
40609,1577399411.49,-1.3636175555419914,2.328959664916992,12.550285392456054,-2.500305670314881,0.496008509789444,9.05203851333246,1.928928470865885,-5.999926365152993,10.840489078776042,7.744216918945312,5.469512939453125,0.475311279296875,4.850992342320884,0.4505064429306404,-1.0141512242759148,4.131862095424108,-3.977457682291667,-4.460289364769345,-8.947859943256148,6.95875517229684,-2.358121883903131,-28.533752393011653,-15.606145706145703,-11.150282317795009,29.91364902506964,33.07655674364273,30.728337376823312,1577399411.0,-27.69021942911841,-51.12590479777783,7.0376015
40610,1577399411.5,0.8270769635009765,-0.364517202758789,8.033623960571289,3.1691638609351176,0.5750171645745997,10.856069464260193,0.7306305399576816,-1.4126359842936198,7.384458982340495,1.3813018798828125,0.1289367675781251,0.749969482421875,4.362711092320884,5.9284117163681405,-0.9378572789634148,3.582545689174107,0.0050862630208333,11.042640322730657,-10.665125992971973,7.6170157967033,-3.089952813390304,-35.243983177316515,-65.22344322344321,-10.890109063713126,29.86572618084883,32.88486536675951,30.728337376823312,1577399411.0,-27.69021942911841,-51.12590479777783,7.0376015
40611,1577399411.51,-0.7339425189208975,-2.375646597290039,5.622662888793944,-1.5713554261742562,-5.245287071265244,5.411654889064882,2.325168845621744,13.359588258870446,8.732394517008464,-3.3489227294921875,-1.549530029296875,0.109100341796875,7.536539217320884,-9.66607070550686,0.7406095179115852,5.840846470424108,-7.349650065104167,-7.084801083519345,-8.495947824909878,5.360122227309728,-0.8131454772079686,-40.61216780476041,29.737891737891733,7.545024368374619,29.86572618084883,32.789019678317906,30.728337376823312,1577399411.0,-27.69021942911841,-51.12590479777783,7.0376015
40612,1577399411.52,1.784757627563477,0.3908534210205078,6.583934855346679,-3.716560113674256,-0.1576085434332117,6.010205304103945,-0.8423599507649736,-8.992678440348307,4.647886484781901,3.4259796142578125,3.028106689453125,0.154876708984375,4.820474764195884,1.2287046851181402,-1.4261385289634148,2.605983189174107,-24.317423502604168,-12.333824521019343,-9.038242366925402,5.924345619658121,-1.4636618589743529,-21.2867031459624,29.737891737891733,6.9503426447588845,29.841764758738428,32.98071105520113,30.5845688441609,1577399411.0,-27.69021942911841,-51.12590479777783,7.0376015
40613,1577399411.53,0.6068104107666015,4.129399313354492,10.245866294555665,3.8132041075171488,1.3758776198968652,9.61228170180902,-1.0817801167805985,3.779190315755211,9.176518924967448,11.330032348632812,5.438995361328125,-0.074005126953125,-2.625814298304116,5.48590683355564,1.488290181974085,3.033229282924107,-17.786661783854168,6.724403018043155,-8.495947824909878,6.488569012006514,-1.4636618589743595,-21.018293914590213,-17.030565730565726,7.284851114292736,30.201186090394465,32.95674963309072,30.728337376823315,1577399411.0,-27.69021942911841,-51.12590479777783,7.0376015
40614,1577399411.54,0.0920570538330078,1.356913790893555,10.300932932739256,-3.946403473049256,6.991477613793349,8.6557981385766,2.306015232340494,-1.6759981669108073,10.09469526163737,10.414505004882812,3.730010986328125,0.475311279296875,5.369791170445884,-0.9990785180068598,-2.2501131383384148,2.117701939174107,-24.378458658854168,-3.3311389741443453,-9.399772061602416,6.676643476122644,-2.602065527065524,-21.2867031459624,-64.27382987382987,7.545024368374619,30.009494713511245,33.12447958786354,30.728337376823312,1577399411.0,-27.69021942911841,-51.12590479777783,7.0376015
40615,1577399411.55,-0.7914033587646475,1.1605892547607422,13.614508030395507,2.261761431735899,-1.9676249985113363,5.734872113185976,-0.5957571797688799,-8.983101633707681,4.860970432535806,-1.3042449951171875,3.699493408203125,-0.714874267578125,-2.808919767054116,16.60956406011814,1.0457852991615852,-0.2931867327008928,-33.716837565104164,4.542396182105655,-9.038242366925402,7.052792404354905,-1.3010327635327552,-40.07534934201602,30.21269841269841,7.024677860210852,30.009494713511245,33.02863389942193,30.392877467277685,1577399411.0,-27.69021942911841,-51.12590479777783,7.0376015
40616,1577399411.56,-0.8823830218505858,-1.6693571075439453,7.602667661743163,-1.3678482850609748,-5.123182786597275,3.9272498597680072,2.7058469095865885,13.010034816487632,3.474727671305338,-8.079147338867188,-7.714080810546876,0.826263427734375,-3.693929532679116,-8.68950820550686,0.9237149866615852,4.009791782924108,-46.04593912760416,-9.617760067894343,-9.309389637933164,6.770680708180709,-1.707605502136746,-39.00171241652724,26.41424501424502,7.024677860210852,29.93761044718004,32.98071105520113,30.5845688441609,1577399411.0,-27.69021942911841,-51.12590479777783,7.0376015
40617,1577399411.57,1.2700042706298829,-0.4171896392822265,8.024047153930663,0.475686993259337,0.3128520827874904,8.561227173000427,-0.8100382283528647,-8.0134499613444,9.438684006754556,1.0150909423828125,-2.739715576171875,1.146697998046875,3.2030431235708843,0.87775253668064,0.6490567835365852,1.9345964704241072,-49.17399088541666,3.855750674293156,-9.399772061602416,6.676643476122644,-2.2768073361823347,-40.07534934201602,18.81733821733821,8.957393461961988,30.009494713511245,33.00467247731153,30.680414532602512,1577399411.0,-27.69021942911841,-51.12590479777783,7.0376015
40618,1577399411.58,-0.6118382342529286,4.560355612182617,8.182064463500975,-2.6798707948266,0.2589825454339747,7.231248150783632,3.527058079020182,10.88637794392904,11.368410544840494,9.102249145507812,8.094024658203125,-0.318145751953125,-5.586019376429116,-5.82085586175686,0.4049161585365852,2.331324986049107,-37.25687662760416,3.5658336821056547,-8.31518297757137,7.052792404354905,-2.2768073361823347,-40.61216780476041,18.34253154253154,9.477739970125754,29.86572618084883,33.12447958786354,30.728337376823312,1577399411.0,-27.69021942911841,-51.12590479777783,7.0376015
40619,1577399411.59,1.751238804321289,1.639429586791992,10.2985387310791,4.078960491794493,4.365038392601943,5.239272369533632,1.8032328837076816,-3.1220959696451818,4.741260349527994,0.3742218017578124,-4.509735107421875,1.207733154296875,0.0292149985708842,1.4423277319931402,0.6490567835365852,0.1950945172991072,-42.87211100260416,2.7418590727306547,-9.94206660361794,5.7362711555419885,-1.138403668091164,-33.096709326338974,26.889051689051684,8.437046953798218,29.86572618084883,32.98071105520113,30.872105909485725,1577399411.0,-27.69021942911841,-51.12590479777783,7.0376015
40620,1577399411.6,1.502241831665039,0.5883750579833984,5.554428141479492,-1.323555554348084,-2.287250920142196,7.433558191066835,1.635638767496744,-0.9397811564127608,13.02519809366862,-6.019210815429688,-0.130462646484375,0.643157958984375,-0.8405359779916158,-1.47210097894436,2.159676900724085,-0.2168927873883928,-29.001871744791664,3.916785830543155,-9.49015448527167,5.454159459367794,-1.3823473112535574,-29.875798549872624,-17.74277574277574,8.065370876538386,29.91364902506964,33.028633899421926,30.752298798933715,1577399411.0,-27.69021942911841,-51.12590479777783,7.0376015
40621,1577399411.61,2.6155456036376954,-0.6206967803955078,7.767867576293944,3.164375457614805,1.1663849746331931,11.82093273330316,-0.4090094502766924,2.118811464436849,10.540016770426432,-1.2737274169921875,1.715850830078125,0.933074951171875,-2.290120938929116,9.04120468511814,1.8697599085365848,-0.9340558733258928,-2.4058024088541665,1.3380504789806549,-11.02665568764899,6.488569012006514,-3.089952813390304,-21.2867031459624,29.737891737891733,7.99103566108642,29.86572618084883,32.98071105520113,30.728337376823312,1577399411.0,-27.69021942911841,-51.12590479777783,7.0376015
40622,1577399411.62,-0.2263717669677724,-1.2000935821533203,10.341634360961914,0.988046148532774,-2.0250858383550865,7.796279742580507,0.4050191141764316,4.615963795979817,5.902448154703776,3.5785675048828125,1.197052001953125,1.177215576171875,-1.954427579554116,-3.5625550805068595,2.388558736661585,-0.2931867327008928,4.369099934895833,-4.399254208519345,-8.31518297757137,6.300494547890383,-1.951549145299146,-39.53853087927163,34.48595848595849,7.0990130756628185,29.86572618084883,33.02863389942193,30.728337376823312,1577399411.0,-27.69021942911841,-51.12590479777783,7.0376015
40623,1577399411.63,-1.2463016741943358,-1.3485340850830076,10.123762009887692,-3.467563141018006,1.8918280776605367,8.224841839748475,3.88618832804362,-5.145196372477214,6.1873581522623695,2.8461456298828125,7.544708251953125,0.353240966796875,-3.541341642054116,-4.53911758050686,-0.7852693883384148,0.3171648297991072,-18.427530924479168,-6.718590146019345,-8.495947824909878,4.983973299077471,-3.089952813390304,-36.31762010280528,30.68750508750508,-9.700745616481662,29.96157186929044,33.12447958786354,30.680414532602512,1577399411.0,-27.69021942911841,-51.12590479777783,7.0376015
40624,1577399411.64,-0.5687426043701171,3.966593600463867,8.924266978149413,-0.119272119289491,2.883027564965225,5.641498248439882,-1.2745133504231765,-1.0810390543619794,3.644715989176432,-0.4955291748046875,3.440093994140625,0.017547607421875,-1.5271814858041155,-0.4497621117568597,1.427255025724085,-2.124241420200893,-49.67753092447917,3.031776064918155,-7.8632708592251,5.642233923483927,-2.032863693019935,-20.213066220473625,25.93943833943834,7.3220187220187185,29.93761044718004,33.12447958786354,30.680414532602512,1577399411.0,-27.69021942911841,-51.12590479777783,7.0376015
40625,1577399411.65,-0.5974730242919911,1.8596961395263671,7.712800938110351,-1.2313787904320683,2.492772694359756,9.204070318752382,-0.5742093648274736,-3.105336558024088,16.508761509195963,-8.384323120117188,-7.866668701171875,-0.165557861328125,-5.555501798304116,-8.29277968988186,0.4354337366615852,-3.650120326450893,-34.907023111979164,10.523841494605657,-8.676712672248383,5.548196691425858,-0.9757745726495664,-21.2867031459624,25.93943833943834,6.9503426447588845,29.72195764818641,33.12447958786354,30.5845688441609,1577399411.0,-27.69021942911841,-51.12590479777783,7.0376015
40626,1577399411.66,0.5900509991455077,3.0400375579833985,8.098267405395507,0.0495190977515241,-0.2078867782964929,5.378136065822694,1.5063518778483065,-0.1341322977701821,18.989154429117832,-12.931442260742188,-13.939666748046877,-0.348663330078125,-3.419271329554116,-2.5859925805068595,3.609261861661585,-8.624485560825892,12.883504231770834,24.40933954148065,-8.13441813023286,6.112420083774249,-3.089952813390304,-22.8971585341956,26.41424501424502,11.782131649136725,29.86572618084883,32.98071105520113,30.680414532602512,1577399411.0,-27.69021942911841,-51.12590479777783,7.0376015
40627,1577399411.67,3.121919254760742,-3.740341543579101,8.762658366088866,1.610538580173399,-3.4568184311285246,3.5753022157250385,2.277284812418619,15.672387062581382,12.98689086710612,-9.620285034179688,-1.168060302734375,0.566864013671875,-15.290609220179116,2.8461363257431405,2.266488424161585,-9.356907435825892,44.56075032552084,-0.0962756928943452,-9.219007214263907,5.360122227309728,-2.439436431623926,-34.70716471457212,34.96076516076515,7.024677860210852,29.93761044718004,33.12447958786354,30.5366459999401,1577399411.0,-27.69021942911841,-51.12590479777783,7.0376015
40628,1577399411.68,3.1446641705322267,3.0400375579833985,10.284173521118165,1.5961733702124614,2.940488404808975,13.62137238174066,0.4373408365885415,0.1926762288411454,14.003229471842449,-5.759811401367188,2.570343017578125,-1.416778564453125,-5.036702970179116,3.792181247618141,2.922616353849085,-6.717136928013392,50.52693684895834,-15.660240536644343,-7.953653282894354,6.300494547890383,-2.9273237179487124,-22.36034007145119,27.838665038665035,7.099013075662818,30.009494713511245,33.00467247731153,30.5845688441609,1577399411.0,-27.69021942911841,-51.12590479777783,7.0376015
40629,1577399411.69,1.8015170391845703,2.625840670776367,11.593801829223631,0.3799189268530866,1.566216651879287,10.4179305604516,-0.7011020528157549,-10.000637339274084,2.8402642313639315,0.1605987548828124,7.270050048828125,-0.745391845703125,-7.478109220179116,4.1889097632431405,1.3204435022865852,-10.363987513950892,36.47359212239584,-8.641197567894345,-9.580536908940926,6.112420083774249,-1.7889200498575484,-40.61216780476041,17.392918192918195,7.0990130756628185,30.009494713511245,32.83694252253871,30.680414532602512,1577399411.0,-27.69021942911841,-51.12590479777783,7.0376015
40630,1577399411.7,0.3889380596923827,1.534084713745117,10.408672007446288,2.314433868259336,0.6516316176995998,14.239076410060974,0.6635928934733066,-6.100482834879557,12.874363389078775,-10.062789916992188,-0.0846862792968748,-0.897979736328125,-9.583822110804116,5.7147886694931405,-0.3275057164634147,-10.547092982700892,29.942830403645832,7.166907900855655,-7.772888435555846,6.488569012006514,-2.439436431623926,-40.61216780476041,11.695238095238096,10.072421693741486,30.009494713511245,33.17240243208434,30.5845688441609,1577399411.0,-27.69021942911841,-51.12590479777783,7.0376015
40631,1577399411.71,1.8122909466552732,-1.686116519165039,7.70681543395996,0.3703421202124616,-1.6683497909918052,12.704393145900818,-0.0163603780110673,-2.133290684000651,12.64212582804362,-14.274215698242188,7.651519775390624,-1.859283447265625,-7.935872892054116,0.6488707007431402,2.419076314786585,-10.394505092075892,38.45723470052084,12.202308291480657,-8.495947824909878,5.7362711555419885,-3.089952813390304,-40.61216780476041,25.93943833943834,8.734387815606086,29.79384191451762,32.88486536675951,30.728337376823312,1577399411.0,-27.69021942911841,-51.12590479777783,7.0376015
40632,1577399411.72,-0.6357802508544912,-2.346916177368164,8.450215049438476,0.9808635435523058,-0.8016487900152429,9.31300649428949,1.7050706156412754,4.753630391438803,10.824926767985026,-5.546188354492188,4.706573486328125,-0.379180908203125,-8.241048673304116,3.776922458555641,0.6032804163490852,-9.784153529575892,45.24739583333334,-1.088096981956844,-8.495947824909878,5.7362711555419885,-3.089952813390304,-37.39125702829406,20.716564916564916,7.6193595838265855,29.86572618084883,32.88486536675951,30.608530266271305,1577399411.0,-27.69021942911841,-51.12590479777783,7.0376015
40633,1577399411.73,-0.2048239520263662,0.2747346405029297,10.913848557739255,-1.638393072658631,0.0746290176019435,11.263083746486757,1.231018686930338,-0.0623062479654947,5.375723789469401,-8.048629760742188,3.333282470703125,-1.050567626953125,-5.708089688929116,3.853216403868141,0.0692227991615852,-7.922581263950892,36.22945149739584,-18.284752255394345,-10.122831450956449,6.676643476122644,-2.2768073361823347,-33.633527789083345,24.51501831501832,7.024677860210852,30.009494713511245,32.98071105520113,30.680414532602512,1577399411.0,-27.69021942911841,-51.12590479777783,7.0376015
40634,1577399411.74,1.119169566040039,3.1022868011474607,9.771814365844726,1.2011300962866802,4.221386292992569,8.543270660549256,2.1647573343912754,-14.075568564860022,0.9536333231608072,-3.0132293701171875,6.293487548828125,-0.592803955078125,-7.325521329554116,3.792181247618141,2.754769674161585,-8.258274623325892,3.239949544270833,-2.6597522553943453,-9.580536908940926,6.112420083774249,-2.439436431623926,-40.61216780476041,26.889051689051684,-10.592768201905258,29.96157186929044,32.98071105520113,30.680414532602512,1577399411.0,-27.69021942911841,-51.12590479777783,7.0376015
40635,1577399411.75,-1.0451887347412103,0.2531868255615234,11.536340989379882,2.059451391452696,0.4205911574945216,6.63868323989496,1.9301255716959635,-11.811850895182292,3.763228971354166,-9.711837768554688,3.989410400390624,-1.676177978515625,-10.636678556116616,5.5469419898056405,1.778207174161585,-9.662083217075892,-34.93754069010417,-1.484825497581845,-9.219007214263907,6.864717940238775,-2.7646946225071147,-40.61216780476041,26.41424501424501,-10.444097771001324,29.841764758738428,32.98071105520113,30.632491688381705,1577399411.0,-27.69021942911841,-51.12590479777783,7.0376015
40636,1577399411.76,-0.0827196673583974,0.8613140472412109,9.805333189086912,-1.0757556825219123,-0.9141762680425868,1.808381390529726,5.954778562418619,6.495412099202474,10.951819455973308,-16.227340698242188,-9.819793701171877,-0.745391845703125,-13.123861173304116,-7.19414687738186,1.6561368616615852,-7.495335170200892,-24.347941080729168,36.829993838355655,-9.219007214263907,6.864717940238775,-2.7646946225071147,-37.391257028294085,-65.22344322344321,8.734387815606086,29.817803336628028,32.88486536675951,30.680414532602512,1577399411.0,-27.69021942911841,-51.12590479777783,7.0376015
40637,1577399411.77,-0.7076063006591787,-0.3764882110595703,11.457332334594726,-1.006323834377381,0.4289708633050684,11.634185003810977,4.242924375406901,32.23786834920247,19.48954257609049,-8.536911010742188,-3.685760498046875,-0.684356689453125,-14.253011563929116,0.4352476538681402,-2.3721834508384148,-6.152561732700892,-10.889689127604166,-0.0352405366443452,-9.580536908940926,6.488569012006514,-1.138403668091164,-19.676247757729243,-63.7990231990232,8.957393461961988,29.86572618084883,33.02863389942193,30.5366459999401,1577399411.0,-27.69021942911841,-51.12590479777783,7.0376015
40638,1577399411.78,1.0760739361572265,2.920327474975586,8.8045568951416,0.6672231260718365,4.123224024926162,16.408223114162535,0.5941610453287753,-6.591294175211589,5.24883110148112,-3.654098510742188,-0.7255554199218749,0.627899169921875,-6.684652188929116,-5.45464492425686,3.304086080411585,-8.075169154575892,-13.971964518229166,-24.632408505394345,-8.31518297757137,6.676643476122644,-3.252581908831901,-23.433976996939982,29.737891737891733,6.9503426447588845,30.009494713511245,33.12447958786354,30.680414532602512,1577399411.0,-27.69021942911841,-51.12590479777783,7.0376015
40639,1577399411.79,0.9036914166259772,-2.6856957122802734,12.172001530151366,1.2526054319800397,-1.5665962204351656,6.710509289699647,0.8479464213053384,4.571671065266929,10.556776182047525,-12.000656127929688,-3.044891357421875,-0.409698486328125,-7.447591642054116,0.84723495855564,4.143319478849085,-9.097508021763392,10.030110677083334,5.610511416480656,-8.495947824909878,5.7362711555419885,-2.114178240740737,-23.433976996939982,33.536345136345126,9.10606389286592,29.98553329140084,33.05259532153234,30.872105909485725,1577399411.0,-27.69021942911841,-51.12590479777783,7.0376015
40640,1577399411.8,0.9204508282470704,-0.6063315704345703,5.215648606567382,0.0974031309546491,0.251799940453506,9.163368890529725,-0.4353456685384111,-12.694114206949866,12.13694927775065,-14.976119995117188,-0.6645202636718749,-0.287628173828125,-0.7642420326791157,5.9284117163681405,3.883920064786585,-8.868626185825892,-0.7273356119791667,-13.859703427269343,-8.495947824909878,5.7362711555419885,-2.114178240740737,-32.02307240085019,33.536345136345126,9.626410401029688,30.009494713511245,33.02863389942193,30.680414532602512,1577399411.0,-27.69021942911841,-51.12590479777783,7.0376015
40641,1577399411.81,0.678636460571289,1.993771432495117,14.165174412231444,1.2466199278296488,-3.643566160620712,5.63670984511957,0.3715002909342441,-30.22445876261393,4.585637241617838,-4.050827026367188,-0.1457214355468749,-2.088165283203125,-12.147298673304116,3.761663669493141,1.3814786585365852,-11.859348842075892,-11.133829752604166,10.371253603980657,-8.857477519586892,6.112420083774249,-2.7646946225071147,-27.728524698895075,25.93943833943834,6.9503426447588845,29.86572618084883,32.98071105520113,30.728337376823312,1577399411.0,-27.69021942911841,-51.12590479777783,7.0376015
40642,1577399411.82,-1.369603059692382,-0.3489548919677734,9.071510380249023,-1.9568218934594124,1.343555897484756,10.001339471584412,-4.979540419514974,22.99624994099935,12.56551137491862,-9.132003784179688,0.571441650390625,0.078582763671875,-9.705892423304116,-7.16362929925686,2.327523580411585,-8.166721888950892,6.322224934895833,15.528724307105657,-10.213213874625705,6.206457315832316,-2.520750979344725,-40.61216780476041,24.04021164021163,6.9503426447588845,29.93761044718004,32.98071105520113,30.680414532602512,1577399411.0,-27.69021942911841,-51.12590479777783,7.0376015
40643,1577399411.83,1.4184447735595704,-0.1777694732666015,11.577042417602538,0.1931711973608995,-2.101700291480088,7.935143438869569,3.1260293009440105,-5.838317753092447,18.8598675394694,-15.678024291992188,-9.667205810546877,-1.203155517578125,-9.599080899866616,6.66083359136814,3.227792135099085,-11.767796107700892,52.83101399739584,4.572913760230656,-10.84589084031048,6.300494547890383,-3.252581908831901,-39.53853087927163,-23.44045584045584,7.173348291114784,29.817803336628028,32.95674963309072,30.704375954712912,1577399411.0,-27.69021942911841,-51.12590479777783,7.0376015
40644,1577399411.84,0.199796128540039,-1.370081900024414,10.219530076293944,1.1867648863257427,0.9820314468011622,17.2749241151391,1.175952048746744,5.820247231038411,26.48539982706705,-5.302047729492188,1.654815673828125,0.414276123046875,-17.457357267054114,-16.22735000238186,3.456673971036585,-13.080051967075892,110.35664876302084,2.9249645414806547,-10.84589084031048,6.300494547890383,-3.252581908831901,-40.07534934201602,-60.95018315018314,9.700745616481653,29.67403480396561,33.02863389942193,30.680414532602512,1577399411.0,-27.69021942911841,-51.12590479777783,7.0376015
40645,1577399411.85,-0.5711368060302724,-3.07714768371582,12.410224595336912,-1.207436773830506,3.438482350121475,14.612571869045349,-1.1990959981282547,5.52097202351888,16.978025034586587,-9.299850463867188,0.7087707519531251,-1.142120361328125,-3.297201017054116,2.1442320288681405,1.4119962366615852,-12.713841029575892,137.36470540364584,-6.352379208519345,-9.219007214263907,7.240866868471035,-2.114178240740737,-36.31762010280528,24.04021164021163,9.329069539221818,29.62611195974481,32.88486536675951,30.680414532602512,1577399411.0,-27.69021942911841,-51.12590479777783,7.0376015
40646,1577399411.86,-1.1445481036376948,2.369661093139648,15.717814188842771,0.5139942198218366,-1.7952424789800865,18.35949746718988,1.3363635599772128,-0.986468088785807,8.399600486246744,-2.082443237304688,3.592681884765625,-0.135040283203125,-7.630697110804116,7.0575621069931405,-0.2664705602134147,-10.791233607700892,133.21431477864584,-7.786705380394345,-9.942066603617942,5.7362711555419885,-2.4394364316239256,-40.61216780476041,41.133251933251934,-10.890109063713126,29.91364902506964,32.83694252253871,30.728337376823312,1577399411.0,-27.69021942911841,-51.12590479777783,7.0376015
40647,1577399411.87,-0.9470264666748036,-1.96623811340332,15.558599778442382,2.531109118503477,-0.069023082007431,12.98331763930902,0.2589728129069013,-0.6105784281412763,5.807877189127604,-12.076950073242188,-3.838348388671875,0.597381591796875,-9.492269376429116,-1.7162416039443598,2.281747213224085,-8.197239467075892,97.96651204427084,-11.692955380394343,-9.94206660361794,6.112420083774249,-2.439436431623926,-22.36034007145119,37.33479853479852,-10.518432986453291,30.009494713511245,32.93278821098032,30.728337376823315,1577399411.0,-27.69021942911841,-51.12590479777783,7.0376015
40648,1577399411.88,1.4591462017822263,-5.064335061645507,7.466198167114257,-1.983158111721131,-2.6547608749761813,16.824814203029725,-3.365848500569661,-3.059846726481119,0.6328103006998695,-12.626266479492188,-0.7865905761718749,0.536346435546875,-8.271566251429116,4.6161558569931405,2.724252096036585,-6.396702357700892,40.68501790364584,3.626868838355655,-9.94206660361794,6.112420083774249,-2.439436431623926,-38.46489395378285,25.93943833943834,8.139706091990352,29.86572618084883,32.98071105520113,30.5845688441609,1577399411.0,-27.69021942911841,-51.12590479777783,7.0376015
40649,1577399411.89,-0.0635660540771474,-0.7739256866455078,12.9800445904541,2.2928860533179303,0.4193940566644434,16.45131874404535,1.4105838114420566,5.248033034261067,6.553671006266276,-2.0671844482421875,0.7392883300781251,0.383758544921875,2.2264806235708843,0.6793882788681402,0.8931974085365852,-2.093723842075893,2.751668294270833,-5.711510067894345,-9.580536908940926,6.112420083774249,-2.114178240740737,-38.46489395378285,41.133251933251934,-10.29542734009739,29.86572618084883,33.12447958786354,30.5845688441609,1577399411.0,-27.69021942911841,-51.12590479777783,7.0376015
40650,1577399411.9,0.0669179364013676,-0.5225345123291015,12.14446821105957,3.4109782286108987,-0.6149010605230555,12.455396173244567,0.8216102030436191,-12.02134354044596,12.184833310953776,1.7627716064453125,0.540924072265625,0.719451904296875,-2.412191251429116,0.3742124976181402,0.5575040491615852,-2.490452357700893,-13.880411783854166,0.7887340727306548,-10.032449027287198,5.4541594593677925,-1.8702345975783403,-40.61216780476041,41.133251933251934,-8.95739346196199,30.03345613562165,33.17240243208434,30.5845688441609,1577399411.0,-27.69021942911841,-51.12590479777783,7.0376015
40651,1577399411.91,-1.421078395385742,-1.3916297149658203,12.0223639263916,-0.550228418117616,-0.9776226120367282,10.824944842678162,0.3415727701822915,6.6654004170735695,14.203145310465494,0.8014678955078125,-1.793670654296875,1.421356201171875,0.9600011313833844,-4.47808242425686,1.2288907679115852,-1.2697492327008928,-2.5736490885416665,13.545081728980657,-9.94206660361794,5.360122227309728,-3.415211004273499,-36.3176201028053,40.18363858363858,-1.0035254086015528,29.86572618084883,33.07655674364273,30.608530266271305,1577399411.0,-27.69021942911841,-51.12590479777783,7.0376015
40652,1577399411.92,-2.4003068743896483,-4.834491702270507,9.735901340942382,-1.0685730775414437,0.4002404433831935,16.19035076308832,-3.2628978291829425,-6.488343503824869,16.118506638590492,-5.271530151367188,-6.371307373046875,2.092742919921875,0.3038732016958843,-6.18706679925686,-2.4637361852134148,1.0190691266741072,13.585408528645834,0.9718395414806548,-9.94206660361794,5.360122227309728,-3.415211004273499,-32.02307240085019,39.234025234025225,6.9503426447588845,30.05741755773205,32.88486536675951,30.680414532602512,1577399411.0,-27.69021942911841,-51.12590479777783,7.0376015
40653,1577399411.93,0.0106541973876953,-0.7236474517822266,15.0869420513916,2.508364202731993,-3.037833140601181,17.557439911037537,0.8910420511881504,-4.321591001383463,13.346021116129556,3.1513214111328125,-3.166961669921875,0.841522216796875,6.621011873570884,6.9354917944931405,2.205453267911585,2.270289829799107,9.282430013020834,7.502601260230655,-9.219007214263907,7.6170157967033,-2.439436431623926,-40.07534934201602,-63.7990231990232,-7.247683506566755,29.72195764818641,33.17240243208434,30.92002875370653,1577399411.0,-27.69021942911841,-51.12590479777783,7.0376015
40654,1577399411.94,-1.4857218402099608,-3.011307138061523,15.186301420288084,1.6356776976050396,1.3842573257074124,12.024439874416442,1.65120107828776,7.083188606770835,13.544739853922524,5.9284210205078125,-5.425262451171875,1.238250732421875,5.186685701695884,-7.850274807069359,-0.9988924352134148,8.373805454799108,-9.348551432291668,-9.373619442894343,-9.94206660361794,5.548196691425858,-2.9273237179487164,-32.02307240085019,22.140984940984943,7.396353937470683,29.93761044718004,33.028633899421926,30.5366459999401,1577399411.0,-27.69021942911841,-51.12590479777783,7.0376015
40655,1577399411.95,-1.708382594604492,0.9331400970458984,17.89534059875488,-0.2162372865258186,-1.560610716284774,8.339763519435975,0.905407261149088,-4.656779233805338,10.966184665934245,9.651565551757812,-7.134246826171875,2.611541748046875,14.433511873570884,-0.5718324242568598,0.4049161585365852,8.984157017299108,-19.343058268229168,-11.387779599144343,-9.94206660361794,5.360122227309728,-3.7404691951566944,-40.61216780476041,12.64485144485144,8.139706091990352,29.86572618084883,33.02863389942193,30.680414532602512,1577399411.0,-27.69021942911841,-51.12590479777783,7.0376015
40656,1577399411.96,0.1543062969970703,-1.5017629913330075,15.22101734436035,0.8060868223608991,-0.6412372787847742,13.817696917873477,-1.2517684346516922,-18.725108188883464,14.765782700602212,5.8368682861328125,-9.453582763671877,1.146697998046875,2.3485509360708843,-15.70855117425686,-2.5858064977134148,6.298610142299108,-16.138712565104168,6.617591494605655,-9.94206660361794,5.360122227309728,-3.7404691951566944,-37.391257028294085,14.544078144078146,8.139706091990352,30.05741755773205,32.98071105520113,30.680414532602512,1577399411.0,-27.69021942911841,-51.12590479777783,7.0376015
40657,1577399411.97,0.1207874737548828,-2.014122146606445,9.020035044555662,0.7845390074194928,5.339478468285536,13.908676580959412,-1.4887943990071608,-1.9680907694498695,13.25504145304362,5.8979034423828125,-10.247039794921877,1.818084716796875,8.360513826695884,-8.59795547113186,-1.9449373570884148,6.817408970424108,-12.934366861979166,22.60880243210565,-9.399772061602416,7.428941332587169,-2.9273237179487124,-37.391257028294085,22.140984940984943,6.9503426447588845,30.009494713511245,33.12447958786354,30.872105909485725,1577399411.0,-27.69021942911841,-51.12590479777783,7.0376015
