,timestamp,acc_x_dashboard,acc_y_dashboard,acc_z_dashboard,acc_x_above_suspension,acc_y_above_suspension,acc_z_above_suspension,acc_x_below_suspension,acc_y_below_suspension,acc_z_below_suspension,gyro_x_dashboard,gyro_y_dashboard,gyro_z_dashboard,gyro_x_above_suspension,gyro_y_above_suspension,gyro_z_above_suspension,gyro_x_below_suspension,gyro_y_below_suspension,gyro_z_below_suspension,mag_x_dashboard,mag_y_dashboard,mag_z_dashboard,mag_x_above_suspension,mag_y_above_suspension,mag_z_above_suspension,temp_dashboard,temp_above_suspension,temp_below_suspension,timestamp_gps,latitude,longitude,speed
50245,1577399507.85,0.4894945294189453,3.430292428588867,9.86518823059082,1.9553036192358988,3.883803858910537,11.54081113906488,1.709859018961588,1.699826173909505,8.394812082926432,1.7475128173828125,-0.6645202636718749,2.153778076171875,0.7921544516958843,1.2897398413681402,2.449593892911585,1.1716570172991072,-3.0161539713541665,1.4601207914806549,-2.7114727100776186,-19.08955810778728,2.4394364316239328,-5.182149263630755,-63.32421652421653,7.247683506566751,29.72195764818641,34.08293647227963,32.64525114565549,1577399507.0,-27.68706518505283,-51.12785153975735,2.206619
50246,1577399507.86,0.6044162091064452,3.0783447845458984,11.682387290649412,1.6967298399390238,0.9149938003167872,7.482639325100038,2.478397751871745,2.4444228902180987,8.76591334025065,1.6254425048828125,-0.6950378417968749,2.184295654296875,3.4166661704458843,3.944769138243141,2.388558736661585,0.5307878766741072,-4.358927408854167,1.6432262602306549,-2.7114727100776186,-19.08955810778728,2.4394364316239328,-5.182149263630755,-63.32421652421653,7.0990130756628185,29.817803336628028,34.08293647227963,32.83694252253871,1577399507.0,-27.68706518505283,-51.12785153975735,2.206619
50247,1577399507.87,2.020586491088867,2.021304751586914,9.016443742065428,1.2298605162085552,2.057027992211318,7.176181512600038,1.645215574137369,3.648706325276692,9.44347241007487,-1.3805389404296875,-2.861785888671875,1.818084716796875,-1.3135584389291155,-4.90532851800686,1.5645841272865852,1.1411394391741072,-3.3213297526041665,2.7723766508556547,-2.9826199810853824,-19.18359533984534,1.7076055021367562,-5.182149263630755,-63.32421652421653,7.0990130756628185,29.67403480396561,34.03501362805883,32.789019678317906,1577399507.0,-27.68706518505283,-51.12785153975735,2.206619
50248,1577399507.88,2.0529082135009764,1.505354293823242,8.924266978149413,2.533503320163633,3.567769239769912,9.560806366115662,1.8750589335123693,1.61363491414388,7.851328306070963,-0.7854461669921875,-1.396942138671875,0.811004638671875,1.7229405845083845,1.4423277319931402,1.0152677210365852,1.0801042829241072,-7.258097330729166,0.8039928617931548,-3.615296946770161,-19.277632571903403,1.6262909544159574,-33.36511855771116,-61.18758648758648,8.845890638784038,29.86572618084883,34.130859316500434,32.74109683409711,1577399507.0,-27.68706518505283,-51.12785153975735,2.206619
50249,1577399507.89,0.6953958721923827,1.909974374389648,6.872436155395507,-0.8315471131859749,0.3691158218011622,6.910425128322695,1.3076331400553378,2.006283986409505,10.29820240275065,1.4118194580078125,2.234649658203125,1.268768310546875,0.3954259360708843,-5.27153945550686,1.6561368616615852,1.6904558454241072,-6.098429361979167,2.6808239164806547,-3.615296946770161,-19.277632571903403,1.6262909544159574,-27.728524698895075,-65.22344322344321,8.88305824651002,29.67403480396561,34.03501362805883,32.64525114565549,1577399507.0,-27.68706518505283,-51.12785153975735,2.206619
50250,1577399507.9,1.3609839337158205,2.838924618530273,9.180446555786132,-0.2090546815453499,2.430523451195693,9.831351153713316,1.3172099466959628,1.141977187093098,9.68049837443034,2.1137237548828125,-0.8781433105468749,1.360321044921875,1.3414708579458845,0.1300718726181402,0.4964688929115852,0.5002702985491072,-1.1240641276041667,4.115150088355655,-3.615296946770161,-19.277632571903403,1.6262909544159574,-30.949435475361405,-65.22344322344321,7.0990130756628185,29.72195764818641,34.17878216072124,32.789019678317906,1577399507.0,-27.68706518505283,-51.12785153975735,2.206619
50251,1577399507.91,1.004247886352539,1.236006607055664,10.804912382202147,1.4692806822241802,0.4421389724359283,9.84212506118402,1.1304622172037753,2.2469012532552077,9.351295646158857,2.1747589111328125,0.312042236328125,2.260589599609375,1.3414708579458845,-1.3195130883193598,2.815804830411585,0.9427751813616072,-3.290812174479167,-0.0810169038318452,-3.2537672520931418,-20.029930428367926,1.626290954415961,-18.60261083224046,-61.424989824989815,7.0990130756628185,29.74591907029682,33.98709078383802,32.669212567765896,1577399507.0,-27.68706518505283,-51.12785153975735,2.206619
50252,1577399507.92,1.8733430889892575,1.0672153900146484,10.025599741821289,1.811651519626524,2.4401002578363182,9.898388800197694,2.0977196879069004,1.0701511372884105,8.50494535929362,-1.6704559326171875,-1.641082763671875,1.848602294921875,3.660806795445884,-0.5107972680068598,2.052865377286585,1.3242449079241072,-9.119669596354166,1.0023571196056549,-3.0730024047546336,-19.08955810778728,2.4394364316239328,-32.02307240085019,-57.62653642653642,7.396353937470683,29.817803336628028,34.08293647227963,32.64525114565549,1577399507.0,-27.68706518505283,-51.12785153975735,2.206619
50253,1577399507.93,1.2939462872314451,3.1956606658935547,9.822092600708007,1.6679994200171488,2.6436073989496,8.653403936916444,-0.7274382710774736,-0.3232742289225259,7.966249985758463,0.0385284423828124,2.234649658203125,1.696014404296875,-0.7337244545541157,4.0058042944931405,1.6866544397865852,1.3547624860491072,-11.896769205729166,4.054114932105655,-3.0730024047546336,-19.08955810778728,2.4394364316239328,-27.728524698895075,-59.52576312576312,7.247683506566751,29.72195764818641,34.03501362805883,32.83694252253871,1577399507.0,-27.68706518505283,-51.12785153975735,2.206619
50254,1577399507.94,0.1088164654541015,2.915539071655273,8.545983115844725,-1.9089378602562872,2.4401002578363182,8.7324125917016,0.4433263407389316,4.7380680806477855,9.97977358194987,2.7851104736328125,3.821563720703125,1.848602294921875,2.1654454673208843,-5.39360976800686,0.6490567835365852,1.2937273297991072,-11.377970377604166,5.702064150855655,-3.0730024047546336,-19.08955810778728,2.4394364316239328,-27.728524698895075,-59.52576312576312,7.247683506566751,29.86572618084883,34.03501362805883,32.789019678317906,1577399507.0,-27.68706518505283,-51.12785153975735,2.206619
50255,1577399507.95,1.0281899029541015,3.338115664672851,7.965389213256835,0.2338726255835557,2.788456599389053,8.068021631008241,1.2154563761393222,2.5413880574544265,8.68331338297526,-1.350021362304688,-0.878143310546875,1.909637451171875,-0.4132898842416158,1.2897398413681405,2.998910299161585,-0.2016339983258928,-5.488077799479167,1.1396862211681549,-3.8864442177779206,-19.5597442680776,2.683380074786326,-33.09670932633896,-58.57614977614977,7.099013075662818,29.79384191451762,33.939167939617214,32.74109683409711,1577399507.0,-27.68706518505283,-51.12785153975735,2.206619
50256,1577399507.96,1.8230648541259769,1.3018471527099609,7.609850266723632,1.8475645445288675,0.1895506972894435,7.209700335842226,0.8671000345865879,2.578498183186848,8.196093345133463,-3.1047821044921875,-0.6645202636718749,1.360321044921875,-3.053060392054116,2.6630308569931405,2.052865377286585,-1.0561261858258928,-5.457560221354167,0.2699352446056547,-2.349943015400604,-19.08955810778728,1.4636618589743662,-32.02307240085019,-63.32421652421653,-0.4831789004377853,29.67403480396561,33.939167939617214,32.789019678317906,1577399507.0,-27.68706518505283,-51.12785153975735,2.206619
50257,1577399507.97,2.01220678527832,1.926733786010742,7.219595396118163,1.7110950498999613,4.264481922875381,9.156186285549255,0.2685496195475254,0.3590732442220043,7.190528647867838,-3.867721557617188,-2.953338623046875,1.421356201171875,-2.045980313929116,-2.5859925805068595,1.1068204554115852,-1.4833722795758928,-10.523478190104166,1.5211559477306549,-2.349943015400604,-19.08955810778728,1.4636618589743662,-30.41261701261704,-59.05095645095645,-1.0035254086015548,30.009494713511245,34.08293647227963,32.88486536675951,1577399507.0,-27.68706518505283,-51.12785153975735,2.206619
50258,1577399507.98,0.7779958294677733,3.0316578521728514,9.344449369506837,0.221901617282774,3.58213444973085,9.062812420803162,1.899000950113932,2.391750453694661,9.97977358194987,1.9306182861328125,4.752349853515625,0.643157958984375,-1.3745935951791155,2.7851011694931405,1.6561368616615852,-1.9106183733258928,-9.150187174479166,2.8944469633556547,-3.1633848284238897,-18.99552087572921,2.0328636930199484,-30.41261701261704,-59.05095645095645,-1.0035254086015548,29.69799622607601,33.939167939617214,33.02863389942193,1577399507.0,-27.68706518505283,-51.12785153975735,2.206619
50259,1577399507.99,0.017836802368164,2.077568490600586,9.257061008911132,0.536739135593321,1.6260716933831934,10.573553668361756,0.906604361979166,3.335065907796224,11.316935209147134,-2.9827117919921875,-0.0846862792968748,0.749969482421875,-1.2067469154916155,-1.0753724633193595,1.595101705411585,-2.215794154575893,4.155476888020833,5.091712588355655,-2.349943015400604,-18.713409179555008,0.4878872863247865,-19.13942929498485,-55.72730972730972,-2.341559286736952,29.86572618084883,34.01105220594842,32.789019678317906,1577399507.0,-27.68706518505283,-51.12785153975735,2.206619
50260,1577399508.0,-0.68127008239746,2.7575217620849606,11.711117710571289,-2.0813203797875373,1.1544139663324122,10.32934509902582,0.9389260843912752,4.762010097249348,11.83767407023112,-1.0295867919921875,1.166534423828125,1.238250732421875,0.3343907798208843,-1.3042542992568598,0.5880216272865852,-2.307346888950893,8.580525716145834,-2.2630237397693453,-2.892237557416128,-20.78222828483245,0.9757745726495798,-37.391257028294085,-65.22344322344321,-1.07786062405352,29.67403480396561,33.939167939617214,32.64525114565549,1577399508.0,-27.68704723189884,-51.12783269562295,2.8181129
50261,1577399508.01,-0.5807136126708974,1.9961656341552731,10.514016880493164,0.8372114439429303,1.353132704125381,10.17372199111566,0.3427698710123691,-0.5148103617350259,8.916748044840496,-0.7854461669921875,3.424835205078125,1.085662841796875,-0.8863123451791157,1.2897398413681402,2.571664205411585,-1.8190656389508928,5.681355794270833,-4.338219052269345,-2.892237557416128,-21.15837721306471,0.9757745726495798,-13.234426204796588,-55.25250305250305,-1.3008662704094192,29.96157186929044,33.939167939617214,32.6931739898763,1577399508.0,-27.68704723189884,-51.12783269562295,2.8181129
50262,1577399508.02,0.4320336895751953,1.3736732025146483,10.47690675476074,1.2729561460913676,0.8742923720941309,8.236812848049256,1.7266184305826815,0.2393631612141918,7.966249985758463,-3.394699096679688,-1.686859130859375,1.772308349609375,0.9142247641958844,-0.9075257836318598,2.113900533536585,-0.9950910295758928,-0.8494059244791667,-0.8592151460193452,-2.7114727100776204,-20.218004892484057,0.813145477207982,-13.234426204796588,-55.25250305250305,-1.3008662704094192,29.91364902506964,34.08293647227963,32.64525114565549,1577399508.0,-27.68704723189884,-51.12783269562295,2.8181129
50263,1577399508.03,1.3442245220947266,2.7647043670654297,7.444650352172851,1.3974546324194932,2.163569966088272,8.08837234511957,1.8295691019694005,1.9739622639973955,7.93632246500651,-0.2056121826171875,-0.3898620605468749,1.146697998046875,-1.893392423304116,-1.77727676019436,1.839242330411585,-0.7662091936383928,-10.218302408854166,1.7652965727306549,-3.9768266414471753,-19.653781500135665,2.6020655270655304,-21.82352160870679,-55.252503052503045,2.861905794900717,29.72195764818641,33.891245095396414,32.90882678886992,1577399508.0,-27.68704723189884,-51.12783269562295,2.8181129
50264,1577399508.04,0.6546944439697265,4.258686203002929,9.587460838012694,1.2825329527319926,4.676284608422256,7.118720672756288,2.00195162150065,2.030226003011068,7.884847129313151,-0.1140594482421875,-0.9391784667968748,0.811004638671875,-1.2830408608041155,-2.2502992211318595,2.693734517911585,-0.2931867327008928,-13.727823893229166,1.5516735258556549,-2.7114727100776186,-19.46570703601953,2.114178240740744,-20.749884683218028,-56.2021164021164,7.024677860210852,29.86572618084883,34.08293647227963,32.88486536675951,1577399508.0,-27.68704723189884,-51.12783269562295,2.8181129
50265,1577399508.05,-0.5328295794677724,3.164536044311524,8.519646897583007,0.3535827085913678,4.0370327651605376,8.327792511135195,0.8503406229654941,3.3733731343587228,7.9135775492350255,0.5573272705078125,2.143096923828125,0.597381591796875,-1.893392423304116,-0.1751039086318597,0.9847501429115852,-0.7204328264508928,-14.338175455729166,2.3756481352306547,-3.9768266414471753,-19.653781500135665,2.927323717948719,-10.01351542833026,-53.35327635327634,7.024677860210852,29.96157186929044,33.891245095396414,32.789019678317906,1577399508.0,-27.68704723189884,-51.12783269562295,2.8181129
50266,1577399508.06,0.3578134381103515,2.7383681488037106,7.590696653442382,0.0255770811499621,1.474039887963272,7.3150452088891,0.887450748697916,0.9372729451497392,8.910762540690104,-1.8840789794921875,-3.319549560546875,1.116180419921875,-1.832357267054116,-2.26555801019436,1.625619283536585,-2.002171107700893,-11.759440104166666,3.047034853980655,-2.349943015400604,-19.8418559642518,1.4636618589743662,-8.939878502841475,-65.22344322344321,7.693694799278553,29.62611195974481,34.17878216072124,32.7171354119867,1577399508.0,-27.68704723189884,-51.12783269562295,2.8181129
50267,1577399508.07,1.089242045288086,1.255160220336914,8.105450010375975,1.225072112888243,2.3060249648675684,9.800226532131289,0.8000623881022129,4.898479591878254,9.352492746988933,-6.538009643554688,-6.981658935546875,0.765228271484375,-3.785482267054116,-4.78325820550686,0.7406095179115852,-2.032688685825893,-6.128946940104167,3.4742809477306547,-2.892237557416128,-20.029930428367926,1.788920049857555,-40.61216780476041,-65.22344322344321,6.9503426447588845,29.76988049240722,34.08293647227963,32.6931739898763,1577399508.0,-27.68704723189884,-51.12783269562295,2.8181129
50268,1577399508.08,1.2077550274658202,2.345719076538086,10.016022935180665,2.077407903903868,4.123224024926162,12.347657098537535,0.0578598734537753,3.4739296040852854,8.718029307047525,2.1442413330078125,0.3120422363281251,0.505828857421875,-3.480306485804116,0.5878355444931402,1.7782071741615852,-1.6664777483258928,-6.251017252604167,1.1854625883556549,-1.626883626046571,-19.8418559642518,2.4394364316239328,-5.718967726375147,-57.15172975172975,7.916700445634452,29.817803336628028,34.27462784916285,32.64525114565549,1577399508.0,-27.68704723189884,-51.12783269562295,2.8181129
50269,1577399508.09,-0.3221398333740224,3.621828561401367,12.276149302368164,-0.5322719056664437,2.2988423598871,9.649391827541445,0.7378131449381503,2.5713155782063795,13.051534311930338,4.2194366455078125,6.690216064453125,0.109100341796875,1.0362950766958845,-0.0835511742568597,1.1373380335365852,-2.154758998325893,-5.091349283854167,2.0094371977306547,-2.892237557416128,-18.52533471543888,1.951549145299146,-5.718967726375147,-57.15172975172975,7.916700445634452,29.62611195974481,34.27462784916285,33.02863389942193,1577399508.0,-27.68704723189884,-51.12783269562295,2.8181129
50270,1577399508.1,0.4152742779541015,0.4782417816162109,10.154886631469726,0.5714550596655866,-0.7753125717535243,11.148162066799255,1.1783462504069004,3.718138173421223,13.855986069742835,-1.8230438232421875,-0.5119323730468749,0.322723388671875,-3.358236173304116,-0.9685609398818598,1.0457852991615852,-2.032688685825893,4.369099934895833,-2.7207874116443453,-3.0730024047546336,-20.59415382071632,1.4636618589743662,-40.07534934201602,-57.15172975172975,9.99808647828952,29.72195764818641,34.03501362805883,32.98071105520113,1577399508.0,-27.68704723189884,-51.12783269562295,2.8181129
50271,1577399508.11,0.8079233502197265,2.1326351287841794,10.08904608581543,0.3559769102515245,2.6112856765374906,11.498912610012146,0.0770134867350258,0.1340182881673177,13.578258677164714,-5.576705932617188,-4.601287841796875,0.933074951171875,-0.947347501429116,-0.6176087914443595,1.198373189786585,-2.536228724888393,25.136311848958336,-1.0728381928943451,-3.0730024047546336,-20.59415382071632,1.4636618589743662,-22.360340071451198,-54.3028897028897,10.07242169374149,29.889687602959235,34.10689789439003,32.81298110042831,1577399508.0,-27.68704723189884,-51.12783269562295,2.8181129
50272,1577399508.12,1.930803928833008,2.1015105072021485,9.312127647094725,0.7701737974585553,0.8958401870355372,9.208858722072694,1.6954938090006504,3.493083217366536,11.610224912516276,-0.0835418701171875,1.349639892578125,0.719451904296875,-2.320638517054116,-5.24102187738186,0.2828458460365852,-2.337864467075893,36.44307454427084,-0.4930042085193452,-2.349943015400604,-19.8418559642518,2.114178240740744,-6.255786189119516,-64.27382987382987,9.477739970125754,29.67403480396561,34.08293647227963,32.88486536675951,1577399508.0,-27.68704723189884,-51.12783269562295,2.8181129
50273,1577399508.13,1.8015170391845703,1.3904326141357422,11.69675250061035,1.409425640720274,2.224622108422256,11.066759210353943,2.4065717020670565,1.1156409688313793,8.164968723551432,-1.7314910888671875,-1.519012451171875,0.872039794921875,-2.320638517054116,0.2826597632431402,2.388558736661585,-2.154758998325893,32.56734212239584,1.0939098539806549,-2.169178168062095,-19.653781500135665,1.6262909544159574,-6.255786189119516,-64.27382987382987,9.477739970125754,29.62611195974481,34.08293647227963,32.64525114565549,1577399508.0,-27.68704723189884,-51.12783269562295,2.8181129
50274,1577399508.14,0.467946714477539,1.6083049652099608,9.51324058654785,1.2226779112280863,1.4907992995843653,9.570383172756287,1.5075489786783849,4.060509010823567,6.331010251871745,1.0456085205078125,4.615020751953125,0.566864013671875,1.3719884360708845,-0.7701966820693598,1.3662198694740852,-1.0256086077008928,15.019734700520832,-0.7218860444568453,-3.253767252093146,-18.90148364367114,1.951549145299146,-5.182149263630755,-65.22344322344321,10.518432986453288,29.67403480396561,34.10689789439003,32.7171354119867,1577399508.0,-27.68704723189884,-51.12783269562295,2.8181129
50275,1577399508.15,0.8737638958740235,2.3780407989501957,8.949406095581054,0.1237393492163678,2.8447203384027246,10.619043499904723,0.5223349955240879,-0.4118596903483071,8.883229221598308,-0.8922576904296875,-1.259613037109375,1.177215576171875,-0.5506189858041157,-1.1516664086318598,1.2899259241615852,-0.7204328264508928,3.087361653645833,1.3685680571056549,-3.253767252093146,-18.90148364367114,1.951549145299146,-6.255786189119516,-54.77769637769637,10.221092124645423,29.91364902506964,34.08293647227963,32.6931739898763,1577399508.0,-27.68704723189884,-51.12783269562295,2.8181129
50276,1577399508.16,0.1088164654541015,2.436698739624023,11.246642588500976,0.8874896788062115,1.9899903457269437,8.528905450588319,1.3315751566569003,0.2441515645345043,8.564800400797525,2.3883819580078125,0.9834289550781252,1.329803466796875,1.5245763266958845,-0.2666566430068597,1.9918302210365848,-1.1781964983258928,-3.0771891276041665,2.6503063383556547,-3.7960617941086654,-19.08955810778728,2.114178240740744,-28.80216162438384,-57.62653642653642,9.923751262837555,29.67403480396561,34.17878216072124,32.6931739898763,1577399508.0,-27.68704723189884,-51.12783269562295,2.8181129
50277,1577399508.17,1.1814188092041014,1.2898761444091795,9.752660752563475,0.6097622862280866,1.0634343032464746,9.869658380275816,1.4201606180826816,4.42203346150716,13.736275986735023,-1.4873504638671875,-3.014373779296875,1.970672607421875,-1.3745935951791155,-3.4404847680068595,1.6561368616615852,-0.7814679827008928,0.0966389973958333,1.1549450102306549,-1.2653539313695563,-20.59415382071632,1.1384036680911775,-28.80216162438384,-57.62653642653642,9.923751262837555,29.72195764818641,34.22670500494204,32.789019678317906,1577399508.0,-27.68704723189884,-51.12783269562295,2.8181129
50278,1577399508.18,0.7863755352783203,2.925115878295898,12.063065354614256,1.703912444919493,2.740572566185928,10.687278247219178,1.4189635172526034,2.963964650472005,13.227508133951822,0.7404327392578125,-2.297210693359375,2.153778076171875,0.7463780845083843,0.4199888648056404,2.052865377286585,0.0425066266741072,9.572347005208334,2.1162487211681547,-0.903824236692542,-19.8418559642518,3.089952813390324,-4.108512338141983,-56.2021164021164,10.072421693741486,29.69799622607601,34.01105220594842,32.7171354119867,1577399508.0,-27.68704723189884,-51.12783269562295,2.8181129
50279,1577399508.19,1.7344793927001954,2.1158757171630858,10.50204587219238,0.7653853941382428,3.7305749526605374,12.254283233791442,1.3435461649576816,2.255280959065755,11.131384580485026,-1.6704559326171875,-3.868865966796875,1.604461669921875,0.8226720298208843,-9.78814101800686,2.052865377286585,0.4392351422991072,18.681844075520832,2.4366832914806547,-0.903824236692542,-19.8418559642518,3.089952813390324,-31.4862539381058,-57.15172975172975,9.99808647828952,29.67403480396561,34.17878216072124,32.789019678317906,1577399508.0,-27.68704723189884,-51.12783269562295,2.8181129
50280,1577399508.2,0.736097300415039,1.0313023651123046,9.3791652935791,2.3120396665991803,2.3922162246331933,10.561582660060974,0.8287928080240878,2.9855124654134104,8.746759726969401,-2.1587371826171875,-4.753875732421875,2.062225341796875,2.6232091391958843,6.9965269507431405,1.9002774866615848,0.0425066266741072,16.789754231770832,2.4672008696056547,-2.530707862739113,-20.029930428367926,0.9757745726495798,-6.255786189119516,-60.47537647537647,10.518432986453288,29.62611195974481,33.891245095396414,32.597328301434686,1577399508.0,-27.68704723189884,-51.12783269562295,2.8181129
50281,1577399508.21,1.2556390606689454,0.3178302703857422,7.942644297485351,-1.315175848537537,-1.098529795874618,7.530523358303163,2.2174297709147126,1.7788348286946614,7.341363352457682,-0.0530242919921875,-1.244354248046875,1.207733154296875,5.766519686070884,-7.7739808617568595,2.113900533536585,1.2021745954241072,8.275349934895834,-1.866295224144345,-1.2653539313695563,-21.34645167718084,1.4636618589743662,-6.255786189119516,-60.47537647537647,10.518432986453288,29.72195764818641,34.08293647227963,32.597328301434686,1577399508.0,-27.68704723189884,-51.12783269562295,2.8181129
50282,1577399508.22,2.5389311505126955,1.7172411407470702,8.79258588684082,2.897421972507383,2.182723579369522,9.444687585598084,0.946108689371744,1.0282526082356769,8.47262363688151,1.9763946533203125,-1.732635498046875,1.726531982421875,-1.847616056116616,-1.2889955101943595,0.7100919397865852,1.5531267438616072,4.079182942708333,-1.9425891694568451,-2.259560591731348,-20.50011658865825,1.5449764066951586,-22.897158534195583,-59.05095645095645,8.585717384702152,29.79384191451762,34.202743582831644,32.83694252253871,1577399508.0,-27.68704723189884,-51.12783269562295,2.8181129
50283,1577399508.23,2.019389390258789,4.021660238647461,10.710341416625976,1.3663300108374614,3.7712763808831937,9.929513421779724,0.5630364237467441,2.0948694478352863,8.387629477945962,7.9120635986328125,5.469512939453125,1.024627685546875,0.5480138266958843,4.0058042944931405,1.2594083460365852,1.1106218610491072,-1.8259684244791667,1.5516735258556549,-1.446118778708062,-20.029930428367926,2.2768073361823418,-6.255786189119516,-53.82808302808303,6.9503426447588845,29.86572618084883,34.03501362805883,32.789019678317906,1577399508.0,-27.68704723189884,-51.12783269562295,2.8181129
50284,1577399508.24,0.8270769635009765,3.317764950561523,9.178052354125976,1.4309734556616802,4.7121976333246,10.18090459609613,-0.3802790303548173,2.2959823872884115,7.307844529215495,0.7099151611328125,4.340362548828125,0.292205810546875,-0.8252771889291157,-2.0366761742568595,-0.6021639195884148,0.3781999860491072,-9.913126627604166,4.023597353980655,-1.446118778708062,-18.14918578720662,1.951549145299146,-5.718967726375147,-64.74863654863654,7.619359583826587,29.67403480396561,34.17878216072124,32.597328301434686,1577399508.0,-27.68704723189884,-51.12783269562295,2.8181129
50285,1577399508.25,0.9683348614501952,1.026513961791992,8.97693941467285,-0.0606141786156624,2.746558070336319,12.2183702088891,0.8790710428873691,3.756445399983723,10.312567612711588,-3.0437469482421875,-0.3593444824218749,-0.531768798828125,2.7757970298208843,5.0128843726181405,2.235970846036585,0.6833757672991072,-15.009562174479166,1.5211559477306549,-0.903824236692542,-19.08955810778728,0.8131454772079753,-5.718967726375147,-64.74863654863654,7.619359583826587,29.86572618084883,34.08293647227963,32.83694252253871,1577399508.0,-27.68704723189884,-51.12783269562295,2.8181129
50286,1577399508.26,0.4428075970458984,2.2846669342041013,11.00722242248535,1.2837300535620708,1.3375703933343652,8.332580914455505,1.9181545633951815,2.110431758626301,11.954989951578776,0.252151489257812,-1.625823974609375,0.109100341796875,-1.7408045326791155,2.4341490210556405,-0.1291414586509147,0.3476824079241072,-3.031412760416667,1.0481334867931549,-2.259560591731348,-19.183595339845333,1.5449764066951586,-16.992155444007313,-55.25250305250306,3.7539283803243135,29.79384191451762,34.17878216072124,32.64525114565549,1577399508.0,-27.68704723189884,-51.12783269562295,2.8181129
50287,1577399508.27,-1.229542262573242,2.925115878295898,13.279319797973631,0.1812001890601178,6.055344764672255,11.600666180568789,0.4457205423990878,0.960017860921223,10.1641271097819,8.522415161132812,7.514190673828125,0.688934326171875,0.8226720298208843,-3.1353089867568595,-1.8533846227134148,0.3781999860491072,3.056844075520833,4.481361025855655,-1.446118778708062,-18.90148364367114,2.2768073361823418,-35.243983177316515,-65.22344322344321,6.9503426447588845,29.72195764818641,34.08293647227963,32.789019678317906,1577399508.0,-27.68704723189884,-51.12783269562295,2.8181129
50288,1577399508.28,0.142335288696289,0.5859808563232421,8.845258323364257,-0.5155124940453499,-0.4161823227300867,10.62143770156488,-0.0211487813313798,5.042131691487629,8.615078635660806,-1.1211395263671875,-1.152801513671875,0.780487060546875,7.078775545445884,3.944769138243141,-0.5411287633384148,0.8664812360491072,-1.3987223307291667,3.1080700102306547,-1.8076484733850768,-19.653781500135665,1.951549145299146,-6.255786189119516,-64.27382987382987,6.9503426447588845,29.62611195974481,34.17878216072124,32.6931739898763,1577399508.0,-27.68704723189884,-51.12783269562295,2.8181129
50289,1577399508.29,0.4751293194580077,-0.1586158599853515,9.151716135864255,0.7079245542944929,0.7162750625238185,8.974226959377381,4.69064008585612,3.641523720296223,7.813021079508463,-7.7129364013671875,-10.247039794921877,0.994110107421875,-1.4051111733041155,1.4118101538681402,1.2899259241615852,2.880641392299107,-4.755655924479167,-5.406334286644345,-2.349943015400604,-20.97030274894858,2.114178240740744,-35.780801640060886,-64.74863654863654,7.024677860210852,29.62611195974481,34.22670500494204,32.64525114565549,1577399508.0,-27.68704723189884,-51.12783269562295,2.8181129
50290,1577399508.3,1.5525200665283203,1.1941080780029296,8.541194712524414,1.8008776121558208,2.8040189101800688,10.414339257961364,1.1615868387858066,-0.1604685160319014,9.559591190592448,-0.3582000732421875,-6.523895263671875,0.902557373046875,2.0128575766958843,-2.4944398461318595,0.8016446741615852,2.361842564174107,-5.930582682291667,-4.307701474144345,-3.9768266414471753,-21.15837721306471,2.2768073361823418,-5.987376957747332,-58.338746438746426,7.136180683388801,29.817803336628028,34.10689789439003,32.7171354119867,1577399508.0,-27.68704723189884,-51.12783269562295,2.8181129
50291,1577399508.31,0.6930016705322265,3.048417263793945,11.24424838684082,1.3495705992163676,1.9445005141839744,10.331739300685976,0.2086945780436191,-1.2881374979654947,10.721976096598306,8.263015747070312,3.195953369140625,0.597381591796875,1.5856114829458845,-2.7690980492568595,-1.0904451695884148,1.0495867047991072,-5.182902018229167,5.824134463355655,-2.349943015400604,-20.029930428367926,2.4394364316239328,-5.718967726375147,-47.65559625559625,-1.7468775631212232,29.69799622607601,34.08293647227963,32.64525114565549,1577399508.0,-27.68704723189884,-51.12783269562295,2.8181129
50292,1577399508.32,0.8270769635009765,2.118269918823242,9.376771091918943,0.2410552305640241,2.7202218520746,8.421166375881288,0.6300740702311192,4.225708925374348,9.122649387613931,1.7475128173828125,-1.213836669921875,0.078582763671875,2.2264806235708843,-3.1047914086318595,-1.6397615758384148,1.5683855329241072,-4.023234049479167,6.159827822730655,-2.7114727100776186,-19.8418559642518,2.114178240740744,-1.9612384871644155,-46.23117623117623,-2.564564933092851,29.86572618084883,34.22670500494204,32.64525114565549,1577399508.0,-27.68704723189884,-51.12783269562295,2.8181129
50293,1577399508.33,1.4471751934814454,2.0919337005615235,8.021652952270507,0.5882144712866804,1.8559150527581931,9.503345526271913,2.8207685892740884,6.57442075398763,8.701269895426432,-4.813766479492188,-8.751678466796875,0.749969482421875,0.2733556235708843,-0.0835511742568597,0.5880216272865852,2.636500767299107,-9.638468424479166,1.0328746977306549,-2.169178168062095,-20.029930428367926,1.6262909544159574,-5.182149263630755,-45.28156288156288,-0.1858380386299179,29.86572618084883,34.17878216072124,32.64525114565549,1577399508.0,-27.68704723189884,-51.12783269562295,2.8181129
50294,1577399508.34,0.056144028930664,3.1022868011474607,10.346422764282226,-0.3670719911156624,2.3323611831292874,10.165342285305115,-0.4796383992513021,1.2293655476888017,9.809785264078776,0.0690460205078124,-3.777313232421875,1.207733154296875,2.7147618735708843,-1.7009828148818595,1.2594083460365852,2.209254673549107,-12.507120768229166,-0.7066272553943451,-3.0730024047546336,-20.97030274894858,1.1384036680911775,-40.075349342016025,-49.08001628001628,-0.1858380386299179,29.817803336628028,34.17878216072124,32.64525114565549,1577399508.0,-27.68704723189884,-51.12783269562295,2.8181129
50295,1577399508.35,0.6870161663818358,2.4295161346435545,10.308115537719726,1.33520538925543,2.332361183129287,9.21125292373285,0.7880913798014316,0.0741632466634105,10.982944077555338,5.1502227783203125,1.151275634765625,1.299285888671875,-0.1233728920541157,-1.1821839867568598,-0.4190584508384147,1.7514910016741072,-6.189982096354167,3.840491885230655,-2.7114727100776204,-19.653781500135665,1.6262909544159572,-40.61216780476041,-50.029629629629625,6.9503426447588845,29.817803336628028,34.22670500494204,32.64525114565549,1577399508.0,-27.68704723189884,-51.12783269562295,2.8181129
50296,1577399508.36,1.1909956158447266,2.0919337005615235,10.820474692993162,1.4142140440405864,1.4249587539300683,10.496939215236756,1.1974998636881504,6.617516383870442,10.166521311442056,0.7404327392578125,-1.000213623046875,1.543426513671875,-1.923910001429116,1.5949156226181402,1.1068204554115852,1.8125261579241072,-4.267374674479167,1.9789196196056549,-2.892237557416128,-18.90148364367114,1.3010327635327683,-36.31762010280528,-49.08001628001628,6.9503426447588845,29.67403480396561,34.03501362805883,32.6931739898763,1577399508.0,-27.68704723189884,-51.12783269562295,2.8181129
50297,1577399508.37,1.847006870727539,2.1685481536865234,8.067142783813475,-0.1970836732445686,2.818384120141006,8.610308307033632,2.303621030680338,1.6423653340657551,8.801826365152994,-1.1821746826171875,-2.892303466796875,1.757049560546875,5.888589998570884,-4.44756484613186,0.0387052210365852,2.178737095424107,-6.098429361979167,0.9718395414806548,-2.7114727100776186,-19.8418559642518,2.4394364316239328,-34.17034625182773,-50.029629629629625,8.88305824651002,29.86572618084883,33.891245095396414,32.789019678317906,1577399508.0,-27.68704723189884,-51.12783269562295,2.8181129
50298,1577399508.38,1.6482881329345702,2.36247848815918,8.765052567749022,-0.148002539211366,1.2884892593011623,9.49736002212152,0.6061320536295566,1.531034956868489,8.034484733072917,-0.938034057617188,-2.526092529296875,1.696014404296875,1.3719884360708845,-0.2513978539443597,2.297006002286585,1.6446794782366072,-7.273356119791667,1.5058971586681549,-1.084589084031049,-20.029930428367926,1.4636618589743664,-4.913740032258559,-49.31741961741962,6.987510252484869,29.91364902506964,34.15482073861084,32.669212567765896,1577399508.0,-27.68704723189884,-51.12783269562295,2.8181129
50299,1577399508.39,1.4184447735595704,1.2204442962646485,8.737519248657225,0.9784693418921492,2.9835840346917872,8.90479511123285,0.905407261149088,2.6479300313313794,9.261513083902996,1.5033721923828125,1.563262939453125,1.665496826171875,2.1044103110708843,2.9682066382431405,2.693734517911585,1.2021745954241072,-4.175821940104167,0.6971813383556548,-2.7114727100776186,-19.46570703601953,1.788920049857555,2.333309214790685,-50.029629629629625,6.9503426447588845,29.86572618084883,34.03501362805883,32.789019678317906,1577399508.0,-27.68704723189884,-51.12783269562295,2.8181129
50300,1577399508.4,1.1119869610595703,2.015319247436523,8.902719163208006,0.9138258970679304,2.444888661156631,8.811421246486757,1.175952048746744,-0.7015580912272134,9.172927622477214,3.700637817382813,5.133819580078125,1.360321044921875,1.3109532798208845,2.9071714819931405,0.8321622522865852,0.4392351422991072,-4.328409830729167,2.5587536039806547,-2.7114727100776186,-19.46570703601953,1.788920049857555,2.333309214790685,-50.029629629629625,6.9503426447588845,29.96157186929044,34.08293647227963,32.64525114565549,1577399508.0,-27.68704723189884,-51.12783269562295,2.8181129
50301,1577399508.41,1.1742362042236327,2.405574118041992,9.82688100402832,0.2434494322241803,0.2398289321527247,9.807409137111756,0.6276798685709629,2.973541457112629,8.813797373453776,0.8014678955078125,0.0373840332031251,2.001190185546875,1.7687169516958845,1.83905624761814,1.6866544397865852,1.0801042829241072,-5.304972330729167,2.8944469633556547,-2.169178168062095,-19.277632571903403,1.6262909544159574,-6.255786189119516,-50.029629629629625,8.139706091990352,29.86572618084883,33.891245095396414,32.789019678317906,1577399508.0,-27.68704723189884,-51.12783269562295,2.8181129
50302,1577399508.42,0.9659406597900392,3.4386721343994138,9.86518823059082,0.8024955198706647,3.8778183547601466,10.562779760891052,0.7461928507486978,4.748841988118489,9.084342161051431,0.6946563720703125,1.929473876953125,1.634979248046875,-0.0470789467416155,3.609075778868141,2.251229635099085,1.2174333844866072,-5.564371744791667,-0.8439563569568452,-2.259560591731351,-18.99552087572921,2.032863693019945,-4.108512338141966,-55.25250305250305,7.3220187220187185,29.86572618084883,34.08293647227963,32.64525114565549,1577399508.0,-27.68704723189884,-51.12783269562295,2.8181129
50303,1577399508.43,0.0920570538330078,3.303399740600586,9.692805711059568,-0.1468054383812874,3.3091954604730374,9.673333844143007,-0.6196991963704424,-0.6273378397623696,10.231164756266276,1.4118194580078125,4.370880126953125,1.573944091796875,2.0433751548208843,-0.3276917992568597,1.5035489710365852,0.8969988141741072,-7.593790690104167,3.2606579008556547,-2.169178168062095,-17.773036858974358,1.6262909544159574,-5.718967726375147,-58.10134310134311,7.024677860210852,29.86572618084883,34.08293647227963,32.789019678317906,1577399508.0,-27.68704723189884,-51.12783269562295,2.8181129
50304,1577399508.44,1.691383762817383,1.4071920257568358,8.775826475219725,0.2841508604468366,1.7194455581292871,7.781914532619569,0.6348624735514317,0.768481728108723,9.575153501383465,-4.020309448242188,-3.533172607421875,1.940155029296875,0.7311192954458843,1.1676695288681402,2.266488424161585,-0.2016339983258928,-4.023234049479167,5.732581728980655,-2.169178168062095,-17.773036858974358,1.6262909544159574,-5.718967726375147,-58.10134310134311,7.024677860210852,29.72195764818641,34.17878216072124,32.6931739898763,1577399508.0,-27.68704723189884,-51.12783269562295,2.8181129
50305,1577399508.45,1.7991228375244142,0.7152677459716796,8.265861521606444,1.371118414157774,2.3515147964105374,8.780296624904725,3.327142240397136,5.060088203938801,8.917945145670572,-2.6775360107421875,-2.037811279296875,1.757049560546875,0.6395665610708844,0.9540464819931403,0.9084561975990852,0.4239763532366072,-0.3916422526041667,0.1326061430431546,-1.446118778708062,-19.653781500135665,2.6020655270655304,-6.255786189119516,-63.32421652421652,7.099013075662818,29.72195764818641,34.08293647227963,32.62128972354509,1577399508.0,-27.68704723189884,-51.12783269562295,2.8181129
50306,1577399508.46,1.672230149536133,3.298611337280273,10.02440264099121,0.7534143858374616,4.1136472182855375,8.035699908596131,2.547829600016276,2.3869620503743487,9.25911888224284,3.2886505126953125,5.973052978515624,0.582122802734375,-0.8863123451791157,2.9987242163681405,0.5880216272865852,0.2866472516741072,-3.809611002604168,-2.4461292085193453,-2.259560591731348,-18.431297483380817,1.2197182158119664,-6.255786189119516,-61.42498982498982,6.9503426447588845,29.93761044718004,34.17878216072124,32.64525114565549,1577399508.0,-27.68704723189884,-51.12783269562295,2.8181129
50307,1577399508.47,1.6147693096923827,1.7016788299560546,8.416696226196288,2.3407700865210552,2.0546337905511622,9.781072918850038,0.2924916361490878,-0.3663698588053384,7.638244358317057,-2.4639129638671875,0.2510070800781251,0.017547607421875,-0.1538904701791157,3.3954527319931405,1.6866544397865852,-0.4762922014508928,0.0356038411458333,-0.4319690522693452,-3.0730024047546336,-19.08955810778728,1.788920049857555,-4.108512338141983,-65.22344322344321,7.0990130756628185,30.009494713511245,34.17878216072124,32.789019678317906,1577399508.0,-27.68704723189884,-51.12783269562295,2.8181129
50308,1577399508.48,0.4128800762939452,2.3529016815185546,8.086296397094726,0.3607653135718366,2.2222279067621,11.823326934963315,0.7904855814615879,3.2345094380696606,9.697257786051432,-1.0906219482421875,0.9834289550781252,0.536346435546875,1.3414708579458845,-0.3582093773818597,0.4354337366615852,-0.6899152483258928,0.0356038411458333,3.3827282133556547,-3.0730024047546336,-19.08955810778728,1.788920049857555,-6.255786189119516,-65.22344322344321,6.9503426447588845,29.72195764818641,34.27462784916285,32.83694252253871,1577399508.0,-27.68704723189884,-51.12783269562295,2.8181129
50309,1577399508.49,0.783981333618164,2.6138696624755857,11.996027708129882,0.4732927915991803,0.5654403579339747,8.73959519668207,2.67951069132487,4.486676906331379,10.899147019449869,-1.0906219482421875,-0.8781433105468749,0.505828857421875,-1.0999353920541155,2.5409605444931405,0.9847501429115852,-0.4152570452008928,3.8503011067708335,0.3920055571056547,-3.253767252093146,-19.277632571903403,1.6262909544159574,-5.182149263630755,-58.57614977614978,7.693694799278552,29.62611195974481,33.939167939617214,32.88486536675951,1577399508.0,-27.68704723189884,-51.12783269562295,2.8181129
50310,1577399508.5,1.2592303631591797,2.813785501098633,9.733507139282226,1.75658488144293,3.616850373803116,9.275896368557069,1.6895083048502595,2.3151360005696606,8.730000315348306,0.6488800048828125,1.593780517578125,0.902557373046875,-0.825277188929116,1.0455992163681405,1.991830221036585,0.0119890485491072,0.1881917317708332,-0.0504993257068452,-2.2595605917313497,-19.93589319630986,3.1712673611111155,-27.191706236150686,-59.52576312576312,7.545024368374618,29.76988049240722,34.08293647227963,32.789019678317906,1577399508.0,-27.68704723189884,-51.12783269562295,2.8181129
50311,1577399508.51,0.2524685650634765,2.319382858276367,10.087848984985351,1.1628228697241805,2.052239588891006,9.512922332912538,2.203064560953776,1.967976759847005,7.920760154215494,-0.7244110107421875,0.2204895019531251,0.414276123046875,2.6842442954458843,-0.2971742211318597,1.0763028772865852,0.7444109235491072,-6.128946940104167,0.1478649321056547,-2.530707862739113,-20.406079356600188,2.927323717948719,-28.80216162438384,-57.62653642653642,8.139706091990352,29.86572618084883,34.17878216072124,32.789019678317906,1577399508.0,-27.68704723189884,-51.12783269562295,2.8181129
50312,1577399508.52,0.3290830181884765,0.8948328704833984,8.126997825317382,1.1676112730444927,1.6691673232660058,9.09633124404535,1.693099607340494,3.1962022115071607,8.361293259684244,-2.1282196044921875,-1.885223388671875,0.170135498046875,-4.334798673304116,-0.8159730492568598,-0.8157869664634148,1.0190691266741072,-10.737101236979166,-0.6150745210193452,-2.530707862739113,-20.406079356600188,2.927323717948719,-28.80216162438384,-57.62653642653642,8.139706091990352,29.817803336628028,34.17878216072124,32.6931739898763,1577399508.0,-27.68704723189884,-51.12783269562295,2.8181129
50313,1577399508.53,0.2704250775146489,3.375225790405273,9.42345802429199,-0.8459123231469123,4.456018055687881,9.745159893947694,1.999557419840494,1.3790031514485677,7.427554612223307,1.3660430908203125,0.418853759765625,-0.287628173828125,-0.1538904701791157,-4.93584609613186,-0.7242342320884148,0.8664812360491072,-14.948527018229166,0.1783825102306547,-2.169178168062095,-19.46570703601953,2.4394364316239328,-5.718967726375147,-60.0005698005698,7.024677860210852,29.76988049240722,34.08293647227963,32.6931739898763,1577399508.0,-27.68704723189884,-51.12783269562295,2.8181129
50314,1577399508.54,0.8342595684814452,1.771110678100586,7.554783628540038,1.1963416929663675,2.204271394310928,7.0852018495141005,2.3395340555826816,3.0824776326497387,7.836963096110026,0.0385284423828124,-4.204559326171875,0.139617919921875,-0.2454432045541157,-1.21270156488186,0.3286222132240852,0.4087175641741072,-17.786661783854168,-0.0962756928943452,-3.0730024047546336,-18.33726025132275,1.788920049857555,-28.80216162438385,-57.15172975172975,0.1115028231779479,29.86572618084883,33.91520651750682,32.789019678317906,1577399508.0,-27.68704723189884,-51.12783269562295,2.8181129
50315,1577399508.55,0.8629899884033202,2.9083564666748045,9.817304197387694,1.9505152159155863,2.751346473656631,7.34138142715082,1.3603055765787753,-0.5938190165201822,9.223205857340496,-2.8301239013671875,-7.653045654296875,-0.074005126953125,-1.954427579554116,0.0080015601181402,0.5575040491615852,-0.4152570452008928,-14.032999674479166,2.8334118071056547,-1.9884133207235888,-19.46570703601953,2.114178240740744,-35.243983177316515,-56.67692307692308,-0.1858380386299179,29.86572618084883,34.17878216072124,32.789019678317906,1577399508.0,-27.68704723189884,-51.12783269562295,2.8181129
50316,1577399508.56,1.080862339477539,2.972999911499023,9.058342271118162,1.1747938780249616,3.539038819848037,8.538482257228944,2.0498356547037755,2.851437172444661,9.158562412516275,1.0150909423828125,-3.380584716796875,0.017547607421875,-0.2149256264291157,-2.2502992211318595,-0.2664705602134147,-0.2931867327008928,-11.042277018229166,5.122230166480655,-1.9884133207235888,-19.46570703601953,2.114178240740744,-36.31762010280528,-52.87846967846967,-2.4158945021889204,29.72195764818641,34.08293647227963,32.6931739898763,1577399508.0,-27.68704723189884,-51.12783269562295,2.8181129
50317,1577399508.57,1.4806940167236329,2.9550433990478515,7.888774760131835,1.2873213560523051,2.5933291640863185,9.323780401760194,0.4337495340983066,4.079662624104817,9.699651987711588,-0.5870819091796875,-2.754974365234375,-0.409698486328125,-3.693929532679116,-4.26445937738186,-0.0528475133384147,-0.8425031389508928,-8.783976236979166,2.0094371977306547,-2.259560591731351,-18.807446411613075,2.0328636930199453,-35.243983177316515,-65.22344322344321,-2.4158945021889204,29.86572618084883,34.27462784916285,32.64525114565549,1577399508.0,-27.68704723189884,-51.12783269562295,2.8181129
50318,1577399508.58,1.2580332623291015,1.639429586791992,9.223542185668943,0.0195915769995714,1.5410775344476466,10.171327789455503,0.8994217569986972,3.7325033833821606,9.98575908610026,-2.9521942138671875,-4.265594482421875,0.170135498046875,-1.0389002358041155,-2.8759095726943595,-0.0681063024009147,-0.4762922014508928,-2.5736490885416665,-2.736046200706845,-2.530707862739113,-18.52533471543888,2.6020655270655304,-13.77124466754098,-50.97924297924297,-1.6725423476692534,29.5302662713032,34.058975050169224,32.64525114565549,1577399508.0,-27.68704723189884,-51.12783269562295,2.8181129
50319,1577399508.59,1.3346477154541017,2.6138696624755857,8.919478574829101,0.3344290953101179,2.351514796410537,13.025216168361757,0.0674366800944003,-0.7326827128092446,11.571917685953776,0.8625030517578125,0.9834289550781252,-0.135040283203125,-0.5506189858041157,-4.14238906488186,0.1912931116615852,-1.1171613420758928,0.1271565755208333,-3.2090686616443453,-2.892237557416128,-19.653781500135665,2.927323717948719,-18.06579236949609,-51.92885632885632,-0.9291901931495864,29.86572618084883,33.939167939617214,32.789019678317906,1577399508.0,-27.68704723189884,-51.12783269562295,2.8181129
50320,1577399508.6,0.9491812481689452,2.9466636932373045,11.866740818481444,1.8379877378882423,2.9117579848871,10.470602996975035,-0.3994326436360673,-3.6296667215983063,10.398758872477211,0.7404327392578125,0.5867004394531251,-0.012969970703125,-2.290120938929116,3.2733824194931405,0.8321622522865852,-2.459934779575893,5.742390950520833,3.0775524321056547,-2.349943015400604,-19.08955810778728,1.788920049857555,-21.2867031459624,-65.22344322344321,7.545024368374619,29.817803336628028,33.939167939617214,32.789019678317906,1577399508.0,-27.68704723189884,-51.12783269562295,2.8181129
50321,1577399508.61,1.4220360760498048,1.311423959350586,10.069892472534178,0.7653853941382428,0.050687001000381,11.014086773830506,3.608460935465495,5.212120009358723,10.429883494059244,-2.524948120117188,-1.290130615234375,0.032806396484375,0.5480138266958843,3.0902769507431405,0.5880216272865852,-1.3307843889508928,7.878621419270833,3.2606579008556547,-1.988413320723588,-19.08955810778728,2.276807336182338,-14.84488159302974,-64.27382987382987,6.9503426447588845,29.841764758738428,34.17878216072124,32.64525114565549,1577399508.0,-27.68704723189884,-51.12783269562295,2.8181129
50322,1577399508.62,1.1814188092041014,2.6114754608154294,9.529999998168943,1.9600920225562115,2.8722536574945217,10.352090014797302,1.416569315592448,0.3279486226399736,12.202789823404949,-2.3723602294921875,-1.274871826171875,-0.043487548828125,-2.396932462366616,2.3578550757431405,0.7863858850990852,-2.047947474888393,18.66658528645833,-0.9202503022693452,-1.626883626046571,-19.08955810778728,1.788920049857555,-27.46011546752288,-54.54029304029304,7.582191976100603,29.86572618084883,34.130859316500434,32.76505825620751,1577399508.0,-27.68704723189884,-51.12783269562295,2.8181129
50323,1577399508.63,0.5493495709228515,2.4774001678466795,8.644145383911132,-0.6136747621117561,0.654025819359756,9.1154848573266,1.3770649881998691,4.7380680806477855,10.075541648356118,-0.2056121826171875,2.295684814453125,-0.043487548828125,-1.1304529701791155,-0.8770082055068598,0.4354337366615852,-1.2392316545758928,27.562459309895832,0.7887340727306548,-2.530707862739113,-20.029930428367926,2.927323717948719,-40.07534934201602,-56.2021164021164,8.065370876538386,29.817803336628028,34.17878216072124,32.789019678317906,1577399508.0,-27.68704723189884,-51.12783269562295,2.8181129
50324,1577399508.64,-0.0922964739990224,2.838924618530273,9.12537991760254,-0.0247011537133186,2.7489522719964747,11.660521222072694,-0.0953690327962236,3.96234674275716,7.858510911051431,3.5175323486328125,4.462432861328125,0.444793701171875,-2.747884610804116,-5.30205703363186,0.2218106897865852,-1.9411359514508928,21.489461263020832,-1.3474963960193451,-3.253767252093146,-18.52533471543888,2.927323717948719,-6.255786189119516,-65.22344322344321,9.329069539221818,29.96157186929044,34.17878216072124,32.789019678317906,1577399508.0,-27.68704723189884,-51.12783269562295,2.8181129
50325,1577399508.65,0.563714780883789,3.201646170043945,10.763013853149412,1.2334518186987895,1.846338246117569,9.174142798000428,0.3703031901041665,3.7061671651204415,7.03610264078776,-1.5331268310546875,0.800323486328125,0.704193115234375,-1.3745935951791155,3.30389999761814,2.083382955411585,-1.1171613420758928,5.360921223958334,-2.156212216331845,-2.621090286408368,-19.371669803961467,2.520750979344732,-20.21306622047363,-51.92885632885633,9.329069539221818,29.69799622607601,34.01105220594842,32.81298110042831,1577399508.0,-27.68704723189884,-51.12783269562295,2.8181129
50326,1577399508.66,3.321835093383789,1.962646810913086,7.1381925396728505,2.034312274021055,3.709027137719131,8.059641925197694,-0.3539428120930986,-1.0942071634928383,5.658239585367839,-9.421920776367188,-7.927703857421875,1.177215576171875,-5.189290860804116,-0.3887269555068597,1.9613126429115848,-1.2087140764508928,-10.401407877604166,-2.0494006928943453,-2.892237557416128,-22.28682399776149,0.9757745726495798,-1.9612384871644155,-50.029629629629625,9.329069539221818,29.86572618084883,34.08293647227963,32.789019678317906,1577399508.0,-27.68704723189884,-51.12783269562295,2.8181129
50327,1577399508.67,2.366548630981445,2.7527333587646483,8.445426646118163,3.183529070896055,2.6771262221917875,12.950995916896913,0.9987811258951816,0.3064008076985668,8.162574521891276,-4.020309448242188,0.6782531738281251,1.543426513671875,0.7311192954458843,8.40033554449314,2.388558736661585,-0.7509504045758928,-17.786661783854168,4.206702822730655,-1.446118778708062,-19.277632571903403,1.951549145299146,-1.9612384871644155,-50.029629629629625,9.329069539221818,29.817803336628028,34.17878216072124,32.64525114565549,1577399508.0,-27.68704723189884,-51.12783269562295,2.8181129
50328,1577399508.68,1.8254590557861328,2.491765377807617,7.363247495727538,0.3559769102515241,0.9102053969964748,7.999786883693788,1.3842475931803375,4.108393044026692,9.9725909769694,1.9611358642578125,7.056427001953125,1.085662841796875,0.8531896079458843,0.5573179663681402,2.022347799161585,-0.9950910295758928,-19.373575846354168,3.809974307105655,-3.434532099431652,-20.97030274894858,2.4394364316239328,-6.255786189119516,-56.67692307692308,10.518432986453288,29.67403480396561,34.17878216072124,32.83694252253871,1577399508.0,-27.68704723189884,-51.12783269562295,2.8181129
50329,1577399508.69,0.127970078735352,2.4474726470947266,9.48810146911621,1.1364866514624614,3.3858099135980373,8.661783642726991,1.3902330973307284,1.7094029805501298,9.293834806315104,1.5338897705078125,4.203033447265625,1.284027099609375,-2.808919767054116,3.3344175757431405,1.991830221036585,-0.8730207170758928,-16.367594401041668,5.381629580543155,-2.349943015400604,-20.029930428367926,2.602065527065527,-17.79738313812389,-54.065486365486365,10.183924516919438,29.86572618084883,34.130859316500434,32.7171354119867,1577399508.0,-27.68704723189884,-51.12783269562295,2.8181129
50330,1577399508.7,-1.02603512145996,1.9291279876708984,8.349658579711914,-0.8746427430687874,1.0610401015863185,7.853740582424256,3.390588584391276,5.147476564534505,10.609448618570964,-0.2971649169921875,3.363800048828125,1.116180419921875,2.4401036704458843,1.5338804663681402,3.731332174161585,-0.7509504045758928,-11.286417643229166,0.4530407133556547,-1.0845890840310477,-19.277632571903403,3.252581908831915,-31.4862539381058,-52.403663003663,9.849416047385589,29.67403480396561,34.370473537604454,32.789019678317906,1577399508.0,-27.68704723189884,-51.12783269562295,2.8181129
50331,1577399508.71,0.9874884747314452,1.713649838256836,8.292197739868163,1.56504874863043,2.7058566421136625,4.315110528713319,1.7457720438639317,-0.7949319559733071,12.10582465616862,-6.278610229492188,-7.805633544921875,1.512908935546875,-6.684652188929116,1.5643980444931402,1.5340665491615852,-1.5138898577008928,0.3407796223958333,1.2464977446056549,-2.530707862739113,-19.653781500135665,2.927323717948719,-35.243983177316515,-51.92885632885632,9.626410401029688,29.72195764818641,33.939167939617214,32.789019678317906,1577399508.0,-27.68704723189884,-51.12783269562295,2.8181129
50332,1577399508.72,1.0293870037841797,1.4059949249267578,9.802938987426757,3.4636506651343364,1.075405311547256,13.025216168361757,2.751336741129557,4.893691188557941,10.147367698160808,-2.448654174804688,-2.846527099609375,1.436614990234375,-2.076497892054116,3.670110935118141,2.449593892911585,-0.6899152483258928,3.8197835286458335,1.1549450102306549,-2.169178168062095,-20.029930428367926,2.927323717948719,-37.391257028294085,-55.72730972730972,10.221092124645423,29.91364902506964,33.939167939617214,32.6931739898763,1577399508.0,-27.68704723189884,-51.12783269562295,2.8181129
50333,1577399508.73,1.9451691387939452,4.249109396362305,9.271426218872069,1.1436692564429305,2.6124827773675685,7.751987011867616,0.3918510050455727,1.0162815999348953,9.50691875406901,1.6864776611328125,1.319122314453125,1.848602294921875,-0.4590662514291157,-1.88408828363186,2.129159322599085,-0.9493146623883928,4.018147786458333,-0.0199817475818453,-1.9884133207235888,-18.713409179555008,2.4394364316239328,-26.386478542034112,-60.237973137973135,9.66357800875567,29.72195764818641,34.22670500494204,32.54940545721388,1577399508.0,-27.68704723189884,-51.12783269562295,2.8181129
50334,1577399508.74,1.9355923321533204,3.1980548675537106,9.300156638793943,2.968050921481993,3.960418312035537,10.231182830959412,1.9540675882975251,7.603927467854817,8.265525193277995,-2.6165008544921875,-2.037811279296875,1.451873779296875,-4.823079923304116,-0.3276917992568597,2.327523580411585,-1.0866437639508928,5.742390950520833,3.657386416480655,-1.446118778708062,-19.277632571903403,1.6262909544159574,-25.044432385173145,-60.0005698005698,9.99808647828952,29.72195764818641,34.08293647227963,32.789019678317906,1577399508.0,-27.68704723189884,-51.12783269562295,2.8181129
50335,1577399508.75,1.4663288067626954,0.9977835418701172,8.663298997192381,2.438932354587461,1.7122629531488185,6.958309161525819,2.693875901285807,1.9033333150227865,9.206446445719402,-3.623580932617188,-2.648162841796875,1.024627685546875,1.8907872641958845,0.5268003882431402,3.395638814786585,-2.215794154575893,5.009969075520833,-1.2254260835193451,-2.169178168062095,-18.52533471543888,3.5778400997151034,-32.02307240085019,-57.62653642653642,9.329069539221818,29.72195764818641,34.17878216072124,32.789019678317906,1577399508.0,-27.68704723189884,-51.12783269562295,2.8181129
50336,1577399508.76,1.3837288494873048,1.9219453826904296,10.165660538940427,1.8786891661108989,0.922176405297256,8.018940496975038,0.9125898661295566,-1.857957493082682,10.360451645914711,-1.7772674560546875,0.571441650390625,0.597381591796875,-1.832357267054116,1.80853866949314,0.9847501429115852,-2.032688685825893,9.129842122395834,3.3522106352306547,-2.169178168062095,-19.653781500135665,1.3010327635327683,-29.875798549872645,-57.62653642653642,9.477739970125754,29.69799622607601,34.08293647227963,32.6931739898763,1577399508.0,-27.68704723189884,-51.12783269562295,2.8181129
50337,1577399508.77,0.6523002423095703,0.7607575775146483,9.956167893676756,1.3172488768042585,2.929714497338272,9.368073132473084,1.5985286417643223,3.743277290852864,12.036392808024088,-0.6023406982421875,-0.3288269042968749,0.780487060546875,-3.144613126429116,-3.989801174256861,0.6032804163490852,-1.7580304827008928,17.003377278645832,-0.7981799897693451,-2.349943015400604,-21.34645167718084,1.1384036680911775,-5.18214926363075,-55.72730972730972,8.43704695379822,29.62611195974481,33.98709078383802,32.83694252253871,1577399508.0,-27.68704723189884,-51.12783269562295,2.8181129
50338,1577399508.78,-0.4059368914794912,4.704007711791992,13.22904156311035,1.4453386656226177,3.6252300796136634,12.8312858338891,-0.2749341573079423,1.7764406270345052,10.669303660074869,5.1044464111328125,4.279327392578125,0.627899169921875,2.5621739829458843,1.7169859351181402,1.4425138147865852,-2.154758998325893,22.282918294270832,4.603431338355655,-1.8076484733850768,-20.406079356600188,2.2768073361823418,-6.255786189119516,-53.82808302808303,8.734387815606086,29.86572618084883,34.22670500494204,32.88486536675951,1577399508.0,-27.68704723189884,-51.12783269562295,2.8181129
50339,1577399508.79,-0.3388992449951162,3.4925416717529294,12.829209885864255,-0.3239763612328499,3.931687892113662,6.328634124904726,2.1408153177897127,8.657376198323567,9.254330478922526,-0.4497528076171875,0.9529113769531252,-0.074005126953125,0.3343907798208843,-4.47808242425686,1.2594083460365852,-1.6054425920758928,21.489461263020832,-1.3474963960193451,-1.626883626046571,-19.08955810778728,0.8131454772079753,-29.875798549872645,-53.82808302808303,7.247683506566751,29.62611195974481,34.17878216072124,32.597328301434686,1577399508.0,-27.68704723189884,-51.12783269562295,2.8181129
50340,1577399508.8,0.0537498272705082,-0.1669955657958984,9.496481174926757,-0.2377851014672249,-0.4353359360113367,9.5368643495141,2.638809263102213,4.216132118733723,9.172927622477214,-6.721115112304688,-8.339691162109375,0.139617919921875,-1.1304529701791155,0.7709410132431402,0.6185392054115852,-0.2016339983258928,14.317830403645834,-7.634117489769345,-1.626883626046571,-19.8418559642518,2.4394364316239328,-27.728524698895075,-55.72730972730972,7.0990130756628185,29.817803336628025,34.08293647227963,32.789019678317906,1577399508.0,-27.68704723189884,-51.12783269562295,2.8181129
50341,1577399508.81,1.5740678814697266,3.1932664642333983,8.739913450317381,1.3411908934058208,1.632057197533584,10.3030088807641,0.7198566324869785,-2.499603538004557,9.340521738688151,3.731155395507813,0.5561828613281251,-0.043487548828125,0.1665441001333844,-2.21978164300686,0.0539640100990852,0.0882829938616072,11.067708333333334,0.6056286039806548,-1.626883626046571,-19.8418559642518,2.4394364316239328,-30.41261701261704,-49.55482295482295,-1.0035254086015548,29.86572618084883,34.058975050169224,32.54940545721389,1577399508.0,-27.68704723189884,-51.12783269562295,2.8181129
50342,1577399508.82,2.2612037579345703,0.6625953094482422,10.255443101196288,1.428579254001524,3.5988938613519434,12.01486306777582,0.0411004618326816,1.4460407979329426,8.287073008219402,3.4259796142578125,-2.434539794921875,0.200653076171875,-0.8557947670541157,-3.1963441430068595,-1.2125154820884148,0.3476824079241072,3.514607747395833,6.922767275855655,-3.0730024047546336,-19.46570703601953,1.788920049857555,-30.41261701261704,-49.55482295482295,-1.0035254086015548,29.86572618084883,34.22670500494204,32.789019678317906,1577399508.0,-27.68704723189884,-51.12783269562295,2.8181129
50343,1577399508.83,0.8582015850830077,1.926733786010742,11.184393345336913,1.2154953062476177,0.8479561538324122,12.113025335842224,2.504733970133464,5.705325551350911,7.698099399820963,5.5011749267578125,2.692413330078125,-0.318145751953125,3.660806795445884,3.4259703101181405,0.8626798304115852,1.2021745954241072,-3.718058268229168,3.687903994605655,-2.7114727100776186,-20.59415382071632,1.4636618589743662,-35.780801640060886,-52.403663003663,7.173348291114784,29.5302662713032,34.17878216072124,32.789019678317906,1577399508.0,-27.68704723189884,-51.12783269562295,2.8181129
50344,1577399508.84,0.6032191082763672,1.092354507446289,9.659286887817382,0.5391333372534777,1.5530485427484275,8.704879272609803,1.2094708719889316,2.951993642171224,11.361227939860026,1.1066436767578125,-1.152801513671875,0.292205810546875,1.417764803258384,0.3131773413681403,0.3133634241615852,2.483912876674107,-1.5360514322916663,-6.688072567894345,-2.169178168062095,-20.78222828483245,1.3010327635327683,-4.108512338141966,-54.77769637769637,7.76803001473052,29.76988049240722,34.01105220594842,32.74109683409711,1577399508.0,-27.68704723189884,-51.12783269562295,2.8181129
50345,1577399508.85,0.7408857037353515,3.794211080932617,11.19875855529785,2.2833092466773053,6.29476493068788,12.795372808986755,0.5702190287272129,-1.3216563212076822,13.750641196695964,2.2357940673828125,-2.953338623046875,0.200653076171875,-0.3369959389291157,-4.66118789300686,-0.0833650914634147,1.1411394391741072,10.350545247395834,3.2911754789806547,-2.169178168062095,-20.78222828483245,1.3010327635327683,-1.9612384871644155,-57.62653642653642,7.545024368374619,29.72195764818641,34.22670500494204,32.98071105520113,1577399508.0,-27.68704723189884,-51.12783269562295,2.8181129
50346,1577399508.86,0.774404526977539,4.016871835327148,10.92581956604004,0.5810318663062116,4.65473679348085,8.555241668850037,0.0123700419108066,4.271198756917316,13.911052707926432,6.9965362548828125,5.011749267578125,-1.050567626953125,1.7381993735708845,0.9540464819931402,-2.2806307164634148,0.0730242047991072,23.503621419270832,3.657386416480655,-1.9884133207235888,-20.97030274894858,1.4636618589743662,0.1860353638131292,-50.029629629629625,-0.4831789004377853,29.817803336628028,34.03501362805883,32.789019678317906,1577399508.0,-27.68704723189884,-51.12783269562295,2.8181129
50347,1577399508.87,-0.0420182391357412,2.1015105072021485,10.652880576782223,-0.4053792176781624,1.197509596215225,13.776995489650815,2.2246123758951817,3.1100109517415357,10.429883494059244,2.2052764892578125,-0.6950378417968749,-0.287628173828125,3.3556310141958843,-7.6824281273818595,-2.7994295445884148,0.5307878766741072,25.060017903645832,2.7113414946056547,-2.530707862739113,-19.277632571903403,2.2768073361823418,-1.9612384871644155,-50.029629629629625,0.2601732540818801,29.72195764818641,33.84332225117561,32.789019678317906,1577399508.0,-27.68704723189884,-51.12783269562295,2.8181129
50348,1577399508.88,0.9683348614501952,1.751957064819336,9.786179575805663,-0.425729931789491,0.4612925857171784,9.644603424221131,1.1963027628580722,4.173036488850911,8.384038175455728,-1.1821746826171875,-4.479217529296875,0.292205810546875,1.997598787633384,-4.44756484613186,-0.4953523961509147,1.4310564313616072,15.981038411458332,-4.780723935081845,-2.169178168062095,-18.71340917955501,2.2768073361823387,-38.196484722410645,-46.94338624338624,0.669016939067697,29.79384191451762,34.15482073861084,32.6931739898763,1577399508.0,-27.68704723189884,-51.12783269562295,2.8181129
50349,1577399508.89,2.5987861920166013,2.20924958190918,9.393530503540038,2.4963931944312114,1.2166632094964749,9.838533758693789,1.8535111185709627,-0.1963815409342447,8.473820737711588,1.6864776611328125,-2.526092529296875,0.872039794921875,-0.7032068764291157,8.09515976324314,1.0763028772865852,1.9040788922991072,9.282430013020834,-3.5142444428943453,-3.0730024047546336,-18.33726025132275,2.114178240740744,-40.61216780476041,-46.23117623117623,1.0035254086015486,29.86572618084883,34.08293647227963,32.789019678317906,1577399508.0,-27.68704723189884,-51.12783269562295,2.8181129
50350,1577399508.9,2.1654356915283204,2.3026234466552733,8.2682557232666,1.3830894224585553,3.143995545922256,8.801844439846132,0.924560874430338,-0.572271201578776,9.737959214274088,5.1654815673828125,4.645538330078125,-0.074005126953125,4.423746248570884,-5.91240859613186,0.5880216272865852,1.2326921735491072,6.718953450520833,-1.6831897553943451,-2.7114727100776186,-19.8418559642518,1.788920049857555,-38.46489395378285,-50.029629629629625,6.9503426447588845,29.86572618084883,34.17878216072124,32.88486536675951,1577399508.0,-27.68704723189884,-51.12783269562295,2.8181129
50351,1577399508.91,1.7584214093017578,1.0672153900146484,10.880329734497067,1.7517964781226176,1.6548021133050683,6.848175885158632,-0.5239311299641923,-1.8220444681803385,7.971038389078775,0.9540557861328124,-1.732635498046875,0.353240966796875,-0.0623377358041157,3.2123472632431405,0.0387052210365852,0.8969988141741072,2.293904622395833,4.756019228980655,-1.446118778708062,-20.78222828483245,2.6020655270655304,-39.00171241652724,-49.55482295482295,9.403404754673788,29.67403480396561,34.03501362805883,32.789019678317906,1577399508.0,-27.68704723189884,-51.12783269562295,2.8181129
50352,1577399508.92,1.1407173809814453,2.346916177368164,9.920254868774412,0.7737650999487897,2.431720552025772,11.210411309963318,0.9820217142740884,3.998259767659505,10.868022397867838,2.0526885986328125,2.433013916015625,0.185394287109375,0.9752599204458844,-0.0682923851943595,-0.3122469274009147,1.2174333844866072,0.6917317708333335,1.9178844633556549,-2.349943015400604,-20.78222828483245,1.3010327635327683,-22.360340071451198,-49.55482295482295,7.024677860210852,29.79384191451762,34.17878216072124,32.7171354119867,1577399508.0,-27.68704723189884,-51.12783269562295,2.8181129
50353,1577399508.93,1.665047544555664,2.7575217620849606,10.353605369262697,0.8898838804663678,1.3387674941644434,10.415536358791442,0.1153207132975253,4.0820568257649725,10.1641271097819,1.2592315673828125,1.502227783203125,0.505828857421875,2.1044103110708843,-1.6399476586318598,1.0152677210365852,1.5989031110491072,6.779988606770833,-0.6150745210193452,-2.349943015400604,-19.08955810778728,1.1384036680911775,-5.718967726375147,-49.55482295482295,7.024677860210852,29.62611195974481,34.08293647227963,32.789019678317906,1577399508.0,-27.68704723189884,-51.12783269562295,2.8181129
50354,1577399508.94,1.542943259887695,2.319382858276367,10.61936175354004,-0.4652342591820686,2.7154334487542875,8.823392254787539,0.6228914652506504,4.2304973286946606,10.264683579508462,1.0150909423828125,4.370880126953125,0.841522216796875,-0.7337244545541157,6.5997984351181405,0.1302579554115852,1.0190691266741072,5.620320638020833,-2.7207874116443453,-2.349943015400604,-19.08955810778728,1.1384036680911775,-5.718967726375147,-49.55482295482295,7.024677860210852,29.72195764818641,34.17878216072124,32.98071105520113,1577399508.0,-27.68704723189884,-51.12783269562295,2.8181129
50355,1577399508.95,2.400067454223633,4.225167379760742,8.486128074340819,4.021499651950743,2.856691346703506,11.083518621975037,0.0027932352701816,1.4125219746907551,9.59670131632487,2.6020050048828125,5.438995361328125,1.055145263671875,-1.5271814858041155,6.7829039038681405,0.8016446741615852,1.4157976422991072,2.141316731770833,-0.8897327241443452,-1.0845890840310477,-18.90148364367114,1.6262909544159574,-1.4244200244200351,-43.85714285714285,7.024677860210852,29.96157186929044,34.03501362805883,32.64525114565549,1577399508.0,-27.68704723189884,-51.12783269562295,2.8181129
50356,1577399508.96,2.661035435180664,2.532466806030273,9.138548026733398,2.0283267698706644,2.872253657494521,8.927540027004335,1.167572342936198,2.5796952840169265,10.352071940104166,-1.4873504638671875,2.616119384765625,1.070404052734375,3.1420079673208843,6.8286802710556405,1.701913228849085,0.7901872907366072,4.765828450520833,3.474280947730655,-2.259560591731351,-19.5597442680776,3.008638265669518,-5.182149263630755,-47.65559625559626,7.024677860210852,29.841764758738428,34.03501362805883,32.83694252253871,1577399508.0,-27.68704723189884,-51.12783269562295,2.8181129
50357,1577399508.97,1.8206706524658205,-0.2807201446533203,8.179670261840819,2.616103277439024,1.1568081679925684,5.742054718166444,1.2980563334147128,0.0957110616048168,7.798655869547526,-3.1352996826171875,4.798126220703125,1.512908935546875,-1.7408045326791155,3.3344175757431405,2.388558736661585,0.2561296735491072,3.392537434895833,2.0399547758556547,-3.0730024047546336,-19.08955810778728,2.4394364316239328,-6.255786189119516,-50.029629629629625,6.9503426447588845,29.96157186929044,34.17878216072124,32.64525114565549,1577399508.0,-27.68704723189884,-51.12783269562295,2.8181129
50358,1577399508.98,1.6243461163330075,1.6537947967529296,7.461409763793944,1.763767486423399,1.3890457290277247,7.485033526760194,1.7481662455240878,3.572091872151692,6.424384116617838,1.2592315673828125,6.934356689453125,0.383758544921875,2.4401036704458843,7.5153257788681405,1.5340665491615852,1.0801042829241072,-7.013956705729167,0.4225231352306547,-3.0730024047546336,-19.08955810778728,2.4394364316239328,-6.255786189119516,-57.62653642653642,7.0990130756628185,29.86572618084883,34.17878216072124,32.597328301434686,1577399508.0,-27.68704723189884,-51.12783269562295,2.8181129
50359,1577399508.99,0.2213439434814453,2.549226217651367,7.679282114868164,1.92896740097418,3.055410084496475,6.235260260158632,3.651556565348307,3.0549443135579417,6.184963950602214,5.2570343017578125,8.490753173828125,0.566864013671875,-1.923910001429116,0.5268003882431402,-0.5106111852134148,1.1106218610491072,-14.460245768229166,-2.6292346772693453,-2.892237557416128,-18.52533471543888,0.3252581908831954,-1.9612384871644155,-65.22344322344321,6.9503426447588845,29.72195764818641,34.08293647227963,32.789019678317906,1577399508.0,-27.68704723189884,-51.12783269562295,2.8181129
50360,1577399509.0,0.0489614239501958,2.4666262603759765,11.76738144958496,-0.4233357301293347,1.496784803734756,7.304271301418398,2.30242392985026,0.5661716878255209,7.113914194742838,2.8766632080078125,4.462432861328125,0.719451904296875,0.1665441001333842,-0.0072572289443597,1.366219869474085,0.4850115094866072,-19.892374674479168,-0.9202503022693452,-1.988413320723588,-20.78222828483245,1.301032763532772,-27.728524698895075,-65.22344322344321,6.9503426447588845,29.721957648186415,34.058975050169224,32.7171354119867,1577399509.0,-27.687026648008978,-51.12781063546099,3.1218338
50361,1577399509.01,1.483088218383789,1.4024036224365233,7.265085227661132,1.9026311827124611,0.5127679214105372,7.712482684475038,3.608460935465495,-1.7334590067545572,8.361293259684244,-7.4382781982421875,-6.249237060546875,1.268768310546875,-0.7642420326791157,10.29242538824314,3.182015767911585,-0.3237043108258928,-24.439493815104168,2.0399547758556547,-4.33835633612419,-18.90148364367114,1.6262909544159574,-23.433976996939982,-57.62653642653642,7.545024368374619,29.86572618084883,34.08293647227963,32.45355976877228,1577399509.0,-27.687026648008978,-51.12781063546099,3.1218338
50362,1577399509.02,-0.8273163836669912,4.024054440307617,9.9154664654541,1.6272979917944927,4.298000746117569,8.267937469631288,0.5319118021647129,-0.2610249857584634,6.441143528238932,-0.5718231201171875,-0.2372741699218749,0.841522216796875,0.3954259360708843,-3.62359023675686,0.8016446741615852,-0.3847394670758928,-31.550089518229168,8.631751650855655,-4.33835633612419,-18.90148364367114,1.6262909544159574,-5.718967726375147,-60.95018315018314,7.173348291114784,29.72195764818641,34.03501362805883,32.597328301434686,1577399509.0,-27.687026648008978,-51.12781063546099,3.1218338
50363,1577399509.03,-0.8584410052490224,3.830124105834961,9.345646470336913,-0.6424051820336312,4.382994905053115,9.37764993911371,2.435302121988932,4.975094045003255,9.21243194986979,1.1981964111328125,0.8613586425781251,0.811004638671875,-1.435628751429116,-0.98381972894436,0.4354337366615852,0.7138933454241072,-41.697184244791664,3.321693057105655,-1.9884133207235888,-20.218004892484057,2.7646946225071214,-18.602610832240472,-59.52576312576312,7.247683506566751,29.67403480396561,34.130859316500434,32.76505825620751,1577399509.0,-27.687026648008978,-51.12781063546099,3.1218338
50364,1577399509.04,-0.1713051287841787,2.834136215209961,8.756672861938476,-0.7884514833031624,1.4034109389886622,5.260820184475039,0.1440511332194003,2.992695070393879,11.75387701212565,-2.4639129638671875,-3.716278076171876,0.551605224609375,-1.2830408608041155,-5.30205703363186,2.510629049161585,0.0730242047991072,-26.362101236979168,1.1549450102306549,-2.078795744392842,-20.876265516890516,2.358121883903137,-5.182149263630755,-57.62653642653642,7.545024368374619,29.67403480396562,34.17878216072124,32.83694252253871,1577399509.0,-27.687026648008978,-51.12781063546099,3.1218338
50365,1577399509.05,0.209372935180664,0.0736217010498046,5.512529612426757,-0.0941330018578499,1.288489259301162,8.145833184963319,-0.8758787740071611,-1.3312331278483072,9.563182493082683,-5.942916870117188,-7.714080810546875,0.749969482421875,-2.808919767054116,-9.26934218988186,0.0692227991615852,-1.9411359514508928,-8.722941080729166,7.136390322730655,-1.626883626046571,-19.08955810778728,2.114178240740744,-27.728524698895075,-57.62653642653642,6.9503426447588845,29.72195764818641,34.17878216072124,32.50148261299308,1577399509.0,-27.687026648008978,-51.12781063546099,3.1218338
50366,1577399509.06,1.741661997680664,1.5077484954833984,7.188470774536132,-0.1946894715844124,1.8247904311761625,10.171327789455503,0.2517902079264316,-1.4222127909342448,11.765848020426432,-5.515670776367188,-10.369110107421877,0.536346435546875,-0.9168299233041156,-6.46172500238186,1.4730313929115852,-2.093723842075893,3.8808186848958335,4.664466494605655,-1.626883626046571,-19.08955810778728,2.114178240740744,-27.728524698895075,-57.62653642653642,7.247683506566751,29.86572618084883,34.08293647227963,32.88486536675951,1577399509.0,-27.687026648008978,-51.12781063546099,3.1218338
50367,1577399509.07,2.182195103149414,2.662950796508789,11.09101948059082,0.8467882505835553,2.5598103408441317,10.477785601955503,1.5039576761881503,7.153817555745442,12.967737253824868,4.4483184814453125,-0.115203857421875,0.261688232421875,-0.3064783608041157,0.4352476538681402,0.8931974085365852,-1.6359601702008928,10.808308919270834,2.4061657133556547,-2.621090286408366,-19.371669803961467,1.7076055021367562,-27.728524698895075,-55.72730972730972,-0.4831789004377853,29.74591907029682,34.08293647227963,32.789019678317906,1577399509.0,-27.687026648008978,-51.12781063546099,3.1218338
50368,1577399509.08,2.680189048461914,2.6904841156005856,11.074260068969725,2.793274200290586,3.789232893334365,11.018875177150818,0.2386220987955722,2.4336489827473957,11.124201975504556,-0.3276824951171875,4.584503173828125,-0.959014892578125,-2.061239102991616,3.761663669493141,1.5493253382240852,-2.002171107700893,15.721638997395832,-0.9660266694568452,-2.7114727100776186,-19.08955810778728,0.4878872863247865,-6.255786189119516,-52.87846967846967,-1.9698832094771224,29.817803336628028,34.17878216072124,32.7171354119867,1577399509.0,-27.687026648008978,-51.12781063546099,3.1218338
50369,1577399509.09,1.4806940167236329,1.955464205932617,8.603443955688476,-1.226590387111756,2.8734507583246,11.330121392971131,0.7545725565592442,4.024595985921223,10.590295005289711,-5.424118041992188,-0.9086608886718748,-0.653839111328125,-0.2759607826791157,-3.83721328363186,-0.0528475133384147,-1.5444074358258928,15.141805013020834,-5.284263974144345,-2.530707862739113,-20.029930428367926,2.2768073361823418,-32.02307240085019,-57.62653642653642,-2.4158945021889204,30.009494713511245,34.03501362805883,32.6931739898763,1577399509.0,-27.687026648008978,-51.12781063546099,3.1218338
50370,1577399509.1,1.3514071270751953,2.625840670776367,8.988910422973632,0.8755186705054303,3.232581007348037,11.713193658596133,-2.68350102742513,-1.6329025370279946,8.634232248942057,-4.172897338867188,1.654815673828125,-1.508331298828125,-5.769124845179116,2.2052671851181405,-0.2969881383384147,-2.398899623325893,11.388142903645834,-1.4085315522693451,-2.530707862739113,-20.029930428367926,2.2768073361823418,-10.55033389107465,-55.72730972730972,-1.3752014858613844,29.86572618084883,34.370473537604454,32.98071105520113,1577399509.0,-27.687026648008978,-51.12781063546099,3.1218338
50371,1577399509.11,0.6271611248779296,1.8381483245849608,10.144112723999022,-0.1851126649437874,2.387427821312881,13.113801629787536,-1.1009337300618485,-1.3815113627115885,6.374105881754557,0.3742218017578125,5.683135986328124,-0.897979736328125,1.1278478110708845,-0.4497621117568597,-0.5411287633384148,-2.734592982700893,6.139119466145833,3.4742809477306547,-2.1691781680620967,-19.653781500135665,1.626290954415954,-14.30806313028537,-64.74863654863654,-2.4902297176408887,29.67403480396561,34.08293647227963,32.6931739898763,1577399509.0,-27.687026648008978,-51.12781063546099,3.1218338
50372,1577399509.12,1.6578649395751954,2.307411849975586,9.422260923461913,0.7893274107398052,1.163990772973038,10.35328711562738,2.043850150553385,4.939181020100911,10.79619634806315,1.4728546142578125,7.575225830078125,-0.531768798828125,-2.213826993616616,3.883733981993141,0.2828458460365852,-1.5444074358258928,2.217610677083333,-0.0810169038318451,-3.253767252093146,-19.277632571903403,2.2768073361823418,-20.213066220473635,-52.87846967846967,-2.564564933092851,29.72195764818641,34.130859316500434,32.64525114565549,1577399509.0,-27.687026648008978,-51.12781063546099,3.1218338
50373,1577399509.13,1.2556390606689454,2.357690084838867,9.910678062133789,1.217889507907774,2.5310799209222563,7.915989825588319,3.132014805094401,2.43724028523763,9.400376780192058,-3.3184051513671875,2.997589111328125,-1.020050048828125,-2.076497892054116,14.04608749761814,-0.5411287633384148,-0.6593976702008928,2.415974934895833,-1.4695667085193451,-2.169178168062095,-20.029930428367926,0.6505163817663843,-25.044432385173145,-51.45404965404965,7.322018722018717,29.72195764818641,34.08293647227963,32.6931739898763,1577399509.0,-27.687026648008978,-51.12781063546099,3.1218338
50374,1577399509.14,0.4559757061767577,2.309806051635742,9.103832102661132,2.4963931944312114,0.8024663222894435,9.8433221620141,3.711411606852213,6.071638405354817,10.556776182047525,-1.8230438232421875,3.272247314453125,-0.440216064453125,-0.7947596108041157,4.0058042944931405,1.2899259241615852,-0.5678449358258928,5.467732747395833,-6.016685849144345,-2.169178168062095,-20.029930428367926,0.6505163817663843,-25.044432385173145,-51.45404965404965,7.322018722018717,29.62611195974481,33.939167939617214,32.6931739898763,1577399509.0,-27.687026648008978,-51.12781063546099,3.1218338
50375,1577399509.15,1.0066420880126952,2.2068553802490234,8.217977488403319,0.0423364927710553,3.948447303734756,5.648680853420351,1.3531229715983066,-1.5945953104654946,8.37087006632487,-2.128219604492188,0.968170166015625,-0.745391845703125,-1.2830408608041155,1.1981871069931402,0.1302579554115852,-1.0866437639508928,10.106404622395834,-2.9344104585193453,-3.524914523100906,-20.50011658865825,1.8702345975783508,-5.182149263630755,-51.92885632885632,7.0990130756628185,29.79384191451762,34.08293647227963,32.789019678317906,1577399509.0,-27.687026648008978,-51.12781063546099,3.1218338
50376,1577399509.16,1.0880449444580078,1.4191630340576171,8.052777573852538,2.222257104343321,2.671140718041397,8.66896624770746,1.840343009440104,1.6782783589680983,6.448326133219401,-0.5413055419921875,-0.6950378417968749,-0.806427001953125,-2.976766446741616,0.40473007574314,-0.7547518102134148,-1.3002668108258928,3.407796223958334,2.1772838774181547,-3.615296946770161,-20.029930428367926,1.951549145299146,-40.07534934201602,-53.35327635327634,7.768030014730519,29.67403480396561,34.17878216072124,32.789019678317906,1577399509.0,-27.687026648008978,-51.12781063546099,3.1218338
50377,1577399509.17,0.0010773907470703,2.977788314819336,11.507610569458008,-0.4269270326195686,0.3020781753167872,10.540034845119568,1.2405954935709629,4.972699843343098,8.483397544352213,3.944778442382813,3.699493408203125,-0.348663330078125,3.782877107945884,-1.1211488305068598,-0.3885408727134147,0.0119890485491072,-11.683146158854166,1.5211559477306549,-1.626883626046571,-20.59415382071632,2.114178240740744,-4.108512338141983,-50.979242979242976,7.693694799278552,29.817803336628028,34.27462784916285,32.789019678317906,1577399509.0,-27.687026648008978,-51.12781063546099,3.1218338
50378,1577399509.18,-0.2934094134521474,1.7974468963623045,11.917019053344726,-0.6998660218773811,2.985978236351944,8.1578041932641,4.348269248453776,3.610399098714192,10.870416599527994,1.3813018798828125,-0.0541687011718748,0.719451904296875,-2.320638517054116,-2.5249574242568595,0.7100919397865852,0.7749285016741072,-13.300577799479166,-1.957847958519345,-1.626883626046571,-20.59415382071632,2.114178240740744,-4.108512338141983,-50.029629629629625,7.693694799278552,29.62611195974481,33.939167939617214,32.597328301434686,1577399509.0,-27.687026648008978,-51.12781063546099,3.1218338
50379,1577399509.19,-0.0013168109130854,2.5192986968994138,10.699567509155273,0.0327596861304308,2.4125669387445217,9.764313507228945,1.5398707010904942,1.9284724324544265,9.370449259440106,-1.639938354492188,-1.396942138671875,0.780487060546875,1.5703526938833845,1.4881040991806402,1.5035489710365852,0.6375994001116072,-11.728922526041666,1.1854625883556549,-1.2653539313695563,-20.029930428367926,2.114178240740744,-20.749884683218035,-49.55482295482295,8.88305824651002,29.86572618084883,34.01105220594842,32.7171354119867,1577399509.0,-27.687026648008978,-51.12781063546099,3.1218338
50380,1577399509.2,0.8653841900634764,1.955464205932617,8.059960178833007,0.6696173277319928,1.7888774062738184,8.43313738418207,0.2063003763834628,-0.6105784281412759,9.163350815836589,-2.4028778076171875,-5.516815185546875,0.841522216796875,-3.266683438929116,3.2733824194931405,0.8321622522865852,0.4087175641741072,-11.164347330729166,1.0328746977306549,-0.903824236692542,-18.33726025132275,2.114178240740744,-3.034875412653199,-50.029629629629625,9.329069539221818,29.817803336628028,34.17878216072124,32.6931739898763,1577399509.0,-27.687026648008978,-51.12781063546099,3.1218338
50381,1577399509.21,0.5613205792236328,3.346495370483398,10.77737906311035,0.2386610289038678,2.480801686058975,10.02049308486566,0.3762886942545566,4.5513203511555975,7.724435618082682,-1.0906219482421875,-5.669403076171875,1.329803466796875,1.8907872641958845,-7.4382875023818595,0.8931974085365852,0.5613054547991072,-10.279337565104166,2.9554821196056547,-2.169178168062095,-17.396887930742096,0.3252581908831954,-5.182149263630755,-48.13040293040292,9.329069539221818,29.86572618084883,34.03501362805883,32.64525114565549,1577399509.0,-27.687026648008978,-51.12781063546099,3.1218338
50382,1577399509.22,1.674624351196289,1.953070004272461,8.385571604614256,-0.1659590516625374,2.8064131118402247,6.103579168850038,0.0554656717936191,1.122823573811848,9.728382407633465,0.6793975830078125,0.7087707519531251,1.177215576171875,-3.846517423304116,-4.60015273675686,1.1373380335365852,-0.4457746233258928,-5.274454752604167,-0.3098987397693452,-2.169178168062095,-17.396887930742096,0.3252581908831954,-5.718967726375147,-51.45404965404965,10.592768201905251,29.86572618084883,33.65163087429239,32.64525114565549,1577399509.0,-27.687026648008978,-51.12781063546099,3.1218338
50383,1577399509.23,1.9822792645263672,2.458246554565429,8.772235172729491,0.9629070311011332,2.0642105971917872,10.294629174953553,0.7366160441080722,0.5996905110677079,9.068779850260418,-0.7549285888671875,-0.4203796386718749,0.734710693359375,0.6395665610708844,0.8930113257431403,1.5188077600990852,-1.4528547014508928,-2.817789713541667,2.6655651274181547,-1.446118778708062,-18.71340917955501,0.9757745726495765,-32.02307240085019,-55.72730972730972,10.518432986453288,29.86572618084883,34.130859316500434,32.88486536675951,1577399509.0,-27.687026648008978,-51.12781063546099,3.1218338
50384,1577399509.24,1.3226767071533203,1.6370353851318358,7.169317161254882,1.610538580173399,2.3251785781488183,9.09633124404535,1.5829663309733066,3.6678599385579416,9.963014170328776,-2.4333953857421875,0.7698059082031251,0.231170654296875,-1.893392423304116,2.6935484351181405,0.8016446741615852,-0.9035382952008928,0.4323323567708333,3.809974307105655,-1.8076484733850768,-18.52533471543888,2.2768073361823418,-5.182149263630755,-55.72730972730972,9.329069539221818,29.96157186929044,33.891245095396414,32.789019678317906,1577399509.0,-27.687026648008978,-51.12781063546099,3.1218338
50385,1577399509.25,-0.710000502319335,2.015319247436523,7.746319761352538,0.0160002745093366,3.7329691543206938,7.98542167373285,0.8862536478678379,5.710113954671224,9.828938877360024,0.9235382080078124,1.227569580078125,0.872039794921875,-2.320638517054116,-0.0835511742568597,-0.4495760289634147,0.0730242047991072,0.1576741536458333,1.2770153227306549,-2.892237557416128,-18.14918578720662,1.951549145299146,-6.255786189119516,-61.42498982498982,9.626410401029688,29.72195764818641,34.08293647227963,32.64525114565549,1577399509.0,-27.687026648008978,-51.12781063546099,3.1218338
50386,1577399509.26,-0.4538209246826171,1.888426559448242,10.430219822387697,-0.7740862733422249,-0.0043796371832117,10.13780896621332,1.6236677591959627,1.69024936726888,10.901541221110026,1.7780303955078127,1.151275634765625,0.765228271484375,4.942545076695884,4.9213316382431405,1.5645841272865852,0.1035417829241072,1.9887288411458333,-4.521324521019345,-2.530707862739113,-18.52533471543888,1.6262909544159574,-6.255786189119516,-57.62653642653642,9.329069539221818,29.67403480396561,34.27462784916285,32.64525114565549,1577399509.0,-27.687026648008978,-51.12781063546099,3.1218338
50387,1577399509.27,0.7528567120361327,2.6665420989990234,9.386347898559569,1.4644922789038677,3.16075495754335,8.507357635646912,-0.1947284016927084,2.6060315022786447,10.373619755045572,-2.5554656982421875,-4.296112060546875,1.268768310546875,-3.999105313929116,-2.5859925805068595,1.473031392911585,1.0038103376116072,2.812703450520833,-1.896812802269345,-1.0845890840310477,-18.52533471543888,2.2768073361823418,-6.255786189119516,-65.22344322344321,9.626410401029688,29.72195764818641,34.08293647227963,32.7171354119867,1577399509.0,-27.687026648008978,-51.12781063546099,3.1218338
50388,1577399509.28,1.0952275494384764,1.5676035369873047,9.94180268371582,1.773344293064024,4.5206615005121,9.646997625881289,0.1153207132975253,0.8977686177571604,8.473820737711588,-1.1211395263671875,-4.967498779296875,1.268768310546875,5.095132967320884,3.822698825743141,0.2218106897865852,1.2021745954241072,-0.8799235026041667,2.7723766508556547,-2.530707862739113,-19.277632571903403,1.3010327635327683,-32.02307240085019,-64.27382987382987,7.0990130756628185,29.817803336628028,34.27462784916285,32.88486536675951,1577399509.0,-27.687026648008978,-51.12781063546099,3.1218338
50389,1577399509.29,1.4759056134033204,2.5899276458740235,9.09186109436035,0.9641041319312116,-0.3635098862066492,6.510593451076601,2.6675396830240885,1.3981567647298176,9.484173838297526,3.700637817382813,1.380157470703125,0.872039794921875,0.7311192954458843,3.5785582007431405,0.9237149866615852,1.1716570172991072,-1.1240641276041667,4.359290713355655,-1.446118778708062,-20.029930428367926,2.2768073361823418,-6.255786189119516,-64.27382987382987,9.329069539221818,29.96157186929044,34.08293647227963,32.597328301434686,1577399509.0,-27.687026648008978,-51.12781063546099,3.1218338
50390,1577399509.3,0.9503783489990236,1.0133458526611328,10.129747514038083,0.4493507749976178,0.5055853164300684,8.619885113674258,3.12004379679362,0.5841282002766918,10.827320969645182,1.3965606689453125,-1.580047607421875,1.070404052734375,1.9518224204458845,-6.52276015863186,0.8626798304115852,0.3781999860491072,1.6835530598958333,4.359290713355655,-2.530707862739113,-19.653781500135665,0.0,-6.255786189119516,-64.27382987382987,6.9503426447588845,29.86572618084883,34.08293647227963,32.6931739898763,1577399509.0,-27.687026648008978,-51.12781063546099,3.1218338
50391,1577399509.31,-0.3628412615966787,0.0281318695068359,11.12214410217285,1.4046372373999614,1.5027703078851464,9.812197540432068,1.4189635172526034,1.519063948567708,10.91830063273112,-1.0906219482421875,-3.563690185546875,0.811004638671875,1.7687169516958845,-1.2889955101943598,0.6032804163490852,0.8664812360491072,8.336385091145834,-1.2101672944568451,-2.892237557416128,-19.277632571903403,0.6505163817663843,-5.718967726375147,-64.74863654863654,7.024677860210852,29.817803336628028,34.01105220594842,32.83694252253871,1577399509.0,-27.687026648008978,-51.12781063546099,3.1218338
50392,1577399509.32,-0.5448005877685537,2.879626046752929,10.284173521118165,-0.2856691346703499,1.968442530785537,8.435531585842226,-0.3515486104329424,3.370978932698567,12.230323142496744,5.6537628173828125,3.302764892578125,-0.135040283203125,0.1512853110708842,-6.95000625238186,-1.0599275914634148,0.6223406110491072,18.071492513020832,1.6737438383556549,-0.1807648473385055,-19.46570703601953,0.8131454772079753,-6.255786189119516,-60.47537647537647,6.9503426447588845,29.86572618084883,34.370473537604454,32.64525114565549,1577399509.0,-27.687026648008978,-51.12781063546099,3.1218338
50393,1577399509.33,-0.2694673968505849,3.3488895721435545,11.529158384399413,-0.8866137513695687,3.483972181664444,13.470537677150816,0.4505089457194003,3.933616322835285,10.9685788675944,5.3791046142578125,2.539825439453125,0.505828857421875,3.4166661704458843,-1.0601136742568598,-0.1749178258384147,1.0190691266741072,22.160847981770832,-0.7981799897693452,-1.8076484733850768,-19.653781500135665,1.6262909544159574,-6.255786189119516,-65.22344322344321,-0.631849331341722,29.67403480396561,34.08293647227963,32.789019678317906,1577399509.0,-27.687026648008978,-51.12781063546099,3.1218338
50394,1577399509.34,0.487100327758789,2.816179702758789,10.431416923217771,1.256196734470274,0.931753211937881,10.24554804092035,0.8168217997233066,1.7596812154134114,9.80739106241862,0.8014678955078125,-2.053070068359375,1.222991943359375,1.0057774985708845,1.83905624761814,0.5880216272865852,1.2937273297991072,20.055135091145832,-1.3780139741443451,-1.9884133207235888,-21.34645167718084,2.4394364316239328,-6.255786189119516,-65.22344322344321,-0.631849331341722,29.76988049240722,34.17878216072124,32.6931739898763,1577399509.0,-27.687026648008978,-51.12781063546099,3.1218338
50395,1577399509.35,2.8573599713134765,1.5173253021240234,8.373600596313475,1.1951445921362895,1.652407911644913,9.047250110012149,0.1225033182779941,0.8247454671223958,7.924351456705729,-6.522750854492188,-9.056854248046877,2.062225341796875,1.5856114829458845,-3.4404847680068595,1.823983541349085,1.0038103376116072,11.754353841145834,0.7887340727306548,-2.892237557416128,-20.406079356600188,1.3010327635327683,-6.255786189119516,-63.32421652421652,3.084911441256615,29.62611195974481,34.058975050169224,32.90882678886992,1577399509.0,-27.687026648008978,-51.12781063546099,3.1218338
50396,1577399509.36,3.1901540020751957,1.7591396697998043,9.146927732543944,5.278455523532774,3.481577980004287,12.170486175685976,2.133632712809244,4.86256656697591,8.311015024820962,0.0995635986328124,-0.8171081542968749,1.421356201171875,1.9823399985708845,6.8134214819931405,3.029427877286585,2.178737095424107,1.7140706380208333,2.6503063383556547,-1.9884133207235888,-19.08955810778728,2.4394364316239328,-34.17034625182773,-53.82808302808303,6.9503426447588845,29.72195764818641,34.08293647227963,32.6931739898763,1577399509.0,-27.687026648008978,-51.12781063546099,3.1218338
50397,1577399509.37,2.900455601196289,1.2970587493896484,8.371206394653319,1.4022430357398052,2.772894288598037,8.363705536037537,2.911748252360026,3.7444743916829415,8.090748472086588,2.6020050048828125,1.410675048828125,0.200653076171875,5.827554842320884,-4.41704726800686,-0.0833650914634147,2.300807407924107,-4.145304361979167,0.1783825102306547,-2.169178168062095,-18.52533471543888,0.3252581908831954,-29.33898008712823,-45.75636955636956,-0.1115028231779525,29.67403480396561,34.17878216072124,32.83694252253871,1577399509.0,-27.687026648008978,-51.12781063546099,3.1218338
50398,1577399509.38,-0.2443282794189448,2.6007015533447264,8.179670261840819,-0.7764804750023812,2.665155213891006,7.810644952541444,1.2561578043619783,1.8470695760091145,8.516916367594401,7.1338653564453125,5.744171142578125,0.032806396484375,0.5327550376333844,-1.92986465081936,-1.5939852086509148,2.361842564174107,-5.304972330729167,-1.2406848725818451,-0.5422945420155202,-20.59415382071632,3.089952813390324,-1.424420024420035,-55.252503052503045,0.1115028231779464,29.841764758738428,34.01105220594842,32.7171354119867,1577399509.0,-27.687026648008978,-51.12781063546099,3.1218338
50399,1577399509.39,0.2069787335205078,1.6011223602294922,9.082284287719723,-0.9608340028344124,-1.5941295395269617,8.380464947658632,1.2645375101725254,-1.4509432108561198,10.073147446695964,2.6630401611328125,0.2510070800781251,0.170135498046875,4.728922029820884,-4.66118789300686,-0.3885408727134147,1.6599382672991072,-0.9409586588541669,-0.0352405366443452,-2.349943015400604,-18.33726025132275,2.114178240740744,-36.31762010280528,-49.08001628001628,-0.1858380386299179,29.86572618084883,34.17878216072124,32.789019678317906,1577399509.0,-27.687026648008978,-51.12781063546099,3.1218338
50400,1577399509.4,1.674624351196289,0.4614823699951171,10.72710082824707,-0.0390663636742561,1.0107618667230371,11.483350299221131,0.2877032328287753,-0.1700453226725259,7.564024106852213,-3.837203979492188,-8.843231201171875,1.451873779296875,2.5316564048208843,0.5268003882431402,1.9307950647865848,1.6599382672991072,-0.8799235026041667,4.420325869605655,-2.169178168062095,-19.277632571903403,1.3010327635327683,-39.53853087927163,-49.08001628001628,1.0035254086015486,29.62611195974481,34.27462784916285,32.6931739898763,1577399509.0,-27.687026648008978,-51.12781063546099,3.1218338
50401,1577399509.41,1.7440561993408203,2.508524789428711,11.787732163696289,2.192329583591368,2.1647670669183494,10.013310479885194,2.447273130289713,7.364507301839192,9.505721653238933,2.6935577392578125,0.5714416503906251,1.909637451171875,1.8907872641958845,5.2875425757431405,1.9307950647865848,2.728053501674107,-5.091349283854167,1.4296032133556549,-3.2537672520931444,-19.8418559642518,1.4636618589743629,-39.53853087927163,-49.08001628001628,1.0035254086015486,29.76988049240722,34.03501362805883,32.789019678317906,1577399509.0,-27.687026648008978,-51.12781063546099,3.1218338
50402,1577399509.42,1.05452612121582,2.6976667205810547,8.902719163208006,2.017552862399961,3.1667404616937405,9.347722418361757,2.3850238871256506,1.6339856282552077,10.383196561686198,7.0880889892578125,5.103302001953125,1.940155029296875,3.660806795445884,3.0902769507431405,1.411996236661585,2.926417759486607,-6.281534830729167,1.1549450102306549,-3.615296946770161,-20.029930428367926,1.6262909544159574,-23.433976996939965,-47.65559625559625,5.017627043007749,29.72195764818641,34.08293647227963,32.7171354119867,1577399509.0,-27.687026648008978,-51.12781063546099,3.1218338
50403,1577399509.43,-0.2167949603271474,2.704849325561524,11.928990061645507,0.0758553160132428,0.9102053969964748,6.266384881740663,1.6571865824381502,2.13078247273763,7.226441672770182,1.9306182861328125,1.197052001953125,0.994110107421875,1.8602696860708845,-1.7009828148818598,2.297006002286585,3.033229282924107,-6.464640299479167,-1.3474963960193451,-1.9884133207235888,-19.46570703601953,1.4636618589743662,-1.4244200244200351,-48.60520960520961,7.024677860210852,29.67403480396561,34.17878216072124,32.6931739898763,1577399509.0,-27.687026648008978,-51.12781063546099,3.1218338
50404,1577399509.44,0.3410540264892577,0.0520738861083984,7.320151865844726,1.2992923643530865,3.527067811547256,7.686146466213319,2.028287839762369,-1.1396969950358071,8.892806028238933,-2.4333953857421875,-4.021453857421875,0.688934326171875,0.4259435141958843,-6.09551406488186,-1.6397615758384148,2.117701939174107,-5.060831705729167,0.6361461821056548,-1.446118778708062,-18.90148364367114,1.3010327635327683,-1.9612384871644155,-48.13040293040292,7.247683506566751,29.72195764818641,34.08293647227963,32.64525114565549,1577399509.0,-27.687026648008978,-51.12781063546099,3.1218338
50405,1577399509.45,0.4859032269287109,2.588730545043945,8.633371476440429,0.1835943907202741,0.2446173354730372,7.595166803127382,0.2230597880045566,2.427663478597005,8.835345188395182,2.2815704345703125,-3.380584716796875,1.421356201171875,6.743082186070884,-3.83721328363186,0.0997403772865852,1.9345964704241072,-3.0466715494791665,4.420325869605655,-2.259560591731348,-19.371669803961467,1.7076055021367562,-0.8876015616756432,-42.43272283272283,7.545024368374619,29.817803336628025,34.27462784916285,32.64525114565549,1577399509.0,-27.687026648008978,-51.12781063546099,3.1218338
50406,1577399509.46,1.7751808209228517,1.744774459838867,8.474157066040037,0.8707302671851183,1.152019764672256,8.712061877590273,1.4716359537760408,1.7824261311848957,10.219193747965496,5.0739288330078125,-3.624725341796875,2.336883544921875,0.3649083579458845,-5.04265761956936,1.3509610804115852,1.9651140485491072,-0.7578531901041667,0.9413219633556548,-1.8076484733850768,-20.406079356600188,1.951549145299146,-1.9612384871644155,-42.43272283272283,7.0990130756628185,29.72195764818641,34.22670500494205,32.74109683409711,1577399509.0,-27.687026648008978,-51.12781063546099,3.1218338
50407,1577399509.47,0.7384915020751952,3.480570663452148,14.548246677856444,1.9912166441382424,1.697897743187881,13.657285406643004,2.806403379313151,3.133952968343098,9.771478037516276,5.5316925048828125,-1.122283935546875,2.428436279296875,8.146890779820884,-0.0530335961318597,4.524789205411585,1.3852800641741072,2.629597981770833,1.9789196196056549,-1.8076484733850768,-20.406079356600188,1.951549145299146,-4.108512338141983,-46.23117623117623,6.9503426447588845,29.86572618084883,34.08293647227963,32.6931739898763,1577399509.0,-27.687026648008978,-51.12781063546099,3.1218338
50408,1577399509.48,1.6004040997314453,1.0743979949951172,10.8731471295166,1.1197272398413678,1.4848137954339746,5.892889422756288,2.8590758158365888,1.4053393697102865,10.09948366495768,-1.4263153076171875,-3.502655029296875,1.482391357421875,2.2569982016958843,1.96112656011814,1.7782071741615852,1.4157976422991072,0.9206136067708331,0.8192516508556548,-1.0845890840310477,-20.406079356600188,2.6020655270655304,-3.571693875397591,-57.15172975172975,7.619359583826587,29.67403480396561,33.939167939617214,32.789019678317906,1577399509.0,-27.687026648008978,-51.12781063546099,3.1218338
50409,1577399509.49,0.4691438153076177,2.9191303741455075,9.157701640014649,2.8890422666968365,2.2725061416253807,13.908676580959412,-0.1887428975423173,2.973541457112629,8.995756699625652,-0.0377655029296875,-2.404022216796875,0.627899169921875,-0.5506189858041157,1.6254332007431402,1.0457852991615852,2.026149204799107,1.8056233723958333,0.8802868071056548,-2.349943015400604,-18.33726025132275,2.4394364316239363,-4.108512338141983,-57.62653642653642,7.545024368374619,29.79384191451762,34.08293647227963,32.789019678317906,1577399509.0,-27.687026648008978,-51.12781063546099,3.1218338
50410,1577399509.5,-0.0539892474365224,3.432686630249023,8.646539585571288,0.613353588718321,5.762055061303115,8.342157721096132,-0.8267976399739579,3.5601208638509103,6.625497056070963,4.5551300048828125,2.936553955078125,-0.012969970703125,1.2956944907583845,-0.0072572289443599,-1.3651033727134148,2.377101353236607,-11.942545572916668,-3.285362606956845,-2.169178168062095,-19.277632571903403,2.6020655270655304,-4.9137400322585645,-59.28835978835978,6.987510252484869,29.62611195974481,34.058975050169224,32.789019678317906,1577399509.0,-27.687026648008978,-51.12781063546099,3.1218338
50411,1577399509.51,0.994671079711914,2.472611764526367,7.957009507446288,-0.3096111512719124,1.0035792617425685,8.102737555080507,0.2015119730631503,-4.031892600504556,10.410729880777994,-0.2056121826171875,-2.709197998046875,0.170135498046875,-2.320638517054116,-7.07207656488186,-0.3275057164634147,0.0119890485491072,-19.953409830729168,1.9789196196056549,-2.169178168062095,-19.277632571903403,2.6020655270655304,-4.645330800886364,-63.7990231990232,9.403404754673788,29.86572618084883,34.08293647227963,32.789019678317906,1577399509.0,-27.687026648008978,-51.12781063546099,3.1218338
50412,1577399509.52,1.138323179321289,2.417545126342773,8.196429673461914,0.1357103575171491,-0.4664605575933679,6.390883368068788,0.1057439066569003,-3.3279973124186197,10.188069126383462,-2.0671844482421875,-4.509735107421875,-0.226593017578125,-0.0623377358041157,0.7099058569931402,1.2594083460365852,-1.4833722795758928,-13.483683268229166,9.882972353980657,-1.8076484733850768,-19.277632571903403,2.2768073361823418,-27.728524698895075,-61.42498982498982,7.545024368374619,29.817803336628028,34.22670500494204,32.6931739898763,1577399509.0,-27.687026648008978,-51.12781063546099,3.1218338
50413,1577399509.53,2.106777750854492,1.2312182037353514,9.286988529663084,2.2019063902319926,1.197509596215225,10.420324762111756,3.917312949625651,9.46661635945638,9.9725909769694,0.0080108642578125,-4.402923583984375,0.994110107421875,5.583414217320884,-5.88189101800686,0.9237149866615852,0.5002702985491072,-8.539835611979166,4.298255557105655,-1.898030897054333,-18.619371947496948,0.8944600249287809,-29.875798549872645,-57.62653642653642,6.9503426447588845,29.76988049240722,34.22670500494204,32.83694252253871,1577399509.0,-27.687026648008978,-51.12781063546099,3.1218338
50414,1577399509.54,0.7384915020751952,4.771045358276367,12.283331907348632,0.1812001890601182,2.88661886745546,9.25554565444574,2.039061747233072,4.771586903889974,10.25989517618815,4.4025421142578125,5.622100830078125,0.292205810546875,1.356729647008384,-0.5870912133193598,1.717172017911585,1.2632097516741072,-11.042277018229166,-3.651573544456845,-1.626883626046571,-19.46570703601953,1.4636618589743662,-4.913740032258559,-56.43951973951974,7.061845467936834,29.67403480396561,34.15482073861084,32.64525114565549,1577399509.0,-27.687026648008978,-51.12781063546099,3.1218338
50415,1577399509.55,0.1447294903564453,3.3919852020263668,7.844482029418945,1.3663300108374614,5.612417457543349,9.36448182998285,-3.090515309651692,-4.824373350016275,11.392352561442056,0.5573272705078125,3.089141845703125,-0.318145751953125,-7.508626798304116,2.6630308569931405,0.1912931116615852,-1.6054425920758928,1.3783772786458333,-3.2701038178943453,-1.626883626046571,-19.46570703601953,1.4636618589743662,-6.255786189119516,-53.82808302808303,6.9503426447588845,29.86572618084883,33.891245095396414,32.64525114565549,1577399509.0,-27.687026648008978,-51.12781063546099,3.1218338
50416,1577399509.56,1.5668852764892578,2.597110250854492,7.162134556274413,2.367106304782774,2.052239588891006,9.781072918850038,-1.7138493550618483,-2.509180344645182,8.392417881266276,-7.7129364013671875,-7.012176513671875,-0.775909423828125,-3.358236173304116,5.0434019507431405,2.113900533536585,-2.795628138950893,12.120564778645834,4.206702822730655,-2.349943015400604,-19.08955810778728,2.114178240740744,-27.728524698895075,-53.82808302808303,6.9503426447588845,29.817803336628028,34.22670500494204,32.6931739898763,1577399509.0,-27.687026648008978,-51.12781063546099,3.1218338
50417,1577399509.57,3.160226481323242,1.6837223175048828,8.62618887145996,1.381892321628477,2.022312068139053,9.687699054103945,2.5609977091471348,2.134373775227864,9.61465782877604,-3.4252166748046875,-2.236175537109375,0.002288818359375,-5.204549649866616,1.1981871069931405,0.313363424161585,-3.314426967075893,11.494954427083334,4.145667666480655,-2.801855133746875,-19.5597442680776,2.358121883903137,-27.191706236150683,-55.25250305250306,3.382252303064483,29.76988049240722,34.03501362805883,32.7171354119867,1577399509.0,-27.687026648008978,-51.12781063546099,3.1218338
50418,1577399509.58,3.319440891723633,3.0041245330810544,11.268190403442382,3.3391521788062115,4.872609144555068,12.2183702088891,2.1551805277506504,8.669347206624348,10.925483237711587,2.0526885986328125,4.645538330078125,0.078582763671875,2.3180333579458843,0.8930113257431402,2.388558736661585,-1.3918195452008928,11.662801106770834,-1.2864612397693451,-2.7114727100776186,-18.713409179555008,2.7646946225071214,-31.4862539381058,-46.7059829059829,0.631849331341716,29.72195764818641,34.08293647227963,32.789019678317906,1577399509.0,-27.687026648008978,-51.12781063546099,3.1218338
50419,1577399509.59,1.305917295532227,3.6864720062255856,11.4094483013916,2.2019063902319926,0.1296956557855372,6.328634124904726,2.693875901285807,7.117904530843099,11.088288950602212,2.0526885986328125,8.704376220703125,0.658416748046875,2.0433751548208843,6.9965269507431405,3.304086080411585,-2.124241420200893,15.385945638020834,-6.993248349144345,-2.7114727100776186,-18.713409179555008,2.7646946225071214,-5.182149263630755,-65.22344322344321,-0.631849331341722,29.72195764818641,34.17878216072124,32.789019678317906,1577399509.0,-27.687026648008978,-51.12781063546099,3.1218338
50420,1577399509.6,-0.4035426898193349,3.0256723480224608,13.796467356567382,0.0997973326148053,2.454465467797256,11.914306598049256,1.2741143168131503,-1.8435922831217448,10.03005181681315,0.9235382080078124,7.514190673828125,0.383758544921875,-2.351156095179116,-0.7244203148818598,2.510629049161585,-2.276829310825893,12.090047200520834,-5.131676083519345,-2.349943015400604,-18.33726025132275,3.4152110042735124,-9.476696965585868,-65.22344322344321,-2.564564933092851,29.96157186929044,34.08293647227963,32.64525114565549,1577399509.0,-27.687026648008978,-51.12781063546099,3.1218338
50421,1577399509.61,0.9132682232666016,0.9977835418701172,8.858426432495117,1.553077740329649,0.7869040114984278,9.637420819240662,-0.0618502095540366,-1.276166489664714,7.784290659586588,-9.406661987304688,-1.259613037109375,0.536346435546875,-3.220907071741616,3.4412290991806405,1.6103604944740852,-3.848484584263392,11.311848958333334,5.824134463355655,-2.2595605917313497,-19.5597442680776,2.683380074786329,-10.013515428330258,-57.15172975172975,-2.4158945021889204,29.76988049240722,34.202743582831644,32.74109683409711,1577399509.0,-27.687026648008978,-51.12781063546099,3.1218338
50422,1577399509.62,1.8637662823486327,1.9123685760498048,8.1150268170166,1.2921097593726176,3.055410084496475,9.984580059963315,3.057794553629557,3.1555007832845043,7.245595286051432,-3.989791870117188,1.013946533203125,0.566864013671875,-2.015462735804116,-3.0132386742568595,-0.5106111852134148,-2.459934779575893,0.6764729817708333,2.3451305571056547,-1.9884133207235888,-20.97030274894858,1.1384036680911775,-23.433976996939982,-65.22344322344321,-0.1858380386299179,29.96157186929044,34.08293647227963,32.789019678317906,1577399509.0,-27.687026648008978,-51.12781063546099,3.1218338
50423,1577399509.63,2.086427036743164,3.5978865447998043,10.537958897094724,0.1093741392554303,3.3762331069574123,10.662139129787535,2.665145481363932,4.060509010823567,10.844080381266275,3.761672973632813,4.279327392578125,1.390838623046875,-0.4285486733041157,5.2570249976181405,2.876839986661585,-1.6054425920758928,-5.030314127604167,2.0704723539806547,-1.9884133207235888,-20.97030274894858,1.1384036680911775,-40.61216780476041,-50.029629629629625,8.288376522894284,29.817803336628028,34.08293647227963,32.64525114565549,1577399509.0,-27.687026648008978,-51.12781063546099,3.1218338
50424,1577399509.64,1.6889895611572263,2.7647043670654297,10.316495243530271,1.8715065611304305,2.8064131118402247,8.653403936916444,4.513469163004557,4.7763753072102855,10.391576267496744,0.9845733642578124,4.080963134765624,1.436614990234375,-2.015462735804116,3.761663669493141,3.120980611661585,-1.6969953264508928,-0.4526774088541667,-4.063560849144345,-1.988413320723586,-19.089558107787276,3.089952813390317,-10.01351542833026,-64.74863654863654,8.214041307442319,29.69799622607601,34.17878216072124,32.83694252253871,1577399509.0,-27.687026648008978,-51.12781063546099,3.1218338
50425,1577399509.65,1.3202825054931642,0.3489548919677734,11.617743845825194,3.1607841551245706,0.9449213210687404,10.854872363430117,2.16834863688151,-1.6257199320475262,11.650926340738932,-7.9570770263671875,-3.197479248046875,1.360321044921875,-2.808919767054116,1.5491392554306405,2.281747213224085,-2.368382045200893,13.799031575520832,0.6971813383556547,-1.626883626046571,-19.46570703601953,1.1384036680911775,-22.36034007145119,-64.74863654863654,7.916700445634452,29.72195764818641,34.130859316500434,32.74109683409711,1577399509.0,-27.687026648008978,-51.12781063546099,3.1218338
50426,1577399509.66,1.1718420025634764,1.1222820281982422,8.656116392211914,-0.2976401429711311,2.8519029433831937,5.761208331447694,0.7473899515787754,2.6383532246907544,9.419530393473307,-4.172897338867188,2.234649658203125,0.841522216796875,-2.900472501429116,3.5175230444931405,1.1983731897865852,-3.009251185825893,18.193562825520832,5.244300478980655,-3.0730024047546336,-18.33726025132275,1.1384036680911775,-5.718967726375147,-64.74863654863654,7.024677860210852,29.86572618084883,34.17878216072124,32.64525114565549,1577399509.0,-27.687026648008978,-51.12781063546099,3.1218338
50427,1577399509.67,-0.0635660540771474,4.210802169799805,10.250654697875976,0.2362668272437116,4.108858814965225,13.54475792861566,1.0251173441569004,6.49780630086263,6.247213193766275,0.7099151611328125,4.248809814453125,1.268768310546875,0.8531896079458843,-3.1658265648818595,1.0457852991615852,-1.4528547014508928,10.838826497395834,3.993079775855655,-3.0730024047546336,-18.33726025132275,1.1384036680911775,-39.53853087927163,-50.029629629629625,8.139706091990352,29.67403480396561,33.939167939617214,32.789019678317906,1577399509.0,-27.687026648008978,-51.12781063546099,3.1218338
50428,1577399509.68,0.4894945294189453,2.4869769744873045,10.546338602905273,2.079802105564024,3.922111085473037,7.149845294338319,2.1479979227701813,5.650258913167317,6.860128818766276,1.4270782470703125,3.699493408203125,1.680755615234375,-0.5811365639291157,2.8766539038681405,2.419076314786585,-0.4762922014508928,-3.2297770182291665,0.0257946196056547,-2.078795744392842,-18.619371947496944,2.1954927884615394,-34.17034625182773,-48.13040293040292,7.396353937470683,29.76988049240722,34.08293647227963,32.83694252253871,1577399509.0,-27.687026648008978,-51.12781063546099,3.1218338
50429,1577399509.69,1.6506823345947266,1.1486182464599608,9.163687144165038,1.6763791258276957,0.4756577956781158,6.761984625393007,1.1675723429361973,-0.9254159464518232,9.836121482340497,-7.041549682617188,-5.669403076171875,1.299285888671875,-0.9778650795541156,0.9082701148056403,2.525887838224085,-0.8882795061383928,-4.816691080729167,0.1936412992931546,-1.446118778708062,-18.90148364367114,3.252581908831915,-33.09670932633896,-49.080016280016274,7.842365230182484,29.86572618084883,34.130859316500434,32.789019678317906,1577399509.0,-27.687026648008978,-51.12781063546099,3.1218338
50430,1577399509.7,1.655470737915039,1.4047978240966796,9.625768064575194,3.336757977146055,3.8119778091058496,11.306179376369569,2.689087497965495,1.2329568501790364,7.147433017985025,-4.478073120117188,-4.387664794921875,0.597381591796875,-0.9473475014291156,-1.4873597680068598,1.0152677210365852,-0.8425031389508928,-8.234659830729166,4.176185244605655,-2.349943015400604,-19.8418559642518,2.7646946225071214,-33.096709326338974,-49.08001628001628,7.545024368374619,29.62611195974481,34.08293647227963,32.789019678317906,1577399509.0,-27.687026648008978,-51.12781063546099,3.1218338
50431,1577399509.71,0.6642712506103515,1.2228384979248046,7.660128501586914,-0.3958024110375374,3.88859226223085,10.0348582948266,-0.2940877705891924,3.6654657368977857,9.397982578531902,-0.4497528076171875,1.349639892578125,0.200653076171875,2.4706212485708843,-3.98980117425686,-0.8463045445884148,-0.5373273577008928,-8.906046549479166,4.389808291480655,-2.349943015400604,-19.8418559642518,2.7646946225071214,-6.255786189119516,-48.13040293040292,9.477739970125754,30.009494713511245,34.08293647227963,32.789019678317906,1577399509.0,-27.687026648008978,-51.12781063546099,3.1218338
50432,1577399509.72,0.8115146527099608,3.4051533111572265,8.18565576599121,-0.9009789613305068,1.9875961440667875,10.355681317287535,0.173978653971354,5.920803700764973,9.160956614176431,1.7780303955078125,1.715850830078125,0.002288818359375,-0.7337244545541156,1.3049986304306402,0.8931974085365852,-0.0643048967633928,-7.746378580729166,-0.1878284272693451,-1.0845890840310457,-19.653781500135665,2.276807336182338,-5.987376957747332,-55.48990638990638,9.514907577851735,29.817803336628028,34.130859316500434,32.74109683409711,1577399509.0,-27.687026648008978,-51.12781063546099,3.1218338
50433,1577399509.73,1.7344793927001954,1.3784616058349608,6.968204221801757,1.8834775694312116,2.4281292495355373,9.01253418593988,-0.4999891133626298,-0.8523927958170571,8.878440818277996,-1.4873504638671875,2.387237548828125,-0.043487548828125,0.2123204673208842,2.5714781226181405,2.235970846036585,-0.3237043108258928,-12.262980143229166,-6.535484677269345,-2.169178168062095,-18.90148364367114,1.951549145299146,-5.718967726375147,-62.84940984940984,9.552075185577722,29.96157186929044,34.08293647227963,32.6931739898763,1577399509.0,-27.687026648008978,-51.12781063546099,3.1218338
50434,1577399509.74,2.1031864483642577,0.4638765716552734,8.771038071899413,0.0327596861304303,0.0291391860589747,9.879235186916445,0.2110887797037753,-4.826767551676432,8.208064353434244,-5.271530151367188,-1.549530029296875,-0.348663330078125,5.369791170445884,4.0668394507431405,0.7100919397865852,-0.7204328264508928,-12.873331705729166,1.3990856352306549,-1.2653539313695563,-19.8418559642518,3.089952813390324,-27.728524698895075,-57.62653642653642,8.139706091990352,29.72195764818641,34.03501362805883,32.6931739898763,1577399509.0,-27.687026648008978,-51.12781063546099,3.1218338
50435,1577399509.75,1.147899985961914,1.2587515228271484,9.771814365844726,2.364712103122617,1.1999037978753808,8.323004107814882,0.6899291117350254,1.829113063557943,7.923154355875651,-0.4802703857421875,2.875518798828125,-0.867462158203125,-6.013265470179116,0.4047300757431402,-1.1819979039634148,-0.4152570452008928,-19.282023111979168,7.136390322730655,-1.2653539313695563,-19.8418559642518,3.089952813390324,-22.8971585341956,-56.2021164021164,7.619359583826587,30.05741755773205,34.03501362805883,32.64525114565549,1577399509.0,-27.687026648008978,-51.12781063546099,3.1218338
50436,1577399509.76,-0.3879803790283193,2.3253683624267576,10.791744273071288,-0.2066604798851936,1.6009325759515531,8.403209863430115,2.8087975809733066,2.926854524739583,7.707676206461588,5.5774688720703125,9.940338134765623,0.078582763671875,0.4106847251333844,3.898992771055641,-0.0375887242759147,0.3781999860491072,-32.297770182291664,3.474280947730655,-2.078795744392842,-18.99552087572921,1.8702345975783503,-14.576472361657558,-60.71277981277981,7.730862407004537,29.65007338185521,34.08293647227963,32.789019678317906,1577399509.0,-27.687026648008978,-51.12781063546099,3.1218338
50437,1577399509.77,-0.0827196673583974,2.498947982788086,7.648157493286132,-0.3048227479515999,1.0706169082269434,6.5967847108422255,2.1479979227701813,5.63589370320638,9.584730308024088,-5.149459838867188,-2.861785888671875,0.719451904296875,-2.869954923304116,2.4799253882431405,2.327523580411585,1.3547624860491072,-32.435099283854164,-2.4766467866443453,-1.9884133207235888,-20.218004892484057,2.4394364316239328,-1.9612384871644155,-65.22344322344321,7.247683506566751,29.86572618084883,34.22670500494204,32.64525114565549,1577399509.0,-27.687026648008978,-51.12781063546099,3.1218338
50438,1577399509.78,-0.7028178973388662,2.2643162200927733,7.820540012817382,0.3631595152319928,3.785641590844131,5.552912787014101,0.3762886942545566,-3.7014927714029935,14.104983042399088,-3.5015106201171875,-3.594207763671875,0.719451904296875,-2.229085782679116,0.1911070288681402,1.0763028772865852,-0.5983625139508928,-15.101114908854166,-2.8428577241443453,-1.446118778708062,-18.52533471543888,1.951549145299146,-27.728524698895075,-65.22344322344321,6.9503426447588845,29.72195764818641,34.08293647227963,32.789019678317906,1577399509.0,-27.687026648008978,-51.12781063546099,3.1218338
50439,1577399509.79,0.1219845745849614,0.3944447235107421,8.881171348266601,0.5930028746069929,-0.1360607284918054,8.071612933498475,-0.8256005391438799,-6.0909060282389325,15.479254795328774,-3.5320281982421875,-4.097747802734375,0.429534912109375,-4.334798673304116,3.3649351538681405,0.8626798304115852,-3.161839076450893,12.273152669270834,8.235023135230655,-1.446118778708062,-18.901483643671146,2.4394364316239328,-26.65488777340629,-64.27382987382987,6.9503426447588845,29.69799622607601,34.08293647227963,32.88486536675951,1577399509.0,-27.687026648008978,-51.12781063546099,3.1218338
50440,1577399509.8,1.090439146118164,1.7304092498779295,8.684846812133788,-0.5346661073266005,1.304051570092178,8.416377972560975,1.1436303263346357,1.69623487141927,15.433764963785803,1.8390655517578125,3.516387939453125,0.963592529296875,-3.739705899866616,-3.62359023675686,0.0692227991615852,-4.428318568638392,40.86812337239584,8.326575869605655,-0.903824236692542,-19.8418559642518,2.114178240740744,-25.58125084791753,-62.849409849409845,7.545024368374618,29.86572618084883,34.130859316500434,32.6931739898763,1577399509.0,-27.687026648008978,-51.12781063546099,3.1218338
50441,1577399509.81,1.416050571899414,2.1230583221435544,9.898707053833007,4.837922418064024,-0.9860023178472742,10.389200140529724,3.175110434977213,11.063548866780602,13.966119346110023,-1.7925262451171875,-0.9086608886718748,2.001190185546875,-5.097738126429116,9.46845077886814,2.785287252286585,-2.948216029575893,77.51973470052083,-5.101158505394345,-2.349943015400604,-19.08955810778728,1.4636618589743662,-30.949435475361405,-61.42498982498982,-1.3752014858613844,29.817803336628028,34.22670500494204,32.789019678317906,1577399509.0,-27.687026648008978,-51.12781063546099,3.1218338
50442,1577399509.82,0.908479819946289,1.8812439544677733,9.364800083618164,-0.9967470277367562,3.9676009170160063,13.128166839748474,1.1879230570475254,2.7676401143391915,8.890411826578777,-2.9521942138671875,-2.098846435546875,1.634979248046875,-5.097738126429116,-9.08623672113186,2.968392721036585,-3.436497279575893,76.57368977864583,-13.066246396019343,-1.626883626046571,-19.8418559642518,2.4394364316239328,-4.108512338141983,-65.22344322344321,-1.523871916765318,29.86572618084883,33.939167939617214,32.98071105520113,1577399509.0,-27.687026648008978,-51.12781063546099,3.1218338
50443,1577399509.83,0.9635464581298828,2.7623101654052733,10.870752927856444,2.7190539488257426,3.807189405785537,10.125837957912536,-1.747368178304036,0.1220472798665355,5.002228330485026,-0.8769989013671875,2.021026611328125,0.658416748046875,-0.0928553139291157,6.6303160132431405,2.480111471036585,-2.215794154575893,58.32417805989584,-10.899498349144343,-2.169178168062095,-18.14918578720662,2.2768073361823418,-29.875798549872645,-65.22344322344321,-1.2265310549574535,29.817803336628028,34.27462784916285,32.64525114565549,1577399509.0,-27.687026648008978,-51.12781063546099,3.1218338
50444,1577399509.84,0.2488772625732426,0.1418564483642578,10.661260282592773,2.376683111423399,-0.1121187118902429,11.571935760646912,-0.3898558369954423,-2.341586228434245,1.3582534037272134,-2.524948120117188,1.563262939453125,0.521087646484375,-2.259603360804116,-0.5107972680068598,1.3814786585365852,-1.2392316545758928,21.489461263020832,-2.0799182710193453,-1.9884133207235888,-19.08955810778728,1.788920049857555,-29.875798549872645,-65.22344322344321,-1.2265310549574535,29.817803336628028,34.08293647227963,32.789019678317906,1577399509.0,-27.687026648008978,-51.12781063546099,3.1218338
50445,1577399509.85,0.3673902447509765,1.9770120208740236,8.378388999633788,-0.8662630372582405,1.9205584975824124,7.753184112697694,0.9101956644694008,1.0689540364583332,3.841040525309245,-1.7925262451171875,-1.183319091796875,0.749969482421875,3.4319249595083843,-2.11297011956936,1.1831144007240852,0.4697527204241072,-24.759928385416668,4.481361025855655,-3.253767252093146,-18.14918578720662,2.6020655270655304,-20.48147545184582,-59.28835978835978,6.987510252484869,29.72195764818641,34.058975050169224,32.7171354119867,1577399509.0,-27.687026648008978,-51.12781063546099,3.1218338
50446,1577399509.86,0.7815871319580078,2.1302409271240235,7.664916904907225,1.3974546324194927,-0.0450810654058679,8.442714190822695,1.5733895243326816,0.3303428243001293,13.595018088785809,-2.7080535888671875,-3.014373779296875,1.116180419921875,-2.717367032679116,0.3742124976181402,1.7476895960365852,-0.6593976702008928,-24.134318033854168,9.120032900855657,-1.9884133207235888,-19.8418559642518,1.4636618589743662,-3.571693875397591,-63.7990231990232,-0.1115028231779525,29.67403480396561,34.03501362805883,32.6931739898763,1577399509.0,-27.687026648008978,-51.12781063546099,3.1218338
50447,1577399509.87,1.6506823345947266,2.920327474975586,7.468592368774413,0.0806437193335553,3.316378065453506,9.872052581935977,0.8790710428873691,9.310993251546224,13.02519809366862,0.5878448486328125,0.4341125488281251,1.024627685546875,-0.4285486733041157,-4.81377578363186,1.3509610804115852,-0.2321515764508928,-5.701700846354167,2.7418590727306547,-1.8076484733850768,-19.277632571903403,1.951549145299146,-5.718967726375147,-64.74863654863654,-0.8548549776976211,29.86572618084883,34.17878216072124,32.64525114565549,1577399509.0,-27.687026648008978,-51.12781063546099,3.1218338
