,timestamp,acc_x_dashboard,acc_y_dashboard,acc_z_dashboard,acc_x_above_suspension,acc_y_above_suspension,acc_z_above_suspension,acc_x_below_suspension,acc_y_below_suspension,acc_z_below_suspension,gyro_x_dashboard,gyro_y_dashboard,gyro_z_dashboard,gyro_x_above_suspension,gyro_y_above_suspension,gyro_z_above_suspension,gyro_x_below_suspension,gyro_y_below_suspension,gyro_z_below_suspension,mag_x_dashboard,mag_y_dashboard,mag_z_dashboard,mag_x_above_suspension,mag_y_above_suspension,mag_z_above_suspension,temp_dashboard,temp_above_suspension,temp_below_suspension,timestamp_gps,latitude,longitude,speed
6063,1577399066.03,1.1981782208251952,0.2771288421630859,9.70477671936035,2.0462832823218364,-1.1320486191168055,10.346104510646912,0.3667118876139316,2.5569503682454418,6.824215793863932,-1.7314910888671875,-1.580047607421875,0.109100341796875,-1.5882166420541155,0.7709410132431402,-0.5106111852134148,-4.779270717075892,8.397420247395834,-0.8592151460193452,3.9768266414471753,-2.350930801451634,0.0,-22.36034007145118,-33.88620268620268,9.329069539221818,31.111720130589752,39.83367777877617,35.856081708449395,1577399066.0,-27.715053064205065,-51.101748568938426,19.733746
6064,1577399066.04,1.2915520855712892,0.6865373260498047,9.24509000061035,0.3631595152319928,2.7968363051996,10.607072491603944,0.2541844095865878,0.9552294576009104,8.507339560953776,-0.1140594482421875,1.105499267578125,-0.043487548828125,1.7076817954458845,-3.3489320336318595,1.6256192835365852,-1.2087140764508928,4.369099934895833,-1.4695667085193451,3.9768266414471753,-3.103228657916157,-0.9757745726495664,-6.255786189119516,-4.448188848188844,-6.876007429306919,31.20756581903136,39.83367777877617,36.047773085332615,1577399066.0,-27.715053064205065,-51.101748568938426,19.733746
6065,1577399066.05,0.7911639385986328,0.5668272430419922,10.457753141479492,0.8575621580542588,-0.2641505173101653,9.698472961574646,0.1871467631022133,0.4835717305501302,10.501709543863932,-0.0682830810546875,1.151275634765625,-0.135040283203125,-3.556600431116616,5.8978941382431405,-0.1138826695884147,-1.1934552873883928,-1.1393229166666667,-0.0047229585193452,4.067209065116431,-4.137638210554875,-0.0813145477207921,-15.918518518518525,-3.4985754985755,-6.1698228825132375,31.063797286368946,39.88160062299697,35.9040045526702,1577399066.0,-27.715053064205065,-51.101748568938426,19.733746
6066,1577399066.06,0.9539696514892576,0.9570821136474608,10.317692344360353,1.428579254001524,1.1831443862542872,14.327661871486756,1.7194358256022129,-1.7382474100748695,9.761901230875653,0.6183624267578125,2.326202392578125,-0.043487548828125,0.8837071860708843,-1.94512343988186,1.0763028772865852,0.8054460797991072,4.247029622395833,0.9413219633556548,4.157591488785688,-4.043600978496809,-1.138403668091164,-1.9612384871644155,-41.48310948310948,8.139706091990352,31.111720130589752,39.73783209033456,35.95192739689101,1577399066.0,-27.715053064205065,-51.101748568938426,19.733746
6067,1577399066.07,1.6219519146728516,-0.2088940948486328,9.8388520123291,1.055083795017149,1.269335646019912,8.734806793361757,1.6476097757975252,4.484282704671223,8.069200657145181,-0.7244110107421875,2.173614501953125,-0.318145751953125,2.5926915610708843,4.7077085913681405,0.8321622522865852,1.2937273297991072,0.7985432942708333,-0.6761096772693452,3.79606179410867,-2.915154193800025,2.114178240740744,-1.9612384871644155,-41.48310948310948,8.139706091990352,31.20756581903136,39.97744631143858,36.047773085332615,1577399066.0,-27.715053064205065,-51.101748568938426,19.733746
6068,1577399066.08,0.5756857891845703,0.5237316131591797,9.486904368286131,2.4102019346655865,-0.2126751816168054,6.649457147365663,2.009134226481119,-0.2586307840983072,8.516916367594401,-1.5789031982421875,2.509307861328125,-0.409698486328125,-2.198568204554116,3.2733824194931405,-1.6092439977134148,-0.2931867327008928,-7.624308268229167,-2.1409534272693453,3.9768266414471753,-3.479377586148418,-0.6505163817663776,-4.108512338141983,-34.83581603581603,8.139706091990352,31.20756581903136,39.97744631143858,36.047773085332615,1577399066.0,-27.715053064205065,-51.101748568938426,19.733746
6069,1577399066.09,1.3250709088134769,0.2890998504638671,8.62020336730957,0.6744057310523057,0.1105420425042877,7.131888781887147,0.4541002482096347,-0.2586307840983076,9.80739106241862,-0.9838104248046876,2.051544189453125,-0.318145751953125,-0.0928553139291157,0.6641294898056402,0.8016446741615852,2.773829868861608,-3.824869791666667,-0.5998157319568451,4.519121183462703,-3.4793775861484173,-0.4878872863247865,-16.992155444007295,-17.74277574277574,0.4088436849858112,31.111720130589752,40.00140773354899,35.9040045526702,1577399066.0,-27.715053064205065,-51.101748568938426,19.733746
6070,1577399066.1,0.9156624249267578,1.2108674896240237,8.677664207153319,0.8300288389624616,1.755358583031631,8.095554950100038,1.6500039774576816,-0.3903118754069009,8.401994687906901,-0.1445770263671875,1.532745361328125,-0.348663330078125,-2.412191251429116,1.1676695288681402,-0.1749178258384147,-2.215794154575893,0.2187093098958333,1.0939098539806549,5.60371026749375,-4.043600978496809,-1.4636618589743595,-40.61216780476041,-34.83581603581603,6.9503426447588845,31.25548866325217,39.97744631143858,35.99985024111181,1577399066.0,-27.715053064205065,-51.101748568938426,19.733746
6071,1577399066.11,0.7959523419189453,0.7679401824951172,10.322480747680665,2.4293555479468365,0.835985145531631,11.717982061916445,-0.0690328145345048,-1.2881374979654947,8.047652842203776,-0.5107879638671875,1.898956298828125,-0.562286376953125,-1.6492517983041155,4.2499449194931405,1.4119962366615852,1.6904558454241072,0.5544026692708333,2.5892711821056547,4.699886030801212,-3.479377586148418,-1.6262909544159505,-19.13942929498485,-4.448188848188844,9.775080831933622,31.063797286368946,40.02536915565939,36.047773085332615,1577399066.0,-27.715053064205065,-51.101748568938426,19.733746
6072,1577399066.12,0.266833775024414,0.0472854827880859,9.605417350463869,-1.5378366029320685,-2.1950741562261804,5.435596905666444,0.7856971781412754,0.4620239156087231,7.420372007242838,-1.1974334716796875,1.303863525390625,-0.394439697265625,0.3954259360708843,0.4047300757431402,0.8321622522865852,-1.2392316545758928,-8.387247721354166,-0.0657581147693452,4.3383563361241935,-2.350930801451634,-0.6505163817663775,-8.403060040097083,-34.83581603581603,9.923751262837555,31.20756581903136,39.83367777877617,35.95192739689101,1577399066.0,-27.715053064205065,-51.101748568938426,19.733746
6073,1577399066.13,0.1375468853759765,0.3034650604248046,8.16051664855957,0.6851796385230084,1.141245857201553,10.510107324367617,0.7042943216959628,0.3315399251302079,10.789013743082682,-0.7854461669921875,1.715850830078125,-0.440216064453125,-1.6339930092416155,0.7709410132431403,0.4049161585365852,-5.237034388950892,-9.867350260416666,0.5293346586681549,3.615296946770161,-3.103228657916157,0.6505163817663843,-7.3294231146083,-34.83581603581603,8.808723031058054,31.111720130589752,39.64198640189295,35.808158864228595,1577399066.0,-27.715053064205065,-51.101748568938426,19.733746
6074,1577399066.14,0.0058657940673828,0.4135983367919921,9.2642436138916,-0.3838314027367561,-1.1631732406988369,6.845781683498475,0.4385379374186191,0.9719888692220042,11.464178611246744,-1.5789031982421875,-1.427459716796875,0.261688232421875,-3.693929532679116,-1.7315003930068598,0.0997403772865852,-2.368382045200893,3.300984700520833,0.1173473539806547,3.615296946770161,-3.103228657916157,0.6505163817663843,-18.06579236949609,-1.5993487993488031,-6.132655274787254,31.111720130589752,40.02536915565939,35.95192739689101,1577399066.0,-27.715053064205065,-51.101748568938426,19.733746
6075,1577399066.15,0.611598814086914,1.1558008514404297,10.607390745239258,1.1532460630835553,0.6444490127191309,11.320544586330506,0.4409321390787754,-0.0575178446451822,10.302990806070962,-0.1445770263671875,0.7698059082031251,0.048065185546875,-0.3675135170541157,-1.3958070336318598,1.0763028772865852,-0.6899152483258928,2.385457356770833,0.7582164946056548,5.965239962170768,-3.667452050264546,0.1626290954415977,-30.949435475361405,-34.83581603581603,8.139706091990352,31.20756581903136,39.88160062299697,35.95192739689101,1577399066.0,-27.715053064205065,-51.101748568938426,19.733746
6076,1577399066.16,1.1359289776611328,0.4231751434326171,11.208335361938476,1.7398254698218365,1.4465065688714749,9.8050149354516,1.424949021402994,0.452447108968098,7.93033696085612,-0.6633758544921875,1.074981689453125,0.048065185546875,-0.3064783608041157,2.0221617163681405,1.2899259241615852,1.0801042829241072,-1.5513102213541667,0.9718395414806548,4.338356336124197,-3.855526514380679,0.6505163817663843,-6.255786189119516,-34.83581603581603,7.247683506566751,31.20756581903136,39.64198640189295,36.047773085332615,1577399066.0,-27.715053064205065,-51.101748568938426,19.733746
6077,1577399066.17,0.4571728070068359,0.0065840545654296,9.516831889038086,1.0383243833960552,-0.5658199264898528,8.221250537258241,1.567404020182291,1.0354352132161453,8.072791959635417,-1.3042449951171875,-0.725555419921875,0.246429443359375,-1.5576990639291155,-2.15874648675686,0.8779386194740852,-1.2392316545758928,-13.117472330729166,-0.6761096772693452,3.705679370439417,-3.385340354090352,0.5692018340455853,-6.255786189119533,-33.41139601139601,1.2265310549574455,31.15964297481056,39.85763920088657,35.95192739689101,1577399066.0,-27.715053064205065,-51.101748568938426,19.733746
6078,1577399066.18,0.5230133526611328,0.0137666595458984,10.080666380004882,0.1524697691382428,1.317219679223037,8.251178058010193,1.5877547342936191,2.6239880147298167,11.74190600382487,-0.1445770263671875,-1.244354248046875,0.261688232421875,-0.9473475014291156,0.0080015601181402,0.8626798304115852,-1.8190656389508928,-7.380167643229167,-1.0118030366443451,2.892237557416128,-2.7270797296838944,-0.3252581908831888,-19.13942929498485,-3.4985754985755,-8.362711738346256,31.39925719591458,39.83367777877617,35.95192739689101,1577399066.0,-27.715053064205065,-51.101748568938426,19.733746
6079,1577399066.19,0.9060856182861328,0.9546879119873046,10.597813938598632,0.786933209079649,-0.3084432480230554,9.239983343654725,2.6866932963053385,-0.919430442301432,12.56551137491862,1.5949249267578125,-0.6950378417968749,0.292205810546875,-2.961507657679116,1.6559507788681402,0.5880216272865852,-2.063206263950893,3.453572591145833,0.2394176664806547,2.892237557416128,-2.7270797296838944,-0.3252581908831888,-37.391257028294085,-32.936589336589336,9.329069539221818,30.92002875370653,39.83367777877617,35.856081708449395,1577399066.0,-27.715053064205065,-51.101748568938426,19.733746
6080,1577399066.2,0.5517437725830078,1.0887632049560547,10.707947214965818,1.2298605162085552,0.9114024978265534,10.131823462062927,-0.0103748738606772,0.2537283711751299,12.1561028910319,0.6183624267578125,-0.0541687011718748,0.139617919921875,-1.420369962366616,-1.59417129144436,1.320443502286585,-2.322605678013393,12.425740559895832,0.5903698149181548,4.519121183462703,-3.2913031220322875,-0.162629095441591,-4.108512338141983,-34.83581603581603,9.329069539221818,31.01587444214814,39.71387066822416,35.9040045526702,1577399066.0,-27.715053064205065,-51.101748568938426,19.733746
6081,1577399066.21,0.4930858319091796,-0.651821401977539,10.207559067993165,-0.3479183778344124,-0.3275968613043055,10.128232159572692,0.0985613016764316,4.275987160237629,11.480938022867836,-1.7925262451171875,-1.351165771484375,-0.028228759765625,4.942545076695884,-8.75054336175686,2.144418111661585,-2.124241420200893,21.397908528645832,-1.7137073335193451,3.344149675762401,-3.761489282322614,-0.0813145477207955,-10.55033389107465,-29.13813593813593,10.072421693741486,31.15964297481056,39.88160062299697,35.99985024111181,1577399066.0,-27.715053064205065,-51.101748568938426,19.733746
6082,1577399066.22,0.4152742779541015,1.0911574066162109,12.012787119750977,1.1053620298804303,1.3196138808831934,10.279066864162536,0.1081381083170566,0.6368006368001292,10.769860129801431,1.3202667236328125,-0.2677917480468749,0.475311279296875,-0.9778650795541156,6.4166929663681405,-0.2664705602134147,1.2021745954241072,20.757039388020832,-1.3474963960193451,3.615296946770161,-3.479377586148418,0.0,-14.84488159302974,-4.448188848188844,-4.94329182755579,31.01587444214814,39.83367777877617,35.80815886422859,1577399066.0,-27.715053064205065,-51.101748568938426,19.733746
6083,1577399066.23,0.6570886456298828,0.0616506927490234,10.396700999145509,3.3606999937476174,-0.6579966904058681,10.152174176174256,0.0219468485514316,-0.2801785990397134,9.438684006754558,0.0995635986328124,0.3730773925781251,0.078582763671875,-1.4356287514291155,0.0080015601181402,0.5269864710365852,0.8969988141741072,16.484578450520832,-1.1643909272693451,3.615296946770161,-3.479377586148418,0.0,-13.77124466754098,-4.448188848188844,-7.322018722018729,31.25548866325217,39.68990924611376,35.80815886422859,1577399066.0,-27.715053064205065,-51.101748568938426,19.733746
6084,1577399066.24,0.716943687133789,0.3776853118896484,9.101437901000976,-0.3634806886254285,0.9042198928460846,9.244771746975037,0.418187223307291,0.0597980367024735,5.918010465494792,-1.5789031982421875,-0.2677917480468749,0.414276123046875,0.2886144126333842,-5.27153945550686,0.2065519007240852,2.056666782924107,4.597981770833334,0.2394176664806548,3.615296946770161,-3.103228657916157,-0.3252581908831888,-5.718967726375135,-22.016035816035814,0.5575141158897483,31.25548866325217,39.85763920088657,36.02381166322221,1577399066.0,-27.715053064205065,-51.101748568938426,19.733746
6085,1577399066.25,1.076073936157227,0.7655459808349608,9.39233340270996,1.33520538925543,0.0674464126214747,9.706852667385194,1.3435461649576816,0.9528352559407542,9.127437790934245,-0.8617401123046875,-0.3898620605468749,0.154876708984375,-2.015462735804116,0.7099058569931402,1.2899259241615852,-0.0185285295758927,-3.718058268229168,1.1244274321056549,4.247973912454939,-3.385340354090352,-0.4065727386039843,-6.255786189119516,-34.83581603581603,6.9503426447588845,31.23152724114176,39.88160062299697,35.95192739689101,1577399066.0,-27.715053064205065,-51.101748568938426,19.733746
6086,1577399066.26,0.238103355102539,-0.3716998077392578,10.43979662902832,1.3878778257788678,-0.0594462753668054,10.018098883205504,0.6396508768717442,0.8020005513509104,10.034840220133464,-0.9990692138671876,-0.5119323730468749,0.231170654296875,-0.0623377358041157,0.9845640601181402,0.0387052210365852,-1.3918195452008928,-4.938761393229167,0.6361461821056548,3.79606179410867,-4.043600978496809,-0.162629095441591,-6.255786189119516,-34.83581603581603,-1.3752014858613844,31.20756581903136,40.0732919998802,35.99985024111181,1577399066.0,-27.715053064205065,-51.101748568938426,19.733746
6087,1577399066.27,1.0377667095947265,-0.0628477935791015,10.126156211547851,2.2019063902319926,1.427352955590225,11.775442901760194,1.2453838968912754,3.5529382588704417,11.648532139078776,-0.4192352294921875,0.4341125488281251,-0.562286376953125,-4.670492032679116,2.3883726538681405,0.5269864710365852,-1.6664777483258928,-3.1992594401041665,-1.805260067894345,3.79606179410867,-4.043600978496809,-0.162629095441591,-14.84488159302974,-27.23890923890924,-3.60525794942039,31.25548866325217,39.83367777877617,36.19154161799503,1577399066.0,-27.715053064205065,-51.101748568938426,19.733746
6088,1577399066.28,0.6367379315185552,0.6685808135986328,9.937014280395507,0.749823083347227,0.5702287612542872,9.845716363674256,1.0346941507975254,-0.0263932230631514,10.239544462076822,1.8543243408203125,-0.0694274902343748,-0.028228759765625,-2.686849454554116,1.6254332007431405,-1.1362215367759148,0.0119890485491072,-1.4444986979166663,-0.8134387788318451,3.9768266414471753,-2.350930801451634,3.3584246494910985e-15,-9.745106196958051,-18.454985754985756,0.9663578008755644,31.20756581903136,39.83367777877616,35.95192739689101,1577399066.0,-27.715053064205065,-51.101748568938426,19.733746
6089,1577399066.29,0.5804741925048827,0.947505307006836,9.874765037231445,0.4206203550757428,2.8112015151605374,7.738818902736757,2.586136826578776,-1.7095169901529947,8.928719053141277,-0.9075164794921876,-1.091766357421875,-0.348663330078125,0.6700841391958843,3.0597593726181405,-0.0833650914634147,-0.7509504045758928,-4.206339518229167,2.7113414946056547,3.9768266414471753,-2.350930801451634,0.3252581908831954,-15.918518518518525,-29.13813593813593,9.329069539221818,31.063797286368946,39.73783209033456,35.80815886422859,1577399066.0,-27.715053064205065,-51.101748568938426,19.733746
6090,1577399066.3,0.812711753540039,-0.5297171173095703,8.644145383911132,2.237819415134336,-2.944459275855088,10.216817620998476,1.5494475077311192,3.883338087972004,8.308620823160807,-1.5789031982421875,-0.1762390136718749,-0.775909423828125,-3.175130704554116,6.9049742163681405,0.5269864710365852,-1.7885480608258928,-8.600870768229166,2.0094371977306547,2.892237557416128,-2.7270797296838944,-0.9757745726495664,-19.13942929498485,-25.33968253968253,7.247683506566751,31.111720130589752,39.68990924611376,36.047773085332615,1577399066.0,-27.715053064205065,-51.101748568938426,19.733746
6091,1577399066.31,0.1974019268798828,-0.5440823272705078,8.028835557250975,-0.4676284608422248,-1.1224718124761806,11.155344671779725,-0.3539428120930986,2.224156337483724,10.94942525431315,0.9540557861328124,1.197052001953125,0.139617919921875,2.6232091391958843,-8.93364883050686,0.4659513147865852,0.0119890485491072,-5.732218424479167,-0.1878284272693452,2.892237557416128,-2.7270797296838944,-0.9757745726495664,-10.55033389107465,-4.448188848188844,-7.024677860210856,31.01587444214814,39.68990924611376,35.95192739689101,1577399066.0,-27.715053064205065,-51.101748568938426,19.733746
6092,1577399066.32,0.4152742779541015,0.1789665740966796,10.753437046508788,0.2147190123023053,2.789653700219131,7.590378399807069,1.0969433939615878,0.3638616475423168,13.14490817667643,1.7932891845703125,-0.3288269042968749,0.078582763671875,-1.6492517983041155,1.93060898199314,0.5880216272865852,-0.0185285295758927,3.9418538411458335,-0.4930042085193452,3.6152969467701626,-3.2913031220322866,-0.6505163817663776,-10.55033389107465,-4.448188848188844,-7.024677860210856,31.18360439692096,39.64198640189295,36.19154161799503,1577399066.0,-27.715053064205065,-51.101748568938426,19.733746
6093,1577399066.33,0.4224568829345703,1.3952210174560546,10.806109483032223,1.0754345091284772,0.9257677077874908,10.540034845119568,0.4983929789225254,-0.8739406107584633,11.088288950602212,0.7099151611328125,0.5256652832031251,0.322723388671875,-0.4895838295541156,1.7627623023056405,-0.4190584508384147,2.285548618861608,15.935262044270832,-1.0423206147693451,5.242180572816732,-3.2913031220322875,-0.162629095441591,-1.1560107930478392,-15.13133903133903,1.189363447231465,31.20756581903136,39.76179351244497,35.9040045526702,1577399066.0,-27.715053064205065,-51.101748568938426,19.733746
6094,1577399066.34,1.1598709942626952,1.1893196746826171,10.370364780883788,-0.6735298036156624,0.6707852309808497,9.160974688869567,-0.2581747456868486,-0.8428159891764321,8.593530820719401,0.8930206298828125,-2.037811279296875,0.139617919921875,0.9752599204458844,-7.7434632836318595,0.7711270960365852,-0.7204328264508928,15.202840169270834,-0.9812854585193452,4.519121183462703,-4.043600978496809,-0.8131454772079686,-4.108512338141983,-32.936589336589336,6.9503426447588845,31.20756581903136,39.88160062299697,36.047773085332615,1577399066.0,-27.715053064205065,-51.101748568938426,19.733746
6095,1577399066.35,0.9539696514892576,0.4399345550537109,10.20995326965332,1.0598721983374615,1.6164948867425684,10.286249469143003,0.5845842386881503,1.6088465108235677,7.561629905192057,-1.3652801513671875,-0.6645202636718749,-0.226593017578125,1.5550939048208845,1.1981871069931402,-1.6397615758384148,1.8430437360491072,3.6366780598958335,-0.4624866303943452,5.061415725478226,-4.23167544261294,0.0,-4.108512338141983,-32.936589336589336,-2.4158945021889204,31.30341150747297,39.83367777877617,35.95192739689101,1577399066.0,-27.715053064205065,-51.101748568938426,19.733746
6096,1577399066.36,0.8905233074951172,0.364517202758789,9.82688100402832,1.92896740097418,2.217439503441787,12.950995916896913,1.7553488505045565,0.9384700459798168,7.688522593180338,-0.2208709716796875,-0.8934020996093748,-0.211334228515625,-1.2220057045541155,4.0363218726181405,-0.6631990758384148,1.5989031110491072,-4.847208658854167,-1.1949085053943451,4.971033301808972,-3.949563746438743,0.0813145477207988,-4.108512338141983,-32.936589336589336,-2.4158945021889204,31.23152724114176,39.73783209033456,36.19154161799503,1577399066.0,-27.715053064205065,-51.101748568938426,19.733746
6097,1577399066.37,0.487100327758789,0.1885433807373046,7.696041526489257,-0.3335531678734754,-0.2246461899175872,8.891627002101991,0.965262302652994,-1.0582941385904947,8.9382958597819,-0.0530242919921875,-0.9696960449218748,0.078582763671875,1.6161290610708845,-1.7620179711318595,0.5117276819740852,-1.0408673967633928,-8.280436197916666,-0.6455920991443452,3.434532099431656,-1.410558480870978,0.4878872863247865,-12.42919851068,-2.3115588115588106,-7.284851114292742,31.25548866325217,39.78575493455536,35.999850241111815,1577399066.0,-27.715053064205065,-51.101748568938426,19.733746
6098,1577399066.38,-0.0587776507568349,0.6434416961669921,8.94581479309082,1.141275054782774,1.0227328750238185,8.588760492092225,-0.7034962544759111,-0.3280626322428384,9.158562412516275,1.9001007080078125,-1.610565185546875,-0.012969970703125,-0.5506189858041157,2.8461363257431405,-1.0904451695884148,1.2326921735491072,-6.159464518229167,1.1244274321056549,5.422945420155245,-3.103228657916157,-0.9757745726495664,-4.108512338141983,-4.448188848188844,10.072421693741486,31.111720130589752,39.73783209033456,35.856081708449395,1577399066.0,-27.715053064205065,-51.101748568938426,19.733746
6099,1577399066.39,0.6714538555908203,-0.0556651885986328,10.70076460998535,-0.0845561952172249,-0.3659040878668054,13.439413055568789,0.0363120585123691,0.5721571919759105,8.097931077067058,-0.1750946044921875,-3.289031982421875,-0.074005126953125,1.7076817954458845,0.9845640601181402,0.4659513147865852,1.2326921735491072,-9.058634440104166,1.6432262602306549,3.79606179410867,-3.2913031220322875,0.1626290954415977,30.247869277498904,-4.448188848188844,10.072421693741486,31.20756581903136,39.97744631143858,35.856081708449395,1577399066.0,-27.715053064205065,-51.101748568938426,19.733746
6100,1577399066.4,1.076073936157227,0.8493430389404296,8.009681943969726,0.5487101438941027,-0.3946345077886805,8.594745996242617,0.1320801249186196,0.0011400960286454,9.87682291056315,0.4657745361328124,-1.122283935546875,-0.135040283203125,1.3414708579458845,-3.36419082269436,0.6337979944740852,0.7901872907366072,-10.828653971354166,0.4835582914806547,3.886444217777923,-2.63304249762583,-0.0813145477207955,7.701493842234568,-16.79316239316239,2.713235363996781,31.135681552700152,39.80971635666576,36.02381166322221,1577399066.0,-27.715053064205065,-51.101748568938426,19.733746
6101,1577399066.41,0.7791929302978515,1.227626901245117,8.677664207153319,1.4261850523413675,-0.3491446762457117,9.359693426662538,1.7433778422037751,0.2537283711751293,11.346862729899089,-0.0225067138671875,-1.824188232421875,0.444793701171875,0.7311192954458843,-4.56963515863186,0.9847501429115852,-1.9716535295758928,-2.7414957682291665,0.9718395414806548,4.338356336124197,-3.103228657916157,-0.3252581908831888,-10.55033389107465,-4.448188848188844,-5.537973551171519,30.92002875370653,39.97744631143858,36.047773085332615,1577399066.0,-27.715053064205065,-51.101748568938426,19.733746
6102,1577399066.42,0.716943687133789,0.0448912811279296,11.478880149536131,1.6991240415991802,-0.801648790015243,10.745936187893006,1.001175327555338,1.5657508809407552,10.659726853434243,1.0150909423828125,-1.030731201171875,0.170135498046875,-1.0083826576791155,3.3649351538681405,0.2828458460365852,4.986354282924108,1.1952718098958333,-0.0657581147693452,3.615296946770161,-3.855526514380679,0.3252581908831954,-10.55033389107465,-4.448188848188844,-5.537973551171519,31.01587444214814,39.97744631143858,35.99985024111181,1577399066.0,-27.715053064205065,-51.101748568938426,19.733746
6103,1577399066.43,1.05452612121582,-0.0843956085205078,10.205164866333009,2.3168280699194925,0.0075913711175685,11.435466266018006,0.2446076029459628,0.8403077779134105,5.560077317301432,1.8695831298828125,-0.4508972167968749,0.505828857421875,2.7147618735708843,-6.61431289300686,1.0763028772865852,1.9651140485491072,-7.776896158854167,-0.9812854585193452,4.8806508781397175,-3.2913031220322875,-0.162629095441591,-10.55033389107465,-4.448188848188844,-5.537973551171519,31.111720130589752,39.97744631143858,35.856081708449395,1577399066.0,-27.715053064205065,-51.101748568938426,19.733746
6104,1577399066.44,0.3278859173583989,0.7870937957763672,9.172066849975584,-0.487979174953553,-0.1336665268316497,5.77078513808832,1.3543200724283846,0.5637774861653636,8.205670151774088,0.0690460205078125,-1.030731201171875,-0.150299072265625,0.0444737876333842,-1.13640761956936,0.1455167444740852,2.270289829799107,-16.367594401041668,-1.1643909272693451,4.428738759793447,-3.5734148182064835,0.2439436431623966,-7.597832345980508,-28.900732600732603,6.987510252484869,31.25548866325217,39.92952346721778,36.02381166322221,1577399066.0,-27.715053064205065,-51.101748568938426,19.733746
6105,1577399066.45,0.9970652813720702,0.5692214447021484,8.711183030395507,3.1188856260718363,-0.3443562729253992,11.92388340468988,0.3379814676920566,-0.6129726298014321,12.026816001383462,-0.8464813232421875,-2.922821044921875,0.017547607421875,-5.463949063929116,-2.3113343773818595,0.6185392054115852,1.2937273297991072,-5.518595377604167,1.2159801664806549,4.519121183462703,-2.915154193800025,-0.8131454772079686,-29.33898008712823,-2.074155474155475,-6.50433135204709,31.20756581903136,39.83367777877617,36.19154161799503,1577399066.0,-27.715053064205065,-51.101748568938426,19.733746
6106,1577399066.46,0.7480683087158202,0.6147112762451171,10.909060154418944,-0.2234198915062874,3.354685292016006,8.63664452529535,2.272496409098306,1.7405276021321614,12.529598350016276,-0.5413055419921875,-1.885223388671875,-0.226593017578125,1.0668126548208845,-3.92876601800686,1.4119962366615852,0.8054460797991072,2.263387044270833,1.4906383696056549,3.615296946770161,-3.855526514380679,2.2768073361823418,-30.41261701261704,-22.965649165649168,7.024677860210852,31.39925719591458,39.97744631143858,35.95192739689101,1577399066.0,-27.715053064205065,-51.101748568938426,19.733746
6107,1577399066.47,1.2700042706298829,0.4734533782958984,10.2985387310791,1.2897155577124615,-1.136837022437118,11.92388340468988,3.438472617594401,1.2736582784016923,9.931889548746744,0.5878448486328125,-1.244354248046875,0.261688232421875,-3.449788907679116,5.6232359351181405,0.1607755335365852,0.5307878766741072,3.6977132161458335,-0.5540393647693452,3.615296946770161,-4.983973299077465,-0.6505163817663776,-30.41261701261704,-22.965649165649168,7.024677860210852,31.20756581903136,39.68990924611376,35.99985024111181,1577399066.0,-27.715053064205065,-51.101748568938426,19.733746
6108,1577399066.48,0.659482847290039,0.7775169891357422,8.67048160217285,2.3311932798804302,-2.269294407691024,8.205688226467226,0.7761203715006504,-0.9433724589029946,10.121031479899088,-0.6633758544921875,-1.976776123046875,0.322723388671875,-2.412191251429116,-7.8350160180068595,0.4049161585365852,-2.032688685825893,3.117879231770833,1.1549450102306549,3.79606179410867,-3.667452050264546,1.1384036680911775,-1.9612384871644155,-27.23890923890924,9.329069539221818,31.30341150747297,39.64198640189295,36.047773085332615,1577399066.0,-27.715053064205065,-51.101748568938426,19.733746
6109,1577399066.49,1.5034389324951172,0.2938882537841796,8.40831652038574,1.6679994200171495,-0.2833041305914154,9.720020776516051,-0.3288036946614584,-0.4932625467936196,10.262289377848306,-3.059005737304688,-2.220916748046875,-0.226593017578125,-0.0623377358041159,-1.2737367211318595,1.0763028772865852,-4.428318568638392,-1.3682047526041667,0.4072643461681548,3.6152969467701626,-2.9151541938000247,0.813145477207982,-12.160789279307805,-32.461782661782664,8.065370876538385,31.18360439692096,39.83367777877617,35.927965974780605,1577399066.0,-27.715053064205065,-51.101748568938426,19.733746
6110,1577399066.5,0.8797494000244139,0.7487865692138671,8.476551267700195,-0.6088863587914436,0.4888259048089747,8.413983770900819,-0.6292760030110673,1.6471537373860676,9.958225767008464,-0.8769989013671875,0.0984191894531251,-0.135040283203125,0.1512853110708842,1.0150816382431402,0.8321622522865852,-3.192356654575893,5.345662434895833,1.2159801664806549,3.615296946770161,-4.23167544261294,-0.3252581908831888,-14.84488159302974,4.098331298331297,-7.322018722018729,31.111720130589752,39.83367777877617,35.66439033156618,1577399066.0,-27.715053064205065,-51.101748568938426,19.733746
6111,1577399066.51,-0.2359485736083974,-0.3477577911376953,9.118197312622067,2.59934386581793,-0.9860023178472742,10.559188458400818,0.8551290262858066,0.4404761006673168,10.15215610148112,0.5878448486328125,-0.2067565917968749,0.688934326171875,-2.595296720179116,0.5573179663681402,1.0457852991615852,-4.870823451450892,7.146199544270833,-0.3404163178943452,4.519121183462703,-2.915154193800025,-0.4878872863247798,-14.84488159302974,4.098331298331297,-7.322018722018729,31.20756581903136,39.97744631143858,35.99985024111181,1577399066.0,-27.715053064205065,-51.101748568938426,19.733746
6112,1577399066.52,0.9898826763916015,0.5392939239501953,11.369943973999025,1.390272027439024,-1.0745877792730554,9.603901995998475,0.9987811258951816,-0.3711582621256509,7.707676206461588,-0.3429412841796875,-0.939178466796875,0.276947021484375,0.8226720298208843,-4.81377578363186,1.9613126429115848,0.1035417829241072,5.345662434895833,0.3004528227306547,4.157591488785688,-2.162856337335503,0.1626290954415977,-6.255786189119516,-4.448188848188844,6.9503426447588845,31.111720130589752,39.73783209033456,35.99985024111181,1577399066.0,-27.715053064205065,-51.101748568938426,19.733746
6113,1577399066.53,1.167053599243164,0.3034650604248046,7.925884885864256,1.2621822386206645,0.6408577102288973,8.915569018703554,1.4572707438151034,0.8295338704427073,6.228059580485025,-3.3489227294921875,-0.5119323730468749,-0.623321533203125,3.2945958579458843,-1.3195130883193595,1.4577726038490852,-1.4986310686383928,-12.964884440104168,-1.5153430757068451,5.422945420155245,-1.974781873219373,-0.3252581908831888,-6.255786189119516,-32.936589336589336,1.6725423476692474,31.20756581903136,39.76179351244496,35.927965974780605,1577399066.0,-27.715053064205065,-51.101748568938426,19.733746
6114,1577399066.54,0.3602076397705077,-0.220865103149414,7.798992197875975,-0.4221386292992561,-2.8917868393316497,10.453843585353942,0.7689377665201816,-0.6584624613444009,12.56551137491862,-1.7925262451171875,-1.702117919921875,0.261688232421875,-1.0999353920541155,-4.53911758050686,1.1373380335365852,3.674098423549107,-11.103312174479166,0.6971813383556548,4.699886030801212,-3.479377586148418,0.0,-23.433976996939982,-27.23890923890924,-4.6459509657479225,31.20756581903136,39.64198640189295,36.047773085332615,1577399066.0,-27.715053064205065,-51.101748568938426,19.733746
6115,1577399066.55,0.5613205792236328,0.7032967376708984,10.549929905395508,1.495616900485899,0.1727912856683497,9.29504998183832,1.9349139750162756,-0.2682075907389322,12.160891294352211,0.1911163330078124,-1.824188232421875,0.475311279296875,-1.862874845179116,-2.2502992211318595,-0.2969881383384147,-1.2697492327008928,-1.7649332682291667,1.0328746977306549,3.79606179410867,-3.667452050264546,1.1384036680911775,-23.433976996939982,-27.23890923890924,-4.6459509657479225,31.20756581903136,39.88160062299697,35.99985024111181,1577399066.0,-27.715053064205065,-51.101748568938426,19.733746
6116,1577399066.56,0.5972336041259765,0.8349778289794921,10.28656772277832,1.0862084165991803,0.2254637221917872,12.778613397365662,0.8096391947428379,0.8810092061360667,11.270248276774089,2.5562286376953125,-0.893402099609375,0.200653076171875,0.4869786704458843,-2.9216859398818595,2.266488424161585,-8.593967982700892,-0.2695719401041667,1.4906383696056549,4.157591488785688,-3.667452050264546,1.1384036680911775,-23.433976996939982,-28.188522588522588,9.329069539221818,31.20756581903136,39.88160062299697,35.856081708449395,1577399066.0,-27.715053064205065,-51.101748568938426,19.733746
6117,1577399066.57,0.5589263775634765,0.0496796844482421,8.981727817993162,0.2422523313941027,-1.656378782691024,9.15259498305902,1.2573549051920574,3.0465646077473947,8.947872666422526,-3.715133666992188,-4.021453857421875,-0.074005126953125,-2.671590665491616,-1.5483949242568595,0.2828458460365852,1.0648454938616072,-5.045572916666667,0.0105358305431548,3.615296946770161,-3.479377586148418,-0.3252581908831888,-9.208287734213672,-19.4045991045991,8.771555423332067,31.20756581903136,39.85763920088657,35.76023602000779,1577399066.0,-27.715053064205065,-51.101748568938426,19.733746
6118,1577399066.58,1.0760739361572265,-0.038905776977539,7.9833457257080065,0.928191107028868,1.185538587914443,10.73635938125238,0.2805206278483066,-1.1085723734537758,11.176874412027994,-5.302047729492188,-6.188201904296875,0.139617919921875,-0.7642420326791157,-2.9827210961318595,1.8087247522865848,-1.9106183733258928,-5.030314127604167,-0.2793811616443452,3.434532099431656,-2.539005265567764,0.8131454772079753,-12.697607742052195,-4.448188848188844,-6.132655274787254,31.20756581903136,39.73783209033456,35.80815886422859,1577399066.0,-27.715053064205065,-51.101748568938426,19.733746
6119,1577399066.59,0.6642712506103515,0.3609259002685546,9.910678062133789,0.8108752256812116,-1.309219541968368,8.658192340236758,-0.4257688618977861,2.272040370686849,11.74190600382487,0.5878448486328125,-1.427459716796875,0.475311279296875,-2.778402188929116,-1.85357070550686,0.7711270960365852,-8.655003138950892,2.477010091145833,0.6056286039806548,4.157591488785688,-2.915154193800025,0.8131454772079753,-12.697607742052195,-4.448188848188844,-6.132655274787254,31.25548866325217,39.88160062299697,35.99985024111181,1577399066.0,-27.715053064205065,-51.101748568938426,19.733746
6120,1577399066.6,0.9910797772216796,1.044470474243164,10.75223994567871,1.1855677854956646,2.097729420433975,10.66094202895746,1.1388419230143223,0.5111050496419262,9.517692661539714,1.0761260986328125,-0.2983093261718748,0.276947021484375,-3.587118009241616,0.6641294898056402,0.4049161585365852,-1.8343244280133928,6.215413411458333,0.3462291899181548,4.519121183462703,-3.2913031220322875,-0.162629095441591,-5.718967726375135,-4.448188848188844,1.15219583950548,31.23152724114176,39.78575493455536,35.8800431305598,1577399066.0,-27.715053064205065,-51.101748568938426,19.733746
6121,1577399066.61,1.119169566040039,0.2436100189208984,9.668863694458008,1.7158834532202738,-0.7393995468511805,8.315821502834414,2.428119517008463,1.3622437398274738,4.880124045817056,-4.142379760742188,-3.533172607421875,-0.012969970703125,-4.731527188929116,-0.3887269555068597,0.9542325647865852,-5.267551967075892,-5.274454752604167,-0.2183460053943452,4.519121183462703,-3.2913031220322875,-1.138403668091164,-6.255786189119516,-34.83581603581603,7.247683506566751,31.111720130589752,39.83367777877617,35.99985024111181,1577399066.0,-27.715053064205065,-51.101748568938426,19.733746
6122,1577399066.62,1.930803928833008,0.2244564056396484,9.331281260375976,0.9425563169898054,-0.8375618149175867,8.646221331935976,-0.4880181050618486,1.6495479390462238,5.160245640055338,-2.3113250732421875,-0.4508972167968749,-0.104522705078125,0.1818028891958842,-6.24810195550686,0.3743985804115852,-1.3918195452008928,-9.974161783854166,-2.5987170991443453,4.699886030801212,-3.103228657916157,0.9757745726495798,-14.84488159302974,-27.23890923890924,7.545024368374619,31.25548866325217,39.68990924611376,35.76023602000779,1577399066.0,-27.715053064205065,-51.101748568938426,19.733746
6123,1577399066.63,1.1730391033935548,-0.6733692169189452,8.75427866027832,-0.3790429994164436,1.2932776626214746,7.719665289455507,0.7856971781412754,0.624829628499348,9.61585492960612,-2.4791717529296875,-0.4051208496093748,-0.241851806640625,-3.114095548304116,2.3883726538681405,0.4354337366615852,-1.2697492327008928,-8.051554361979166,-1.0423206147693451,3.705679370439417,-2.256893569393567,-0.0813145477207921,-15.918518518518525,-27.23890923890924,-4.94329182755579,31.15964297481056,39.97744631143858,35.856081708449395,1577399066.0,-27.715053064205065,-51.101748568938426,19.733746
6124,1577399066.64,0.4703409161376952,2.0177134490966795,12.553876694946288,0.6468724119605088,0.7318373733148341,10.004930774074646,0.5690219278971352,-1.052308634440104,11.132581681315104,3.700637817382813,0.7087707519531251,1.024627685546875,-4.029622892054116,1.5338804663681405,-0.2359529820884147,-4.077366420200892,0.7527669270833331,1.2312389555431549,4.157591488785688,-2.915154193800025,-0.8131454772079686,-28.802161624383857,-17.267969067969062,-0.111502823177954,31.20756581903136,39.88160062299697,36.16758019588463,1577399066.0,-27.715053064205065,-51.101748568938426,19.733746
6125,1577399066.65,0.180642515258789,1.3952210174560546,12.04870014465332,-0.7597210633812874,2.217439503441787,8.481021417385195,1.6308503641764316,0.8139715596516918,11.12899037882487,2.9987335205078125,3.882598876953125,-0.135040283203125,1.4635411704458845,-1.3958070336318598,1.3204435022865852,-2.368382045200893,10.442097981770834,3.2301403227306547,4.519121183462703,-2.915154193800025,0.4878872863247865,-14.30806313028537,-26.76410256410256,7.024677860210852,31.063797286368946,39.68990924611376,35.99985024111181,1577399066.0,-27.715053064205065,-51.101748568938426,19.733746
6126,1577399066.66,0.534984360961914,-1.3940239166259765,9.541971006469726,1.2274663145483988,-0.3060490463628992,9.520104937893006,1.480015659586588,3.5433614522298167,9.716411399332683,-4.905319213867188,-0.9696960449218748,-1.020050048828125,0.5785314048208843,2.0831968726181405,0.7711270960365852,-2.582005092075893,11.266072591145834,-0.3404163178943452,3.0730024047546407,-1.7867074091032429,0.4878872863247865,-12.697607742052195,-23.44045584045584,9.329069539221818,31.111720130589752,39.68990924611376,35.99985024111181,1577399066.0,-27.715053064205065,-51.101748568938426,19.733746
6127,1577399066.67,0.5074510418701171,-0.0712274993896484,10.755831248168944,1.4046372373999614,-0.8519270248785242,10.396382745510191,0.3523466776529941,-0.9002768290201821,10.571141392008464,-3.974533081054688,-3.075408935546875,-0.241851806640625,-4.151693204554116,-0.7244203148818598,0.6795743616615852,-0.4457746233258928,12.852986653645834,-2.8123401460193453,4.157591488785686,-1.410558480870978,-0.6505163817663776,-12.697607742052195,-23.44045584045584,9.329069539221818,31.25548866325217,39.68990924611376,35.95192739689101,1577399066.0,-27.715053064205065,-51.101748568938426,19.733746
6128,1577399066.68,1.1886014141845702,1.1893196746826171,9.462962351684569,-0.320385058742616,1.239408125267959,11.85445155654535,-1.4073915425618484,0.7289774007161448,11.06554403483073,1.7780303955078125,-0.4508972167968749,0.200653076171875,-1.4051111733041155,0.8472349585556402,-0.3427645055259147,-0.9798322405133928,15.950520833333334,-1.3932727632068451,4.699886030801212,-1.5986329449871084,0.0,-21.8235216087068,-3.4985754985755,-6.206990490239223,31.111720130589752,39.78575493455536,35.999850241111815,1577399066.0,-27.715053064205065,-51.101748568938426,19.733746
6129,1577399066.69,0.783981333618164,1.1629834564208985,9.506057981567382,0.0207886778296491,0.539104139672256,8.8856414979516,0.1799641581217441,-0.3208800272623697,10.154550303141276,0.8930206298828125,1.441192626953125,0.200653076171875,2.0128575766958843,-2.9216859398818595,1.0763028772865852,-2.856663295200893,17.461140950520832,1.6127086821056549,4.699886030801212,-1.5986329449871084,0.0,28.10059542652133,12.64485144485144,-2.4158945021889204,31.01587444214814,39.68990924611376,35.99985024111181,1577399066.0,-27.715053064205065,-51.101748568938426,19.733746
6130,1577399066.7,1.1215637677001953,0.2555810272216797,9.905889658813477,2.81003361191168,1.1927211928949122,10.382017535549256,1.2860853251139317,1.5011074361165364,8.368475864664713,-0.3887176513671875,-0.4814147949218749,0.322723388671875,-4.243245938929116,3.2428648413681405,0.7406095179115852,-3.558567592075893,10.686238606770834,1.5516735258556549,4.699886030801212,-2.350930801451634,-0.6505163817663776,28.10059542652133,-2.548962148962147,-1.9698832094771224,31.20756581903136,39.73783209033456,35.99985024111181,1577399066.0,-27.715053064205065,-51.101748568938426,19.733746
6131,1577399066.71,1.0557232220458983,-0.8230068206787109,8.674072904663085,2.13965714706793,-0.8567154281988367,10.396382745510191,2.00195162150065,2.789187929280598,7.394035788981119,-2.3265838623046875,-0.3288269042968748,-0.104522705078125,1.4635411704458845,-2.5859925805068595,1.2899259241615852,0.5613054547991072,4.216512044270833,-2.4156116303943453,2.89223755741613,-2.350930801451634,-0.975774572649573,28.637413889265726,-34.36100936100936,7.024677860210852,31.25548866325217,39.83367777877617,36.14361877377422,1577399066.0,-27.715053064205065,-51.101748568938426,19.733746
6132,1577399066.72,1.0257957012939452,0.4758475799560546,10.65766898010254,0.8072839231909771,0.946118421898819,9.226815234523864,1.8702705301920568,0.3590732442220052,10.31855311686198,0.8930206298828125,0.1289367675781251,0.414276123046875,-2.045980313929116,-0.1293275414443598,-0.7852693883384148,-1.2544904436383928,-2.726236979166667,-1.7289661225818451,2.1691781680620985,-1.974781873219373,0.0,8.77513076772334,-29.13813593813593,1.598207132217282,31.20756581903136,39.68990924611376,35.95192739689101,1577399066.0,-27.715053064205065,-51.101748568938426,19.733746
6133,1577399066.73,0.7552509136962889,0.7009025360107421,11.335228049926757,1.29689816269293,1.9804135390863185,12.20400499892816,0.3379814676920566,-0.6560682596842446,11.258277268473307,1.0761260986328125,-0.5424499511718749,-0.104522705078125,-0.3980310951791157,3.761663669493141,0.4049161585365852,-3.650120326450893,-2.0395914713541665,0.4835582914806547,2.1691781680620985,-1.974781873219373,0.0,-8.403060040097083,-31.986975986975985,-5.389303120267588,31.111720130589752,39.73783209033456,36.28738730643664,1577399066.0,-27.715053064205065,-51.101748568938426,19.733746
6134,1577399066.74,0.6044162091064452,0.7487865692138671,10.837234104614256,1.6871530332983988,-1.522303489722274,11.291814166408631,-1.0123482686360674,-2.1356848856608077,11.023645505777994,1.9916534423828125,0.4035949707031251,0.353240966796875,1.4635411704458845,-0.8159730492568598,0.7100919397865852,0.2866472516741072,1.8666585286458333,4.023597353980655,3.79606179410867,-1.7867074091032429,-0.4878872863247798,-16.99215544400731,-1.5993487993488031,9.329069539221818,31.111720130589752,39.73783209033456,35.95192739689101,1577399066.0,-27.715053064205065,-51.101748568938426,19.733746
6135,1577399066.75,0.5146336468505859,-0.8014590057373047,10.409869108276366,0.2494349363745714,-0.4078026169195404,9.741568591457458,1.948082084147135,2.389356252034504,10.33172122599284,-0.0988006591796875,-2.556610107421875,0.536346435546875,2.3790685141958843,0.2979185523056404,0.2523282679115852,2.071925571986607,3.529866536458333,0.8192516508556548,4.42873875979345,-1.6926701770451755,0.0813145477208022,6.896266148117993,-15.131339031339031,8.325544130620269,31.11172013058975,39.85763920088657,36.095695929553415,1577399066.0,-27.715053064205065,-51.101748568938426,19.733746
6136,1577399066.76,0.7121552838134765,0.7224503509521484,9.759843357543945,0.3535827085913678,0.4936143081292872,10.633408709865662,-0.1839544942220048,1.1300061787923168,11.0451933207194,1.4728546142578125,-0.2067565917968749,0.444793701171875,2.8978673423208843,-6.95000625238186,0.7406095179115852,-1.5444074358258928,3.239949544270833,-1.1338733491443451,5.60371026749375,-3.667452050264546,0.1626290954415977,28.637413889265726,-3.973382173382172,7.024677860210852,31.20756581903136,39.88160062299697,35.856081708449395,1577399066.0,-27.715053064205065,-51.101748568938426,19.733746
6137,1577399066.77,0.6163872174072265,1.0743979949951172,10.099819993286133,-1.236167193752381,2.583752357445693,10.358075518947691,0.0506772684733066,1.9057275166829424,9.706834592692058,2.6935577392578125,-0.2677917480468749,0.597381591796875,3.813394686070884,2.8156187476181405,-0.4190584508384147,2.880641392299107,10.014851888020834,-0.8286975678943452,3.253767252093146,-2.350930801451634,1.3010327635327683,28.10059542652133,-4.448188848188844,6.9503426447588845,31.111720130589752,39.83367777877617,35.99985024111181,1577399066.0,-27.715053064205065,-51.101748568938426,19.733746
6138,1577399066.78,1.052131919555664,0.2531868255615234,9.94180268371582,1.562654546970274,-0.1935215683355554,13.334068182521913,0.9317434794108066,0.078951649983723,12.342850620524088,0.5878448486328125,0.3730773925781251,0.444793701171875,0.0902501548208842,1.1676695288681402,0.7100919397865852,0.5613054547991072,12.761433919270834,0.1173473539806547,3.253767252093146,-2.350930801451634,1.3010327635327683,-6.255786189119516,-33.88620268620268,-2.564564933092851,31.01587444214814,39.97744631143858,35.99985024111181,1577399066.0,-27.715053064205065,-51.101748568938426,19.733746
6139,1577399066.79,2.345000816040039,0.4519055633544921,9.08707269104004,1.860732653659727,-0.1743679550543059,9.296247082668398,1.7529546488444003,1.3047828999837237,6.307068235270182,0.8319854736328125,-0.4508972167968749,0.292205810546875,1.2499181235708845,0.5115415991806402,-0.0070711461509147,1.6751970563616072,3.651936848958334,0.6819225492931548,4.157591488785688,-1.410558480870978,-0.8131454772079686,9.311949230467732,-15.84354904354904,2.7132353639967817,31.111720130589752,39.80971635666576,36.14361877377422,1577399066.0,-27.715053064205065,-51.101748568938426,19.733746
6140,1577399066.8,1.280778178100586,0.2843114471435546,9.620979661254882,1.6464516050757427,0.0746290176019435,9.903177203518004,3.27327270304362,-0.1748337259928384,8.686904685465494,0.7251739501953124,0.6172180175781251,0.399017333984375,1.8297521079458845,-3.3794496117568595,-0.1444002477134147,2.178737095424107,-14.979044596354166,-2.1409534272693453,4.699886030801212,-2.539005265567764,-0.975774572649573,-13.77124466754098,-0.6497354497354497,-2.4158945021889204,31.25548866325217,39.88160062299697,35.80815886422859,1577399066.0,-27.715053064205065,-51.101748568938426,19.733746
6141,1577399066.81,0.9060856182861328,0.3872621185302734,9.450991343383787,-0.4819936708031624,-0.0594462753668054,8.830574859768006,2.9428728739420573,1.3598495381673177,11.418688779703777,2.0526885986328125,-0.0236511230468748,0.536346435546875,3.660806795445884,-1.5178773461318598,0.8931974085365852,3.185817173549107,-9.485880533854166,-0.2183460053943452,4.699886030801212,-2.7270797296838944,0.0,-11.623970816563412,-0.6497354497354497,-5.983984843883323,31.20756581903136,39.97744631143858,35.99985024111181,1577399066.0,-27.715053064205065,-51.101748568938426,19.733746
6142,1577399066.82,1.0090362896728515,0.5668272430419922,8.723154038696288,1.8451703428687116,0.5750171645745997,10.393988543850035,1.1783462504069004,-2.420594883219401,11.586282895914714,2.6935577392578125,0.3730773925781251,0.444793701171875,-0.5506189858041157,4.6771910132431405,0.4354337366615852,2.117701939174107,-1.5207926432291667,0.1783825102306547,4.699886030801212,-2.7270797296838944,0.0,-13.77124466754098,-32.936589336589336,7.247683506566751,31.01587444214814,39.498217869230544,36.14361877377422,1577399066.0,-27.715053064205065,-51.101748568938426,19.733746
6143,1577399066.83,0.9443928448486328,0.1753752716064453,10.699567509155273,0.5786376646460554,0.9892140517816308,11.13259975600824,-0.0247400838216147,-0.8607725016276045,8.616275736490884,0.9235382080078124,0.5104064941406251,-0.104522705078125,3.5845128501333843,0.6793882788681401,0.7100919397865852,-2.032688685825893,-4.038492838541667,1.0633922758556549,4.790268454470464,-2.444968033509699,-0.2439436431623899,-16.99215544400731,-4.448188848188844,9.329069539221818,31.063797286368946,39.68990924611376,35.9040045526702,1577399066.0,-27.715053064205065,-51.101748568938426,19.733746
6144,1577399066.84,0.9707290631103516,0.5787982513427734,8.749490256958007,0.4996290098608991,-1.0003675278082118,7.566436383205507,-1.172759779866536,1.987130373128255,8.39002367960612,-0.1140594482421875,1.349639892578125,0.109100341796875,-0.7337244545541157,0.3131773413681402,-0.0833650914634147,0.0119890485491072,-9.028116861979166,-0.4014514741443452,5.242180572816732,-1.7867074091032429,0.1626290954415977,-16.99215544400731,-0.6497354497354497,9.329069539221818,31.20756581903136,39.73783209033456,35.95192739689101,1577399066.0,-27.715053064205065,-51.101748568938426,19.733746
6145,1577399066.85,1.1933898175048827,0.9642647186279296,8.481339671020507,2.40780773300543,1.278912452660537,9.18012830215082,-1.421756752522786,-1.3839055643717446,7.626273350016276,1.9611358642578125,1.532745361328125,0.322723388671875,-3.724447110804116,0.5268003882431402,0.5269864710365852,1.3852800641741072,-9.424845377604166,-0.2488635835193452,3.615296946770161,-1.2224840167548476,-0.9757745726495664,-4.645330800886364,-3.0237688237688283,-5.760979197527418,31.111720130589752,39.97744631143858,35.99985024111181,1577399066.0,-27.715053064205065,-51.101748568938426,19.733746
6146,1577399066.86,0.9850942730712888,0.8134300140380859,8.4980990826416,0.4565333799780866,1.3028544692620996,10.719599969631286,0.1536279398600253,2.044591212972005,10.128214084879556,0.9235382080078124,1.227569580078125,0.658416748046875,3.0504552329458843,0.1605894507431402,1.5645841272865852,2.392360142299107,-4.480997721354167,0.7887340727306548,3.615296946770161,-1.2224840167548476,-0.9757745726495664,-4.645330800886364,4.573137973137979,-7.099013075662825,31.20756581903136,39.68990924611376,35.99985024111181,1577399066.0,-27.715053064205065,-51.101748568938426,19.733746
6147,1577399066.87,0.7145494854736327,1.0983400115966797,10.61217914855957,0.6169448912085553,0.0004087661370998,9.101119647365662,2.4736093485514323,-3.325603110758463,9.493750644938151,0.6488800048828125,2.173614501953125,0.597381591796875,-2.992025235804116,1.1676695288681402,-0.0528475133384147,-2.673557826450893,1.5920003255208333,1.8873668852306549,3.615296946770161,-2.7270797296838944,0.0,-1.4244200244200351,-30.56255596255596,8.065370876538386,31.20756581903136,39.73783209033456,35.95192739689101,1577399066.0,-27.715053064205065,-51.101748568938426,19.733746
6148,1577399066.88,0.9659406597900392,0.5620388397216797,9.84004911315918,1.5375154295386335,1.6105093825921777,9.606296197658631,0.8599174296061196,2.632367720540364,6.414807309977213,-0.0988006591796875,2.906036376953125,0.139617919921875,1.3872472251333845,-1.22796035394436,1.808724752286585,-3.207615443638393,-8.967081705729166,-0.6455920991443453,4.519121183462703,-2.539005265567764,0.3252581908831921,-3.840103106769776,-32.699185999186,7.21051589884077,31.15964297481056,39.68990924611376,35.856081708449395,1577399066.0,-27.715053064205065,-51.101748568938426,19.733746
6149,1577399066.89,0.7384915020751952,0.7703343841552734,9.40550151184082,0.1740175840796491,0.4313650649652247,8.473838812404725,0.4145959208170566,-1.4677026224772134,8.780278550211587,-0.8769989013671875,0.8613586425781251,-0.287628173828125,-1.5882166420541155,7.2101499976181405,-0.3580232945884147,0.7138933454241072,-12.659708658854166,-0.4930042085193452,3.253767252093146,-1.974781873219373,0.6505163817663843,-18.60261083224046,-26.76410256410256,7.024677860210852,31.111720130589752,39.64198640189295,35.95192739689101,1577399066.0,-27.715053064205065,-51.101748568938426,19.733746
6150,1577399066.9,0.4416104962158202,0.0401028778076171,10.442190830688476,3.284085540622617,-1.050645762671493,9.663757037502382,0.6540160868326816,0.1938733296712231,11.468967014567056,-1.5483856201171875,0.8918762207031251,0.109100341796875,-3.541341642054116,1.7169859351181402,1.2899259241615852,2.239772251674107,-7.929484049479167,0.3614879789806547,3.253767252093146,-1.974781873219373,0.6505163817663843,-19.13942929498485,-0.6497354497354497,-7.322018722018729,31.20756581903136,39.45029502500974,35.80815886422859,1577399066.0,-27.715053064205065,-51.101748568938426,19.733746
6151,1577399066.91,0.5768828900146484,1.1426327423095703,9.240301597290038,-0.1013156068383186,1.4441123672113183,8.91197771621332,1.1520100321451816,-1.0080159037272134,8.471426536051432,0.1300811767578124,1.898956298828125,-0.165557861328125,0.1818028891958842,-6.70586562738186,0.6185392054115852,-0.7814679827008928,-6.403605143229167,0.6666637602306548,3.79606179410867,-2.915154193800026,-0.4878872863247798,-36.31762010280528,-32.936589336589336,8.139706091990352,31.20756581903136,39.83367777877617,35.80815886422859,1577399066.0,-27.715053064205065,-51.101748568938426,19.733746
6152,1577399066.92,0.4799177227783202,-0.3908534210205078,8.826104710083007,0.3847073301733996,-0.4042113144293059,7.840572473293397,1.836751706949869,1.842281172688801,9.099904471842448,-2.7996063232421875,-0.3898620605468749,0.231170654296875,-0.504842618616616,0.5420591773056402,1.0000089319740852,-0.5983625139508928,-6.373087565104167,3.1996227446056547,3.79606179410867,-2.162856337335503,1.1384036680911775,-14.576472361657554,-12.28249898249898,8.474214561524203,31.20756581903136,39.76179351244497,35.927965974780605,1577399066.0,-27.715053064205065,-51.101748568938426,19.733746
6153,1577399066.93,0.247680161743164,0.0688332977294921,9.144533530883788,1.1173330381812117,-0.0762056869878992,8.370888141018007,0.8216102030436191,-1.1325143900553385,10.851262986246743,-3.3489227294921875,-2.312469482421875,-0.440216064453125,-2.930990079554116,1.80853866949314,0.1912931116615852,-0.5373273577008928,-6.312052408854167,-0.7371448335193452,4.519121183462703,-1.410558480870978,-0.162629095441591,-14.84488159302974,-27.23890923890924,7.396353937470683,31.25548866325217,39.88160062299697,35.856081708449395,1577399066.0,-27.715053064205065,-51.101748568938426,19.733746
6154,1577399066.94,0.5158307476806641,0.3369838836669921,9.039188657836911,0.9090374937476178,0.998790858422256,11.076336016994569,-0.1408588643391923,-2.552275974527994,11.346862729899089,-0.7549285888671875,-0.7560729980468749,0.231170654296875,0.0902501548208842,-4.66118789300686,1.5951017054115852,-0.0185285295758927,1.7751057942708333,0.7887340727306548,4.519121183462703,-1.410558480870978,-0.162629095441591,-5.718967726375147,-26.76410256410256,7.322018722018717,31.20756581903136,39.83367777877617,35.95192739689101,1577399066.0,-27.715053064205065,-51.101748568938426,19.733746
6155,1577399066.95,0.7145494854736327,0.5380968231201172,9.92264907043457,0.5151913206519151,0.923373506127334,10.810579632717223,1.175952048746744,0.5637774861653642,12.0794884379069,-0.0835418701171875,-0.4051208496093749,0.276947021484375,-3.541341642054116,-0.7549378930068599,0.3743985804115852,-3.070286342075893,11.052449544270834,-0.2183460053943452,3.886444217777923,-2.63304249762583,-0.0813145477207921,-5.718967726375147,7.42197802197802,-5.463638335719557,31.20756581903136,39.71387066822416,35.927965974780605,1577399066.0,-27.715053064205065,-51.101748568938426,19.733746
6156,1577399066.96,1.1167753643798828,1.0720037933349609,10.729495029907223,1.7805268980444926,-0.5502576156988367,10.683686944728944,-0.7394092793782548,1.718979787190755,10.200040134684244,-1.2126922607421875,-1.274871826171875,0.322723388671875,0.5480138266958843,-0.1751039086318597,2.571664205411585,-4.321507045200892,18.315633138020832,1.7347789946056549,4.519121183462703,-2.539005265567764,-0.4878872863247798,-1.4244200244200351,-0.1749287749287778,-1.8955479940251536,31.25548866325217,39.64198640189295,35.856081708449395,1577399066.0,-27.715053064205065,-51.101748568938426,19.733746
6157,1577399066.97,1.3561955303955078,0.2603694305419922,10.083060581665038,2.110926727146055,1.2166632094964749,11.265477948146913,-0.7537744893391923,4.1945843037923165,8.073989060465495,-1.6399383544921875,-0.2372741699218749,0.231170654296875,1.6466466391958845,-4.14238906488186,1.1068204554115852,1.4157976422991072,13.646443684895834,-2.0188831147693453,6.326769656847779,-3.667452050264546,0.1626290954415977,-14.84488159302974,-33.88620268620268,6.9503426447588845,31.20756581903136,39.73783209033456,35.99985024111181,1577399066.0,-27.715053064205065,-51.101748568938426,19.733746
6158,1577399066.98,1.1167753643798828,-0.393247622680664,9.216359580688476,0.6313101011694928,0.701909852562881,7.743607306057069,2.708241111246745,0.7134150899251293,7.702887803141276,-2.7385711669921875,0.2204895019531251,0.170135498046875,2.2264806235708843,-7.9876039086318595,1.8392423304115848,1.1716570172991072,3.8808186848958335,-2.6902698335193453,6.326769656847779,-3.667452050264546,0.1626290954415977,-8.403060040097083,-34.83581603581603,-2.564564933092851,31.111720130589752,39.83367777877617,35.95192739689101,1577399066.0,-27.715053064205065,-51.101748568938426,19.733746
6159,1577399066.99,1.1000159527587892,0.1298854400634765,10.118973606567382,1.4585067747534777,-0.4676576584234461,10.587918878322691,0.5019842814127602,-1.4581258158365884,10.15095900065104,-0.3734588623046875,-0.0083923339843748,0.109100341796875,0.1512853110708842,3.1818296851181405,-0.2512117711509147,-0.4457746233258928,-0.8188883463541666,0.1631237211681548,4.519121183462703,-1.974781873219373,-0.162629095441591,-22.091930840078994,-15.606145706145709,2.3043916790109664,31.30341150747297,39.78575493455536,36.095695929553415,1577399066.0,-27.715053064205065,-51.101748568938426,19.733746
6160,1577399067.0,0.975517466430664,1.6418237884521485,9.616191257934569,0.6959535459937116,1.508755812035537,10.147385772853942,-0.2845109639485674,0.5123021504720043,12.965343052164712,1.9611358642578125,0.9529113769531252,0.322723388671875,1.8907872641958845,-7.4993226586318595,1.1678556116615852,3.094264439174107,8.397420247395834,1.0939098539806549,2.892237557416128,-2.350930801451634,-0.3252581908831888,-25.58125084791753,-31.03736263736264,8.734387815606086,31.111720130589752,39.88160062299697,35.99985024111181,1577399067.0,-27.714911384789225,-51.10187677716047,20.19589
6161,1577399067.01,0.4033032696533202,-0.096366616821289,10.70076460998535,0.0854321226538678,0.3020781753167872,8.538482257228944,2.689087497965495,3.289576076253254,14.4928437113444,-2.1282196044921875,-1.519012451171875,-0.104522705078125,0.7921544516958843,1.4728453101181402,0.5575040491615852,-3.558567592075893,13.921101888020834,2.1009899321056547,4.699886030801212,-1.2224840167548476,-0.3252581908831888,-5.718967726375147,-26.76410256410256,7.619359583826587,30.92002875370653,39.88160062299697,35.856081708449395,1577399067.0,-27.714911384789225,-51.10187677716047,20.19589
6162,1577399067.02,0.4583699078369145,-0.3716998077392578,11.050318052368162,1.4644922789038677,-0.9668487045660242,11.933460211330503,-0.789687514241536,1.1491597920735668,12.184833310953776,-0.3887176513671875,0.1136779785156251,0.215911865234375,-0.2759607826791157,2.7851011694931405,0.1302579554115852,-2.459934779575893,20.451863606770832,-0.0657581147693452,4.699886030801212,-1.2224840167548476,-0.3252581908831888,-4.645330800886364,-34.36100936100936,9.403404754673788,31.11172013058975,39.73783209033456,35.95192739689101,1577399067.0,-27.714911384789225,-51.10187677716047,20.19589
6163,1577399067.03,0.5493495709228515,1.1150994232177731,9.987292515258789,0.8084810240210557,0.6169156936273347,10.732768078762144,0.7737261698404941,1.1144438680013016,12.573891080729164,0.8319854736328125,0.7087707519531251,-0.379180908203125,-0.2912195717416157,-2.61651015863186,-0.2969881383384147,-4.214695521763392,25.700887044270832,-2.5681995210193453,3.615296946770161,-1.974781873219373,-0.3252581908831888,-5.718967726375135,3.1487179487179446,-5.166297473911689,31.20756581903136,39.80971635666576,35.97588881900141,1577399067.0,-27.714911384789225,-51.10187677716047,20.19589
6164,1577399067.04,0.5708973858642578,-0.0053869537353515,10.293750327758788,1.9313616026343363,-1.0769819809332115,8.028517303615663,-0.8734845723470048,0.7852411397298167,11.579100290934244,2.2357940673828125,0.3120422363281251,0.505828857421875,2.8368321860708843,-1.91460586175686,1.2288907679115852,0.9580339704241072,31.468709309895832,0.2394176664806547,4.519121183462703,-2.915154193800025,0.1626290954415977,-5.182149263630755,-3.4985754985755,-5.537973551171519,31.01587444214814,39.73783209033456,35.95192739689101,1577399067.0,-27.714911384789225,-51.10187677716047,20.19589
6165,1577399067.05,0.4655525128173827,-0.3621230010986327,11.342410654907226,-0.7381732484398811,1.8463382461175684,8.7707198182641,0.1033497049967441,-0.1461033060709634,8.674933677164713,0.2826690673828124,-0.5119323730468749,0.322723388671875,-0.4895838295541157,2.4494078101181405,-1.0294100133384148,2.392360142299107,26.921590169270832,0.7887340727306548,4.8806508781397175,-1.410558480870978,-0.162629095441591,-5.182149263630755,-4.448188848188844,6.9503426447588845,31.30341150747297,39.88160062299697,36.14361877377422,1577399067.0,-27.714911384789225,-51.10187677716047,20.19589
6166,1577399067.06,1.3921085552978516,0.9331400970458984,11.158057127075194,3.413372430271055,0.6588142226800685,13.652497003322694,-1.3044408711751296,0.4692065205891918,8.03807603556315,1.7169952392578125,0.5561828613281251,-0.012969970703125,-0.0928553139291157,7.1491148413681405,-1.0294100133384148,1.0495867047991072,14.745076497395834,-2.0799182710193453,4.8806508781397175,-1.410558480870978,-0.162629095441591,-5.182149263630755,-4.448188848188844,6.9503426447588845,31.111720130589752,39.73783209033456,35.856081708449395,1577399067.0,-27.714911384789225,-51.10187677716047,20.19589
6167,1577399067.07,1.5166070416259765,0.1131260284423828,10.07587797668457,1.0826171141089458,0.1344840591058502,7.965070959621523,2.118070402018229,0.754116518147786,9.83253017985026,1.9763946533203125,1.090240478515625,0.170135498046875,2.0128575766958843,3.27338241949314,-0.2206941930259147,1.2479509626116072,3.728230794270833,-0.6913684663318452,4.8806508781397175,-1.410558480870978,-0.162629095441591,-14.844881593029744,-31.037362637362637,-3.530922733968421,31.11172013058975,39.64198640189295,35.97588881900141,1577399067.0,-27.714911384789225,-51.10187677716047,20.19589
6168,1577399067.08,1.674624351196289,1.0408791717529295,10.32487494934082,3.5163231016577736,0.9054169936761622,13.31012616592035,0.9604738993326816,-1.178004221598307,12.196804319254555,3.639602661132813,1.715850830078125,-0.196075439453125,-3.022542813929116,0.8624937476181402,-0.4495760289634147,0.9580339704241072,3.178914388020833,-0.6761096772693452,5.422945420155245,-2.7270797296838944,0.9757745726495798,-0.8876015616756432,-25.33968253968253,-7.1733482911147926,31.01587444214814,40.02536915565939,35.856081708449395,1577399067.0,-27.714911384789225,-51.10187677716047,20.19589
6169,1577399067.09,0.5278017559814453,0.2555810272216797,11.565071409301757,1.093391021579649,0.4577012832269435,12.029228277736756,-0.6173049947102861,0.7996063496907542,10.42030668741862,2.6325225830078125,1.746368408203125,0.048065185546875,4.728922029820884,-4.38652968988186,1.3509610804115852,1.5989031110491072,5.620320638020833,-0.2488635835193452,5.061415725478226,-2.350930801451634,0.3252581908831954,-4.108512338141983,-4.448188848188844,9.626410401029688,31.20756581903136,39.73783209033456,35.95192739689101,1577399067.0,-27.714911384789225,-51.10187677716047,20.19589
6170,1577399067.1,0.697790073852539,-0.3980360260009765,11.021587632446288,0.4900522032202741,0.3308085952386622,7.061259832912538,0.2996742411295566,1.1635250020345045,12.338062217203776,2.1442413330078125,1.136016845703125,-0.165557861328125,1.4025060141958845,0.1605894507431402,0.4659513147865852,1.5378679547991072,11.815388997395834,0.6666637602306548,5.242180572816732,-2.539005265567764,-0.4878872863247798,-4.108512338141983,-27.23890923890924,9.329069539221818,31.20756581903136,39.64198640189295,35.95192739689101,1577399067.0,-27.714911384789225,-51.10187677716047,20.19589
6171,1577399067.11,1.0557232220458983,0.3190273712158203,10.581054526977535,1.89066017441168,0.3272172927484278,12.126193444973085,-0.5502673482259111,0.6870788716634105,10.507695048014323,2.3883819580078125,2.478790283203125,-0.058746337890625,0.0902501548208841,4.8908140601181405,-0.3122469274009147,2.163478306361607,9.175618489583334,-0.3404163178943452,5.242180572816732,-2.539005265567764,-0.4878872863247798,-4.108512338141983,-23.91526251526252,9.403404754673788,31.23152724114176,39.73783209033456,35.97588881900141,1577399067.0,-27.714911384789225,-51.10187677716047,20.19589
6172,1577399067.12,1.1742362042236327,-0.2088940948486328,10.214741672973632,1.562654546970274,-0.5478634140386804,7.616714618068788,-0.1480414693196611,1.3191481099446614,11.603042307535809,2.1442413330078125,3.333282470703125,0.017547607421875,4.210123201695884,-3.86773086175686,-1.2430330602134148,1.5989031110491072,8.641560872395834,0.2699352446056547,3.253767252093146,-3.103228657916157,0.3252581908831954,-6.255786189119516,-2.548962148962147,-4.6459509657479225,31.20756581903136,39.68990924611376,35.856081708449395,1577399067.0,-27.714911384789225,-51.10187677716047,20.19589
6173,1577399067.13,0.6331466290283202,0.3154360687255859,11.890682835083007,1.2226779112280866,1.0227328750238185,10.073165521389098,0.3954423075358066,1.5896928975423177,11.749088608805335,4.5856475830078125,4.340362548828125,0.383758544921875,4.210123201695884,2.3578550757431405,0.6490567835365852,3.490992954799107,13.249715169270834,-0.0962756928943452,4.519121183462703,-2.162856337335503,0.8131454772079753,-6.255786189119516,-2.548962148962147,-4.6459509657479225,30.92002875370653,39.88160062299697,35.95192739689101,1577399067.0,-27.714911384789225,-51.10187677716047,20.19589
6174,1577399067.14,1.0186130963134763,0.4830301849365234,12.833998289184567,1.2083127012671488,0.065052210961319,10.352090014797302,0.6564102884928379,0.0286734151204423,9.05920304361979,5.1044464111328125,3.668975830078125,0.048065185546875,2.1044103110708843,4.3720152319931405,-0.9378572789634148,2.651759556361607,10.732014973958334,-0.5845569428943451,4.338356336124197,-3.103228657916157,0.0,13.87490616379504,-2.3115588115588106,1.0406930163275314,30.92002875370653,39.76179351244496,35.80815886422859,1577399067.0,-27.714911384789225,-51.10187677716047,20.19589
6175,1577399067.15,1.5417461590576171,0.613514175415039,10.357196671752927,2.685535125583555,2.057027992211318,9.912754010158633,0.2565786112467441,0.6846846700032543,7.001386716715494,2.0984649658203125,3.989410400390625,0.017547607421875,2.3485509360708843,-0.9990785180068598,-0.1138826695884147,1.1716570172991072,-4.206339518229167,-2.1104358491443453,5.061415725478226,-2.7270797296838944,0.6505163817663843,-6.255786189119516,-3.4985754985755,6.9503426447588845,31.15964297481056,39.83367777877617,35.76023602000779,1577399067.0,-27.714911384789225,-51.10187677716047,20.19589
6176,1577399067.16,1.1263521710205078,0.4662707733154296,10.691187803344723,-0.6831066102562874,0.788101112328506,7.786702935939882,1.4129780131022127,1.448434999593099,8.241583176676432,2.3273468017578125,3.821563720703125,-0.012969970703125,4.332193514195884,1.86957382574314,1.4730313929115852,1.1716570172991072,-5.243937174479167,-0.2183460053943452,5.422945420155245,-3.479377586148418,0.9757745726495798,28.10059542652133,-1.5993487993488031,-4.94329182755579,31.39925719591458,39.546140713451344,36.19154161799503,1577399067.0,-27.714911384789225,-51.10187677716047,20.19589
6177,1577399067.17,0.9850942730712888,0.4614823699951171,11.16045132873535,-0.0965272035180061,-0.6125068588628992,8.9239487245141,1.7074648173014315,-0.8308449808756508,11.210393235270182,4.1584014892578125,4.676055908203125,0.139617919921875,1.2499181235708845,7.0575621069931405,-1.7007967320884148,1.4463152204241072,0.0966389973958333,-0.0657581147693452,3.0730024047546407,-2.162856337335503,1.1384036680911775,-10.55033389107465,-24.390069190069187,-3.456587518516453,31.20756581903136,39.83367777877617,35.95192739689101,1577399067.0,-27.714911384789225,-51.10187677716047,20.19589
6178,1577399067.18,0.4882974285888671,0.5333084197998047,10.385927091674803,2.1635991636694927,1.556639845238662,11.960993530422302,0.2481989054361977,1.1312032796223954,10.3939704691569,3.5938262939453125,5.683135986328125,-0.135040283203125,4.133829256383384,4.2346861304306405,0.2065519007240852,-0.1711164202008928,-2.9551188151041665,0.1936412992931547,4.338356336124196,-2.162856337335501,0.9757745726495765,-25.58125084791753,-27.23890923890924,-3.7539283803243206,31.15964297481056,39.73783209033456,35.9040045526702,1577399067.0,-27.714911384789225,-51.10187677716047,20.19589
6179,1577399067.19,1.1407173809814453,0.3537432952880859,9.908283860473633,-1.774862567287537,-1.7736946640386804,5.370953460842226,2.58374262491862,3.3781615376790355,8.045258640543619,-2.4944305419921875,-0.8781433105468749,-0.104522705078125,2.3790685141958843,1.5643980444931402,0.0997403772865852,3.277369907924107,-6.647745768229167,-0.7066272553943452,4.157591488785688,-2.915154193800025,0.4878872863247865,-9.476696965585868,-27.23890923890924,9.477739970125754,31.20756581903136,40.0732919998802,35.856081708449395,1577399067.0,-27.714911384789225,-51.10187677716047,20.19589
6180,1577399067.2,0.6427234356689453,1.1007342132568358,10.0303881451416,0.3823131285132428,0.7450054824456934,12.773824994045349,0.8575232279459628,-1.1516680033365885,9.132226194254558,1.3507843017578125,3.546905517578125,0.109100341796875,-0.7032068764291157,7.8205015601181405,-2.0670076695884148,3.094264439174107,-8.417765299479166,0.6971813383556548,5.422945420155245,-0.8463350885225869,0.6505163817663843,29.7110508147545,-3.973382173382172,7.024677860210852,31.20756581903136,39.68990924611376,35.856081708449395,1577399067.0,-27.714911384789225,-51.10187677716047,20.19589
6181,1577399067.21,0.678636460571289,0.7583633758544921,9.944196885375977,2.862706048435117,0.3978462417230372,11.236747528225036,-0.1121284444173173,-1.6017779154459637,11.557552475992836,2.8156280517578125,3.913116455078125,0.322723388671875,0.7006017173208843,1.1676695288681402,1.4119962366615852,0.8969988141741072,-7.532755533854167,1.8263317289806549,5.78447511483226,-2.350930801451634,0.6505163817663843,-4.645330800886364,-2.074155474155475,-4.720286181199891,31.20756581903136,39.73783209033456,35.856081708449395,1577399067.0,-27.714911384789225,-51.10187677716047,20.19589
6182,1577399067.22,0.9719261639404296,0.8254010223388671,9.271426218872069,-0.3706632936058972,0.3583419143304596,8.62467351699457,1.4285403238932284,-0.4657292277018233,8.488185947672525,2.0374298095703125,3.791046142578125,0.337982177734375,0.9600011313833844,0.0995542944931402,0.5575040491615852,2.789088657924108,-4.847208658854167,1.2007213774181549,3.976826641447179,-0.6582606244064564,0.9757745726495798,-4.645330800886364,-30.56255596255596,7.024677860210852,31.063797286368946,39.64198640189295,35.97588881900141,1577399067.0,-27.714911384789225,-51.10187677716047,20.19589
6183,1577399067.23,1.5190012432861328,1.3425485809326172,8.737519248657225,2.1420513487280863,0.8335909438714747,10.827339044338318,2.401783298746744,-0.3687640604654947,7.135462009684244,-0.2971649169921875,1.441192626953125,0.322723388671875,-0.3980310951791157,8.33930038824314,1.1068204554115852,0.6223406110491072,-12.079874674479166,0.4835582914806547,4.699886030801212,-0.470186160290326,0.9757745726495798,-5.182149263630755,-34.83581603581603,7.545024368374619,31.30341150747297,39.546140713451344,35.95192739689101,1577399067.0,-27.714911384789225,-51.10187677716047,20.19589
6184,1577399067.24,0.697790073852539,0.4375403533935547,8.261073118286133,1.023959173435118,-0.6532082870855556,6.342999334865663,1.729012632242838,-0.957737668863932,9.486568039957683,-0.0530242919921875,3.516387939453125,0.414276123046875,-0.0318201576791157,1.0761167944931402,0.4049161585365852,-0.1711164202008928,-18.641153971354168,0.0563121977306547,3.79606179410867,-2.539005265567764,0.8131454772079753,-10.55033389107465,-29.13813593813593,7.247683506566751,31.20756581903136,39.83367777877617,35.95192739689101,1577399067.0,-27.714911384789225,-51.10187677716047,20.19589
6185,1577399067.25,1.0569203228759765,-0.2926911529541015,8.349658579711914,2.118109332126524,1.8607034560785056,9.465038299709413,2.555012204996745,1.5513856709798175,11.71556978556315,-1.2737274169921875,2.570343017578125,-0.165557861328125,-0.5201014076791157,6.2030699194931405,0.1912931116615852,0.7749285016741072,-16.749064127604168,0.1173473539806547,5.422945420155245,-3.103228657916157,0.9757745726495798,-10.01351542833026,-3.973382173382172,-2.4902297176408887,31.20756581903136,39.97744631143858,35.99985024111181,1577399067.0,-27.714911384789225,-51.10187677716047,20.19589
6186,1577399067.26,0.9659406597900392,1.265934127807617,8.529223704223632,1.823622527927305,-0.8615038315191492,8.631856121975037,-0.5191427266438798,-2.6001600077311195,8.440301914469401,1.0150909423828125,3.409576416015625,0.307464599609375,0.1512853110708842,6.6303160132431405,0.2523282679115852,0.1035417829241072,-13.788859049479166,0.9108043852306548,4.971033301808975,-2.6330424976258304,0.7318309294871832,-6.255786189119516,-31.03736263736264,7.0990130756628185,31.23152724114176,39.83367777877617,35.856081708449395,1577399067.0,-27.714911384789225,-51.10187677716047,20.19589
6187,1577399067.27,1.05452612121582,1.1390414398193358,9.300156638793943,-0.1408199342308972,0.5331186355218658,8.964650152736755,0.1440511332194008,-0.4633350260416666,8.907171238199869,-1.4568328857421875,2.600860595703125,-0.074005126953125,-1.878133634241616,-0.3887269555068597,0.4354337366615852,0.8207048688616072,-10.142008463541666,2.1925426664806547,4.519121183462703,-1.7867074091032429,0.4878872863247865,-6.255786189119516,-4.448188848188844,9.477739970125754,30.92002875370653,39.73783209033456,35.856081708449395,1577399067.0,-27.714911384789225,-51.10187677716047,20.19589
6188,1577399067.28,1.042555112915039,-0.0987608184814453,10.367970579223632,-1.1140629090844123,0.4912201064691309,10.5328522401391,0.6731697001139316,0.9241048360188792,9.165745017496745,-3.776168823242188,2.234649658203125,0.017547607421875,1.3719884360708845,4.7077085913681405,2.052865377286585,-1.8190656389508928,-9.791056315104166,1.4296032133556549,4.699886030801212,-2.350930801451634,0.6505163817663843,-6.255786189119516,-4.448188848188844,9.477739970125754,31.01587444214814,39.73783209033456,35.99985024111181,1577399067.0,-27.714911384789225,-51.10187677716047,20.19589
6189,1577399067.29,0.1543062969970703,0.0831985076904296,10.188405454711914,1.4309734556616802,-1.3858339950933678,8.428348980861756,2.3275630472819,0.2585167744954418,10.02286921183268,-1.4873504638671875,3.394317626953125,-0.196075439453125,-5.280843595179116,7.4542906226181405,-0.2969881383384147,-3.009251185825893,-9.089152018229166,0.2089000883556547,5.965239962170768,-2.915154193800025,2.114178240740744,28.637413889265726,-3.973382173382172,-4.868956612103822,30.92002875370653,39.73783209033456,35.99985024111181,1577399067.0,-27.714911384789225,-51.10187677716047,20.19589
6190,1577399067.3,-0.045609541625976,0.7882908966064452,9.715550626831051,-0.0031533387719128,0.4014375442132721,9.20526741958246,0.1596134440104165,0.4297021931966136,10.421503788248698,0.5573272705078125,4.813385009765625,0.215911865234375,-1.725545743616616,-0.5870912133193597,1.457772603849085,-0.3694806780133928,-2.054850260416667,-0.0352405366443452,4.790268454470467,-2.068819105277438,1.5449764066951617,28.10059542652133,0.299877899877894,-3.7539283803243206,31.20756581903136,39.66594782400336,35.927965974780605,1577399067.0,-27.714911384789225,-51.10187677716047,20.19589
6191,1577399067.31,0.276410581665039,1.1558008514404297,9.776602769165038,-0.5466371156273812,0.6252953994378809,9.400394854885194,2.0450472513834628,0.6080702168782544,7.104337388102214,-2.2197723388671875,2.021026611328125,-0.074005126953125,-8.424154142054116,0.5268003882431402,0.0692227991615852,-3.314426967075893,-4.664103190104167,1.2464977446056549,4.157591488785688,-2.162856337335503,1.4636618589743662,2.333309214790685,-4.448188848188844,6.9503426447588845,31.25548866325217,39.64198640189295,35.856081708449395,1577399067.0,-27.714911384789225,-51.10187677716047,20.19589
6192,1577399067.32,1.119169566040039,0.6889315277099609,10.291356126098632,2.5299120176733987,0.2853187636956935,8.878458892971132,2.351505063883463,0.1866907246907543,8.631838047281901,-5.607223510742188,-1.946258544921875,0.231170654296875,0.1818028891958842,2.8156187476181405,2.571664205411585,-0.4152570452008928,-10.279337565104166,-0.1878284272693452,6.869064198863307,-3.479377586148418,0.3252581908831954,-3.571693875397591,-34.36100936100936,7.619359583826587,31.25548866325217,39.68990924611376,35.95192739689101,1577399067.0,-27.714911384789225,-51.10187677716047,20.19589
6193,1577399067.33,0.9036914166259764,0.1071405242919921,7.923490684204101,1.1029678282202742,-1.6252541611089928,5.428414300685976,0.3667118876139316,1.910515920003255,8.471426536051432,-3.5320281982421875,1.807403564453125,-0.012969970703125,-3.510824063929116,0.0995542944931402,2.480111471036585,-2.063206263950893,-10.096232096354166,0.0868297758556547,4.157591488785688,-1.7867074091032429,1.788920049857555,-6.255786189119516,-27.23890923890924,-2.564564933092851,31.01587444214814,39.64198640189295,35.99985024111181,1577399067.0,-27.714911384789225,-51.10187677716047,20.19589
6194,1577399067.34,0.9635464581298828,0.086789810180664,9.095452396850584,0.8036926207007429,1.736204969750381,8.786282129055115,0.6145117594401035,-1.1468796000162762,11.139764286295572,-2.3571014404296875,1.319122314453125,0.032806396484375,-5.616536954554116,3.2276060523056405,-0.1138826695884147,-2.170017787388393,-2.802530924479167,-0.9812854585193452,4.609503607131957,-2.256893569393567,2.0328636930199484,-14.30806313028537,-3.973382173382172,-6.058320059335285,31.063797286368946,39.66594782400336,36.07173450744301,1577399067.0,-27.714911384789225,-51.10187677716047,20.19589
6195,1577399067.35,0.3578134381103515,1.1486182464599608,12.235447874145509,-0.6807124085961311,-1.144019627417587,12.261465838771912,-0.7441976826985673,-2.494815134684244,9.122649387613931,-0.2056121826171875,2.967071533203125,0.048065185546875,-4.182210782679116,1.4423277319931402,0.1912931116615852,-5.420139857700892,-3.992716471354168,0.9413219633556548,4.519121183462703,-2.915154193800025,1.4636618589743662,-5.718967726375147,-3.973382173382172,-7.247683506566755,31.111720130589752,39.68990924611376,35.95192739689101,1577399067.0,-27.714911384789225,-51.10187677716047,20.19589
6196,1577399067.36,0.5517437725830078,0.4878185882568359,9.59703764465332,0.3224580870093366,1.7816948012933496,9.25674275527582,0.0458888651529941,-0.4070712870279946,8.500156955973306,-0.9075164794921876,5.316925048828125,-0.775909423828125,-0.6116541420541157,-1.88408828363186,0.8321622522865852,-4.626682826450892,-4.419962565104167,1.8568493071056549,3.434532099431656,-3.667452050264546,2.4394364316239328,-5.182149263630755,-25.33968253968253,9.626410401029688,31.01587444214814,39.73783209033456,35.76023602000779,1577399067.0,-27.714911384789225,-51.10187677716047,20.19589
6197,1577399067.37,0.7863755352783203,0.0089782562255859,9.269032017211911,0.786933209079649,-1.0458573593511804,10.683686944728944,-0.0570618062337236,0.3423138326009106,10.046811228434244,-4.996871948242188,-1.488494873046875,-0.440216064453125,-3.632894376429116,4.8602964819931405,0.8321622522865852,-1.3002668108258928,-6.739298502604167,1.9484020414806549,3.0730024047546407,-1.7867074091032429,1.4636618589743662,-7.866241577352692,-28.66332926332926,9.99808647828952,31.20756581903136,39.83367777877617,35.856081708449395,1577399067.0,-27.714911384789225,-51.10187677716047,20.19589
6198,1577399067.38,0.3266888165283207,0.2220622039794921,8.92067567565918,-0.2665155213890999,-0.3910432052984466,11.492927105861757,0.0554656717936196,1.4137190755208324,10.92428613688151,-1.8840789794921875,1.471710205078125,-0.257110595703125,0.6243077720083844,-0.9990785180068597,0.6490567835365852,-2.2768293108258923,-3.794352213541667,0.5751110258556548,4.338356336124196,-3.1032286579161563,1.3010327635327652,-5.182149263630755,-3.4985754985755,-3.60525794942039,31.063797286368946,39.76179351244496,35.927965974780605,1577399067.0,-27.714911384789225,-51.10187677716047,20.19589
6199,1577399067.39,0.1279700787353515,0.5572504364013672,9.814909995727538,-0.3766487977562874,0.2494057387933497,6.647062945705507,0.7617551615397129,-0.6608566630045571,10.568747190348306,-1.7620086669921875,1.959991455078125,-0.287628173828125,0.4564610923208843,-0.8464906273818598,1.0457852991615852,-1.7275129045758928,2.690633138020833,1.0328746977306549,4.8806508781397175,-2.539005265567764,1.1384036680911775,-6.255786189119516,0.299877899877894,-4.199939673036125,31.20756581903136,39.68990924611376,35.856081708449395,1577399067.0,-27.714911384789225,-51.10187677716047,20.19589
6200,1577399067.4,0.8725667950439452,0.1861491790771484,9.158898740844725,0.1452871641577741,0.6444490127191309,8.957467547756288,0.9939927225748691,0.2465457661946605,7.188134446207682,-2.2197723388671875,1.502227783203125,-0.440216064453125,-5.555501798304116,0.8014585913681402,0.7711270960365852,-0.3847394670758928,3.7892659505208335,0.5751110258556548,4.8806508781397175,-2.539005265567764,1.1384036680911775,-3.571693875397591,-3.973382173382172,0.0371676077259811,31.39925719591458,39.68990924611376,35.76023602000779,1577399067.0,-27.714911384789225,-51.10187677716047,20.19589
6201,1577399067.41,0.6906074688720703,0.5476736297607422,7.789415391235351,2.110926727146055,0.069840614281631,8.871276287990662,2.54543539835612,-2.257789170328776,6.031735044352213,-2.7080535888671875,1.013946533203125,-0.257110595703125,-1.7408045326791155,6.1725523413681405,1.1373380335365852,-3.711155482700893,-1.1850992838541667,0.6056286039806548,1.9884133207235888,-2.539005265567764,0.8131454772079753,-6.255786189119516,-34.83581603581603,8.437046953798218,31.20756581903136,39.83367777877617,36.047773085332615,1577399067.0,-27.714911384789225,-51.10187677716047,20.19589
6202,1577399067.42,0.477523521118164,0.0317231719970703,9.184037858276366,-0.3742545960961316,0.4792490981683502,9.6134788026391,0.9664594034830722,-0.8799261149088541,9.606278122965495,-2.5096893310546875,0.2357482910156251,-0.501251220703125,-2.351156095179116,-1.6704652367568595,0.7406095179115852,-2.307346888950893,-5.655924479166667,-0.7676624116443451,3.705679370439417,-2.8211169617419607,1.8702345975783503,-14.84488159302974,-30.56255596255596,2.713235363996781,31.15964297481056,39.76179351244497,35.999850241111815,1577399067.0,-27.714911384789225,-51.10187677716047,20.19589
6203,1577399067.43,1.023401499633789,0.6194996795654296,10.130944614868165,2.017552862399961,1.5710050551995998,10.312585687404724,1.5422649027506503,-0.1245554911295571,10.774648533121743,-0.0835418701171875,0.8308410644531251,-0.318145751953125,-2.930990079554116,6.2030699194931405,-0.4190584508384147,-3.497532435825893,-1.4597574869791667,-0.5235217866443452,3.0730024047546407,-2.915154193800025,0.8131454772079753,-32.02307240085019,-27.23890923890924,-4.497280534843986,31.20756581903136,39.68990924611376,35.99985024111181,1577399067.0,-27.714911384789225,-51.10187677716047,20.19589
6204,1577399067.44,0.4847061260986328,0.7439981658935546,11.134115110473632,1.275350347751524,3.0625926894769435,8.744383600002381,0.2829148295084628,1.0031134908040356,12.024421799723306,0.3131866455078124,0.2204895019531251,-0.257110595703125,0.1818028891958842,0.1300718726181402,-0.0833650914634147,-4.809788295200892,5.742390950520833,1.4601207914806549,3.9768266414471753,-1.974781873219373,1.3010327635327683,-3.571693875397591,-26.76410256410256,9.552075185577722,31.20756581903136,39.88160062299697,35.66439033156618,1577399067.0,-27.714911384789225,-51.10187677716047,20.19589
6205,1577399067.45,0.094451255493164,-0.5488707305908203,12.156439219360353,1.371118414157774,-0.4425185409918054,10.654956524807067,-0.0019951680501298,-1.4581258158365884,11.890346506754558,-2.5554656982421875,-1.549530029296875,-0.623321533203125,-0.4590662514291157,2.5714781226181405,1.3509610804115852,2.605983189174107,10.991414388020834,0.6056286039806548,3.9768266414471753,-1.974781873219373,1.3010327635327683,-13.77124466754098,-4.448188848188844,9.477739970125754,31.30341150747297,39.546140713451344,36.047773085332615,1577399067.0,-27.714911384789225,-51.10187677716047,20.19589
6206,1577399067.46,0.6487089398193359,-0.4554968658447265,9.222345084838866,0.6839825376929304,-1.5630049179449303,9.405183258205506,0.5031813822428379,-1.539528672281901,9.804996860758465,-2.0061492919921875,0.0373840332031251,-0.806427001953125,-4.212728360804116,-0.6328675805068598,-1.2430330602134148,-3.436497279575893,10.777791341145834,-1.2559436616443451,2.982619981085384,-3.5734148182064835,1.0570891203703752,28.637413889265726,-26.76410256410256,7.322018722018717,31.01587444214814,39.64198640189295,35.99985024111181,1577399067.0,-27.714911384789225,-51.10187677716047,20.19589
6207,1577399067.47,0.372178648071289,0.9906009368896485,8.648933787231444,-0.2365880006371467,1.1077270339593652,9.627844012600036,1.0777897806803387,1.0162815999348953,8.489383048502603,0.0995635986328124,0.5256652832031251,-0.470733642578125,2.8368321860708843,-0.1293275414443599,0.4201749475990852,0.5307878766741072,7.024129231770833,-1.2712024507068451,3.434532099431656,-2.915154193800025,0.1626290954415977,28.637413889265726,-26.76410256410256,7.322018722018717,31.25548866325217,39.80971635666576,35.80815886422859,1577399067.0,-27.714911384789225,-51.10187677716047,20.19589
6208,1577399067.48,0.7145494854736327,0.2675520355224609,8.107844212036133,0.2578146421851178,-0.9237530746832118,12.749882977443786,-0.4712586934407549,-0.5555117899576821,9.441078208414714,0.2521514892578124,0.0068664550781251,-0.409698486328125,-0.5506189858041157,1.90009140386814,-0.7852693883384148,-1.1781964983258928,6.139119466145833,0.3614879789806547,2.349943015400604,-2.915154193800025,-0.162629095441591,-6.255786189119516,-40.53349613349613,-3.7539283803243206,31.20756581903136,39.73783209033456,36.047773085332615,1577399067.0,-27.714911384789225,-51.10187677716047,20.19589
6209,1577399067.49,0.2811989849853515,0.4614823699951171,9.331281260375976,2.673564117282774,0.5845939712152247,7.135480084377382,2.581348423258464,-0.7614131327311195,7.03011713663737,-0.2361297607421875,0.7087707519531251,-0.104522705078125,-4.090658048304116,3.5175230444931405,0.9847501429115852,0.1950945172991072,6.322224934895833,1.3685680571056549,2.349943015400604,-2.915154193800025,-0.162629095441591,-6.255786189119516,-2.548962148962147,6.9503426447588845,31.111720130589752,39.64198640189295,35.99985024111181,1577399067.0,-27.714911384789225,-51.10187677716047,20.19589
6210,1577399067.5,0.8055291485595704,0.3609259002685546,9.664075291137694,-0.8698543397484748,2.073787403832412,9.079571832424255,3.3762233744303387,3.6678599385579416,1.8394879374186195,0.9693145751953124,-0.3898620605468749,0.017547607421875,2.7452794516958843,-3.95928359613186,-0.1138826695884147,-1.0866437639508928,-12.995402018229166,-3.0564807710193453,3.0730024047546407,-3.667452050264549,0.1626290954415977,-13.234426204796588,-33.41139601139601,7.173348291114784,31.183604396920963,39.64198640189295,35.99985024111181,1577399067.0,-27.714911384789225,-51.10187677716047,20.19589
6211,1577399067.51,0.0417788189697265,-0.4195838409423827,10.164463438110351,0.6660260252417585,-0.5538489181890716,9.093937042385193,0.9772333109537752,-0.1042047770182295,8.295452714029947,0.2826690673828124,-1.030731201171875,-0.012969970703125,0.4412023032583844,0.5115415991806405,0.2370694788490852,0.4087175641741072,-20.517985026041668,-1.2101672944568451,2.530707862739113,-3.855526514380679,0.6505163817663843,-15.65010928714634,-18.929792429792425,2.378726894462932,31.01587444214814,39.71387066822416,35.95192739689101,1577399067.0,-27.714911384789225,-51.10187677716047,20.19589
6212,1577399067.52,0.5206191510009766,0.7128735443115234,9.163687144165038,0.1452871641577741,1.1711733779535058,8.052459320217226,0.5654306254069004,-0.8212681742350258,12.40509986368815,1.3813018798828125,-1.915740966796875,0.017547607421875,-1.2830408608041155,0.8624937476181402,-0.9683748570884148,0.8054460797991072,-9.577433268229166,0.1783825102306547,3.434532099431656,-2.539005265567764,0.4878872863247865,-23.433976996939982,-4.448188848188844,-7.1733482911147926,31.30341150747297,39.64198640189295,35.616467487345375,1577399067.0,-27.714911384789225,-51.10187677716047,20.19589
6213,1577399067.53,0.5086481427001952,1.1462240447998049,10.667245786743162,1.562654546970274,1.0873763198480373,11.964584832912536,-0.2414153340657548,-0.4932625467936197,12.5391751566569,2.1442413330078125,-1.641082763671875,-0.012969970703125,1.3414708579458845,4.0058042944931405,-0.4495760289634147,0.4392351422991072,-3.0466715494791665,2.0094371977306547,3.434532099431656,-2.539005265567764,0.4878872863247865,-18.60261083224046,-1.1245421245421217,7.322018722018717,31.20756581903136,39.83367777877617,35.95192739689101,1577399067.0,-27.714911384789225,-51.10187677716047,20.19589
6214,1577399067.54,0.3985148663330077,-0.1646013641357421,9.678440501098631,-0.0773735902367566,-0.816013999976181,9.363284729152772,0.3068568461100254,1.7716522237141918,9.261513083902996,0.0690460205078124,-1.869964599609375,-0.226593017578125,1.1278478110708845,-2.3113343773818595,0.7711270960365852,1.3700212751116072,-1.8717447916666663,1.1854625883556549,2.621090286408366,-1.880744641161307,0.2439436431623965,-13.234426204796588,-34.36100936100936,9.403404754673788,31.15964297481056,39.78575493455536,36.07173450744301,1577399067.0,-27.714911384789225,-51.10187677716047,20.19589
6215,1577399067.55,0.084874448852539,0.3106476654052734,10.84681091125488,0.9329795103491804,1.487207997094131,8.320609906154726,0.1536279398600253,-0.4238306986490884,11.14814399210612,-0.0530242919921875,-1.580047607421875,-0.226593017578125,1.7076817954458845,-2.6165101586318595,-0.0223299352134147,2.117701939174107,-6.128946940104167,-1.2559436616443451,3.434532099431656,-2.539005265567764,-0.8131454772079686,-10.55033389107465,-2.548962148962147,-5.537973551171519,31.111720130589752,39.73783209033456,36.14361877377422,1577399067.0,-27.714911384789225,-51.10187677716047,20.19589
6216,1577399067.56,0.544561167602539,0.5117606048583984,9.364800083618164,2.17796437363043,0.242223133812881,10.4945450135766,-0.8519367574055986,2.22655053914388,10.721976096598306,0.3742218017578124,-1.763153076171875,-0.135040283203125,2.4706212485708843,-1.7925355492568598,1.1983731897865852,1.2937273297991072,-0.7883707682291667,-0.3709338960193452,2.892237557416128,-3.103228657916157,0.3252581908831954,-18.06579236949609,-0.6497354497354497,-7.322018722018729,30.92002875370653,39.73783209033456,35.99985024111181,1577399067.0,-27.714911384789225,-51.10187677716047,20.19589
6217,1577399067.57,0.8175001568603515,0.7703343841552734,8.261073118286133,-1.5689612245140998,0.2781361587152248,8.81620964980707,1.3219983500162753,1.2545046651204426,10.530439963785806,0.4047393798828124,-1.366424560546875,0.170135498046875,3.935464998570884,-6.98052383050686,1.2288907679115852,3.826686314174107,4.979451497395833,-0.6761096772693452,3.3441496757623987,-2.8211169617419607,0.0813145477208022,-5.182149263630755,-0.6497354497354497,-4.6459509657479225,31.35133435169377,39.64198640189295,35.95192739689101,1577399067.0,-27.714911384789225,-51.10187677716047,20.19589
6218,1577399067.58,0.994671079711914,0.5931634613037109,8.486128074340819,1.496814001315977,0.8156344314203028,9.314203595119569,1.1089144022623691,-0.1065989786783858,8.237991874186198,-0.2666473388671875,-1.030731201171875,0.322723388671875,0.2123204673208844,-0.3276917992568597,0.5727628382240852,0.0119890485491072,4.231770833333333,0.9260631742931548,4.338356336124197,-2.7270797296838944,0.6505163817663843,-4.108512338141978,-15.843549043549045,1.9698832094771164,31.25548866325217,39.73783209033456,35.95192739689101,1577399067.0,-27.714911384789225,-51.10187677716047,20.19589
6219,1577399067.59,1.3753491436767578,0.4854243865966796,8.213189085083007,1.4644922789038677,-0.0115622421636804,9.285473175197694,0.8982246561686191,2.279222975667317,6.577613022867839,0.4657745361328124,-0.8781433105468749,0.170135498046875,3.3251134360708843,-2.5554750023818595,0.7406095179115852,2.697535923549107,-4.084269205729167,-1.6831897553943451,3.434532099431656,-4.043600978496809,-0.4878872863247798,-22.36034007145118,-31.03736263736264,8.585717384702155,31.25548866325217,39.83367777877617,35.856081708449395,1577399067.0,-27.714911384789225,-51.10187677716047,20.19589
6220,1577399067.6,1.061708726196289,0.2388216156005859,8.165305051879882,0.0112118711890241,0.9461184218988185,10.159356781154724,2.025893638102213,1.7740464253743489,9.98456198527018,0.2521514892578124,-0.7865905761718749,0.170135498046875,-0.5811365639291157,-4.20342422113186,-0.3275057164634147,-2.276829310825893,-8.570353190104166,-2.2325061616443453,3.9768266414471753,-2.7270797296838944,-0.6505163817663776,-22.8971585341956,-2.074155474155475,-6.50433135204709,31.25548866325217,39.68990924611376,35.95192739689101,1577399067.0,-27.714911384789225,-51.10187677716047,20.19589
6221,1577399067.61,0.9527725506591798,0.4554968658447265,9.850823020629882,-0.2928517396508187,0.4864317031488184,10.896770892482849,-0.0091777730305986,-3.514745041910807,9.723594004313153,0.9998321533203124,-1.274871826171875,0.124359130859375,-1.1914881264291155,1.5338804663681402,0.2218106897865852,1.1106218610491072,-5.121866861979167,0.2394176664806547,4.157591488785686,-3.2913031220322866,0.3252581908831953,-30.41261701261704,-26.76410256410256,7.024677860210852,31.15964297481056,39.45029502500974,35.99985024111181,1577399067.0,-27.714911384789225,-51.10187677716047,20.19589
6222,1577399067.62,0.8917204083251953,0.7727285858154297,9.932225877075194,2.1408542478980084,0.8144373305902253,12.113025335842224,0.427764029947916,0.0969081624348954,9.992941691080729,0.7404327392578125,-0.8171081542968749,-0.501251220703125,-0.5658777748666156,0.02326034918064,0.2370694788490852,1.9193376813616072,1.7598470052083333,1.3685680571056549,3.0730024047546407,-1.7867074091032429,-0.8131454772079686,-24.239204691056564,-15.131339031339031,8.251208915168302,31.01587444214814,39.68990924611376,35.856081708449395,1577399067.0,-27.714911384789225,-51.10187677716047,20.19589
6223,1577399067.63,0.2357091534423828,0.1334767425537109,9.994475120239256,0.1692291807593365,-1.2110572739019618,9.845716363674256,-0.3730964253743486,3.086068935139973,11.476149619547526,0.9540557861328124,-0.6340026855468749,-0.501251220703125,2.7757970298208843,5.2570249976181405,-0.3275057164634147,2.117701939174107,0.6154378255208333,1.7042614164806549,2.892237557416128,-3.103228657916157,-0.3252581908831888,-10.55033389107465,-34.83581603581603,9.626410401029688,31.111720130589752,39.73783209033456,35.95192739689101,1577399067.0,-27.714911384789225,-51.10187677716047,20.19589
6224,1577399067.64,0.0896628521728515,-0.6590040069580078,10.07587797668457,-1.8442944154320688,-1.3499209701910242,10.5328522401391,1.1448274271647128,-0.6776160746256509,9.050823337809245,-0.0225067138671875,-1.519012451171875,0.078582763671875,3.3251134360708843,-3.5625550805068595,-0.8463045445884148,-0.8425031389508928,-3.962198893229168,-2.0494006928943453,4.8806508781397175,-3.2913031220322875,-0.8131454772079686,-6.255786189119516,-34.83581603581603,7.396353937470683,31.063797286368946,39.68990924611376,35.95192739689101,1577399067.0,-27.714911384789225,-51.10187677716047,20.19589
6225,1577399067.65,0.3649960430908203,0.4542997650146484,9.103832102661132,1.5363183287085551,0.649237416039444,9.418351367336363,0.2841119303385415,0.3842123616536459,9.488962241617838,0.3131866455078125,-1.427459716796875,-0.180816650390625,-0.825277188929116,-2.40288711175686,-0.2359529820884147,2.514430454799107,-0.0406901041666667,-0.7371448335193452,4.519121183462703,-2.727079729683896,-0.6505163817663742,-4.913740032258554,-18.454985754985756,1.1893634472314665,31.20756581903136,39.64198640189295,35.856081708449395,1577399067.0,-27.714911384789225,-51.10187677716047,20.19589
6226,1577399067.66,0.3482366314697265,0.3633201019287109,9.9920809185791,0.1045857359351178,-0.0905708969488367,7.214488739162538,1.0777897806803378,0.375832655843098,8.39002367960612,0.0080108642578124,-1.763153076171875,0.200653076171875,2.7147618735708843,1.80853866949314,0.6185392054115852,2.117701939174107,-0.1780192057291666,-0.1878284272693452,3.253767252093146,-2.7270797296838944,-0.9757745726495664,-4.108512338141983,-2.548962148962147,6.9503426447588845,31.111720130589752,39.546140713451344,35.99985024111181,1577399067.0,-27.714911384789225,-51.10187677716047,20.19589
6227,1577399067.67,0.573291587524414,1.5580267303466795,9.216359580688476,0.5331478331030866,0.4385476699456935,7.1235090760766,3.2134176615397134,-1.7789488382975258,5.320657151285807,2.0832061767578125,0.0984191894531251,-0.012969970703125,-0.1844080483041157,-4.02031875238186,-0.1749178258384147,6.084987095424108,-7.746378580729167,1.0939098539806549,1.626883626046571,-2.162856337335503,1.1384036680911775,-18.06579236949609,-33.88620268620268,7.693694799278552,31.01587444214814,39.45029502500974,35.856081708449395,1577399067.0,-27.714911384789225,-51.10187677716047,20.19589
6228,1577399067.68,0.0992396588134765,-0.0053869537353515,8.780614878540039,3.0518479795874613,1.008367665062881,7.106749664455507,-0.0738212178548173,1.2209858418782542,7.688522593180338,-0.1445770263671875,-3.411102294921875,0.414276123046875,-3.693929532679116,3.822698825743141,0.3133634241615852,2.148219517299107,-12.720743815104166,-0.3098987397693452,2.892237557416128,-3.855526514380679,-0.6505163817663776,-5.182149263630755,-34.83581603581603,-3.60525794942039,31.20756581903136,39.73783209033456,35.99985024111181,1577399067.0,-27.714911384789225,-51.10187677716047,20.19589
6229,1577399067.69,0.0034715924072265,-0.6159083770751953,10.327269151000976,-0.4712197633324592,0.0830087234124908,8.482218518215273,0.3475582743326821,1.7979884419759105,11.854433481852212,0.0385284423828124,-3.594207763671875,0.109100341796875,1.3414708579458845,-6.96526504144436,0.3133634241615852,-4.306248256138392,-8.433024088541666,-0.4777454194568452,3.0730024047546407,-2.539005265567764,-0.4878872863247798,-17.528973906751688,-27.23890923890924,-5.537973551171519,31.111720130589752,39.68990924611376,35.927965974780605,1577399067.0,-27.714911384789225,-51.10187677716047,20.19589
6230,1577399067.7,0.6223727215576171,0.909198080444336,12.766960642700194,1.4644922789038677,2.8112015151605374,13.523210113674256,1.9540675882975251,0.3016124043782543,9.761901230875653,2.6782989501953125,-3.578948974609375,0.551605224609375,-1.7408045326791155,-6.33965468988186,0.6185392054115852,3.918239048549107,-1.9175211588541667,-0.2488635835193452,2.982619981085384,-2.633042497625829,0.4065727386039942,-23.433976996939982,-4.448188848188844,7.0990130756628185,31.15964297481056,39.35444933656812,35.95192739689101,1577399067.0,-27.714911384789225,-51.10187677716047,20.19589
6231,1577399067.71,0.6044162091064452,-0.0843956085205078,10.138127219848633,0.8755186705054303,-1.0961355942144615,9.60150779433832,-0.7944759175618485,-1.9058415262858075,9.326156528727214,0.2216339111328124,-2.678680419921875,0.139617919921875,1.1278478110708845,-0.0835511742568597,0.6185392054115852,0.8969988141741072,-4.206339518229167,2.0704723539806547,3.615296946770161,-3.855526514380679,0.9757745726495798,-22.36034007145118,-4.448188848188844,9.329069539221818,31.111720130589752,39.546140713451344,35.95192739689101,1577399067.0,-27.714911384789225,-51.10187677716047,20.19589
6232,1577399067.72,0.4511873028564452,-0.1203086334228515,9.029611851196288,1.0095939634741804,-0.3611156845464929,8.543270660549256,-1.2733162495930983,2.243309950764974,9.158562412516275,-2.0366668701171875,-5.150604248046875,0.109100341796875,4.118570467320884,-6.64483047113186,-0.7852693883384148,3.735133579799107,-5.549112955729167,1.9484020414806549,3.434532099431656,-2.539005265567764,-0.8131454772079686,-8.403060040097083,-23.44045584045584,8.139706091990352,31.30341150747297,39.88160062299697,35.99985024111181,1577399067.0,-27.714911384789225,-51.10187677716047,20.19589
6233,1577399067.73,0.8186972576904296,0.4662707733154296,9.394727604370116,0.0507161985816027,0.6432519118890534,9.363284729152772,0.7222508341471353,0.8474903828938798,11.758665415445964,-0.1140594482421875,-3.502655029296875,0.353240966796875,1.0362950766958845,2.8003599585556405,0.374398580411585,1.0038103376116072,1.775105794270833,0.3614879789806547,4.519121183462703,-3.2913031220322875,0.4878872863247865,-11.087152353819032,-22.49084249084249,1.449536701313347,31.27945008536257,39.71387066822416,35.736274597897385,1577399067.0,-27.714911384789225,-51.10187677716047,20.19589
6234,1577399067.74,1.032978306274414,0.8948328704833984,8.071931187133789,2.06304269394293,0.3834810317620997,11.832903741603944,0.7497841532389317,-0.4597437235514321,11.94541314493815,0.6488800048828125,-2.037811279296875,0.292205810546875,-2.961507657679116,-3.89824843988186,-1.1209627477134148,0.0425066266741072,11.327107747395834,-1.2254260835193451,3.615296946770161,-1.974781873219373,-0.3252581908831888,-6.255786189119516,-23.44045584045584,-4.94329182755579,31.111720130589752,39.68990924611376,35.76023602000779,1577399067.0,-27.714911384789225,-51.10187677716047,20.19589
6235,1577399067.75,0.9204508282470704,0.4973953948974609,8.5747135357666,-2.1435696229516,0.9724546401605372,13.755447674709412,0.9628681009928378,-2.31285580851237,8.99096829630534,-0.5718231201171875,-2.526092529296875,0.414276123046875,1.2499181235708845,0.4962828101181402,1.6256192835365852,0.6833757672991072,14.043172200520834,-1.6831897553943451,3.79606179410867,-2.915154193800025,-0.162629095441591,-5.182149263630755,-3.4985754985755,6.9503426447588845,31.20756581903136,39.64198640189295,35.856081708449395,1577399067.0,-27.714911384789225,-51.10187677716047,20.19589
6236,1577399067.76,0.8749609967041014,1.275510934448242,9.281003025512694,0.1812001890601178,-0.9979733261480556,6.898454120021913,1.192711460367838,-0.7135290995279946,5.979062607828776,-0.3582000732421875,-2.465057373046875,0.231170654296875,0.2123204673208842,-4.29497695550686,0.5880216272865852,1.4463152204241072,6.230672200520833,-0.4014514741443452,2.7114727100776186,-1.0344095526387171,-1.138403668091164,-13.77124466754098,-3.4985754985755,7.0990130756628185,31.01587444214814,39.88160062299697,35.856081708449395,1577399067.0,-27.714911384789225,-51.10187677716047,20.19589
6237,1577399067.77,1.004247886352539,-0.0017956512451171,9.069116178588866,2.665184411472227,0.6276896010980377,9.567988971096131,1.0574390665690097,-1.6676184611002602,9.401573881022134,-1.7162322998046875,-2.831268310546875,0.078582763671875,-1.0083826576791155,-7.4077699242568595,0.603280416349085,-0.0948224748883928,-8.463541666666666,-0.0810169038318452,3.0730024047546407,-1.7867074091032429,-0.8131454772079686,-16.455336981262917,-3.4985754985755,2.490229717640883,31.30341150747297,39.73783209033456,35.97588881900141,1577399067.0,-27.714911384789225,-51.10187677716047,20.19589
6238,1577399067.78,0.5517437725830078,0.7200561492919921,10.38233578918457,-0.3143995545922249,-1.7018686142339927,8.346946124416444,1.2166534769694004,-0.4166480936686197,12.294966587320962,1.9001007080078125,-2.892303466796875,0.749969482421875,2.7147618735708843,-4.50860000238186,0.4659513147865852,-0.8730207170758928,-4.206339518229167,0.7582164946056548,3.253767252093146,-2.7270797296838944,-0.6505163817663776,-40.61216780476041,-23.44045584045584,7.545024368374619,31.111720130589752,39.73783209033456,35.856081708449395,1577399067.0,-27.714911384789225,-51.10187677716047,20.19589
6239,1577399067.79,0.4033032696533202,0.949899508666992,11.90025964172363,2.88664806503668,2.5550219375238186,13.018033563381287,3.574942112223307,1.1922554219563792,13.326867502848309,1.8390655517578125,-2.434539794921875,0.383758544921875,0.3954259360708843,0.6183531226181402,-0.2664705602134147,-3.955296107700893,4.552205403645833,0.3309704008556547,3.253767252093146,-2.7270797296838944,0.6505163817663843,-22.36034007145118,-4.448188848188844,8.288376522894284,31.30341150747297,39.68990924611376,35.95192739689101,1577399067.0,-27.714911384789225,-51.10187677716047,20.19589
6240,1577399067.8,0.487100327758789,-0.2543839263916015,10.590631333618164,2.414990337985899,-0.2174635849371179,11.073941815334411,0.9365318827311192,1.3790031514485677,14.17441489054362,0.8930206298828125,-4.875946044921875,0.414276123046875,2.4401036704458843,-4.41704726800686,2.266488424161585,-1.7580304827008928,17.369588216145832,0.1478649321056547,3.434532099431656,-2.539005265567764,0.1626290954415977,-5.718967726375147,-2.074155474155475,7.619359583826587,31.25548866325217,39.546140713451344,35.99985024111181,1577399067.0,-27.714911384789225,-51.10187677716047,20.19589
6241,1577399067.81,0.5852625958251952,0.1909375823974609,9.901101255493163,0.197959600681212,0.4804461989984278,9.237589141994569,-0.3850674336751303,1.4735741170247387,9.324959427897136,-0.2208709716796875,-5.257415771484375,0.276947021484375,1.6008702720083845,-1.5789125023818595,0.3438810022865852,0.4392351422991072,15.126546223958332,-1.3780139741443451,4.338356336124197,-3.103228657916157,-1.951549145299146,-6.255786189119516,-29.13813593813593,9.923751262837555,31.25548866325217,39.85763920088657,35.9040045526702,1577399067.0,-27.714911384789225,-51.10187677716047,20.19589
6242,1577399067.82,0.5948394024658202,0.7631517791748046,9.719141929321289,-0.1276518251000374,1.434535560570693,9.278290570217225,-0.3563370137532549,0.2585167744954418,8.411571494547525,-0.3276824951171875,-3.350067138671875,-0.196075439453125,-0.7642420326791157,2.3273374976181405,-0.7852693883384148,-3.589085170200893,4.918416341145833,1.3685680571056549,3.253767252093146,-1.974781873219373,-0.9757745726495664,-5.718967726375147,3.623524623524626,-6.058320059335285,31.20756581903136,39.83367777877617,35.76023602000779,1577399067.0,-27.714911384789225,-51.10187677716047,20.19589
6243,1577399067.83,1.0736797344970703,1.0289081634521484,8.96496840637207,2.417384539646055,-1.0482515610113368,10.37244072890863,0.8766768412272129,2.6215938130696603,8.260736789957681,1.2897491455078125,-2.404022216796875,0.170135498046875,-4.975667813929116,-2.8606507836318595,-0.1138826695884147,0.7444109235491072,6.566365559895833,-0.1878284272693452,2.892237557416128,-1.974781873219373,-1.3010327635327552,-4.108512338141983,-30.087749287749283,7.545024368374619,31.20756581903136,39.64198640189295,35.95192739689101,1577399067.0,-27.714911384789225,-51.10187677716047,20.19589
6244,1577399067.84,1.2652158673095704,-0.0053869537353515,8.184458665161133,-1.3103874452172248,0.2661651504144435,8.976621161037539,0.7186595316569003,0.184296523030598,6.594372434488932,0.2216339111328124,-2.587127685546875,0.658416748046875,2.9283849204458843,-9.14727187738186,1.1678556116615852,2.178737095424107,1.0121663411458333,0.3309704008556547,3.615296946770161,-3.103228657916157,-2.602065527065524,-5.718967726375147,-34.36100936100936,7.173348291114784,30.92002875370653,39.68990924611376,35.856081708449395,1577399067.0,-27.714911384789225,-51.10187677716047,20.19589
6245,1577399067.85,0.8186972576904296,0.316633169555664,10.879132633666991,0.2075364073218366,1.487207997094131,9.328568805080506,2.38502388712565,1.5226552510579423,8.129055698649088,0.5420684814453125,-2.190399169921875,0.383758544921875,-3.053060392054116,1.3507749976181402,-0.4190584508384147,-0.9340558733258928,-10.767618815104166,-0.5845569428943452,4.247973912454943,-3.1972658899742217,-0.5692018340455788,-6.255786189119516,-32.936589336589336,7.545024368374619,31.20756581903136,39.64198640189295,35.95192739689101,1577399067.0,-27.714911384789225,-51.10187677716047,20.19589
6246,1577399067.86,0.592445200805664,-0.5632359405517577,11.253825193481443,2.127686138767149,-0.3922403061285243,11.714390759426209,1.1292651163736973,1.3179510091145827,11.966960959879556,0.3437042236328124,-2.098846435546875,0.170135498046875,-2.030721524866616,-0.5260560570693595,0.3133634241615852,2.132960728236607,-8.204142252604166,-1.2406848725818451,4.157591488785688,-2.915154193800025,0.1626290954415977,-18.06579236949607,-10.14586894586894,-7.02467786021086,31.20756581903136,39.76179351244497,35.927965974780605,1577399067.0,-27.714911384789225,-51.10187677716047,20.19589
6247,1577399067.87,0.8965088116455078,0.909198080444336,9.939408482055663,-0.9249209779320686,0.4241824599847559,10.068377118068788,-0.3156355855305986,0.251334169514973,12.13694927775065,1.3507843017578125,-2.129364013671875,0.261688232421875,3.2945958579458843,-0.6633851586318598,-0.6631990758384148,1.5073503766741072,-2.1616617838541665,-0.1878284272693452,4.157591488785688,-2.162856337335503,1.1384036680911775,-29.875798549872645,-23.44045584045584,8.437046953798218,31.20756581903136,39.73783209033456,35.95192739689101,1577399067.0,-27.714911384789225,-51.10187677716047,20.19589
6248,1577399067.88,0.5900509991455077,1.3473369842529297,10.327269151000976,0.8156636290015241,2.7776826919183497,9.603901995998475,-1.2086728047688795,2.030226003011068,10.22158794962565,1.0761260986328125,-0.3288269042968749,-0.104522705078125,1.5245763266958845,-1.2737367211318598,-0.8768221227134148,4.803248814174108,0.5238850911458333,2.4977184477306547,3.253767252093146,-1.5986329449871084,1.3010327635327683,-29.875798549872645,-23.44045584045584,8.437046953798218,31.111720130589752,39.64198640189295,35.856081708449395,1577399067.0,-27.714911384789225,-51.10187677716047,20.19589
6249,1577399067.89,0.6199785198974609,-0.1095347259521484,10.13333881652832,0.8360143431128522,-0.8854458481207121,8.849728473049257,2.1647573343912754,-0.7494421244303383,8.81140317179362,-1.3042449951171875,-3.395843505859375,-0.028228759765625,-1.1151941811166155,0.1453306616806402,0.1760343225990852,-1.6359601702008928,-2.1006266276041665,1.4601207914806549,4.067209065116433,-1.6926701770451755,0.5692018340455853,-17.528973906751702,-24.864875864875863,7.545024368374618,31.135681552700152,39.66594782400336,35.856081708449395,1577399067.0,-27.714911384789225,-51.10187677716047,20.19589
6250,1577399067.9,1.5932214947509766,0.3585316986083984,8.062354380493163,0.5882144712866804,2.265323536644912,11.653338617092224,-0.4952007100423173,-2.0710414408365883,8.701269895426432,-0.5107879638671875,-1.946258544921875,0.200653076171875,0.2428380454458842,-7.9265687523818595,1.0457852991615852,1.7209734235491072,-0.3916422526041667,-1.805260067894345,4.338356336124197,-2.7270797296838944,0.6505163817663843,-5.182149263630755,-1.5993487993488031,-7.322018722018729,31.25548866325217,39.64198640189295,35.856081708449395,1577399067.0,-27.714911384789225,-51.10187677716047,20.19589
6251,1577399067.91,0.9779116680908202,0.5859808563232421,8.23713110168457,-1.6264220643578498,0.8623213637933497,8.363705536037537,0.6659870951334629,0.960017860921223,10.583112400309243,0.8014678955078125,-1.854705810546875,-0.196075439453125,2.5316564048208843,2.6630308569931405,0.0387052210365852,2.422877720424107,2.202351888020833,-0.8286975678943452,4.8806508781397175,-2.162856337335503,-0.162629095441591,-5.718967726375147,-3.973382173382172,-5.909649628431355,31.20756581903136,39.68990924611376,36.047773085332615,1577399067.0,-27.714911384789225,-51.10187677716047,20.19589
6252,1577399067.92,0.975517466430664,1.2144587921142578,10.715129819946288,-0.0845561952172249,-0.5718054306402429,12.1034485292016,0.5199407938639317,-2.837185972086588,10.8919644144694,1.8543243408203125,-1.885223388671875,0.612640380859375,-1.4356287514291155,-2.3418519555068595,-1.1514803258384148,-1.1171613420758928,8.580525716145834,0.3920055571056547,3.705679370439418,-2.633042497625829,-0.8944600249287675,-5.718967726375147,-3.973382173382172,-5.909649628431355,31.01587444214814,39.64198640189295,36.19154161799503,1577399067.0,-27.714911384789225,-51.10187677716047,20.19589
6253,1577399067.93,2.0050241802978515,0.8110358123779297,10.813292088012696,1.5363183287085551,0.9209793044671778,10.399974048000429,0.767740665690104,0.4883601338704423,7.033708439127604,0.5573272705078125,-0.8781433105468749,0.200653076171875,1.3414708579458845,-3.19634414300686,1.457772603849085,-2.093723842075893,1.180013020833333,0.6971813383556548,4.157591488785688,-2.539005265567764,0.1626290954415977,-10.550333891074628,-4.448188848188844,7.0990130756628185,31.111720130589752,39.66594782400336,35.99985024111181,1577399067.0,-27.714911384789225,-51.10187677716047,20.19589
6254,1577399067.94,0.927633433227539,0.2771288421630859,9.178052354125976,1.0814200132788678,-0.1815505600347742,9.668545440822694,-0.5837861714680986,2.681448854573566,12.077094236246744,-1.4873504638671875,-0.5119323730468749,0.200653076171875,-1.4051111733041155,1.0761167944931402,-0.0833650914634147,1.1106218610491072,-12.049357096354166,-0.8592151460193452,4.157591488785688,-2.539005265567764,0.1626290954415977,-4.108512338141983,-26.28929588929589,-4.794621396651859,31.30341150747297,39.73783209033456,35.856081708449395,1577399067.0,-27.714911384789225,-51.10187677716047,20.19589
6255,1577399067.95,0.6738480572509765,-0.038905776977539,10.664851585083008,0.7534143858374616,-0.3108374496832117,10.580736273342223,1.654792380777994,0.6176470235188792,9.963014170328776,-0.6023406982421875,-1.091766357421875,0.109100341796875,-1.801839688929116,0.1605894507431402,0.1302579554115852,-2.490452357700893,-10.248819986979166,0.0868297758556547,3.79606179410867,-1.7867074091032429,-0.8131454772079686,-31.4862539381058,-27.71371591371592,-4.868956612103822,31.111720130589752,39.64198640189295,35.76023602000779,1577399067.0,-27.714911384789225,-51.10187677716047,20.19589
6256,1577399067.96,1.3849259503173827,-0.1107318267822265,10.257837302856444,1.244225726169493,1.6069180801019434,9.986974261623477,1.3746707865397128,-0.2921496073404946,10.786619541422526,0.7099151611328125,-0.6340026855468749,0.322723388671875,-2.869954923304116,-2.8301332055068595,0.5269864710365852,-0.3237043108258928,-6.159464518229167,-2.0494006928943453,3.9768266414471753,-2.7270797296838944,-0.3252581908831888,-31.4862539381058,-27.71371591371592,-4.868956612103822,31.25548866325217,39.88160062299697,35.99985024111181,1577399067.0,-27.714911384789225,-51.10187677716047,20.19589
6257,1577399067.97,0.6726509564208983,0.6051344696044921,10.564295115356444,0.533147833103087,0.5235418288812403,9.406380359035584,1.3650939798990882,-1.6975459818522134,10.269471982828776,-0.6023406982421875,-1.335906982421875,-0.119781494140625,2.9131261313833843,-3.5625550805068595,0.7253507288490852,1.7667497907366072,-2.3142496744791665,2.0094371977306547,4.519121183462701,-2.162856337335501,0.1626290954415977,-8.939878502841475,-11.095482295482292,8.43704695379822,31.135681552700152,39.68990924611376,35.9040045526702,1577399067.0,-27.714911384789225,-51.10187677716047,20.19589
6258,1577399067.98,0.9156624249267578,0.1119289276123046,6.858070945434569,0.5642724546851179,-0.3754808945074304,8.682134356838318,0.4792393656412754,2.377385243733724,8.29425561319987,-2.0366668701171875,-1.091766357421875,-0.104522705078125,2.3180333579458843,2.9376890601181405,-0.0223299352134147,0.8359636579241072,-5.640665690104167,-0.4624866303943452,3.434532099431656,-1.410558480870978,-1.138403668091164,-12.697607742052195,-19.64200244200244,7.545024368374619,31.20756581903136,39.83367777877617,35.856081708449395,1577399067.0,-27.714911384789225,-51.10187677716047,20.19589
6259,1577399067.99,0.276410581665039,0.9906009368896485,8.694423618774413,1.6368747984351175,0.0339275893792872,10.044435101467224,0.7569667582194004,-1.1277259867350258,9.553605686442058,-0.2666473388671875,-1.580047607421875,-0.165557861328125,-6.654134610804116,-1.6094300805068598,1.1678556116615852,3.674098423549107,-5.762736002604167,0.4225231352306547,3.434532099431656,-1.410558480870978,-1.138403668091164,-12.697607742052195,-19.64200244200244,7.545024368374619,31.20756581903136,39.83367777877617,35.76023602000779,1577399067.0,-27.714911384789225,-51.10187677716047,20.19589
6260,1577399068.0,0.4847061260986328,0.0616506927490234,8.90032496154785,-1.0015354310570683,0.7809185073480372,7.935143438869569,1.5159286844889317,4.225708925374348,10.367634250895184,-0.9380340576171876,-1.854705810546875,0.200653076171875,3.691324373570884,-6.70586562738186,0.8931974085365852,-3.131321498325893,-1.9175211588541667,0.0563121977306547,4.519121183462703,-2.539005265567764,-1.138403668091164,-4.108512338141983,-0.6497354497354497,-5.537973551171519,31.111720130589752,39.88160062299697,35.95192739689101,1577399068.0,-27.71476670949225,-51.10200803837738,20.621359
6261,1577399068.01,1.0605116253662108,1.0109516510009764,9.7622375592041,0.2913334654273053,0.4098172500238184,11.00450996718988,-1.6372349019368484,2.875379189046223,10.300596604410806,-0.4344940185546875,-1.152801513671875,0.414276123046875,-1.3135584389291155,2.1747496069931405,0.1607755335365852,-1.7275129045758928,-0.2085367838541666,-1.3780139741443451,4.971033301808975,-1.8807446411613056,-1.3823473112535574,-6.255786189119516,-0.6497354497354497,-3.1592466567085857,31.063797286368946,39.83367777877617,35.95192739689101,1577399068.0,-27.71476670949225,-51.10200803837738,20.621359
6262,1577399068.02,1.6004040997314453,0.5572504364013672,8.759067063598632,1.506390807956602,1.0921647231683498,8.43912288833246,0.7569667582194004,1.781229030354817,6.455508738199869,-2.9827117919921875,-1.366424560546875,0.139617919921875,-1.5729578529916155,-2.95220351800686,0.7558683069740852,2.377101353236607,-5.930582682291666,-0.3556751069568452,4.519121183462703,-2.162856337335503,-0.8131454772079686,30.516278508871093,-17.98017908017908,2.3043916790109646,31.20756581903136,39.64198640189295,35.856081708449395,1577399068.0,-27.71476670949225,-51.10200803837738,20.621359
6263,1577399068.03,0.9060856182861328,-0.1035492218017578,10.51641108215332,-0.0821619935570686,0.6707852309808497,11.284631561428162,0.3284046610514316,-1.9824559794108072,10.915906431070963,-1.8230438232421875,-1.793670654296875,0.109100341796875,-0.3369959389291157,0.5878355444931402,0.6795743616615852,-0.5678449358258928,-11.377970377604166,0.0257946196056547,4.519121183462703,-2.162856337335503,-0.8131454772079686,-4.108512338141983,-3.4985754985755,-2.4158945021889204,31.111720130589752,39.64198640189295,35.856081708449395,1577399068.0,-27.71476670949225,-51.10200803837738,20.621359
6264,1577399068.04,1.0186130963134763,0.2364274139404296,10.446979234008788,1.462098077243711,-0.6460256821050867,9.761919305568789,0.0051874369303378,0.7996063496907542,11.950201548258462,-0.6633758544921875,-2.159881591796875,0.261688232421875,-3.327718595179116,-3.3184144555068595,1.0152677210365852,-2.826145717075893,-8.234659830729166,0.2394176664806547,4.699886030801212,-2.350930801451634,-0.6505163817663776,-14.84488159302974,3.1487179487179446,-6.727336998402988,31.111720130589752,39.73783209033456,35.76023602000779,1577399068.0,-27.71476670949225,-51.10200803837738,20.621359
