,timestamp,acc_x_dashboard,acc_y_dashboard,acc_z_dashboard,acc_x_above_suspension,acc_y_above_suspension,acc_z_above_suspension,acc_x_below_suspension,acc_y_below_suspension,acc_z_below_suspension,gyro_x_dashboard,gyro_y_dashboard,gyro_z_dashboard,gyro_x_above_suspension,gyro_y_above_suspension,gyro_z_above_suspension,gyro_x_below_suspension,gyro_y_below_suspension,gyro_z_below_suspension,mag_x_dashboard,mag_y_dashboard,mag_z_dashboard,mag_x_above_suspension,mag_y_above_suspension,mag_z_above_suspension,temp_dashboard,temp_above_suspension,temp_below_suspension,timestamp_gps,latitude,longitude,speed
116021,1577396590.63,-0.6797138513183593,0.2194285821533203,8.599553377990722,0.1761782050900342,-0.0232412746522482,7.841944759610804,-0.477415211995442,-0.7298324727376297,7.780756361897787,-2.050399780273437,-0.1440048217773437,4.975128173828125,3.027194883765244,3.8279091439596034,5.754238221703506,0.4899161202566966,-9.16108630952381,4.775637672061012,-6.825242417690333,-13.102547341051809,-0.3648904914529891,30.83961215137204,-1.7122993050563138,-8.309116809116826,30.5845688441609,35.736274597897385,35.35289184413095,1577396590.0,-27.69950025144741,-51.11137531430152,22.337196
116022,1577396590.64,-1.3524845178222655,0.3463212701416016,8.678562032775877,-2.354492949695121,0.7429032565977512,8.651184920743617,-2.7806372090657545,0.2470018046061191,11.473812422688804,-1.5621185302734375,-0.0219345092773437,5.188751220703125,0.784152891577744,-10.500093785727897,5.357509706078506,2.9618399483816966,-9.60359119233631,4.745120093936012,-7.146430296169879,-15.00146724555207,1.094671474358975,22.912576613810188,1.7122993050563151,-110.09579772079776,30.249108934615272,35.616467487345375,35.32893042202055,1577396590.0,-27.69950025144741,-51.11137531430152,22.337196
116023,1577396590.65,-1.5512032556152342,0.494761773071289,11.072763692932128,-0.3625171684451215,2.507429880132908,11.17706767220846,-0.7671136128743483,0.1153207132975253,11.54803267415365,-0.0362396240234375,-0.6933212280273438,5.127716064453125,-0.985866639672256,1.920560511147104,5.021816346703506,-2.5008065359933034,-3.4085228329613093,5.569094703311012,-7.146430296169879,-15.00146724555207,1.094671474358975,22.912576613810188,1.7122993050563151,-110.09579772079776,30.249108934615272,35.66439033156618,35.616467487345375,1577396590.0,-27.69950025144741,-51.11137531430152,22.337196
116024,1577396590.66,-0.9323021264648436,0.4732139581298828,10.251552523498534,-0.348151958484184,0.5417903171446262,11.696609432462363,-2.21560561726888,0.1201091166178378,10.224039156087242,-0.9059906005859376,-0.1592636108398437,4.959869384765625,-4.281765077172256,5.338529261147103,6.212001893578506,-0.3340584891183034,0.6197974795386905,5.508059547061012,-7.307024235409653,-13.482331321951856,0.729780982905982,31.03295448155648,3.0169082993849345,-4.570014245014259,30.201186090394465,35.616467487345375,35.52062179890376,1577396590.0,-27.69950025144741,-51.11137531430152,22.337196
116025,1577396590.67,-1.4027627526855468,0.379840093383789,9.068816903381348,-2.158168413562309,0.4172918308165017,9.991937850431116,-3.1888485921223952,-1.4349248616536452,7.670623085530599,-2.752304077148437,-0.2355575561523437,4.853057861328125,-0.787502381859756,-1.0243857779153964,5.677944276391006,0.1084463936941967,-8.61176990327381,6.438845679873512,-7.467618174649425,-12.722763360151754,0.0,30.646269821187605,2.03845155363847,3.73910256410255,30.392877467277685,35.472698954682954,35.52062179890376,1577396590.0,-27.69950025144741,-51.11137531430152,22.337196
116026,1577396590.68,-2.214397115478516,0.1045069024658203,8.216481112365722,-2.91713033983184,0.5824917453672824,10.834696834806117,-1.787043520100911,0.2470018046061191,12.081939644368491,-3.301620483398437,-0.3271102905273437,4.853057861328125,-0.985866639672256,6.345609339272103,5.174404237328506,-1.7989022391183034,-8.77961658296131,7.033938453311012,-6.825242417690333,-13.102547341051809,0.0,30.646269821187605,2.2015276779295467,-8.724572649572671,30.15326324617366,35.66439033156618,35.66439033156618,1577396590.0,-27.69950025144741,-51.11137531430152,22.337196
116027,1577396590.69,-1.6757017419433593,-0.1516726751708974,8.118318844299315,-0.415189604968559,-1.6680578151795915,5.533934359220179,-1.2603191548665358,0.6995059183756503,10.281499995930991,-2.264022827148437,-0.0524520874023437,5.249786376953125,-1.230007264672256,-5.220552770102897,5.632167909203506,-0.1814705984933033,-1.0281517392113095,5.447024390811012,-6.825242417690333,-13.102547341051809,0.0,30.646269821187605,1.875375429347392,-5.400925925925935,30.34495462305688,35.52062179890376,35.76023602000779,1577396590.0,-27.69950025144741,-51.11137531430152,22.337196
116028,1577396590.7,-1.5069105249023436,0.4444835382080078,10.49097268951416,-2.1450003044314494,1.6598824924375948,10.303184066251427,-1.327356801350911,0.2960829386393227,8.60196753133138,-0.7839202880859375,0.2679824829101562,5.646514892578125,-1.2910424209222562,-2.4892295279153966,5.220180604516006,-3.462110246930804,-3.0575706845238098,5.233401343936012,-7.146430296169879,-12.91265535060178,3.83026943495679e-15,31.322967976833127,-0.1223070932183076,-5.193198005698012,30.10534040195285,35.616467487345375,35.95192739689101,1577396590.0,-27.69950025144741,-51.11137531430152,22.337196
116029,1577396590.71,-1.1250353601074217,0.5474342095947266,10.26112933013916,0.3341955146603462,0.0964688083555637,5.792508138517054,0.5089958719889319,-1.412179945882161,9.338184541829428,-2.874374389648437,0.1611709594726562,5.066680908203125,-3.854518983422256,4.728177698647103,5.754238221703506,-1.829419817243304,-10.79377673921131,3.005618140811012,-7.467618174649425,-13.48233132195186,0.7297809829059857,31.61298147210978,1.7938373672018535,-4.985470085470089,30.34495462305688,35.616467487345375,35.616467487345375,1577396590.0,-27.69950025144741,-51.11137531430152,22.337196
116030,1577396590.72,-1.0005368737792968,-0.6065709906005858,8.156626070861815,-1.8373453911013715,0.9081031711485325,9.309590377286586,-1.9330898213704424,0.5390944071451816,12.606269807942711,-4.8580169677734375,-0.6628036499023438,4.792022705078125,1.302951719702744,-9.737154332602897,5.204921815453506,-2.2871834891183034,-4.903884161086309,4.226321265811012,-8.431181810088061,-13.102547341051809,0.0,31.61298147210978,1.7938373672018535,-4.985470085470089,30.249108934615272,35.616467487345375,35.424776110462155,1577396590.0,-27.69950025144741,-51.11137531430152,22.337196
116031,1577396590.73,-1.6326061120605466,0.197880767211914,9.095153121643063,-3.716793694324028,1.9711287082579072,9.103689034513147,0.5951871317545568,0.4720567606608066,10.432334700520835,-2.233505249023437,-0.7238388061523438,4.883575439453125,1.028293516577744,-5.220552770102897,4.503017518578506,-4.301343645368304,-3.866286504836309,4.043215797061012,-8.431181810088061,-13.102547341051809,0.0,25.42602690620784,1.7938373672018535,-4.985470085470089,30.201186090394465,35.616467487345375,35.616467487345375,1577396590.0,-27.69950025144741,-51.11137531430152,22.337196
116032,1577396590.74,-1.1812990991210937,0.5486313104248046,11.08473470123291,0.0349203071408154,0.5070743930723608,12.74766396127096,-1.3441162129720046,-0.5526615498860677,9.319030928548178,-1.4705657958984375,-0.4796981811523437,5.005645751953125,-0.3297387099847562,0.6083046517721034,4.930263612328506,-1.3106209891183034,-1.669020879836309,6.850832984561013,-7.4676181746494255,-13.48233132195186,0.5473357371794875,20.785810981781385,2.201527677929548,1.6618233618233351,30.36891604516728,35.59250606523497,35.233084733578934,1577396590.0,-27.69950025144741,-51.11137531430152,22.337196
116033,1577396590.75,-1.3429077111816403,-0.4246116644287109,8.259576742248534,-3.355269243640434,-0.3823715236756852,7.425353670743616,-1.992944862874348,0.2493960062662753,10.4945839436849,-3.179550170898437,-0.7238388061523438,4.578399658203125,-0.0703392959222559,2.500394495522104,5.876308534203506,-3.3552987234933034,-0.2652122860863095,8.041018531436013,-5.8616787822516985,-13.102547341051809,1.094671474358975,30.646269821187605,2.0384515536384704,-7.8936609686609795,30.34495462305688,35.66439033156618,35.32893042202055,1577396590.0,-27.69950025144741,-51.11137531430152,22.337196
116034,1577396590.76,-1.6517597253417968,-0.1468842718505849,8.257182540588378,-3.060782439441215,0.1491412448790012,11.979125228360802,-1.6362088155110672,1.5709953226725253,10.461065120442711,-2.294540405273437,-0.5407333374023438,5.005645751953125,1.821750547827744,12.540677698647103,4.411464784203506,-3.0806405203683034,1.7794654482886905,6.576174781436012,-6.343460599971016,-14.052007293301935,0.5473357371794949,30.646269821187605,2.0384515536384704,-7.8936609686609795,30.34495462305688,35.80815886422859,35.32893042202055,1577396590.0,-27.69950025144741,-51.11137531430152,22.337196
116035,1577396590.77,-1.7630901025390624,0.1440112298583984,9.800245510559082,0.8226126533322211,0.0150659519102512,11.222557503751428,-2.390382338460286,0.0770134867350253,11.29185309651693,-2.187728881835937,0.2527236938476562,4.715728759765625,-1.931911561547256,1.4322792611471036,4.960781190453506,-0.6392342703683034,6.143479120163691,3.493899390811012,-6.343460599971016,-14.052007293301935,0.5473357371794949,30.83961215137204,1.7938373672018535,-94.72393162393163,30.297031778836075,35.616467487345375,35.66439033156618,1577396590.0,-27.69950025144741,-51.11137531430152,22.337196
116036,1577396590.78,-1.2686874597167968,0.4516661431884765,9.796654208068846,-1.5751803093142622,0.641149686041111,10.224175411466272,-1.2483481465657549,-0.3551399129231771,8.983842696126302,-1.6841888427734375,0.3747940063476562,4.730987548828125,-0.4518090224847559,-0.9938681997903964,5.143886659203506,-1.2038094656808034,5.27372814360119,3.417605445498512,-6.6646484784505615,-11.773303407901622,0.912226228632484,30.646269821187605,0.4076903107276945,7.062749287749271,30.249108934615272,35.64042890945578,35.424776110462155,1577396590.0,-27.69950025144741,-51.11137531430152,22.337196
116037,1577396590.79,-1.0053252770996093,-0.3839102362060546,10.277888741760252,0.3557433296017525,-0.3967367336366227,9.752517684415492,-1.7942261250813796,2.758519346110026,6.424441121419271,-1.9588470458984373,0.3747940063476562,4.639434814453125,2.828830625952744,-5.678316441977897,5.693203065453506,1.3138907296316966,-8.23030017671131,3.707522437686012,-6.6646484784505615,-12.91265535060178,1.6420072115384623,30.646269821187605,-0.8969186836009261,9.555484330484315,30.392877467277685,35.76023602000779,35.32893042202055,1577396590.0,-27.69950025144741,-51.11137531430152,22.337196
116038,1577396590.8,-1.069968721923828,-0.6975506536865235,9.27711244781494,-1.1430269096560588,0.5777033420469699,8.366274923185022,-1.2339829366048172,1.2669317118326815,10.422757893880211,-3.576278686523437,-0.5102157592773438,4.883575439453125,-2.084499452172256,0.9134804330221036,4.533535096703506,1.8326895577566968,-10.12239002046131,3.707522437686012,-6.6646484784505615,-13.672223312401885,-0.1824452457264983,30.646269821187605,-0.8969186836009261,6.231837606837594,30.392877467277685,35.76023602000779,35.32893042202055,1577396590.0,-27.69950025144741,-51.11137531430152,22.337196
116039,1577396590.81,-1.165736788330078,0.2804807244873047,8.161414474182129,-1.407586193103325,0.7345235507872048,9.38381062875143,-0.6952875630696613,-0.8291918416341141,9.65541626180013,-1.6536712646484373,-0.6475448608398438,4.624176025390625,-1.092678163109756,-0.8717978872903964,4.609829042016006,-2.378736223493304,-10.67170642671131,4.775637672061012,-6.6646484784505615,-13.672223312401885,-0.1824452457264983,19.62575700067478,0.4892283728732329,-61.48746438746441,30.297031778836075,35.66439033156618,35.472698954682954,1577396590.0,-27.69950025144741,-51.11137531430152,22.337196
116040,1577396590.82,-1.797806026611328,0.858680425415039,9.856509249572753,-1.200487749499809,-1.691999831781154,11.38775741830221,-2.275460658772786,-1.6683595235188795,9.376491768391928,-0.9212493896484376,-0.6322860717773438,4.700469970703125,1.943820860327744,3.873685511147104,4.930263612328506,-7.444654192243304,-8.81013416108631,8.193606422061013,-6.6646484784505615,-12.91265535060178,0.912226228632484,23.685945934547927,-0.8969186836009261,-7.8936609686609795,30.392877467277685,35.80815886422859,35.52062179890376,1577396590.0,-27.69950025144741,-51.11137531430152,22.337196
116041,1577396590.83,-1.991736361083984,0.178727153930664,8.08958842437744,-2.9075535331912152,1.2073783786680636,11.868991951993616,-2.160538979085286,0.4026249125162753,11.406774776204433,-2.233505249023437,-1.2731552124023438,4.700469970703125,-0.619655702172256,2.195218714272104,5.235439393578506,1.3138907296316966,-9.63410877046131,8.468264625186013,-6.182866660731244,-14.621683264652017,1.4595619658119638,23.685945934547927,-0.8969186836009261,-7.8936609686609795,30.48872315571929,35.32893042202055,35.616467487345375,1577396590.0,-27.69950025144741,-51.11137531430152,22.337196
116042,1577396590.84,-2.374808626708984,-1.104564935913086,8.544486739807128,-1.9498728691287155,-1.1413334499452163,9.127631051114712,-2.1844809956868483,0.5821900370279941,10.231221761067712,-2.965927124023437,-1.6088485717773438,4.639434814453125,4.446262266577744,-1.0701621451028964,4.533535096703506,6.013597760881696,-7.253737676711309,6.545657203311012,-6.825242417690333,-14.241899283751962,2.9191239316239352,30.83961215137204,2.119989615784009,-4.154558404558413,30.009494713511245,35.616467487345375,35.52062179890376,1577396590.0,-27.69950025144741,-51.11137531430152,22.337196
116043,1577396590.85,-1.770272707519531,0.1535880364990234,9.1370516506958,-1.8469221977419965,-0.3189251796815449,10.002711757901816,-1.903162300618489,0.5247291971842442,9.218474458821616,-1.8520355224609373,-1.3952255249023438,4.914093017578125,-0.1008568740472561,-0.0325644888528964,5.891567323266006,-0.2119881766183035,-5.468459356398809,3.310793922061012,-6.825242417690333,-14.241899283751962,2.9191239316239352,31.419639141925344,1.7122993050563151,1.2463675213675058,30.297031778836075,35.66439033156618,35.47269895468296,1577396590.0,-27.69950025144741,-51.11137531430152,22.337196
116044,1577396590.86,-1.2255918298339843,0.753335552368164,8.676167831115722,-1.5021571586794964,0.9248625827696264,9.472396090177211,-2.7614835957845045,-0.7154672627766924,5.804342891438802,-1.2569427490234375,-0.9984970092773438,5.036163330078125,7.406467344702744,-6.776949254477897,5.143886659203506,-7.444654192243304,-15.98176502046131,4.592532203311012,-8.109993931608514,-14.241899283751962,0.7297809829059857,31.80632380229421,-2.2015276779295467,-8.724572649572671,30.34495462305688,35.856081708449395,35.28100757779974,1577396590.0,-27.69950025144741,-51.11137531430152,22.337196
116045,1577396590.87,-1.2064382165527343,0.4971559747314453,7.854956661682128,-0.6306677543826215,-0.2387194240663102,6.807649642423304,-0.7216237813313795,-0.5454789449055986,9.232839668782551,-3.332138061523437,-1.4867782592773438,4.547882080078125,-2.603298280297256,0.6998573861471036,6.028896424828506,-7.261548723493304,-21.56648181733631,6.026858375186012,-7.146430296169879,-12.3429793792517,1.094671474358975,31.80632380229421,-2.2015276779295467,-8.724572649572671,30.392877467277685,35.856081708449395,35.66439033156618,1577396590.0,-27.69950025144741,-51.11137531430152,22.337196
116046,1577396590.88,-0.7682993127441405,-0.1253364569091787,6.6686297390747065,-2.627431938952934,0.1443528415586887,7.987991060880335,-1.3967886494954422,1.645215574137369,11.397197969563804,-4.1713714599609375,-1.669883728027344,4.441070556640625,0.356906797827744,-9.096285191977897,4.167324159203506,-1.5547616141183034,-10.94636462983631,5.111331031436012,-6.6646484784505615,-14.43179127420199,0.1824452457264983,30.83961215137204,-1.1415328700375424,-101.3712250712251,30.249108934615272,35.76023602000779,35.66439033156618,1577396590.0,-27.69950025144741,-51.11137531430152,22.337196
116047,1577396590.89,-0.6270414147949218,0.4971559747314453,11.036850668029784,-0.3541374626345751,0.3694077976133766,10.3594478052651,0.3162626383463538,0.7868942789713534,10.344946339925132,0.3299713134765625,-0.5407333374023438,4.761505126953125,-1.855617616234756,-2.9775107779153966,5.159145448266006,-2.058301653180804,-0.5246117001488095,4.256838843936012,-6.6646484784505615,-14.43179127420199,0.1824452457264983,31.419639141925344,-2.2015276779295467,-107.60306267806268,30.201186090394465,35.664390331566175,35.472698954682954,1577396590.0,-27.69950025144741,-51.11137531430152,22.337196
116048,1577396590.9,-1.3405135095214842,0.1571793389892578,11.328943270568846,-0.8700879203982465,0.8027582981016576,10.382192721036583,-1.157368483479817,-2.429715651448567,10.17376092122396,-0.9822845458984376,-0.2660751342773437,4.792022705078125,-5.929714295922256,-1.1006797232278964,4.625087831078506,-1.859937395368304,-1.7605736142113095,5.202883765811012,-5.540490903772153,-14.241899283751962,1.4595619658119638,22.912576613810188,-0.5707664350187712,5.400925925925918,30.392877467277685,35.52062179890376,35.616467487345375,1577396590.0,-27.69950025144741,-51.11137531430152,22.337196
116049,1577396590.91,-1.309388887939453,0.4875791680908203,9.32978488433838,-1.5404643852419966,1.027813254156345,10.72935196175924,-2.4669967915852857,-0.6077281880696611,8.825825386555989,-2.080917358398437,0.0696182250976562,4.730987548828125,2.920383360327744,-4.793306676352897,5.571132752953506,-0.3035409109933034,-4.598708379836309,6.606692359561012,-6.182866660731244,-13.86211530285191,1.094671474358975,21.3658379723347,-0.5707664350187712,-2.0772792022792146,30.249108934615272,35.76023602000779,35.32893042202055,1577396590.0,-27.69950025144741,-51.11137531430152,22.337196
116050,1577396590.92,-2.0887015283203123,-0.5993883856201172,8.898828585510254,-3.767071929187309,-0.8492408474061539,8.359092318204555,-1.818168141682942,1.1232796122233066,7.291142122395834,-4.2476654052734375,-0.5559921264648438,4.471588134765625,2.279514219702744,-3.297945348227896,5.326992127953506,-1.951490129743304,-4.629225957961309,6.423586890811012,-6.584351508830675,-12.817709355376769,0.0912226228632529,30.646269821187605,-0.5707664350187712,-1.2463675213675387,30.201186090394465,35.616467487345375,35.424776110462155,1577396590.0,-27.69950025144741,-51.11137531430152,22.337196
116051,1577396590.93,-1.922304512939453,0.303225640258789,9.918758492736815,-1.6589773674197308,0.2209672946836892,11.230937209561974,-2.52206342976888,-1.1224815450032553,11.386424062093102,-1.1653900146484375,-0.2355575561523437,5.219268798828125,-2.374416444359756,2.607206018959604,4.960781190453506,-1.6310555594308034,3.4884498232886907,5.309695289248512,-6.50405453921079,-12.722763360151754,-0.3648904914529891,31.419639141925344,2.364603802220625,-51.51652421652423,30.34495462305688,35.80815886422859,35.496660376793365,1577396590.0,-27.69950025144741,-51.11137531430152,22.337196
116052,1577396590.94,-1.098699141845703,0.6791153009033202,8.949106820373535,-2.07437135545684,0.2688513278868137,5.802084945157679,-0.2954558858235671,0.1488395365397128,8.789912361653645,-1.0433197021484375,-0.3271102905273437,4.944610595703125,1.730197813452744,7.505277308022103,5.357509706078506,1.2528555733816966,1.3217017764136905,4.500979468936012,-5.8616787822516985,-13.102547341051809,1.824452457264953,31.419639141925344,3.0169082993849345,-1.2463675213675387,30.249108934615272,35.76023602000779,35.424776110462155,1577396590.0,-27.69950025144741,-51.11137531430152,22.337196
116053,1577396590.95,-1.1681309899902343,-0.4940435125732421,9.612300680236816,0.5760098823361275,0.9559872043516576,7.34634501595846,-1.1406090718587232,0.8934362528483066,6.378951289876302,-1.9893646240234373,-0.7543563842773438,5.158233642578125,-2.389675233422256,4.209378870522103,4.533535096703506,-1.2495858328683034,-6.246657598586309,2.486819312686012,-5.540490903772153,-15.00146724555207,0.7297809829059857,31.03295448155648,-1.7122993050563138,4.570014245014226,30.392877467277685,35.76023602000779,35.424776110462155,1577396590.0,-27.69950025144741,-51.11137531430152,22.337196
116054,1577396590.96,-1.518881533203125,-0.081043726196288,8.956289425354003,-2.2036582451052777,-0.6217916896913103,11.586476156095175,-1.0400526021321608,1.444102634684244,11.92392233479818,-2.935409545898437,-1.0747909545898438,4.898834228515625,-2.084499452172256,-6.654878941977897,5.967861268578506,-5.674634660993304,-4.446120489211309,3.127688453311012,-6.6646484784505615,-13.102547341051809,3.774758283725532e-15,30.83961215137204,2.4461418643661634,-103.8639601139601,30.297031778836075,35.856081708449395,35.424776110462155,1577396590.0,-27.69950025144741,-51.11137531430152,22.337196
116055,1577396590.97,-1.4123395593261718,0.226611187133789,12.22676889312744,-1.3010442192263716,-0.0304238796327169,11.536197921231896,-2.342498305257161,0.0578598734537758,11.93589334309896,0.5435943603515625,-2.066612243652344,5.280303955078125,-1.5351830459222562,-5.617281285727897,4.335170838891006,-0.9901864188058034,8.99687267485119,4.974001929873512,-6.50405453921079,-13.102547341051809,-0.3648904914529891,23.589274769455702,0.6115354660915413,-52.55516381766383,30.392877467277685,35.616467487345375,35.304968999910145,1577396590.0,-27.69950025144741,-51.11137531430152,22.337196
116056,1577396590.98,-1.740345186767578,-0.2067393133544921,11.79341839263916,-2.079159758777153,0.5992511569883762,11.124395235685022,-1.9019651997884108,-1.4313335591634109,8.20572715657552,-0.5855560302734375,-1.852989196777344,4.975128173828125,2.828830625952744,-8.852144566977897,6.028896424828506,0.1847403390066966,16.85514904203869,6.698245093936012,-6.343460599971016,-13.292439331501834,2.006897702991451,22.13920729307244,-1.2230709321830808,-1.2463675213675387,30.249108934615272,35.80815886422859,35.52062179890376,1577396590.0,-27.69950025144741,-51.11137531430152,22.337196
116057,1577396590.99,-1.3213598962402342,-0.7693767034912109,8.676167831115722,-1.7104527031130905,-0.322516482171779,8.845115255216273,-2.308979482014973,0.7473899515787754,9.838572688802088,-1.3484954833984375,-1.7004013061523438,5.066680908203125,-3.274684999047256,6.711820276772103,4.228359315453506,0.8561270577566966,11.05680919828869,6.972903297061012,-6.6646484784505615,-14.811575255102042,0.1824452457264983,31.03295448155648,-0.7338425593098494,-2.0772792022792146,30.05741755773205,35.80815886422859,35.32893042202055,1577396590.0,-27.69950025144741,-51.11137531430152,22.337196
116058,1577396591.0,-1.9055451013183595,-0.6125564947509766,9.295068960266113,-1.8433308952517624,0.3945469150450173,8.767303701261193,-1.3632698262532543,-0.3515486104329428,11.44508200276693,-1.4553070068359373,-2.158164978027344,4.959869384765625,3.210300352515244,-4.015108434165397,5.342250917016006,0.4593985421316966,7.13530040922619,4.974001929873512,-7.066133326549993,-13.957061298076924,1.0034488514957294,32.57969312303195,2.69075605080278,-100.12485754985757,30.36891604516728,35.688351753676585,35.35289184413095,1577396591.0,-27.699701362501067,-51.11133278461968,22.71421
116059,1577396591.01,-1.4985308190917968,0.0997184991455078,9.629060091857909,-0.0895781791873089,-1.098237820062404,10.102071126798302,-2.057588307698567,1.5255054911295565,11.370861751302089,0.3910064697265625,-2.036094665527344,5.341339111328125,0.356906797827744,-0.7955039419778964,3.984218690453506,0.4899161202566966,15.17668224516369,3.432864234561012,-6.825242417690333,-13.48233132195186,0.3648904914529966,32.77303545321639,3.0984463615304745,-94.72393162393163,30.392877467277685,35.80815886422859,35.424776110462155,1577396591.0,-27.699701362501067,-51.11133278461968,22.71421
116060,1577396591.02,-1.3524845178222655,0.2912546319580078,10.30422496002197,-0.5827837211794965,2.509824081793064,11.593658761075648,-1.4422784810384108,2.1120848978678377,4.853844832356771,0.5130767822265625,-1.7919540405273438,5.463409423828125,6.796115782202744,-3.816744176352896,5.540615174828506,-2.7754647391183034,6.875900995163691,3.341311500186012,-6.02227272149147,-14.811575255102042,1.2771167200854732,31.22629681174091,3.0984463615304745,-88.07663817663818,30.392877467277685,35.66439033156618,35.424776110462155,1577396591.0,-27.699701362501067,-51.11133278461968,22.71421
116061,1577396591.03,-1.251928048095703,0.121266314086914,9.799048409729004,-0.5444764946169965,-0.6002438747499039,7.935318624356897,-0.1853226094563796,0.3547408793131504,7.599994136555989,-0.1888275146484375,-2.097129821777344,5.158233642578125,-1.718288514672256,2.225736292397104,5.082851502953506,2.7176993233816966,-7.589431036086309,2.029055640811012,-6.343460599971016,-12.532871369701729,0.1824452457264983,30.646269821187605,-0.8969186836009261,-2.908190883190908,30.201186090394465,35.52062179890376,35.424776110462155,1577396591.0,-27.699701362501067,-51.11133278461968,22.71421
116062,1577396591.04,-1.0651803186035156,-0.2534262457275391,9.049663290100098,-1.278299303454887,0.2054049838926735,9.888987179044396,-0.2667254659016925,0.2266510904947915,10.734004109700525,-0.8144378662109375,-2.890586853027344,5.310821533203125,1.989597227515244,-4.762789098227897,4.930263612328506,0.9019034249441966,-5.148024786086309,4.546755836123512,-7.307024235409653,-13.862115302851912,1.2771167200854732,30.742940986279823,-0.8561496525281567,-54.2169871794872,30.32099320094648,35.64042890945578,35.52062179890376,1577396591.0,-27.699701362501067,-51.11133278461968,22.71421
116063,1577396591.05,-0.6270414147949218,0.0709880792236328,10.136630843811034,0.2719462714962837,1.930427280035251,11.076511202481896,-1.4374900777180983,0.6396508768717442,10.834560579427086,1.5201568603515625,-2.554893493652344,5.066680908203125,5.483859922827744,8.848050745522103,4.106289002953506,3.0533926827566966,-0.1431419735863094,4.958743140811012,-6.985836356930107,-14.43179127420199,1.6420072115384623,30.83961215137204,-3.4245986101126284,-8.309116809116826,30.48872315571929,35.616467487345375,35.52062179890376,1577396591.0,-27.699701362501067,-51.11133278461968,22.71421
116064,1577396591.06,-1.1346121667480469,0.1571793389892578,11.386404110412595,-1.7032700981326214,-0.4805337917420915,11.260864730313928,-3.127796449788411,-2.5709735493977863,11.844913680013024,1.8253326416015625,-2.860069274902344,4.853057861328125,-1.962429139672256,2.347806604897104,3.373867127953506,1.7411368233816966,2.2982642764136907,7.522219703311012,-7.467618174649425,-13.86211530285191,1.4595619658119638,31.03295448155648,3.0169082993849345,7.893660968660963,30.34495462305688,35.28100757779974,35.424776110462155,1577396591.0,-27.699701362501067,-51.11133278461968,22.71421
116065,1577396591.07,-1.1022904443359374,-0.0918176336669921,9.399216732482907,-0.7360126274294965,1.1451291355040012,11.933635396817834,-3.0032979634602857,1.173557847086588,9.886456722005212,-0.2956390380859375,-2.432823181152344,4.730987548828125,8.871311094702744,-6.837984410727897,4.411464784203506,0.8866446358816966,0.5892799014136905,7.003420875186012,-7.066133326549993,-13.577277317176872,1.5507845886752167,30.646269821187605,-0.4076903107276931,5.400925925925918,30.32099320094648,35.616467487345375,35.52062179890376,1577396591.0,-27.699701362501067,-51.11133278461968,22.71421
116066,1577396591.08,-0.6222530114746093,-0.4222174627685546,7.965089938049315,-1.8122062736697309,-0.4889134975526383,10.240934823087365,-1.9917477620442705,-0.3934471394856771,9.26037298787435,-1.5926361083984375,-1.6393661499023438,4.273223876953125,2.966159727515244,3.507474573647104,4.091030213891006,1.4969961983816966,4.19035412016369,3.463381812686012,-6.02227272149147,-13.672223312401885,1.2771167200854732,22.912576613810188,2.364603802220625,-106.77215099715102,30.392877467277685,35.64042890945578,35.424776110462155,1577396591.0,-27.699701362501067,-51.11133278461968,22.71421
116067,1577396591.09,-0.7204152795410155,0.2433705987548828,8.62588959625244,-0.9826153984255902,0.8985263645079075,10.276847847989709,-2.55318805135091,2.3084094340006502,13.235944844563804,0.1163482666015625,-0.5407333374023438,4.730987548828125,-2.267604920922256,-2.840181676352896,4.045253846703506,4.548754010881696,16.24479747953869,1.815432593936012,-6.02227272149147,-13.672223312401885,1.2771167200854732,22.912576613810188,2.364603802220625,-106.77215099715102,30.15326324617366,35.66439033156618,35.66439033156618,1577396591.0,-27.699701362501067,-51.11133278461968,22.71421
116068,1577396591.1,-0.1960851159667959,1.098100591430664,9.011356063537598,-0.472650444812309,1.1403407321836887,12.062922286466272,-2.8883762837727858,-0.6173049947102861,5.14833163655599,2.2525787353515625,0.3137588500976562,4.608917236328125,1.882785704077744,-0.0325644888528963,4.808193299828506,4.457201276506696,11.23991466703869,2.700442359561012,-8.109993931608514,-13.48233132195186,0.7297809829059857,30.83961215137204,3.750750858694784,-8.309116809116826,30.680414532602512,35.80815886422859,35.424776110462155,1577396591.0,-27.699701362501067,-51.11133278461968,22.71421
116069,1577396591.11,-0.5983109948730463,0.1464054315185551,10.13902504547119,0.3078592963986275,0.02224855689072,6.5059802332436165,-1.9570318379720049,0.3547408793131504,3.733358455403645,-0.4787445068359373,0.9546279907226562,4.395294189453125,-1.046901795922256,-3.847261754477896,3.740078065453506,1.4359610421316966,-4.232497442336309,3.463381812686012,-7.628212113889196,-14.052007293301935,0.3648904914529928,24.459315255285667,2.0384515536384704,-5.400925925925935,30.201186090394465,35.616467487345375,35.28100757779974,1577396591.0,-27.699701362501067,-51.11133278461968,22.71421
116070,1577396591.12,-0.1074996545410146,-0.0343567938232412,6.830238351135253,-0.9478994743533248,1.5724941318418917,8.81518773446432,-1.68528994954427,-0.8818642781575515,9.332199037679038,-3.484725952148437,0.1001358032226562,3.601837158203125,-1.0163842177972562,0.3794228158346036,4.350429627953506,0.0779288155691966,-13.76924060639881,3.646487281436012,-7.78880605312897,-13.86211530285191,0.7297809829059857,18.85238767993704,2.446141864366164,-107.60306267806268,30.249108934615272,35.784197442118185,35.40081468835175,1577396591.0,-27.699701362501067,-51.11133278461968,22.71421
116071,1577396591.13,-0.1936909143066396,0.7174225274658202,7.143878768615722,0.2719462714962837,-0.4254671535584977,8.933700716642054,-0.5755774800618483,-1.6252638936360673,9.769140840657553,-2.019882202148437,0.4968643188476562,3.693389892578125,-1.382595155297256,7.963040979897103,4.228359315453506,-5.003247942243304,-9.81721423921131,4.684084937686012,-7.78880605312897,-13.86211530285191,0.7297809829059857,15.758910396986064,1.7938373672018535,4.985470085470055,30.392877467277685,35.76023602000779,35.424776110462155,1577396591.0,-27.699701362501067,-51.11133278461968,22.71421
116072,1577396591.14,-0.4259284753417958,0.4349067315673828,9.073605306701658,-0.7264358207888714,1.7628331638243135,9.94405381722799,-0.3265805074055983,-0.8303889424641924,8.478666145833333,0.2994537353515625,1.0156631469726562,3.876495361328125,2.401584532202744,-9.493013707602897,4.197841737328506,-4.057203020368304,-5.605788457961309,6.789797828311012,-6.50405453921079,-14.241899283751962,1.4595619658119638,15.56556806680164,1.7122993050563151,4.570014245014226,30.392877467277685,35.80815886422859,35.616467487345375,1577396591.0,-27.699701362501067,-51.11133278461968,22.71421
116073,1577396591.15,-1.0364498986816406,0.2313995904541015,9.455480471496582,-3.558776384753715,0.00309494360947,8.040663497403772,-2.6106488911946606,0.0147642435709628,8.38529228108724,-1.2416839599609373,1.854896545410156,3.861236572265625,-2.237087342797256,4.575589808022103,4.289394471703506,-2.5313241141183034,-3.927321661086309,7.278079078311012,-6.022272721491472,-14.241899283751962,0.1824452457264982,25.23268457602341,-0.8969186836009261,4.570014245014226,30.32099320094648,35.616467487345375,35.13723904513733,1577396591.0,-27.699701362501067,-51.11133278461968,22.71421
116074,1577396591.16,-1.395580147705078,-0.1636436834716796,8.276336153869629,-1.3106210258669966,-0.3344874904725607,9.981163942960412,-1.1154699544270827,-0.0043893697102866,8.380503877766927,-3.7899017333984375,1.3818740844726562,4.029083251953125,0.814670469702744,5.002835901772103,4.579311463891006,-3.477369035993304,-9.19160388764881,3.448123023623512,-6.825242417690333,-14.621683264652017,0.7297809829059857,30.742940986279823,0.4484593418004637,-56.70972222222225,30.34495462305688,35.64042890945578,35.35289184413095,1577396591.0,-27.699701362501067,-51.11133278461968,22.71421
116075,1577396591.17,-1.7068263635253904,0.3942053033447265,8.613918587951659,-0.9371255668826214,0.19463107642197,6.845956868985804,0.3030945292154944,-1.3140176778157546,9.407616389973958,-3.484725952148437,1.2903213500976562,3.907012939453125,-0.619655702172256,-3.450533238852896,5.082851502953506,-0.6087166922433034,-8.47444080171131,2.944582984561012,-6.825242417690333,-14.241899283751962,1.094671474358975,31.419639141925344,-1.386147056474159,-93.47756410256412,30.392877467277685,35.66439033156618,35.52062179890376,1577396591.0,-27.699701362501067,-51.11133278461968,22.71421
116076,1577396591.18,-1.2686874597167968,0.762912359008789,8.618706991271972,-1.9115656425662155,0.7333264499571263,7.111713253263147,-0.5588180684407545,-1.2278264180501297,6.1874151570638025,-1.5621185302734375,0.8935928344726562,4.029083251953125,-0.2839623427972559,2.561429651772104,4.869228456078506,-0.4866463797433034,-15.92072986421131,5.569094703311012,-6.825242417690333,-14.241899283751962,1.094671474358975,24.459315255285667,1.875375429347392,-3.7391025641025832,30.201186090394465,35.66439033156618,35.424776110462155,1577396591.0,-27.699701362501067,-51.11133278461968,22.71421
116077,1577396591.19,-1.4889540124511718,0.2302024896240233,7.898052291564941,-0.7240416191287151,0.30955275610947,6.5610468714272105,-0.7647194112141921,2.131238511149088,6.465142549641927,-3.423690795898437,-0.5559921264648438,4.242706298828125,-1.687770936547256,-1.5889609732278964,4.289394471703506,2.0463126046316966,-19.73542712983631,4.989260718936012,-6.744945448070448,-13.19749333627682,0.4561131143162383,24.459315255285667,1.7122993050563151,-2.0772792022792146,30.297031778836075,35.424776110462155,35.424776110462155,1577396591.0,-27.699701362501067,-51.11133278461968,22.71421
116078,1577396591.2,-0.9885658654785155,-0.3503914129638671,7.902840694885253,-1.1454211113162154,-0.6349597988221696,7.810820138028774,-1.453052388509114,0.5666277262369785,10.504160750325523,-4.6749114990234375,-1.2426376342773438,3.998565673828125,-1.107936952172256,-2.077242223227896,5.464321229516006,-3.0806405203683034,-14.33381580171131,5.324954078311012,-5.8616787822516985,-13.102547341051809,1.094671474358975,22.912576613810188,2.69075605080278,-107.60306267806268,30.34495462305688,35.76023602000779,35.44873753257256,1577396591.0,-27.699701362501067,-51.11133278461968,22.71421
116079,1577396591.21,-0.763510909423828,0.5163095880126953,8.872492367248535,-0.8844531303591839,1.2720218234922824,8.34233290658346,-0.7407773946126295,0.1440511332194003,9.879274117024742,-2.477645874023437,-1.4562606811523438,4.517364501953125,-0.741726014672256,-8.150240270102897,5.815273377953506,-5.186353410993304,-2.6150658017113093,4.531497047061012,-7.307024235409652,-12.91265535060178,-0.1824452457264983,30.646269821187605,1.875375429347392,-5.400925925925935,30.249108934615272,35.76023602000779,35.424776110462155,1577396591.0,-27.699701362501067,-51.11133278461968,22.71421
116080,1577396591.22,-0.801818135986328,0.389416900024414,9.10472992828369,-1.6482034599490278,0.8578249362852512,11.17706767220846,-2.67529233601888,-0.3467602071126299,8.55767480061849,-2.264022827148437,-1.2426376342773438,4.578399658203125,-2.877956483422256,-6.410738316977897,6.364589784203506,-0.9444100516183034,1.4437720889136905,6.423586890811012,-7.307024235409652,-12.91265535060178,-0.1824452457264983,31.419639141925344,1.7122993050563151,-0.4154558404558628,30.48872315571929,35.616467487345375,35.424776110462155,1577396591.0,-27.699701362501067,-51.11133278461968,22.71421
116081,1577396591.23,-1.9258958154296872,-0.2258929266357416,9.994175845031736,-1.8828352226443403,-1.0252146694276385,10.52464771981588,-2.0456172993977857,-0.6005455830891928,10.378465163167318,-3.561019897460937,-1.5478134155273438,4.593658447265625,0.4026831650152438,-0.9175742544778966,5.052333924828506,-2.4550301688058034,-2.9049827938988093,6.515139625186012,-6.504054539210789,-14.241899283751962,0.5473357371794911,22.52589195344131,1.7122993050563151,1.2463675213675056,30.273070356725672,35.71231317578699,35.44873753257256,1577396591.0,-27.699701362501067,-51.11133278461968,22.71421
116082,1577396591.24,-1.567962667236328,-0.702339057006836,8.257182540588378,0.5736156806759712,0.9847176242735324,13.676614205411584,-2.1844809956868483,2.4760035502115887,13.3676259358724,-4.0645599365234375,-1.4867782592773438,4.669952392578125,-1.413112733422256,-5.190035191977897,6.303554627953506,-2.1956307547433034,9.01213146391369,4.989260718936012,-7.628212113889198,-14.43179127420199,0.912226228632484,22.52589195344131,1.7122993050563151,1.2463675213675056,30.392877467277685,35.616467487345375,35.32893042202055,1577396591.0,-27.699701362501067,-51.11133278461968,22.71421
116083,1577396591.25,-1.2112266198730468,-0.721492670288086,9.224440011291502,-2.5172986625857465,-1.1293624416444352,8.222622823575648,-0.3768587422688795,1.367488181559244,12.026873006184898,-3.7899017333984375,-0.9069442749023438,4.181671142578125,-0.2839623427972559,2.439359339272104,5.265956971703506,1.3138907296316966,18.38102794828869,2.425784156436012,-5.8616787822516985,-12.722763360151754,1.094671474358975,31.419639141925344,-1.7122993050563138,-1.2463675213675387,30.05741755773205,35.76023602000779,35.233084733578934,1577396591.0,-27.699701362501067,-51.11133278461968,22.71421
116084,1577396591.26,-0.6174646081542968,-0.0295683905029287,10.04325697906494,-1.2818906059451216,-0.6600989162538102,9.592106173185025,-0.8940063008626296,-0.5311137349446611,10.3796622639974,-1.9283294677734373,-1.3036727905273438,4.761505126953125,0.021213438452744,0.9134804330221036,5.174404237328506,-0.2425057547433033,18.59465099516369,4.684084937686012,-5.8616787822516985,-12.722763360151754,1.094671474358975,31.419639141925344,-2.038451553638469,-5.400925925925935,30.34495462305688,35.76023602000779,35.233084733578934,1577396591.0,-27.699701362501067,-51.11133278461968,22.71421
116085,1577396591.27,-1.0172962854003904,-0.0571017095947265,9.73081366241455,0.2420187507443306,0.4663729648497043,10.021865371183068,-0.7946469319661451,0.6540160868326822,12.120246870930991,-2.706527709960937,-1.1053085327148438,4.700469970703125,0.6773413681402438,-2.428194371665396,5.143886659203506,-0.2730233328683034,24.05729747953869,3.081912086123512,-7.387321205029538,-13.577277317176872,0.2736678685897474,31.419639141925344,0.4076903107276948,-58.57927350427352,30.249108934615265,35.64042890945578,35.424776110462155,1577396591.0,-27.699701362501067,-51.11133278461968,22.71421
116086,1577396591.28,-1.117852755126953,-0.6712144354248047,9.473436983947751,-3.5731415947146528,-0.6050322780702164,12.781182784513144,-0.4750210103352858,0.8455522196451816,10.652601253255211,-2.019882202148437,-1.883506774902344,4.486846923828125,0.570529844702744,-1.0396445669778964,4.899746034203506,-5.064283098493304,32.87687755766369,2.914065406436012,-6.825242417690333,-12.3429793792517,0.7297809829059857,32.19300846266308,2.0384515536384704,-108.43397435897435,30.201186090394465,35.856081708449395,35.28100757779974,1577396591.0,-27.699701362501067,-51.11133278461968,22.71421
116087,1577396591.29,-1.587116280517578,-0.0247799871826162,11.120647726135251,-0.4774388481326215,0.3981382175352512,10.820331624845178,-1.5164987325032546,0.3284046610514316,11.224815450032557,-1.2569427490234375,-2.127647399902344,4.669952392578125,1.180881407202744,-4.335543004477897,4.228359315453506,-2.6533944266183034,35.50138927641369,2.029055640811012,-6.50405453921079,-13.86211530285191,0.7297809829059857,20.97915331196583,2.0384515536384704,5.400925925925918,30.392877467277685,35.76023602000779,35.616467487345375,1577396591.0,-27.699701362501067,-51.11133278461968,22.71421
116088,1577396591.3,-1.3776236352539062,-0.4569333868408203,10.350911892395018,1.2368095405392523,0.5633381320860325,12.884133455899866,-0.6713455464680983,0.3643176859537754,10.64063024495443,-1.3179779052734375,-2.692222595214844,4.578399658203125,0.509494688452744,7.230619104897103,6.303554627953506,-2.8364998953683034,33.54826427641369,4.348391578311012,-6.825242417690335,-13.672223312401885,1.0946714743589747,31.03295448155648,-1.5492231807652364,7.893660968660963,30.392877467277685,35.52062179890376,35.52062179890376,1577396591.0,-27.699701362501067,-51.11133278461968,22.71421
116089,1577396591.31,-1.5727510705566403,-0.4653130926513671,11.283453439025878,-0.5708127128787152,-0.2614643398377951,10.284030452970178,-1.310597389729817,0.7509812540690097,6.46993095296224,-0.8907318115234375,-2.554893493652344,3.876495361328125,2.233737852515244,-2.245088902915396,3.572231385766006,1.0850088936941966,12.55217052641369,4.439944312686012,-5.540490903772153,-14.241899283751962,0.7297809829059857,31.03295448155648,-1.5492231807652364,7.893660968660963,30.392877467277685,35.71231317578698,35.233084733578934,1577396591.0,-27.699701362501067,-51.11133278461968,22.71421
116090,1577396591.32,-1.3165714929199217,-0.4270058660888671,9.344150094299316,-0.8700879203982465,-0.8205104274842789,11.749281868985802,-1.6529682271321608,-1.0410786885579424,10.075598653157556,0.0553131103515625,-1.5478134155273438,4.425811767578125,4.659885313452744,-8.455416051352897,3.618007752953506,4.579271589006696,-4.018874395461309,4.012698218936012,-6.50405453921079,-13.102547341051809,1.094671474358975,30.646269821187605,3.1799844236760126,-101.78668091168092,30.392877467277685,35.52062179890376,35.424776110462155,1577396591.0,-27.699701362501067,-51.11133278461968,22.71421
116091,1577396591.33,-1.2974178796386715,-0.7478288885498047,10.131842440490722,-0.6306677543826215,-1.2059768947694351,11.593658761075648,-1.6481798238118484,-0.7154672627766924,13.700419966634117,0.2079010009765625,-1.852989196777344,4.212188720703125,-1.901393983422256,-3.664156285727896,3.709560487328506,-0.4866463797433034,0.3146216982886905,5.477541968936012,-7.467618174649425,-13.102547341051809,0.7297809829059857,30.646269821187605,-2.2015276779295467,6.231837606837594,30.34495462305688,35.66439033156618,35.47269895468296,1577396591.0,-27.699701362501067,-51.11133278461968,22.71421
116092,1577396591.34,-1.078348427734375,-0.1145625494384766,10.78306529205322,-0.9083951469607464,2.2249140842344697,9.560981551602993,0.0086077250162756,1.3626997782389316,10.080387056477868,1.1081695556640625,-2.737998962402344,4.608917236328125,1.608127500952744,-3.389498082602896,4.075771424828506,0.8256094796316966,-2.0657493954613093,4.592532203311012,-7.146430296169879,-13.672223312401886,0.3648904914529928,31.22629681174091,-3.4245986101126284,-4.154558404558413,30.392877467277685,35.52062179890376,35.28100757779974,1577396591.0,-27.699701362501067,-51.11133278461968,22.71421
116093,1577396591.35,-0.5480327600097645,-0.2306813299560546,9.236411019592284,-0.2044998588748089,0.243712210455173,9.844694448331506,-0.5348760518391921,0.2242568888346352,10.739989613850916,0.2689361572265625,-2.280235290527344,4.212188720703125,3.195041563452744,2.057889612709604,4.029995057641006,0.9781973702566966,-2.3709251767113093,2.135867164248512,-7.78880605312897,-13.48233132195186,-0.3648904914529891,30.646269821187605,-2.2015276779295467,-83.50662393162395,30.392877467277685,35.736274597897385,35.52062179890376,1577396591.0,-27.699701362501067,-51.11133278461968,22.71421
116094,1577396591.36,-0.3301604089355458,-0.4054580511474609,8.98980824859619,-1.629049846667778,1.4946825778868136,8.225017025235804,-0.8102092427571608,1.269325913492838,10.109117476399742,0.7877349853515625,-2.524375915527344,3.968048095703125,2.584690000952744,-5.739351598227897,2.549892518578506,5.128587995256696,4.068283807663691,1.998538062686012,-6.6646484784505615,-13.672223312401885,1.6420072115384623,23.685945934547927,-0.8969186836009261,-103.44850427350433,30.392877467277685,35.616467487345375,35.28100757779974,1577396591.0,-27.699701362501067,-51.11133278461968,22.71421
116095,1577396591.37,-0.1051054528808584,0.600106646118164,10.083958407287597,0.2216680366330025,0.2688513278868137,10.822725826505334,-3.005692165120442,-2.7481444722493484,10.204885542805991,1.5506744384765625,-1.7004013061523438,4.151153564453125,0.814670469702744,-0.2461875357278963,3.373867127953506,2.4735586983816966,2.2067115420386907,2.364749000186012,-7.628212113889198,-14.43179127420199,0.912226228632484,32.19300846266308,2.364603802220625,4.570014245014226,30.392877467277685,35.80815886422859,35.47269895468296,1577396591.0,-27.699701362501067,-51.11133278461968,22.71421
116096,1577396591.38,-0.1984793176269531,0.0673967767333984,10.31859016998291,-1.109508086413872,-0.0567600978944357,10.629992592862756,-2.749512587483723,-0.218670418294271,8.16143442586263,1.5659332275390625,-0.6017684936523438,4.242706298828125,6.033176329077744,-6.288668004477897,3.526455018578506,2.2294180733816966,-8.53547595796131,6.255740211123512,-7.547915144269311,-14.526737269427002,0.6385583600427404,26.006053896761152,-1.2230709321830808,4.570014245014226,30.392877467277685,35.71231317578699,35.37685326624135,1577396591.0,-27.699701362501067,-51.11133278461968,22.71421
116097,1577396591.39,-0.9765948571777344,0.0709880792236328,9.559628243713378,-1.334563042468559,1.805928793707126,11.34945019173971,-2.7016285542805982,-0.5550557515462237,12.436281490071618,0.1163482666015625,-0.2355575561523437,3.449249267578125,-0.3449974990472559,8.573392542397103,3.404384706078506,3.1754629952566966,-10.27497791108631,5.385989234561012,-7.78880605312897,-15.00146724555207,0.7297809829059857,26.199396226945588,2.77229411294832,-98.04757834757837,29.96157186929044,35.32893042202055,35.424776110462155,1577396591.0,-27.699701362501067,-51.11133278461968,22.71421
116098,1577396591.4,-1.2160150231933593,-0.0319625921630849,9.375274715881346,0.1905434150509712,-0.3967367336366227,12.924834884122522,-1.0280815938313794,2.729788926188151,12.117852669270835,0.9403228759765624,-0.2660751342773437,4.029083251953125,0.540012266577744,9.031156214272103,4.594570252953506,1.6190665108816966,-2.3709251767113093,3.707522437686012,-7.146430296169879,-14.241899283751962,0.3648904914529966,30.646269821187605,3.832288920840324,-101.78668091168092,30.34495462305688,35.66439033156618,35.424776110462155,1577396591.0,-27.699701362501067,-51.11133278461968,22.71421
116099,1577396591.41,-1.4674061975097654,0.6360196710205077,10.766305880432128,-1.9426902641482464,-0.5260236232850602,8.88581668343893,0.2097206644694006,-0.7274382710774736,12.88160299886068,1.0318756103515625,0.4358291625976562,4.395294189453125,-0.863796327172256,-3.572603551352896,3.495937440453506,2.8702872140066966,3.0917213076636907,1.937502906436012,-7.146430296169879,-14.241899283751962,0.3648904914529966,30.646269821187605,3.0169082993849345,-87.66118233618238,30.201186090394465,35.52062179890376,35.424776110462155,1577396591.0,-27.699701362501067,-51.11133278461968,22.71421
116100,1577396591.42,-0.6833051538085931,0.2302024896240234,10.116280129699708,-0.1590100273318407,0.9811263217832986,9.507112014249474,-0.4606558003743488,1.1208854105631512,7.43359712117513,-0.2803802490234375,-0.6628036499023438,3.769683837890625,0.5094946884527439,0.4557167611471038,3.465419862328506,-0.1204354422433033,-3.5153343563988093,3.203982398623512,-6.744945448070448,-14.526737269427002,0.2736678685897474,27.3594502080522,-1.7938373672018533,-1.6618233618233855,30.392877467277685,35.71231317578698,35.35289184413095,1577396591.0,-27.699701362501067,-51.11133278461968,22.71421
116101,1577396591.43,-0.6749254479980468,-0.6041767889404296,8.024944979553222,0.207302826672065,-0.8803654689881852,8.114883748868616,-0.927525124104817,-0.1097342427571611,10.827377974446618,-2.508163452148437,-0.8153915405273438,3.693389892578125,1.638645079077744,-3.542085973227896,2.305751893578506,1.8326895577566968,-3.0117943173363093,1.144045875186012,-6.985836356930107,-13.292439331501834,0.1824452457264983,23.49260360436349,-2.119989615784008,4.985470085470055,30.392877467277685,35.52062179890376,35.424776110462155,1577396591.0,-27.699701362501067,-51.11133278461968,22.71421
116102,1577396591.44,-0.4283226770019521,-0.1827972967529296,7.838197250061034,-1.9139598442263717,0.9248625827696264,8.691886348966273,-0.9251309224446608,-1.902991286214192,9.268752693684895,-0.1277923583984375,-1.5172958374023438,4.090118408203125,4.812473204077744,-4.274507848227897,4.838710877953506,-2.8975350516183034,-0.9671165829613096,3.554934547061012,-6.825242417690333,-14.621683264652017,0.7297809829059857,14.212171755510584,-0.6523044971643096,-1.661823361823385,30.34495462305688,35.66439033156618,35.52062179890376,1577396591.0,-27.699701362501067,-51.11133278461968,22.71421
116103,1577396591.45,-1.1286266625976562,0.7269993341064452,11.073960793762206,-1.8157975761599647,0.8147293064024388,11.768435482267051,-1.2507423482259108,0.5702190287272129,8.030950435384115,2.2220611572265625,-1.2578964233398438,3.876495361328125,7.345432188452744,1.7679726205221036,1.5733300185785062,2.5651114327566966,-2.5845482235863093,5.294436500186012,-7.467618174649425,-12.3429793792517,0.7297809829059857,30.83961215137204,2.4461418643661634,5.816381766381765,30.297031778836075,35.76023602000779,35.52062179890376,1577396591.0,-27.699701362501067,-51.11133278461968,22.71421
116104,1577396591.46,-1.3237540979003906,-0.5754463690185546,9.360909505920407,-0.2140766655154345,-0.2207629116151388,9.996726253751428,-0.4019978597005201,-0.7070875569661459,9.813433571370444,-1.5926361083984375,-1.7919540405273438,3.540802001953125,1.5928687118902438,-4.915376988852897,4.182582948266006,-0.3187997000558034,-9.95454334077381,6.454104468936012,-6.182866660731244,-14.621683264652017,1.094671474358975,31.032954481556477,-1.30460899432862,4.985470085470055,30.249108934615272,35.688351753676585,35.37685326624135,1577396591.0,-27.699701362501067,-51.11133278461968,22.71421
116105,1577396591.47,-1.0843339318847656,-0.692762250366211,8.58758236968994,-1.727212114734184,-0.8707886623475602,8.560205257657678,-1.9785796529134108,1.5135344828287751,16.542337337239587,-2.508163452148437,-2.860069274902344,3.510284423828125,-0.894313905297256,-1.6805137076028964,2.794033143578506,-3.813062395368304,1.5658424014136905,5.843752906436012,-6.6646484784505615,-14.052007293301935,0.912226228632484,31.22629681174091,1.7938373672018535,-100.5403133903134,30.392877467277685,35.80815886422859,35.424776110462155,1577396591.0,-27.699701362501067,-51.11133278461968,22.71421
116106,1577396591.48,-0.8520963708496093,-1.1859677923583984,10.737575460510254,1.8138121406369088,2.181818454351657,11.59126455941549,-0.1661689961751296,1.740983640543619,15.44100457356771,-0.2803802490234375,-1.7919540405273438,3.662872314453125,-3.366237733422256,1.3407265267721036,3.099208924828506,-1.4632088797433034,17.34343029203869,3.127688453311012,-5.701084843011927,-14.43179127420199,0.5473357371794949,32.19300846266308,2.364603802220625,-94.3084757834758,30.05741755773205,35.616467487345375,35.32893042202055,1577396591.0,-27.699701362501067,-51.11133278461968,22.71421
116107,1577396591.49,-1.1549628808593748,-0.090620532836914,12.779829476623537,-0.2021056572146527,-0.8492408474061539,12.170661361173302,-1.1597626851399732,2.0713834696451814,14.016454585774742,3.3512115478515625,-0.6933212280273438,4.669952392578125,9.237522032202744,-0.2461875357278963,4.625087831078506,1.3749258858816966,33.73136974516369,1.266116187686012,-7.628212113889198,-12.532871369701729,2.006897702991451,32.19300846266308,1.7122993050563151,-8.724572649572671,30.22514751250487,35.616467487345375,35.424776110462155,1577396591.0,-27.699701362501067,-51.11133278461968,22.71421
116108,1577396591.5,-0.8185775476074217,-0.3886986395263671,9.107124129943848,-2.2587248832888718,1.422856528082126,10.558166543058068,0.352175663248698,0.3511495768229165,4.711389833577474,-0.1888275146484375,-2.280235290527344,4.212188720703125,3.072971250952744,-6.380220738852897,3.495937440453506,2.1989004952566966,12.33854747953869,3.692263648623512,-7.628212113889198,-12.532871369701729,2.006897702991451,31.51631030701756,-2.119989615784008,-7.47820512820515,30.201186090394465,35.71231317578699,35.472698954682954,1577396591.0,-27.699701362501067,-51.11133278461968,22.71421
116109,1577396591.51,-0.7323862878417968,0.0757764825439453,9.114306734924316,1.7036788642697211,-0.8827596706483415,6.125302169278773,-3.017663173421224,-3.1168515279134112,5.555345918782552,-1.3179779052734375,-2.737998962402344,3.693389892578125,1.211398985327744,-3.053804723227896,3.709560487328506,1.6190665108816966,-15.31037830171131,3.249758765811012,-6.825242417690333,-12.3429793792517,-0.7297809829059857,30.646269821187605,1.7122993050563151,-105.11032763532766,30.48872315571929,35.66439033156618,35.47269895468296,1577396591.0,-27.699701362501067,-51.11133278461968,22.71421
116110,1577396591.52,-0.1649604943847646,0.7485471490478515,7.479067001037596,0.283917279797065,0.3382831760313449,4.171633614591273,-0.1901110127766921,-0.789687514241536,8.43557051595052,-2.660751342773437,-2.371788024902344,3.388214111328125,3.317111875952744,-7.631441441977897,2.580410096703506,2.0768301827566966,-18.33161853608631,4.623049781436012,-7.467618174649425,-14.241899283751962,0.7297809829059857,30.646269821187605,-0.5707664350187712,2.908190883190874,30.05741755773205,35.52062179890376,35.28100757779974,1577396591.0,-27.699701362501067,-51.11133278461968,22.71421
116111,1577396591.53,-0.1601720910644521,0.3128024468994145,8.780315603332518,-1.0532443474001996,0.7105815341856423,10.942435909513147,-0.8305599568684895,-0.0438936971028647,11.319386415608728,1.5354156494140625,-2.127647399902344,3.845977783203125,0.0517310165777438,1.7221962533346038,2.717739198266006,0.7187979561941966,-4.217238653273809,7.674807593936013,-7.307024235409652,-14.811575255102042,1.2771167200854732,31.03295448155648,-2.2015276779295467,-7.062749287749304,30.249108934615272,35.64042890945578,35.376853266241355,1577396591.0,-27.699701362501067,-51.11133278461968,22.71421
116112,1577396591.54,-0.6174646081542968,0.121266314086914,11.51808520172119,-1.202881951159965,-1.6129911769959977,12.781182784513144,-1.1741278951009109,2.64120346476237,11.10031696370443,2.0694732666015625,-0.4491806030273437,4.059600830078125,-2.481227967797256,-3.633638707602896,3.740078065453506,3.2670157296316966,-1.0281517392113095,5.202883765811012,-7.307024235409652,-14.811575255102042,1.2771167200854732,30.646269821187605,-2.2015276779295467,4.570014245014226,30.201186090394465,35.80815886422859,35.52062179890376,1577396591.0,-27.699701362501067,-51.11133278461968,22.71421
116113,1577396591.55,-0.4235342736816396,-0.6975506536865235,10.213245296936034,-1.382447075671684,1.5305956027891574,11.450006661466272,-1.2722901631673171,0.7258421366373691,12.216014937337242,-0.7076263427734375,-0.4186630249023437,3.571319580078125,6.338352110327744,-7.112642613852897,3.648525331078506,1.5275137765066966,-0.9976341610863096,1.510256812686012,-6.825242417690333,-15.761035207352172,-0.3648904914529891,31.03295448155648,1.875375429347392,-105.11032763532766,30.15326324617366,35.616467487345375,35.424776110462155,1577396591.0,-27.699701362501067,-51.11133278461968,22.71421
116114,1577396591.56,-0.7970297326660155,-0.5251681341552734,10.368868404846191,-0.3912475883669965,0.4699642673399387,12.690203121427208,-2.189269399007161,-1.4313335591634109,11.84730788167318,-1.9893646240234373,-0.0829696655273437,3.601837158203125,-0.741726014672256,8.176664026772103,4.228359315453506,2.2904532296316966,4.892258417038691,1.113528297061012,-6.343460599971016,-15.571143216902144,0.1824452457264983,31.03295448155648,-2.2015276779295467,-96.80121082621083,30.392877467277685,35.616467487345375,35.424776110462155,1577396591.0,-27.699701362501067,-51.11133278461968,22.71421
116115,1577396591.57,-0.7012616662597649,0.3786429925537108,10.258735128479003,-0.2176679680056688,0.1443528415586892,9.278465755704552,-0.91315991414388,0.643242179361979,8.178193837483724,0.2841949462890625,0.9851455688476562,3.754425048828125,3.439182188452744,-1.1769736685403962,3.602748963891006,0.1237051827566966,1.108078729538691,2.288455054873512,-7.628212113889198,-12.153087388801676,-0.5473357371794875,31.419639141925344,2.69075605080278,-7.478205128205142,30.22514751250487,35.59250606523497,35.40081468835175,1577396591.0,-27.699701362501067,-51.11133278461968,22.71421
116116,1577396591.58,0.0672770666503906,0.264918413696289,7.989031954650878,-0.6402445610232465,-0.437438161859279,7.202692916349085,0.1355004130045569,-2.446475063069661,8.785123958333333,-1.1653900146484375,0.9241104125976562,3.662872314453125,-2.115017030297256,3.934720667397104,2.122646424828506,2.7787344796316966,-12.35017322358631,3.249758765811012,-7.628212113889198,-12.153087388801676,-0.5473357371794875,30.646269821187605,2.5276799265117016,-7.062749287749304,30.201186090394465,35.616467487345375,35.616467487345375,1577396591.0,-27.699701362501067,-51.11133278461968,22.71421
116117,1577396591.59,-0.2415749475097646,-0.2091335150146484,8.118318844299315,0.5784040839962837,-0.5116584133241228,8.957642733243617,-0.1925052144368483,0.4002307108561191,9.247204878743489,-1.6841888427734375,0.2832412719726562,3.052520751953125,-4.770046327172256,6.528714808022103,4.075771424828506,1.7411368233816966,-5.819411504836309,5.324954078311012,-6.825242417690333,-14.621683264652017,0.3648904914529966,30.646269821187605,3.1799844236760126,-111.7576210826211,30.34495462305688,35.616467487345375,35.52062179890376,1577396591.0,-27.699701362501067,-51.11133278461968,22.71421
116118,1577396591.6,-0.1410184777832021,0.2900575311279297,8.940727114562987,-0.2571722953982465,0.84585392798447,6.687939559415492,0.5042074686686193,0.2829148295084628,7.568869514973958,-0.2346038818359375,0.9241104125976562,3.220367431640625,3.805393125952744,-4.213472691977897,3.740078065453506,-2.7754647391183034,-3.774733770461309,2.456301734561012,-6.50405453921079,-15.38125122645212,1.6420072115384623,30.646269821187605,1.7122993050563151,-115.08126780626785,30.201186090394465,35.52062179890376,35.32893042202055,1577396591.0,-27.699701362501067,-51.11133278461968,22.71421
116119,1577396591.61,-0.9670180505371092,0.8945934503173827,12.243528304748532,-1.1526037162966838,0.8290945163633763,9.866242263272913,-0.4822036153157545,-1.3894350301106766,8.888074629720052,-0.3414154052734375,0.6189346313476562,3.418731689453125,-0.1466332412347559,6.055692347084603,3.999477479516006,-2.439771379743304,-7.20796130952381,5.065554664248512,-5.701084843011927,-15.191359236002096,1.2771167200854732,30.742940986279823,0.1223070932183084,-54.216987179487205,30.392877467277685,35.52062179890376,35.52062179890376,1577396591.0,-27.699701362501067,-51.11133278461968,22.71421
116120,1577396591.62,-1.3740323327636716,0.8131905938720702,11.175714364318846,-0.405612798327934,-2.3575878933045917,10.42289414925924,-1.4662204976399733,0.0794076883951816,10.98539528401693,-0.1583099365234375,0.1916885375976562,3.693389892578125,0.662082579077744,2.378324183022104,4.899746034203506,-0.3340584891183034,-7.101149786086309,6.759280250186012,-5.701084843011927,-15.191359236002096,1.2771167200854732,30.83961215137204,-1.3046089943286208,-8.309116809116826,30.392877467277685,35.66439033156618,35.52062179890376,1577396591.0,-27.699701362501067,-51.11133278461968,22.71421
116121,1577396591.63,-2.0611682092285157,-1.2721590521240234,9.52610942047119,-1.6769338798709028,0.1994194797422825,8.581753072599085,-1.217223524983723,0.7833029764811191,14.124193660481774,-2.996444702148437,-0.4491806030273437,3.662872314453125,1.577609922827744,-6.502291051352897,4.228359315453506,1.1918204171316966,4.739670526413691,5.050295875186012,-7.307024235409652,-14.052007293301935,1.6420072115384623,30.83961215137204,-1.3046089943286208,-8.309116809116826,30.34495462305688,35.76023602000779,35.616467487345375,1577396591.0,-27.699701362501067,-51.11133278461968,22.71421
116122,1577396591.64,-0.6988674645996087,-1.0399214910888672,10.212048196105956,0.0840014411740186,0.1659006565000954,11.448809560636192,-1.2806698689778646,1.4309345255533847,10.264740584309896,-2.386093139648437,-0.7085800170898438,3.968048095703125,-3.808742616234756,8.542874964272103,3.602748963891006,-0.2119881766183033,15.81755138578869,1.403445289248512,-7.387321205029538,-14.336845278976975,-0.0912226228632453,30.83961215137204,-2.119989615784008,-8.309116809116826,30.297031778836075,35.56854464312457,35.47269895468296,1577396591.0,-27.699701362501067,-51.11133278461968,22.71421
116123,1577396591.65,-0.0380678063964833,0.983178911743164,11.656948898010253,-1.9402960624880905,0.0581615817930637,10.686256331876429,-1.339327809651692,-0.3419718037923174,5.330290962727864,0.7877349853515625,1.1987686157226562,3.876495361328125,-1.382595155297256,-11.629244176352897,4.014736268578506,0.9171622140066966,4.129318963913691,1.937502906436012,-6.6646484784505615,-14.43179127420199,-0.9122262286324764,30.83961215137204,-0.8153806214553877,-4.154558404558413,30.249108934615272,35.66439033156618,35.52062179890376,1577396591.0,-27.699701362501067,-51.11133278461968,22.71421
116124,1577396591.66,0.4766855505371093,0.4612429498291015,9.150219759826658,-1.0352878349490275,2.0357721530821262,9.144390462735805,-1.447066884358723,-0.0474849995930986,6.635130867513021,-1.4400482177734375,1.4734268188476562,3.296661376953125,2.554172422827744,3.049710901772104,3.923183534203506,-1.0054452078683034,-7.345290411086309,3.188723609561012,-6.6646484784505615,-14.43179127420199,-0.9122262286324764,30.83961215137204,-0.8153806214553877,-7.47820512820515,30.249108934615272,35.66439033156618,35.32893042202055,1577396591.0,-27.699701362501067,-51.11133278461968,22.71421
116125,1577396591.67,-0.0069431848144521,-0.8842983831787109,8.870098165588377,0.84894887159394,-1.950573611078029,9.838708944181116,-0.7312005879720045,0.0961671000162753,10.310230415852867,-3.393173217773437,1.4123916625976562,3.388214111328125,2.920383360327744,2.439359339272104,3.312831971703506,-0.7613045828683034,-7.284255254836309,2.975100562686012,-5.8616787822516985,-14.621683264652017,1.094671474358975,21.3658379723347,2.364603802220625,-108.43397435897435,30.34495462305688,35.616467487345375,35.28100757779974,1577396591.0,-27.699701362501067,-51.11133278461968,22.71421
116126,1577396591.68,-0.3672705346679686,-0.0750582220458984,7.620324898986816,-0.7419981315798871,0.1108340183165016,7.424156569913539,-1.329751003011067,-2.1124839314778643,9.782308949788412,-2.889633178710937,1.5192031860351562,3.586578369140625,-0.802761170922256,-4.594942418540397,3.740078065453506,-1.6768319266183034,-2.6455833798363093,4.150027320498512,-5.8616787822516985,-14.811575255102042,0.9122262286324804,20.39912632141252,2.77229411294832,-54.84017094017096,30.225147512504865,35.64042890945578,35.424776110462155,1577396591.0,-27.699701362501067,-51.11133278461968,22.71421
116127,1577396591.69,-1.1250353601074217,0.475608159790039,11.13022453277588,0.5377026557736275,0.6064337619688449,11.32311397347799,-1.2914437764485671,-0.6867368428548174,9.295088911946614,1.0929107666015625,1.0156631469726562,3.907012939453125,-3.305202577172256,2.775052698647104,4.441982362328506,-0.3950936453683034,-1.7300560360863095,7.003420875186012,-5.058709086052835,-14.43179127420199,1.6420072115384623,31.419639141925344,-0.7338425593098494,5.400925925925918,30.392877467277685,35.616467487345375,35.616467487345375,1577396591.0,-27.699701362501067,-51.11133278461968,22.71421
116128,1577396591.7,-1.3357251062011717,-0.3408146063232422,11.111070919494628,-0.8413575004763714,-1.510040505609279,9.65196121468893,0.5664567118326819,2.370658677164713,10.683725874837243,-1.1348724365234375,0.7410049438476562,3.449249267578125,2.523654844702744,-6.960054723227897,3.679042909203506,-1.829419817243304,-2.9202415829613093,6.209963843936012,-5.058709086052835,-14.43179127420199,1.6420072115384623,31.419639141925344,-0.7338425593098494,8.72457264957264,30.392877467277685,35.52062179890376,35.52062179890376,1577396591.0,-27.699701362501067,-51.11133278461968,22.71421
116129,1577396591.71,-1.8792088830566405,-0.9645041387939454,10.245567019348144,-2.01691051561309,-0.5882728664491227,13.09721740365377,-2.0527999043782548,0.0291294535319003,14.361219624837242,-2.538681030273437,0.2374649047851562,3.449249267578125,0.021213438452744,-2.657076207602896,4.747158143578506,-0.2730233328683034,5.746750604538691,4.928225562686012,-6.504054539210789,-15.00146724555207,-0.3648904914529929,31.80632380229421,2.69075605080278,-100.95576923076926,30.249108934615272,35.52062179890376,35.52062179890376,1577396591.0,-27.699701362501067,-51.11133278461968,22.71421
116130,1577396591.72,-1.2854468713378906,-0.6424840155029297,12.001713937072752,-0.550461998767387,-0.4996874050233419,10.248117428067834,0.036141044108073,0.8024565897623691,13.913503914388023,-0.9212493896484376,-0.6017684936523438,3.937530517578125,2.813571836890244,0.8524452767721037,3.816372010766006,-1.7378670828683034,25.38481212797619,1.205081031436012,-6.985836356930107,-16.710495159602303,0.912226228632484,31.032954481556477,1.8753754293473928,-53.17834757834757,30.249108934615272,35.59250606523497,35.616467487345375,1577396591.0,-27.699701362501067,-51.11133278461968,22.71421
116131,1577396591.73,-0.8616731774902343,0.2026691705322265,11.874821249084471,1.241597943859565,0.15632384985947,11.40691103158346,-1.6721218404134108,-0.9357338155110674,7.93757657063802,-0.5245208740234375,-0.1134872436523437,3.907012939453125,-2.755886170922256,1.7069374642721036,4.106289002953506,0.5814688546316966,31.96135021391369,1.998538062686012,-6.985836356930107,-16.710495159602303,0.912226228632484,31.03295448155648,-3.5061366722581666,-8.724572649572671,30.249108934615272,35.66439033156618,35.616467487345375,1577396591.0,-27.699701362501067,-51.11133278461968,22.71421
116132,1577396591.74,0.0648828649902343,0.3439270684814453,9.540474630432128,-2.716017400378715,0.30955275610947,10.322337679532678,-3.264265944417317,1.5614185160319003,7.226498677571614,-0.8296966552734375,0.1306533813476562,3.754425048828125,6.765598204077744,-8.028169957602897,4.441982362328506,-0.3950936453683034,21.21916271391369,1.998538062686012,-6.985836356930107,-16.710495159602303,0.912226228632484,31.419639141925344,-2.2015276779295467,-86.83027065527065,30.15326324617366,35.616467487345375,35.32893042202055,1577396591.0,-27.699701362501067,-51.11133278461968,22.71421
116133,1577396591.75,0.415633408203125,-0.3839102362060546,9.304645766906738,1.6510064277462837,0.8123351047422825,10.197839193204551,-1.0831482320149732,-0.2366269307454424,8.229669173177083,-1.6994476318359375,0.3137588500976562,3.388214111328125,-5.380397889672256,8.359769495522103,2.244716737328506,-0.5781991141183034,7.425217401413691,1.571291968936012,-6.825242417690334,-15.381251226452122,1.6420072115384623,31.419639141925344,-1.2230709321830808,-95.13938746438748,30.34495462305688,35.424776110462155,35.52062179890376,1577396591.0,-27.699701362501067,-51.11133278461968,22.71421
116134,1577396591.76,0.1271321081542968,0.2625242120361328,7.917205904846191,0.355743329601753,-0.2004121975038107,9.508309115079554,-0.6869078572591144,-1.517524818929036,8.686961690266928,-0.4940032958984375,1.809120178222656,3.845977783203125,-0.3755150771722559,-5.006929723227897,3.999477479516006,0.2152579171316966,-4.369826543898809,5.385989234561012,-5.8616787822516985,-14.621683264652017,0.7297809829059857,31.032954481556477,0.570766435018772,-41.9610398860399,30.249108934615272,35.616467487345375,35.52062179890376,1577396591.0,-27.699701362501067,-51.11133278461968,22.71421
116135,1577396591.77,-0.1793257043457021,-0.1444900701904287,8.920376400451659,-0.4080069999880902,1.5042593845274386,12.084470101407678,-0.8341512593587233,1.1903172587076816,12.338119222005211,0.1468658447265625,1.1072158813476562,3.479766845703125,-0.558620545922256,8.512357386147103,3.923183534203506,-5.674634660993304,-0.3262474423363095,7.033938453311012,-5.8616787822516985,-14.621683264652017,0.7297809829059857,30.646269821187605,2.364603802220625,11.217307692307685,30.249108934615272,35.66439033156618,35.28100757779974,1577396591.0,-27.699701362501067,-51.11133278461968,22.71421
116136,1577396591.78,-1.1801019982910157,-0.8747215765380859,11.331337472229002,-0.0009927177615277,-1.3592058010194352,15.302277132657675,-1.6218436055501295,2.720212119547526,13.460999800618492,1.7642974853515625,1.1987686157226562,3.601837158203125,4.934543516577744,4.697660120522103,2.305751893578506,-2.3482186453683034,2.3592994326636907,6.850832984561012,-5.8616787822516985,-14.621683264652017,0.7297809829059857,30.646269821187605,2.2015276779295467,-100.95576923076926,30.392877467277685,35.76023602000779,35.424776110462155,1577396591.0,-27.699701362501067,-51.11133278461968,22.71421
116137,1577396591.79,-1.575145272216797,-0.8052897283935547,11.808980703430176,-1.2830877067751996,0.0258398593809548,10.649146206144003,-1.4123509602864577,0.0411004618326821,12.731965395100914,0.6046295166015625,1.3666152954101562,3.662872314453125,2.523654844702744,0.5472694955221038,3.587490174828506,1.5580313546316966,5.960373651413691,1.754397437686012,-7.467618174649425,-13.292439331501832,0.9122262286324804,31.80632380229421,3.6692127965492456,-115.08126780626785,30.392877467277685,35.56854464312457,35.44873753257256,1577396591.0,-27.699701362501067,-51.11133278461968,22.71421
116138,1577396591.8,-0.7395688928222656,-0.5491101507568359,9.588358663635251,0.3437723213009712,-0.7582611843202165,10.530633223966271,-0.6737397481282545,-0.0690328145345048,8.562463203938801,-0.6160736083984375,0.3137588500976562,3.571319580078125,5.697482969702744,0.9439980111471036,1.8785057998285064,1.1002676827566966,6.173996698288691,1.235598609561012,-5.219303025292609,-15.38125122645212,0.7297809829059857,32.38635079284752,3.261522485821553,1.6618233618233518,30.34495462305688,35.52062179890376,35.52062179890376,1577396591.0,-27.699701362501067,-51.11133278461968,22.71421
116139,1577396591.81,-1.3237540979003906,-0.1325190618896474,9.95467151763916,-0.5277170829959027,1.86099543189072,11.825896322110802,-0.5300876485188796,1.2573549051920565,5.859409529622396,0.6961822509765625,0.4053115844726562,3.662872314453125,-4.983669374047256,-2.596041051352896,4.197841737328506,4.884447370256696,-4.171462286086309,1.296633765811012,-5.219303025292609,-15.38125122645212,0.7297809829059857,32.19300846266308,-3.0169082993849345,-2.0772792022792146,30.392877467277685,35.95192739689101,34.8497019798125,1577396591.0,-27.699701362501067,-51.11133278461968,22.71421
116140,1577396591.82,-0.5480327600097645,0.5139153863525391,7.811861031799316,-2.7830550468630904,0.07970939673447,8.282477865079555,-1.7439478902180985,-1.93651010945638,9.000602107747396,0.5435943603515625,0.9241104125976562,3.632354736328125,10.519260313452744,-4.518648473227897,2.610927674828506,2.6261465890066966,-10.03083728608631,3.280276343936012,-5.219303025292609,-15.38125122645212,0.7297809829059857,32.19300846266308,-2.690756050802779,-8.724572649572671,30.249108934615272,35.80815886422859,35.52062179890376,1577396591.0,-27.699701362501067,-51.11133278461968,22.71421
116141,1577396591.83,-0.6414066247558593,-0.2498349432373046,8.767147494201659,-1.4135716972537151,0.2844136386778298,11.760055776456506,-0.4127717671712233,-0.2521892415364585,8.25720249226888,0.8945465087890625,0.1611709594726562,3.495025634765625,-2.084499452172256,2.775052698647104,2.580410096703506,0.6272452218191966,-5.544753301711309,3.966921851748512,-7.146430296169879,-15.381251226452122,1.459561965811968,31.12962564664869,-2.976139268312165,-6.024109686609696,30.392877467277685,35.49666037679336,35.424776110462155,1577396591.0,-27.699701362501067,-51.11133278461968,22.71421
116142,1577396591.84,-0.8042123376464843,0.5187037896728516,11.178108565979002,0.6933257636837836,0.1228050266172825,10.827514229825647,-2.806973427327473,-1.0410786885579424,11.083557552083336,2.8629302978515625,-0.6322860717773438,4.120635986328125,5.239719297827744,-0.2767051138528963,3.953701112328506,1.1307852608816966,-1.852126348586309,5.843752906436012,-6.6646484784505615,-15.950927197802198,1.6420072115384623,30.646269821187605,2.5276799265117016,12.879131054131037,30.34495462305688,35.856081708449395,35.52062179890376,1577396591.0,-27.699701362501067,-51.11133278461968,22.71421
116143,1577396591.85,-0.5121197351074208,0.2242169854736328,11.15416654937744,-1.1980935478396526,-1.1197856350038102,10.391769527677209,-0.0656125264485671,0.3810770975748691,13.563950472005212,1.3675689697265625,-0.7848739624023438,3.296661376953125,4.476779844702744,1.4627968392721036,4.350429627953506,-2.1040780203683034,0.1925513857886905,6.362551734561012,-6.50405453921079,-14.621683264652017,1.094671474358975,30.646269821187605,-2.5276799265117016,16.202777777777772,30.249108934615272,35.616467487345375,35.52062179890376,1577396591.0,-27.699701362501067,-51.11133278461968,22.71421
116144,1577396591.86,-0.7982268334960931,-0.7190984686279297,12.062766079406735,1.3062413886837838,0.0054891452696262,11.01665616097799,-0.8293628560384108,2.863864219156901,11.10031696370443,0.8945465087890625,-0.4949569702148437,3.327178955078125,0.082248594702744,7.627347620522103,1.6648827529535062,1.5885489327566966,3.4274146670386907,3.768557593936012,-6.343460599971017,-14.811575255102042,1.6420072115384623,31.419639141925344,1.7122993050563151,-95.97029914529914,30.297031778836075,35.616467487345375,35.32893042202055,1577396591.0,-27.699701362501067,-51.11133278461968,22.71421
116145,1577396591.87,-0.3828328454589833,-0.4796783026123046,10.75194067047119,-1.699678795642387,-0.8959277797792008,11.210586495450649,-2.3592577168782545,0.4852248697916664,9.977436385091147,0.5741119384765625,0.4358291625976562,3.418731689453125,3.622287657202744,0.1200234017721035,3.404384706078506,3.938402448381696,0.8944556826636906,0.960940406436012,-5.3798969645323815,-14.43179127420199,-0.1824452457264983,33.3530624437697,2.3646038022206253,-90.98482905982904,30.201186090394465,35.688351753676585,35.52062179890376,1577396591.0,-27.699701362501067,-51.11133278461968,22.71421
116146,1577396591.88,-0.0237025964355458,-0.0870292303466787,9.13106614654541,0.1474477851681587,1.4491927463438448,10.523450618985803,-2.7566951924641923,-2.0897390157063795,8.976660091145833,0.1468658447265625,1.3208389282226562,3.540802001953125,5.117648985327744,-3.603121129477896,3.801113221703506,4.274095807756696,-5.148024786086309,1.693362281436012,-7.949399992368741,-14.43179127420199,1.6420072115384623,25.81271156657672,1.7938373672018535,-7.47820512820515,30.392877467277685,35.52062179890376,35.66439033156618,1577396591.0,-27.699701362501067,-51.11133278461968,22.71421
116147,1577396591.89,-0.1936909143066396,-0.2258929266357421,8.305066573791503,0.0181608955197212,1.76522736548447,8.239382235196741,-1.9785796529134108,-1.749762379964192,5.804342891438802,0.5741119384765625,1.7175674438476562,3.693389892578125,1.302951719702744,5.216458948647103,3.434902284203506,1.1613028390066966,-15.12727283296131,3.707522437686012,-6.825242417690333,-14.241899283751962,2.5542334401709463,26.199396226945588,-2.119989615784008,-1.661823361823385,30.249108934615272,35.66439033156618,35.47269895468296,1577396591.0,-27.699701362501067,-51.11133278461968,22.71421
116148,1577396591.9,-0.8413224633789061,0.5246892938232421,7.520965530090331,-1.621867241687309,-1.900295376214748,5.955313851407679,-1.1070902486165357,0.9868101175944004,8.196150349934896,0.4978179931640625,0.6189346313476562,3.327178955078125,2.950900938452744,-2.168794957602896,3.099208924828506,1.7106192452566966,-17.56867908296131,3.982180640811012,-7.146430296169879,-14.241899283751962,1.4595619658119714,30.83961215137204,-1.9569134914929305,-1.661823361823385,30.297031778836075,35.80815886422859,35.32893042202055,1577396591.0,-27.699701362501067,-51.11133278461968,22.71421
116149,1577396591.91,-1.1729193933105468,-0.5060145208740234,8.889251778869628,-1.2986500175662152,1.076894388189548,9.5166888208901,0.4802654520670574,-1.7844783040364578,9.940326259358724,-0.2803802490234375,0.3137588500976562,3.235626220703125,-1.153713319359756,1.0965859017721038,3.282314393578506,2.1073477608816966,-12.12129138764881,3.905886695498512,-5.8616787822516985,-14.621683264652017,0.7297809829059857,31.032954481556477,0.1630761242910777,-50.27015669515672,30.392877467277685,35.71231317578699,35.35289184413095,1577396591.0,-27.699701362501067,-51.11133278461968,22.71421
116150,1577396591.92,-1.567962667236328,0.5498284112548828,9.978613534240722,-2.2802726982302777,-1.462156472406154,10.26966524300924,-0.458261598714192,0.7042943216959628,10.508949153645837,0.3299713134765625,-1.2121200561523438,3.449249267578125,-0.1313744521722559,-9.157320348227897,3.038173768578506,-1.951490129743304,-4.964919317336309,5.691165015811012,-7.146430296169879,-14.621683264652017,1.094671474358975,16.145595057354935,-1.7938373672018528,4.985470085470055,30.48872315571929,35.66439033156618,35.32893042202055,1577396591.0,-27.699701362501067,-51.11133278461968,22.71421
116151,1577396591.93,-1.453040987548828,-0.1013944403076162,11.063186886291502,-0.223653472156059,0.7141728366758763,9.393387435392055,-0.9514671407063796,-0.2126849141438798,9.383674373372395,0.5741119384765625,-1.944541931152344,3.449249267578125,1.302951719702744,-5.800386754477897,2.885585877953506,-3.2942635672433034,-8.90168689546131,4.775637672061012,-6.825242417690333,-15.38125122645212,0.7297809829059857,25.81271156657672,-2.119989615784008,0.0,30.249108934615272,35.616467487345375,35.616467487345375,1577396591.0,-27.699701362501067,-51.11133278461968,22.71421
116152,1577396591.94,-1.3728352319335937,-0.4150348577880859,10.0564250881958,-1.046061742419731,-0.5667250515077165,10.83230263314596,-1.98576225789388,-0.4257688618977865,10.445502809651694,-0.9670257568359376,-1.944541931152344,3.632354736328125,2.416843321265244,-5.525728551352897,3.877407167016006,1.6190665108816966,-8.73384021577381,3.310793922061012,-6.584351508830675,-15.286305231227107,1.5507845886752134,25.81271156657672,-2.119989615784008,-5.816381766381765,30.273070356725672,35.59250606523497,35.37685326624135,1577396591.0,-27.699701362501067,-51.11133278461968,22.71421
116153,1577396591.95,-0.6725312463378905,-0.2019509100341796,8.305066573791503,-1.2364007744021528,0.3239179660704074,7.738994088224085,-0.9801975606282544,0.7569667582194004,12.771469722493492,-1.4400482177734375,-2.219200134277344,3.388214111328125,1.699680235327744,0.8829628548971036,3.953701112328506,0.6730215890066966,0.7418677920386905,2.578372047061012,-7.146430296169879,-13.86211530285191,0.7297809829059857,33.15972011358526,-3.0984463615304736,-7.47820512820515,30.48872315571929,35.66439033156618,35.424776110462155,1577396591.0,-27.699701362501067,-51.11133278461968,22.71421
116154,1577396591.96,0.2324769812011718,-0.2546233465576171,9.20049799468994,-0.338575151843559,0.4268686374571262,11.634360189298302,-0.6809223531087233,-1.603716078694661,9.216080257161458,-0.1583099365234375,-1.6698837280273438,3.540802001953125,-3.335720155297256,8.848050745522103,2.488857362328506,-1.6157967703683034,-2.7676536923363093,3.554934547061012,-6.6646484784505615,-14.811575255102042,2.006897702991451,31.419639141925344,-1.8753754293473912,-4.570014245014259,30.5366459999401,35.66439033156618,35.52062179890376,1577396591.0,-27.699701362501067,-51.11133278461968,22.71421
116155,1577396591.97,-0.8281543542480467,-0.2713827581787109,11.379221505432128,0.7100851753048774,0.0533731784727512,7.410988460782679,0.5185726786295569,0.6444392801920567,8.744422530110677,1.0318756103515625,-0.9679794311523438,3.907012939453125,3.988498594702744,-10.683199254477897,3.892665956078506,0.5814688546316966,-5.636306036086309,3.951663062686012,-6.985836356930107,-15.571143216902144,0.912226228632484,31.419639141925344,-1.7122993050563138,-8.724572649572671,30.249108934615272,35.616467487345375,35.52062179890376,1577396591.0,-27.699701362501067,-51.11133278461968,22.71421
116156,1577396591.98,-0.230801040039062,0.1511938348388672,9.46266307647705,-0.161404228991997,-0.375188918695217,9.084535421231896,0.1582453287760418,-0.095369032796224,9.953494368489586,-0.5855560302734375,-1.0747909545898438,3.357696533203125,-0.0855980849847559,1.874784143959604,3.007656190453506,0.1999991280691966,-3.637404668898809,2.074832007998512,-6.825242417690334,-15.001467245552067,1.8244524572649603,30.646269821187605,0.0815380621455396,-48.19287749287753,30.36891604516728,35.56854464312457,35.304968999910145,1577396591.0,-27.699701362501067,-51.11133278461968,22.71421
116157,1577396591.99,-0.4977545251464833,-0.2857479681396484,8.745599679260254,0.3246187080197212,0.5777033420469699,9.6974510462319,-0.8892178975423171,-0.2509921407063799,9.510567061360677,-1.5621185302734375,-0.5102157592773438,3.174591064453125,1.913303282202744,-1.4668906607278964,4.350429627953506,-1.6768319266183034,-1.6995384579613095,1.693362281436012,-6.825242417690333,-12.3429793792517,1.824452457264953,30.646269821187605,2.0384515536384704,-110.92670940170945,30.201186090394465,35.616467487345375,35.424776110462155,1577396591.0,-27.699701362501067,-51.11133278461968,22.71421
116158,1577396592.0,-0.8353369592285155,-0.7574056951904297,9.60990647857666,-2.7016521904177777,-1.443002859124904,9.967995833829551,-1.5835363789876296,0.6899291117350254,8.64626026204427,-0.6465911865234375,-1.6393661499023438,3.510284423828125,2.889865782202744,-0.3987754263528963,1.7259179092035062,-0.4561288016183034,-5.544753301711309,4.714602515811012,-6.182866660731244,-14.241899283751962,1.4595619658119638,30.646269821187605,-2.2015276779295467,8.72457264957264,30.48872315571929,35.76023602000779,35.616467487345375,1577396592.0,-27.69990163210635,-51.11127129143914,23.048756
116159,1577396592.01,-1.10707884765625,0.0195127435302739,9.528503622131346,-0.501380864734184,-1.0168349636170917,10.32712608285299,-1.1932815083821608,-0.981223647054036,9.35494395345052,0.0095367431640625,-1.959800720214844,3.464508056640625,2.828830625952744,3.385404261147104,4.075771424828506,1.3749258858816966,-6.918044317336309,6.515139625186012,-7.307024235409652,-14.811575255102042,0.912226228632484,22.912576613810188,-1.386147056474159,14.540954415954404,30.249108934615272,35.52062179890376,35.52062179890376,1577396592.0,-27.69990163210635,-51.11127129143914,23.048756
116160,1577396592.02,-0.4953603234863271,0.2888604302978516,9.322602279357907,-0.8006560722537153,-0.068731106195217,10.516268014005334,-1.2842611714680985,1.3231954508463537,11.441490700276695,-1.3790130615234375,-1.5172958374023438,2.991485595703125,0.6010474228277439,-1.8331015982278969,3.587490174828506,1.4207022530691966,-0.2957298642113093,5.492800757998512,-6.182866660731244,-14.241899283751962,0.3648904914529966,30.742940986279823,0.4484593418004633,-7.685933048433073,30.392877467277685,35.66439033156618,35.424776110462155,1577396592.0,-27.69990163210635,-51.11127129143914,23.048756
116161,1577396592.03,0.2612074011230468,0.3080140435791015,10.182120675354003,-0.3744881767459027,0.4986946872618137,9.841103145841272,-0.7671136128743483,0.2948858378092441,12.9845536702474,-0.9822845458984376,-0.2355575561523437,3.144073486328125,-3.213649842797256,-4.854341832602897,2.488857362328506,0.1237051827566966,12.18595958891369,1.540774390811012,-6.343460599971016,-15.571143216902144,1.2771167200854732,31.419639141925344,-2.5276799265117016,-8.724572649572671,30.392877467277685,35.616467487345375,35.28100757779974,1577396592.0,-27.69990163210635,-51.11127129143914,23.048756
116162,1577396592.04,-0.5073313317871083,-0.4102464544677734,10.287465548400878,-0.0201463310427777,0.9919002292540012,12.917652279142052,-1.4446726826985672,1.3722765848795566,8.53852118733724,-0.0667572021484375,-0.1440048217773437,3.205108642578125,1.882785704077744,0.8524452767721036,3.923183534203506,-0.1204354422433033,19.99845958891369,1.998538062686012,-7.146430296169879,-15.00146724555207,0.7297809829059857,31.419639141925344,-2.5276799265117016,-8.724572649572671,30.5366459999401,35.616467487345375,35.52062179890376,1577396592.0,-27.69990163210635,-51.11127129143914,23.048756
116163,1577396592.05,0.5317521887207031,0.6743268975830077,9.684126730041504,-0.8245980888552776,-0.1525281643006852,10.46120137582174,-0.2858790791829421,2.0977196879069004,6.575275826009115,-0.6465911865234375,-0.1440048217773437,2.991485595703125,2.218479063452744,1.1271034798971036,3.526455018578506,-0.1509530203683033,5.899338495163691,-0.8395967029389881,-5.701084843011927,-14.43179127420199,0.912226228632484,31.61298147210978,-3.4245986101126284,-8.309116809116826,30.009494713511245,35.52062179890376,35.424776110462155,1577396592.0,-27.69990163210635,-51.11127129143914,23.048756
116164,1577396592.06,-0.3373430139160155,-0.3324349005126952,8.719263460998533,0.5772069831662057,0.2365296054747043,9.461622182706506,-0.9574526448567704,-3.8889815633138016,5.521827095540365,-2.050399780273437,0.0543594360351562,2.854156494140625,1.013034727515244,-1.6652549185403966,3.465419862328506,-1.6310555594308034,-12.18232654389881,2.334231422061012,-6.343460599971016,-15.571143216902144,0.5473357371794949,31.032954481556477,-1.95691349149293,-97.63212250712252,30.273070356725672,35.40081468835175,35.32893042202055,1577396592.0,-27.69990163210635,-51.11127129143914,23.048756
116165,1577396592.07,-1.2447454431152345,-0.2522291448974609,9.08557631500244,-1.880441020984184,-1.8021331081483412,3.735888912442835,-0.2595428609212233,-1.0123482686360674,9.115523787434896,-0.0972747802734375,-1.3952255249023438,3.388214111328125,0.845188047827744,-0.9786094107278964,2.397304627953506,3.6332266671316966,-9.29841541108631,3.188723609561012,-6.50405453921079,-15.00146724555207,1.4595619658119638,30.646269821187605,2.5276799265117016,4.570014245014226,30.34495462305688,35.52062179890376,35.32893042202055,1577396592.0,-27.69990163210635,-51.11127129143914,23.048756
116166,1577396592.08,-0.9215282189941404,0.1284489190673828,10.450271261291505,-1.056835649890434,-0.1716817775819352,12.350226485685022,-1.269895961507161,-0.799264320882161,10.482612935384118,1.0013580322265625,-1.3952255249023438,3.327178955078125,-0.711208436547256,-2.412935582602896,1.8174706435785064,1.4969961983816966,-6.063552129836309,5.599612281436012,-5.219303025292609,-16.140819188252223,1.824452457264953,32.38635079284752,-1.6307612429107747,4.985470085470055,30.392877467277685,35.52062179890376,35.616467487345375,1577396592.0,-27.69990163210635,-51.11127129143914,23.048756
116167,1577396592.09,-1.4482525842285154,0.197880767211914,11.15416654937744,0.3533491279415962,1.0780914890196265,11.031021370938928,-0.5037514302571608,1.1639810404459627,9.079610762532552,0.0247955322265625,-1.2426376342773438,3.296661376953125,0.631565000952744,-0.1851523794778963,3.587490174828506,-1.0054452078683034,-8.44392322358631,7.796877906436012,-5.219303025292609,-15.761035207352172,0.7297809829059857,24.072630594916795,-0.7338425593098494,6.231837606837594,30.201186090394465,35.616467487345375,35.32893042202055,1577396592.0,-27.69990163210635,-51.11127129143914,23.048756
116168,1577396592.1,-1.2172121240234377,-0.5251681341552734,9.603920974426268,-1.8948062309451212,-1.2682261379334976,9.654355416349086,-0.6737397481282545,-0.6532180196126298,11.088345955403648,-2.325057983398437,-2.203941345214844,2.945709228515625,-7.791286561547256,-7.570406285727897,3.923183534203506,0.6425040108816966,-5.697341192336309,2.456301734561012,-6.985836356930107,-15.571143216902144,1.6420072115384623,24.072630594916795,-0.7338425593098494,6.231837606837594,30.201186090394465,35.80815886422859,35.52062179890376,1577396592.0,-27.69990163210635,-51.11127129143914,23.048756
116169,1577396592.11,-0.8257601525878905,-0.5299565374755859,10.435906051330566,-0.7000996025271532,0.4735555698301736,10.303184066251427,-1.577550874837239,0.1823583597819008,12.290235188802086,-1.0128021240234375,-2.249717712402344,3.662872314453125,-0.711208436547256,-4.305025426352897,4.029995057641006,1.8632071358816968,4.220871698288691,2.257937476748512,-6.02227272149147,-14.052007293301935,0.5473357371794949,33.159720113585266,3.261522485821553,-93.89301994301997,30.009494713511245,35.80815886422859,35.376853266241355,1577396592.0,-27.69990163210635,-51.11127129143914,23.048756
116170,1577396592.12,-0.715626876220703,-0.0559046087646474,11.87003284576416,0.7914880317501899,0.7237496433165013,10.849062044767052,0.0181845316569006,-1.096145326741536,8.047709847005208,-0.5245208740234375,-1.7919540405273438,3.693389892578125,-1.199489686547256,-3.175875035727896,2.641445252953506,0.3983633858816966,3.2443091982886907,1.998538062686012,-7.949399992368741,-12.91265535060178,1.6420072115384623,30.646269821187605,-2.2015276779295467,-0.4154558404558628,30.48872315571929,35.66439033156618,35.424776110462155,1577396592.0,-27.69990163210635,-51.11127129143914,23.048756
116171,1577396592.13,-0.0069431848144521,-0.1013944403076162,9.662578915100095,-1.8541048027224647,-0.868394460687404,10.458807174161583,1.054873850504557,1.616485154215494,5.543374910481771,-1.3484954833984375,-2.005577087402344,3.174591064453125,0.295871641577744,-0.2156699576028963,3.648525331078506,1.3138907296316966,-6.094069707961309,1.998538062686012,-5.8616787822516985,-14.241899283751962,1.4595619658119638,30.646269821187605,-2.2015276779295467,-0.4154558404558628,30.34495462305688,35.66439033156618,35.32893042202055,1577396592.0,-27.69990163210635,-51.11127129143914,23.048756
116172,1577396592.14,0.3881000891113281,-0.100197339477539,7.6813770413208,0.0995637519650342,0.3777875034239231,8.813990633634242,-1.6577566304524731,-0.7441976826985678,8.374518373616537,-2.859115600585937,-1.1968612670898438,3.205108642578125,-2.359157655297256,1.1576210580221034,3.984218690453506,1.2681143624441964,-4.476638067336309,2.608889625186012,-7.307024235409652,-14.811575255102042,0.5473357371794949,30.93628331646426,-1.8346063982746224,-44.24604700854702,30.249108934615272,35.71231317578698,35.32893042202055,1577396592.0,-27.69990163210635,-51.11127129143914,23.048756
116173,1577396592.15,0.0409408483886718,-0.1827972967529296,8.738417074279784,-1.5021571586794964,-0.7893858059022477,8.409370553067836,-0.5324818501790358,-0.6556122212727861,9.544085884602865,-0.9212493896484376,-0.6933212280273438,3.235626220703125,-0.650173280297256,-3.084322301352896,2.763515565453506,-1.6463143484933034,-0.9976341610863096,4.623049781436012,-5.540490903772153,-14.621683264652017,2.9191239316239352,22.13920729307244,1.875375429347392,6.231837606837594,30.249108934615272,35.66439033156618,35.52062179890376,1577396592.0,-27.69990163210635,-51.11127129143914,23.048756
116174,1577396592.16,0.0768538732910156,0.4540603448486328,11.029668063049316,-0.6139083427615277,1.576085434332126,11.15791405892721,-0.917948317464192,-0.5095659200032548,6.891310445149739,0.1468658447265625,0.0085830688476562,3.510284423828125,0.906223204077744,3.812650354897104,3.923183534203506,-0.7918221609933034,-7.406325567336309,5.813235328311012,-5.540490903772153,-13.86211530285191,1.094671474358975,31.419639141925344,1.7122993050563151,4.570014245014226,30.249108934615272,35.616467487345375,35.424776110462155,1577396592.0,-27.69990163210635,-51.11127129143914,23.048756
116175,1577396592.17,-0.71083847290039,-0.1839943975830078,9.32978488433838,-0.070424565906059,0.0557673801329075,7.961654842618616,-0.8676700826009108,-1.4480929707845047,7.987854805501302,-2.477645874023437,-0.1134872436523437,3.144073486328125,4.842990782202744,-1.9246543326028964,3.984218690453506,0.7645743233816966,-12.83845447358631,5.019778297061012,-6.6646484784505615,-15.001467245552067,0.7297809829059858,31.419639141925344,1.7122993050563151,4.570014245014226,30.512684577829692,35.66439033156618,35.52062179890376,1577396592.0,-27.69990163210635,-51.11127129143914,23.048756
116176,1577396592.18,-1.1394005700683592,-0.1373074652099599,7.907629098205565,-1.5117339653201216,-0.7881887050721695,8.734981978849085,-0.8437280659993485,0.1703873514811196,11.430716792805992,-3.515243530273437,-0.9069442749023438,3.235626220703125,-1.4894066787347562,-3.0538047232278966,3.343349549828506,-0.6697518484933034,-5.59052966889881,3.295535132998512,-7.467618174649425,-14.621683264652017,0.3648904914529966,32.96637778340083,2.609217988657241,-99.29394586894588,30.392877467277685,35.9040045526702,35.20912331146853,1577396592.0,-27.69990163210635,-51.11127129143914,23.048756
116177,1577396592.19,-0.5288791467285145,-0.6712144354248047,9.62187748687744,-1.6194730400271526,0.7668452731993137,11.69421523080221,-2.1485679707845047,-0.8232063374837236,9.271146895345051,-2.080917358398437,-0.0524520874023437,3.266143798828125,-5.288845155297256,8.878568323647103,3.770595643578506,-5.552564348493304,-3.0117943173363093,0.991457984561012,-6.50405453921079,-16.140819188252223,0.7297809829059857,32.96637778340082,3.0169082993849345,-8.724572649572671,30.249108934615272,35.76023602000779,35.424776110462155,1577396592.0,-27.69990163210635,-51.11127129143914,23.048756
116178,1577396592.2,-0.7371746911621093,0.188303960571289,10.651384200744628,-0.1590100273318402,-0.2794208522889664,8.13164316048971,-0.0153342915852858,-1.5318900288899735,7.358179768880208,-1.1959075927734375,0.3747940063476562,3.449249267578125,6.796115782202744,-6.502291051352897,3.709560487328506,-3.3247811453683034,-8.41340564546131,3.524416968936012,-6.985836356930107,-15.191359236002096,0.5473357371794949,31.03295448155648,-2.2015276779295467,-8.724572649572671,30.249108934615272,35.76023602000779,35.66439033156618,1577396592.0,-27.69990163210635,-51.11127129143914,23.048756
116179,1577396592.21,-0.2308010400390615,-0.2534262457275391,8.813834426574706,-1.1071138847537152,-1.44539706078506,7.76772450814596,-0.0536415181477858,2.9907569071451823,9.26635849202474,-2.584457397460937,-0.2813339233398437,3.205108642578125,-5.380397889672256,4.148343714272103,3.648525331078506,-2.7754647391183034,-7.284255254836309,3.371829078311012,-5.540490903772153,-14.621683264652017,1.4595619658119676,31.03295448155648,-2.2015276779295467,-8.724572649572671,30.153263246173665,35.76023602000779,35.32893042202055,1577396592.0,-27.69990163210635,-51.11127129143914,23.048756
116180,1577396592.22,0.2348711828613281,-0.1636436834716796,8.963472030334472,-0.2236534721560594,0.1180166232969704,9.19826000008932,-1.2279974324544265,0.4816335673014321,12.775061024983726,-3.332138061523437,-0.2660751342773437,3.205108642578125,-0.970607850609756,3.599027308022104,3.389125917016006,-1.0817391531808034,4.46501232328869,3.600710914248512,-5.540490903772153,-13.48233132195186,0.0,30.646269821187605,-2.2015276779295467,-0.4154558404558544,30.34495462305688,35.80815886422859,35.56854464312457,1577396592.0,-27.69990163210635,-51.11127129143914,23.048756
116181,1577396592.23,0.0457292517089843,-0.0702698187255849,10.404781429748532,-0.2308360771365277,-1.3376579860780289,12.637530684903773,-0.9969569722493484,0.5007871805826817,9.987013191731776,-2.111434936523437,0.1611709594726562,3.205108642578125,-5.929714295922256,2.225736292397104,3.892665956078506,-5.186353410993304,13.98649669828869,3.249758765811012,-7.307024235409652,-14.43179127420199,2.006897702991451,30.83961215137204,1.7938373672018535,11.632763532763512,30.34495462305688,35.66439033156618,35.52062179890376,1577396592.0,-27.69990163210635,-51.11127129143914,23.048756
116182,1577396592.24,0.4240131140136718,-0.0894234320068349,9.224440011291502,-1.61468463670684,0.7812104831602512,8.718222567227992,-1.585930580647786,0.0099758402506503,6.575275826009115,-1.5010833740234375,0.4358291625976562,3.266143798828125,1.760715391577744,-8.974214879477897,5.174404237328506,-3.5689217703683034,11.51457287016369,4.897707984561012,-5.058709086052835,-14.43179127420199,1.6420072115384623,30.83961215137204,1.7938373672018535,11.632763532763512,30.249108934615272,35.856081708449395,35.424776110462155,1577396592.0,-27.69990163210635,-51.11127129143914,23.048756
116183,1577396592.25,-0.67253124633789,-0.4617217901611328,9.761938283996582,0.098366651134956,-0.0280296779725607,11.982716530851038,-1.0053366780598951,0.0734221842447915,10.796253352864586,-1.9741058349609373,0.6189346313476562,3.083038330078125,-1.901393983422256,1.4170204720846034,4.045253846703506,-1.6157967703683034,2.9849097842261907,4.760378882998512,-7.387321205029536,-13.767169307626896,0.6385583600427366,31.22629681174091,-0.4892283728732326,-46.53105413105415,30.392877467277685,35.856081708449395,35.52062179890376,1577396592.0,-27.69990163210635,-51.11127129143914,23.048756
116184,1577396592.26,-1.1130643518066403,-1.0159794744873047,10.409569833068849,-1.2244297661013714,-1.2203421047303726,11.701397835782675,-1.3058089864095046,1.084972385660807,12.496136531575525,-2.599716186523437,-0.2965927124023437,3.113555908203125,1.089328672827744,4.209378870522103,4.075771424828506,-0.9749276297433034,4.953293573288691,2.273196265811012,-7.949399992368741,-13.292439331501834,0.1824452457264983,30.83961215137204,1.9569134914929305,-93.89301994301997,30.392877467277685,35.66439033156618,35.52062179890376,1577396592.0,-27.69990163210635,-51.11127129143914,23.048756
116185,1577396592.27,-1.0268730920410154,0.1906981622314453,10.93629419830322,-1.1980935478396526,-1.0288059719178726,11.526621114591272,-0.2379950459798171,-2.62604018758138,11.88561510823568,-1.8672943115234373,0.5273818969726562,3.357696533203125,-1.504665467797256,-1.7110312857278964,3.068691346703506,-0.5171639578683034,8.82902599516369,1.937502906436012,-7.146430296169879,-16.520603169152277,-0.3648904914529891,32.19300846266308,3.0169082993849345,-1.2463675213675387,30.249108934615272,35.52062179890376,35.52062179890376,1577396592.0,-27.69990163210635,-51.11127129143914,23.048756
116186,1577396592.28,-0.6665457421874994,-0.5155913275146484,9.236411019592284,0.3916563545040962,1.997464926519626,10.892157674649866,-1.787043520100911,2.5717716166178386,4.659914497884114,-1.5773773193359375,0.0696182250976562,3.556060791015625,-1.352077577172256,-1.3448203482278964,2.824550721703506,-2.2566659109933034,0.0399634951636905,3.219241187686012,-7.467618174649424,-14.241899283751964,1.2771167200854694,32.19300846266308,3.0169082993849345,-1.2463675213675387,30.32099320094648,35.52062179890376,35.28100757779974,1577396592.0,-27.69990163210635,-51.11127129143914,23.048756
116187,1577396592.29,-0.1290474694824209,0.0494402642822265,8.305066573791503,-1.1418298088259808,-0.1776672817323263,9.161149874356896,-0.9502700398763014,-2.0502346883138025,9.607532228597004,-3.210067749023437,-0.2965927124023437,3.022003173828125,3.805393125952744,-1.3448203482278964,3.709560487328506,-0.7918221609933034,-10.67170642671131,2.059573218936012,-6.6646484784505615,-16.710495159602303,0.912226228632484,31.61298147210978,2.364603802220625,-55.67108262108265,30.201186090394465,35.736274597897385,35.40081468835175,1577396592.0,-27.69990163210635,-51.11127129143914,23.048756
116188,1577396592.3,-0.3660734338378896,-0.7597998968505859,7.376116329650878,1.2966645820431588,-0.6433395046327165,8.581753072599085,1.8353835917154944,0.3212220560709629,11.011731502278648,-2.660751342773437,-0.1745223999023437,3.266143798828125,-4.068142030297256,3.690580042397104,3.526455018578506,-0.7002694266183034,0.4977271670386905,4.439944312686012,-6.6646484784505615,-16.710495159602303,0.912226228632484,30.646269821187605,-1.5492231807652364,4.570014245014226,30.201186090394465,35.47269895468296,35.28100757779974,1577396592.0,-27.69990163210635,-51.11127129143914,23.048756
116189,1577396592.31,0.0648828649902343,-1.4756661932373047,9.193315389709472,-0.6665807792849652,0.1922368747618137,11.344661788419396,1.1889491434733068,1.7673198588053378,7.652666573079427,-0.5245208740234375,0.5578994750976562,3.266143798828125,1.882785704077744,-10.622164098227897,1.6954003310785062,-3.4468514578683034,-0.2346947079613094,2.883547828311012,-7.146430296169879,-14.621683264652017,0.7297809829059857,32.38635079284752,-2.119989615784008,4.985470085470055,30.34495462305688,35.52062179890376,35.616467487345375,1577396592.0,-27.69990163210635,-51.11127129143914,23.048756
116190,1577396592.32,-0.3086125939941396,0.5163095880126953,10.480198782043455,-0.5181402763552777,0.031825363531345,7.839550557950647,-1.2387713399251297,1.0370883524576815,7.379727583821614,-0.0972747802734375,0.2069473266601562,3.327178955078125,1.425022032202744,1.0965859017721036,4.838710877953506,-0.6087166922433034,-6.307692754836309,5.385989234561012,-6.584351508830675,-15.286305231227107,1.7332298344017152,32.19300846266308,-2.2015276779295467,11.217307692307685,30.32099320094648,35.66439033156618,35.52062179890376,1577396592.0,-27.69990163210635,-51.11127129143914,23.048756
116191,1577396592.33,-0.9598354455566404,-1.3655329168701171,9.21486320465088,-0.6426387626834033,-0.2889976589295919,10.111647933438928,-1.484177010091145,-1.5725914571126296,11.363679146321616,-1.8978118896484373,0.4663467407226562,3.357696533203125,0.0822485947027438,2.805570276772104,2.809291932641006,0.2610342843191967,-4.415602911086309,4.531497047061012,-7.628212113889198,-15.571143216902144,-0.1824452457264983,28.71284651934325,1.7938373672018535,-7.8936609686609875,30.392877467277685,35.736274597897385,35.304968999910145,1577396592.0,-27.69990163210635,-51.11127129143914,23.048756
116192,1577396592.34,-0.4905719201660146,-0.5562927557373046,9.633848495178222,-0.338575151843559,0.9535930026915012,10.688650533536585,1.3589374613444007,-0.9836178487141924,10.082781258138024,-2.050399780273437,0.4358291625976562,3.266143798828125,-0.833278749047256,-2.840181676352896,3.556972596703506,-2.1956307547433034,-0.0515892392113094,1.113528297061012,-7.628212113889198,-15.571143216902144,-0.1824452457264983,30.83961215137204,-2.4461418643661625,1.6618233618233518,30.34495462305688,35.66439033156618,35.32893042202055,1577396592.0,-27.69990163210635,-51.11127129143914,23.048756
116193,1577396592.35,0.1031900915527343,0.3630806817626953,10.201274288635252,-1.4375137138552778,-0.1190093410584977,7.803637533048304,0.7053204081217445,-0.6029397847493486,6.896098848470052,-1.3484954833984375,0.6494522094726562,3.052520751953125,-8.279567811547256,-0.5208457388528964,3.526455018578506,-2.6533944266183034,-0.2652122860863095,3.463381812686012,-7.628212113889198,-15.571143216902144,-0.1824452457264983,30.83961215137204,-2.4461418643661625,1.6618233618233518,30.34495462305688,35.80815886422859,35.424776110462155,1577396592.0,-27.69990163210635,-51.11127129143914,23.048756
116194,1577396592.36,-0.9251195214843748,-0.1157596502685547,8.799469216613769,-2.050429338855278,1.82268820532822,7.478026107267054,-1.8014087300618484,0.4145959208170566,11.382832759602868,-0.9822845458984372,0.8630752563476562,3.281402587890625,4.507297422827744,-5.708834020102897,3.526455018578506,-2.1345955984933034,-4.171462286086309,3.127688453311012,-6.90553938731022,-15.286305231227107,1.1858940972222238,32.77303545321639,-2.772294112948318,6.647293447293441,30.17722466828406,35.52062179890376,35.32893042202055,1577396592.0,-27.69990163210635,-51.11127129143914,23.048756
116195,1577396592.37,-0.5743689782714834,0.044651860961914,7.342597506408691,0.4862273200802686,-0.1716817775819357,8.63681971078268,-0.3984065572102858,-0.5359021382649736,9.581196010335288,-2.721786499023437,-0.1440048217773437,3.418731689453125,0.3874243759527438,-1.1617148794778964,3.663784120141006,0.1847403390066966,-1.180739629836309,3.173464820498512,-8.912963627807377,-14.811575255102042,0.912226228632484,26.199396226945584,-0.2446141864366158,-61.90292022792026,30.34495462305688,35.52062179890376,35.40081468835175,1577396592.0,-27.69990163210635,-51.11127129143914,23.048756
116196,1577396592.38,-0.1218648645019521,-0.6089651922607421,9.849326644592283,-0.0321173393435589,0.0916804050352512,6.21628183236471,1.258380991617838,-0.7872933125813798,10.971030074055992,-1.3790130615234375,0.5578994750976562,3.235626220703125,-3.701931092797256,-4.671236363852897,4.167324159203506,2.8092520577566966,9.86662365141369,3.982180640811012,-6.02227272149147,-15.191359236002096,2.371788194444441,19.81909933085922,1.7122993050563151,-115.08126780626785,30.48872315571929,35.66439033156618,35.28100757779974,1577396592.0,-27.69990163210635,-51.11127129143914,23.048756
116197,1577396592.39,-0.4019864587402333,-0.5658695623779296,10.174938070373534,0.1809666084103462,1.5928448459532198,11.153125655606896,-1.1813105000813795,-1.2230380147298172,10.705273689778648,-0.2498626708984375,0.9851455688476562,3.693389892578125,1.821750547827744,6.620267542397103,4.289394471703506,5.128587995256696,12.49113537016369,3.615969703311012,-6.02227272149147,-15.191359236002096,2.371788194444441,19.81909933085922,1.7122993050563151,-115.08126780626785,30.392877467277685,35.424776110462155,35.616467487345375,1577396592.0,-27.69990163210635,-51.11127129143914,23.048756
116198,1577396592.4,-0.6940790612792967,-0.2462436407470702,10.49695819366455,-1.919945348376762,-0.3620208095643571,12.013841152433068,-2.1856780965169267,-0.7238469685872396,9.475851137288412,-0.3108978271484375,-0.1287460327148437,3.495025634765625,2.462619688452744,-2.489229527915396,4.106289002953506,0.4899161202566966,3.900437127976191,4.668826148623512,-7.4676181746494255,-15.571143216902149,0.5473357371794875,26.77942321749889,-1.6307612429107752,-0.4154558404558544,30.36891604516728,35.78419744211819,35.28100757779974,1577396592.0,-27.69990163210635,-51.11127129143914,23.048756
116199,1577396592.41,-0.7682993127441405,-1.193150397338867,9.202892196350096,0.0037956855587837,-0.9306437038514664,11.069328597501428,-1.1262438618977857,1.903789353434244,9.12510059407552,-0.7991790771484375,-0.2050399780273437,3.632354736328125,3.805393125952744,3.415921839272104,3.099208924828506,-0.5476815359933034,-0.4178001767113095,3.341311500186012,-6.343460599971016,-15.950927197802198,0.912226228632484,32.57969312303195,2.69075605080278,-111.7576210826211,30.34495462305688,35.76023602000779,35.80815886422859,1577396592.0,-27.69990163210635,-51.11127129143914,23.048756
116200,1577396592.42,-0.3780444421386708,-0.8028955267333985,10.826160921936037,1.5169311347775338,0.5800975437071262,10.255300033048302,-0.2882732808430983,-3.873419252522786,12.967794258626306,-1.9893646240234373,-0.0829696655273437,3.113555908203125,-0.0703392959222559,-0.6734336294778964,2.702480409203506,3.4196036202566966,8.98161388578869,2.883547828311012,-6.182866660731244,-14.621683264652017,2.18934294871795,30.83961215137204,-2.9353702372393955,-7.47820512820515,30.392877467277685,35.66439033156618,35.52062179890376,1577396592.0,-27.69990163210635,-51.11127129143914,23.048756
116201,1577396592.43,-0.0093373864746083,0.0566228692626953,10.28028294342041,-1.5428585869021527,0.1826600681211887,12.64471328988424,-0.2236298360188796,-0.6101223897298174,9.326213533528646,0.4215240478515625,1.4429092407226562,3.540802001953125,-0.955349061547256,-3.725191441977896,2.885585877953506,-3.935132707868304,11.42302013578869,3.646487281436012,-6.182866660731244,-14.621683264652017,2.18934294871795,30.83961215137204,-2.9353702372393955,-7.47820512820515,30.392877467277685,35.616467487345375,35.52062179890376,1577396592.0,-27.69990163210635,-51.11127129143914,23.048756
116202,1577396592.44,-0.7096413720703119,-0.4222174627685547,9.828975930480956,-0.142250615710747,-0.1501339626405294,10.126013143399865,-1.1322293660481766,-0.939325118001302,9.230445467122395,0.4520416259765625,0.7562637329101562,3.495025634765625,1.7759741806402438,2.607206018959604,3.602748963891006,-3.355298723493304,-0.3415062313988093,0.579470679873512,-6.825242417690333,-14.43179127420199,1.8244524572649603,30.742940986279823,-2.405372833293393,-47.9851495726496,30.12930182406326,35.784197442118185,35.47269895468296,1577396592.0,-27.69990163210635,-51.11127129143914,23.048756
116203,1577396592.45,-0.878432589111328,-0.7071274603271485,8.544486739807128,0.7771228217892524,0.6279815769102512,7.779695516446742,-0.3505225240071608,1.544659104410807,7.853779512532552,-1.3484954833984375,0.3137588500976562,3.357696533203125,1.913303282202744,-6.044527379477897,3.404384706078506,4.945482526506696,0.6808326357886905,2.761477515811012,-7.628212113889198,-16.330711178702252,1.6420072115384623,31.03295448155648,-2.2015276779295467,-101.78668091168092,30.392877467277685,35.76023602000779,35.233084733578934,1577396592.0,-27.69990163210635,-51.11127129143914,23.048756
116204,1577396592.46,-0.5216965417480458,-0.6664260321044922,9.451889169006346,-0.4367374199099652,-1.04317118187881,7.528304342130335,0.7340508280436194,0.3020684427897128,9.651824959309897,0.0247955322265625,-0.2050399780273437,3.113555908203125,-0.1008568740472559,2.195218714272104,3.373867127953506,3.4501211983816966,3.73259044828869,1.235598609561012,-7.78880605312897,-13.86211530285191,1.094671474358975,31.419639141925344,-1.8753754293473912,-100.12485754985757,30.48872315571929,35.66439033156618,35.32893042202055,1577396592.0,-27.69990163210635,-51.11127129143914,23.048756
116205,1577396592.47,-0.4331110803222646,0.0661996759033203,10.647792898254394,-0.5253228813357464,-0.5906670681092789,11.948000606778772,-1.6026899922688795,-4.419297231038411,11.41874578450521,1.7642974853515625,0.4053115844726562,3.708648681640625,5.056613829077744,-5.586763707602897,3.160244081078506,1.3749258858816966,7.791428338913691,6.087893531436012,-6.744945448070448,-14.336845278976975,1.5507845886752132,31.419639141925344,1.7122993050563151,6.231837606837594,30.297031778836075,35.424776110462155,35.52062179890376,1577396592.0,-27.69990163210635,-51.11127129143914,23.048756
116206,1577396592.48,-0.763510909423828,-0.5658695623779296,10.562798739318849,-0.4092041008181688,0.0366137668516579,10.341491292813927,-1.4805857076009108,1.4069925089518225,9.678161177571615,1.3980865478515625,-0.2050399780273437,3.205108642578125,3.698581602515244,-3.7099326529153966,2.702480409203506,0.0626700265066966,7.562546502976191,4.714602515811012,-5.3798969645323815,-15.191359236002096,0.1824452457264983,30.646269821187605,-0.4076903107276932,-44.03831908831912,30.249108934615272,35.71231317578698,35.44873753257256,1577396592.0,-27.69990163210635,-51.11127129143914,23.048756
116207,1577396592.49,-1.0484209069824215,-1.0854113226318358,9.748770174865722,-1.784672954577934,-0.6074264797303727,11.880962960294395,-0.994562770589192,1.9468849833170565,10.061233443196617,0.2689361572265625,-0.5712509155273438,3.418731689453125,-2.267604920922256,-6.624361363852897,2.153164002953506,2.1989004952566966,8.79850841703869,2.944582984561012,-6.825242417690333,-16.520603169152277,1.824452457264953,32.96637778340082,1.7122993050563151,-101.78668091168092,30.249108934615272,35.66439033156618,35.32893042202055,1577396592.0,-27.69990163210635,-51.11127129143914,23.048756
116208,1577396592.5,-0.4762067102050771,-0.6496666204833984,10.079170003967285,-0.6186967460818402,2.394902402105564,11.962365816739707,-1.624237807210286,-0.1384646626790361,12.201649727376305,0.2384185791015625,-0.4186630249023437,3.113555908203125,0.173801329077744,3.660062464272104,3.068691346703506,0.8866446358816966,9.53093029203869,1.815432593936012,-6.343460599971016,-14.43179127420199,2.006897702991451,32.96637778340082,1.7122993050563151,-101.78668091168092,30.48872315571929,35.616467487345375,35.32893042202055,1577396592.0,-27.69990163210635,-51.11127129143914,23.048756
116209,1577396592.51,-0.9861716638183587,0.0123301385498051,11.846090829162597,-2.162956816882621,0.4125034274961887,10.523450618985803,-0.8916120992024733,-2.190295485432942,5.648719783528646,3.0765533447265625,0.2985000610351562,3.769683837890625,6.307834532202744,0.8829628548971036,4.411464784203506,4.426683698381696,0.8334205264136905,0.2895536876860119,-6.985836356930108,-14.241899283751962,2.189342948717946,32.96637778340082,1.7122993050563151,-101.78668091168092,30.48872315571929,35.80815886422859,35.28100757779974,1577396592.0,-27.69990163210635,-51.11127129143914,23.048756
116210,1577396592.52,-0.6821080529785155,-0.4389768743896484,9.128671944885252,-0.1961201530642626,-0.2878005580995139,9.502323610929164,-1.1932815083821608,-2.7457502705891925,9.038909334309896,0.2689361572265625,-1.1510848999023438,3.662872314453125,4.751438047827744,-3.3437217154153966,2.763515565453506,1.1765616280691966,-12.19758533296131,3.539675757998512,-6.50405453921079,-14.241899283751962,1.094671474358975,31.806323802294216,-0.2446141864366158,-44.8692307692308,30.249108934615272,35.66439033156618,35.28100757779974,1577396592.0,-27.69990163210635,-51.11127129143914,23.048756
116211,1577396592.53,-0.6725312463378905,-0.3958812445068359,7.388087337951659,-0.2044998588748089,0.4292628391172824,9.094112227872523,-1.7056406636555983,1.041876755777994,6.580064229329427,-0.5855560302734375,-1.1510848999023438,3.327178955078125,2.462619688452744,1.859525354897104,3.129726502953506,2.4735586983816966,-10.36653064546131,3.097170875186012,-7.307024235409652,-15.191359236002096,0.1824452457264983,30.83961215137204,2.119989615784009,-99.7094017094017,30.392877467277685,35.66439033156618,35.233084733578934,1577396592.0,-27.69990163210635,-51.11127129143914,23.048756
116212,1577396592.54,-0.4450820886230458,-0.6975506536865235,8.05128119781494,-2.953043364734184,-1.04317118187881,7.047069808438929,-0.6162789082845045,-1.2134612080891922,9.730833614095053,-0.2803802490234375,-0.9984970092773438,3.266143798828125,-0.3449974990472559,-6.166597691977897,2.305751893578506,3.2975333077566966,-13.17414783296131,1.937502906436012,-6.6646484784505615,-15.191359236002096,2.371788194444441,30.83961215137204,-2.772294112948318,7.478205128205117,30.249108934615272,35.52062179890376,35.233084733578934,1577396592.0,-27.69990163210635,-51.11127129143914,23.048756
116213,1577396592.55,-0.6402095239257806,0.4564545465087889,9.116700936584472,-0.7180561149783247,1.7149491306211886,11.046583681729944,-1.2327858357747397,0.5115610880533857,11.54085006917318,2.8018951416015625,-1.2121200561523438,3.891754150390625,2.203220274390244,3.583768518959604,3.953701112328506,1.7869131905691964,-4.873366582961309,7.751101539248513,-6.825242417690334,-15.191359236002096,1.459561965811968,31.12962564664869,2.0792205847112397,8.932300569800564,30.297031778836075,35.664390331566175,35.47269895468296,1577396592.0,-27.69990163210635,-51.11127129143914,23.048756
116214,1577396592.56,-1.0867281335449217,-0.711915863647461,10.543645126037596,-0.3529403618044965,-0.8324814357850602,7.473237703946741,-1.1501858784993482,-0.6795542378743487,13.604651900227868,1.6727447509765625,-1.5783309936523438,3.754425048828125,3.988498594702744,-5.647798863852897,2.519374940453506,1.2223379952566966,3.2443091982886907,3.951663062686012,-7.628212113889198,-16.710495159602303,2.006897702991451,30.646269821187605,-1.5492231807652364,-101.78668091168092,30.201186090394465,35.616467487345375,35.424776110462155,1577396592.0,-27.69990163210635,-51.11127129143914,23.048756
116215,1577396592.57,-0.6821080529785155,-0.4581304876708984,9.595541268615722,0.6933257636837836,0.548972922125095,13.638306978849084,-1.1980699117024731,1.073001377360025,12.199255525716149,-0.0667572021484375,-1.0900497436523438,3.876495361328125,0.723117735327744,2.378324183022104,3.007656190453506,2.1073477608816966,9.37834240141369,2.059573218936012,-6.825242417690333,-15.761035207352172,1.4595619658119638,30.646269821187605,-1.5492231807652364,-95.13938746438748,30.392877467277685,35.66439033156618,34.89762482403331,1577396592.0,-27.69990163210635,-51.11127129143914,23.048756
116216,1577396592.58,-0.3397372155761708,-0.6592434271240235,9.732010763244627,1.2032907172970648,-1.8045273098084975,9.398175838712367,1.1578245218912755,1.1089144022623691,12.323754012044274,-0.3719329833984375,-1.5783309936523438,3.296661376953125,3.011936094702744,4.148343714272103,3.801113221703506,0.6119864327566966,18.89982677641369,-1.541500999813988,-6.343460599971016,-14.811575255102042,0.912226228632484,32.19300846266308,-2.2015276779295467,-95.13938746438748,30.392877467277685,35.856081708449395,35.233084733578934,1577396592.0,-27.69990163210635,-51.11127129143914,23.048756
116217,1577396592.59,-0.0799663354492177,0.1260547174072265,10.291056850891112,-0.7898821647830122,0.7536771640684544,11.46916027474752,-0.367281935628255,-1.900597084554036,8.312269130452474,1.1081695556640625,-0.4186630249023437,3.632354736328125,2.844089415015244,-0.1698935904153966,2.946621034203506,1.9852774483816968,17.22135997953869,1.647585914248512,-7.307024235409651,-14.431791274201988,1.4595619658119676,31.12962564664869,0.529997403946002,-4.777742165242183,30.22514751250487,35.64042890945578,35.424776110462155,1577396592.0,-27.69990163210635,-51.11127129143914,23.048756
116218,1577396592.6,0.4814739538574218,-0.2115277166748046,9.653002108459471,0.1067463569455025,-0.0471832912538102,9.76688289437643,-0.8652758809407546,0.4792393656412754,6.604006245930989,-0.0972747802734375,-0.0524520874023437,3.235626220703125,-1.565700624047256,4.209378870522103,2.610927674828506,3.3585684640066966,-1.1502220517113095,2.273196265811012,-7.307024235409652,-13.672223312401885,1.6420072115384623,30.646269821187605,-1.5492231807652364,-8.724572649572671,30.201186090394465,35.66439033156618,35.32893042202055,1577396592.0,-27.69990163210635,-51.11127129143914,23.048756
116219,1577396592.61,-0.3517082238769521,0.0015562310791015,9.72482815826416,-1.4638499321169964,-0.4230729518983415,7.090165438321741,1.193737546793619,-3.253321022542317,6.513026582845052,-0.2803802490234375,-0.0219345092773437,2.960968017578125,3.622287657202744,-2.351900426352896,3.068691346703506,0.4593985421316966,-7.345290411086309,2.425784156436012,-7.467618174649425,-15.761035207352172,1.824452457264953,31.999666132478648,-1.4676851186196982,-8.309116809116826,30.249108934615272,35.616467487345375,35.13723904513733,1577396592.0,-27.69990163210635,-51.11127129143914,23.048756
116220,1577396592.62,-0.8520963708496093,-0.5682637640380859,9.447100765686034,-0.0033869194216839,1.0828798923399388,8.66794433236471,1.4810417460123697,-2.398591029866536,9.721256807454427,1.0013580322265625,0.0085830688476562,3.632354736328125,-2.481227967797256,7.810453089272103,1.8174706435785064,-0.1509530203683033,-7.589431036086309,3.921145484561012,-5.701084843011927,-14.052007293301935,2.371788194444441,31.80632380229421,-1.2230709321830808,4.570014245014226,30.15326324617366,35.66439033156618,35.233084733578934,1577396592.0,-27.69990163210635,-51.11127129143914,23.048756
116221,1577396592.63,-0.5073313317871083,0.1272518182373047,10.6310334866333,-0.4822272514529345,-0.3608237087342794,11.973139724210412,-1.6996551595052078,0.9401231852213536,10.222842055257164,1.0776519775390625,0.7410049438476562,3.327178955078125,2.187961485327744,-4.869600621665397,2.702480409203506,0.0016348702566966,-0.4483177548363095,6.087893531436012,-7.78880605312897,-16.140819188252223,1.4595619658119638,31.12962564664869,-1.182301901110312,5.193198005697988,30.46476173360889,35.64042890945578,35.424776110462155,1577396592.0,-27.69990163210635,-51.11127129143914,23.048756
116222,1577396592.64,-0.8473079675292968,-0.3671508245849609,10.78306529205322,-1.0233168266482464,1.2720218234922824,9.46042508187643,-1.2387713399251297,2.4448789286295565,11.696473177083336,0.4520416259765625,0.1306533813476562,3.113555908203125,1.547092344702744,4.148343714272103,3.160244081078506,1.8632071358816968,-0.1126243954613094,4.226321265811012,-6.182866660731244,-14.621683264652017,1.094671474358975,32.57969312303195,-1.386147056474159,-8.724572649572671,30.34495462305688,35.76023602000779,35.32893042202055,1577396592.0,-27.69990163210635,-51.11127129143914,23.048756
