,timestamp,acc_x_dashboard,acc_y_dashboard,acc_z_dashboard,acc_x_above_suspension,acc_y_above_suspension,acc_z_above_suspension,acc_x_below_suspension,acc_y_below_suspension,acc_z_below_suspension,gyro_x_dashboard,gyro_y_dashboard,gyro_z_dashboard,gyro_x_above_suspension,gyro_y_above_suspension,gyro_z_above_suspension,gyro_x_below_suspension,gyro_y_below_suspension,gyro_z_below_suspension,mag_x_dashboard,mag_y_dashboard,mag_z_dashboard,mag_x_above_suspension,mag_y_above_suspension,mag_z_above_suspension,temp_dashboard,temp_above_suspension,temp_below_suspension,timestamp_gps,latitude,longitude,speed
6967,1577399075.07,0.385291281797827,0.7988458222179868,7.99470650456126,0.4876580015601178,0.564155664360232,7.95990298774533,-2.2713966335389664,-2.0281807819645574,10.73799444580078,-3.0340799471227133,-0.0576856659679878,1.8697599085365848,3.8368411180449695,-14.652903487042684,1.1380823647103655,9.204213212176068,33.38027581935975,-1.7756020150533538,0.6170339209401732,-0.7157593482906008,-1.277498311873317,-2.861702900464919,19.429500187312687,-1.6726212489433638,29.62611195974481,37.58130410039836,38.49183814059364,1577399075.0,-27.71375333695652,-51.10300498344756,21.42445
6968,1577399075.08,0.2153029639267333,0.8347588471203307,9.797540354658915,-0.1731416566430061,1.1124278445360132,9.233618270948456,1.985493918218845,0.2439165935237225,13.4458365234375,-4.712546743997714,0.6747362090320121,1.9307950647865848,-6.752758491330031,-0.6148175495426829,1.8705042397103653,-0.6834821003239329,16.259914491234756,-2.813199671303354,-1.3222155448717956,-0.9202620192307712,0.0751469595219524,-1.0126961379966188,19.612797358891108,-31.90905173552409,29.72195764818641,37.58130410039836,38.68352951747686,1577399075.0,-27.71375333695652,-51.10300498344756,21.42445
6969,1577399075.09,-0.0863664452529536,-0.0091972380847469,9.549740482832744,0.3212609861792589,-0.6269596615675014,10.794637753370331,-0.3895541286561544,1.6612839763362235,11.49815347290039,-4.651511587747714,4.580986209032012,2.3885587366615857,-5.135326850705031,2.3453875285823167,2.0688684975228657,-4.711802412823933,2.588039491234756,1.7491782583841462,-0.0881477029914528,0.3067540064102558,-0.075146959521965,-9.025058775359255,17.779825643106896,-31.466567386939985,29.721957648186415,37.70111121095037,38.30014676371043,1577399075.0,-27.71375333695652,-51.10300498344756,21.42445
6970,1577399075.1,-0.4766213158584219,-0.3431883696765433,8.325106333662823,0.0471248960913678,0.9903235598680444,12.992514877393772,0.6806540134336888,-1.9228359089176823,12.8329208984375,-5.139792837747714,7.754814334032012,2.8463224085365857,-6.356029975705031,1.8876238567073167,1.7484339272103655,-7.488902022198933,6.463771913109756,0.7878745474466463,0.7933293269230788,0.3067540064102557,0.9769104737854758,-9.8468395586785,15.763556755744256,-32.3515360841082,29.67403480396561,37.725072633060776,38.39599245215204,1577399075.0,-27.71375333695652,-51.10300498344756,21.42445
6971,1577399075.11,0.9239866553329832,-0.5634549224109183,8.456787424971417,0.5044174131812116,-0.6975886105421107,6.401277706983612,1.1403407321836887,2.252651786394816,8.655039001464843,-4.254783072122714,-5.306709103467988,1.9613126429115848,-3.5789303663300305,12.812916825457316,0.9854944740853658,0.9644671184260672,-2.599948790015244,2.618929234946646,0.0881477029914492,-0.1022513354700852,0.6763226356976285,-9.8468395586785,15.763556755744256,-32.3515360841082,29.62611195974481,37.62922694461916,38.30014676371043,1577399075.0,-27.71375333695652,-51.10300498344756,21.42445
6972,1577399075.12,0.8713142188095457,0.4397155731945499,8.246097678877668,1.035930181735899,-1.1979767575147668,6.518593588331268,-1.940996804437404,-1.0872595295231515,8.034940771484374,1.2383809903772869,-2.453315548780488,1.4882901819740857,-6.935863960080031,1.4908953410823171,1.7484339272103655,-7.733042647198933,-2.874606993140244,5.060335484946647,-0.6170339209401661,0.3067540064102557,0.3757347976097936,0.0145298411524369,13.563990696803195,-3.4425586432797965,29.76988049240722,37.86884116572318,38.49183814059364,1577399075.0,-27.71375333695652,-51.10300498344756,21.42445
6973,1577399075.13,0.2296681738876708,-0.7980866851062307,8.583680112959698,-0.5621994264183967,0.5880976809617945,9.02651982734494,0.4041237216856423,0.2235658794123948,9.888052856445311,-7.153952993997714,4.184257693407012,2.6326993616615857,-2.0835690382050305,-9.724314619855184,2.1299036537728657,-8.434946944073932,-5.911106016577744,2.969881383384146,1.14592013888889,1.942775373931624,1.2774983118733108,-2.0399221171456747,9.164858578921075,-2.5575899461115803,29.817803336628028,37.74903405517118,38.32410818582083,1577399075.0,-27.71375333695652,-51.10300498344756,21.42445
6974,1577399075.14,-0.5771777855849844,-0.331217361375762,8.583680112959698,-1.0661788758812871,-0.6736465939405483,9.554441293409392,-1.7183360500428726,-0.6730626423161202,7.9463553100585935,-7.672751822122714,-0.5459669159679879,1.8087247522865848,-0.7713131788300305,-3.239329268292683,1.9925745522103653,0.5067034465510671,-5.041355040015244,3.870149938071646,0.7933293269230788,0.3067540064102557,0.9769104737854758,-1.4235865296562409,13.74728786838162,-1.525126466081995,29.72195764818641,37.58130410039836,38.30014676371043,1577399075.0,-27.71375333695652,-51.10300498344756,21.42445
6975,1577399075.15,-0.7328008934951407,-0.8459707183093557,8.897320530440167,1.0718432066382428,-0.2666323117139857,8.788296762159392,0.80754670142197,1.2710291057307537,6.87614716796875,-5.567038931497714,-1.858222775342988,2.2359708460365857,-6.294994819455031,-1.5303448932926829,-0.2657262290396341,-1.7210797565739329,-0.0059546493902439,1.5202964224466462,1.4985109508547012,-0.5112566773504303,0.0751469595219524,-8.203277992040011,13.563990696803195,-1.3776316832206257,29.67403480396561,37.53338125617755,38.30014676371043,1577399075.0,-27.71375333695652,-51.10300498344756,21.42445
6976,1577399075.16,0.5708419104599364,-0.1289073210925594,10.096815562178447,0.5403304380835553,0.3223412966844508,9.4227602021008,-0.207594802484279,0.3492614665705975,10.302249743652345,-3.064597525247714,-6.374824337842988,1.3051847132240852,-4.433422553830031,1.5824480754573171,1.1685999428353655,3.619496415301067,1.1231957412347562,1.9170249380716464,0.6170339209401732,0.9202620192307712,1.127204392829393,3.3016529744294165,21.629066246253743,-29.99161955832629,29.721957648186415,37.58130410039836,38.39599245215204,1577399075.0,-27.71375333695652,-51.10300498344756,21.42445
6977,1577399075.17,1.0508793433212644,-0.6041563506335745,11.09759185612376,1.160428668064024,-0.160090337837033,10.269110488966035,0.3957440158750955,-0.225346931866902,11.488576666259766,-2.4542459627477133,-0.5154493378429879,1.6866544397865857,-1.824169624142531,-2.7510480182926838,1.4737757240853655,4.535023759051067,2.191310975609756,0.4369223990091462,0.6170339209401732,0.9202620192307712,1.127204392829393,-6.046103435826993,20.25433745941558,-31.68780956123204,29.86572618084883,37.58130410039836,38.44391529637284,1577399075.0,-27.71375333695652,-51.10300498344756,21.42445
6978,1577399075.18,0.4283869116806396,-1.3918486968249806,9.198989939619857,0.0016350645483991,1.062149609672732,9.956667172315646,0.6184047702696263,3.121746989031536,9.088389501953124,-1.6302713533727131,5.923759646532012,2.4801114710365857,-6.356029975705031,6.648366044207317,2.3587854897103657,6.335560868426067,5.029445741234756,-0.1276527963033537,0.6170339209401732,1.738272702991453,0.8266165547415459,-9.025058775359255,20.895877559940057,-32.3515360841082,29.72195764818641,37.58130410039836,38.30014676371043,1577399075.0,-27.71375333695652,-51.10300498344756,21.42445
6979,1577399075.19,1.1586184180282957,-0.3096695464343558,8.428057005049542,1.3016865660132426,-0.4342264279249231,9.786678854444547,0.2089962863829075,-1.2021812092106514,11.717222924804688,-2.1185526033727133,0.6747362090320121,1.9307950647865848,-0.2830319288300305,2.101246903582317,1.9925745522103653,-11.974986006573932,8.752590272484756,1.1540854849466462,-0.0881477029914563,-0.3067540064102557,1.127204392829393,-9.025058775359255,13.563990696803195,1.2772744082840235,29.817803336628028,37.772995477281576,38.39599245215204,1577399075.0,-27.71375333695652,-51.10300498344756,21.42445
6980,1577399075.2,0.5157752722763427,-0.3874811003894339,8.68423658268626,1.543500933689024,-1.111785497749142,7.0764425751476745,1.5928448459532198,0.3684150798518474,9.43554874267578,-0.0891336580602134,-2.804267697217988,1.6256192835365857,1.3649172899199695,-10.899241377667684,1.4127405678353655,-0.4698590534489328,1.0621605849847562,1.8865073599466464,0.1762954059829091,0.2045026709401705,0.7514695952195872,-2.861702900464919,15.030368069430567,-4.032537774725275,29.67403480396561,37.58130410039836,38.39599245215204,1577399075.0,-27.71375333695652,-51.10300498344756,21.42445
6981,1577399075.21,1.0006011084579831,0.5067532196789245,9.486294138838606,-0.3862256043969129,0.2948079775926544,9.56401810005002,-0.6325655971620139,0.196032560320598,8.722076647949219,0.3228536466272865,-0.1492384003429878,1.6866544397865857,-2.9533200147675305,-1.3167218464176829,1.9315393959603655,-2.621348311261433,-3.637546446265244,4.083772984946647,-0.7933293269230717,1.3292673611111123,0.8266165547415459,-1.4235865296562409,12.280910495754243,-2.115105597527472,29.67403480396561,37.67714978883997,38.34806960793124,1577399075.0,-27.71375333695652,-51.10300498344756,21.42445
6982,1577399075.22,-0.0097519921279531,-0.5347245024890432,9.704166489912824,0.5092058165015241,-0.9370087765577356,7.983845004346893,1.6981897190000947,0.114629703875285,8.17141026611328,-1.0504373689977131,1.010429568407012,2.1139005335365857,1.3343997117949695,-0.2486066120426829,0.7108362709603658,0.1710100871760671,-5.590671446265244,3.748079625571646,0.9696247329059844,-0.3067540064102557,0.526028716653711,-1.4235865296562409,12.280910495754243,-2.115105597527472,29.67403480396561,37.772995477281576,38.49183814059364,1577399075.0,-27.71375333695652,-51.10300498344756,21.42445
6983,1577399075.23,-0.6490038353896719,-0.6257041655749808,8.983511790205792,-0.7501442567406624,0.545002051078982,8.946314071729706,-0.9282495021913102,0.7682467570979412,7.783549597167968,-0.4095682283727134,3.3602830840320124,2.0528653772865857,-8.950024116330031,20.28972346608232,1.5348108803353655,0.1099749309260671,-1.1351050400152438,2.832552281821646,-0.4407385149572604,0.5112566773504262,0.2254408785658761,-2.861702900464919,10.631235951548453,-1.6726212489433638,29.67403480396561,37.91676400994399,38.58768382903526,1577399075.0,-27.71375333695652,-51.10300498344756,21.42445
6984,1577399075.24,-0.2228359398818594,0.0913592316418155,9.972317075850324,-0.0989214051781628,0.40613835478992,11.4422693024426,0.6555148960020485,1.524814481707316,8.571241943359375,-1.0962137361852131,-4.070747189405488,2.0223477991615857,-0.2677731397675304,4.863087723894816,1.3974817787728655,-2.621348311261433,0.1161156631097561,1.4745200552591462,0.7933293269230788,0.3067540064102577,0.0751469595219556,-1.526309127571147,20.071040287837164,-18.11828953798605,29.67403480396561,37.70111121095037,38.41995387426245,1577399075.0,-27.71375333695652,-51.10300498344756,21.42445
6985,1577399075.25,0.4283869116806396,0.0255186859875182,11.909226218916729,1.4333676573218364,0.6814715457078883,9.63344994819455,-0.5571482448670915,0.1385717204768475,9.303867651367186,0.4754415372522865,-4.818427853467988,1.6866544397865857,0.5714602586699695,-16.056712080792682,2.4808558022103657,0.0794573528010671,10.278469178734756,-6.963590296303353,1.3222155448717956,-0.3067540064102557,0.2254408785658761,-9.230503971189066,16.680042613636363,-31.02408303835588,29.72195764818641,37.43753556773595,38.39599245215204,1577399075.0,-27.71375333695652,-51.10300498344756,21.42445
6986,1577399075.26,0.739633127500952,0.5546372528820495,10.429609592940167,0.6744057310523054,-1.0686898678663297,11.536840268018771,-1.3639942043397475,-1.5541288532536202,14.808137268066403,-0.8368143221227134,2.3532030059070124,2.7242520960365857,0.5409426805449695,-13.798411299542684,1.8094690834603653,-0.5003766315739329,-0.0059546493902439,-0.4938637338033537,0.4407385149572675,-0.1022513354700852,0.6763226356976285,-9.230503971189066,16.680042613636363,-31.02408303835588,29.86572618084883,37.62922694461916,38.39599245215204,1577399075.0,-27.71375333695652,-51.10300498344756,21.42445
6987,1577399075.27,0.3266333411239989,-0.4892346709460745,8.50586855900462,0.5546956480444929,0.3007934817430445,11.318967916944551,0.0916804050352512,-0.9531842365544017,10.225635290527345,-1.2488016268102131,2.0938035918445124,2.6784757288490857,4.660815727419969,-4.521067549542683,2.7555140053353657,1.5443011028010671,-3.423923399390244,0.2995932974466463,0.6170339209401732,-0.3067540064102578,0.0751469595219556,-15.804750237743024,14.847070897852149,-27.48420824968301,29.76988049240722,37.725072633060776,38.15637823104801,1577399075.0,-27.71375333695652,-51.10300498344756,21.42445
6988,1577399075.28,0.4595115332626708,-0.245026101610137,8.030619529463605,0.7605969908179308,-0.4773220578077362,9.778299148634003,-0.3632179103944357,2.0910431743342697,8.10796392211914,-0.1349100252477134,-4.086005978467988,1.9613126429115848,0.5104251024199695,-6.092722822980184,1.6263636147103655,0.1862688762385671,-13.342136290015244,5.624910680259147,-0.2644431089743548,-0.5112566773504303,0.3757347976097936,-5.224322652507749,15.12201665521978,-1.45137907465131,29.86572618084883,37.55734267828795,38.46787671848324,1577399075.0,-27.71375333695652,-51.10300498344756,21.42445
6989,1577399075.29,0.0333436377548583,0.3176112885265807,9.03618422672923,1.0311417784155863,-0.3408525631788294,9.53049927680783,2.2608271091368137,-1.6068012897770576,9.07163009033203,3.5882345060022867,-6.130683712842988,1.2594083460365857,0.6935305711699695,-2.415354658917683,2.0230921303353657,-10.174448897198932,-7.269138243140244,4.388948766196647,-0.2644431089743548,-0.5112566773504303,0.3757347976097936,-2.861702900464919,13.563990696803195,-3.737548209002536,29.72195764818641,37.58130410039836,38.44391529637284,1577399075.0,-27.71375333695652,-51.10300498344756,21.42445
6990,1577399075.3,-0.4311314843154532,0.0087592743664244,9.711349094893292,-1.054207867580506,1.318329187309451,11.345304135206272,-1.6776346218202165,0.3205310466487225,9.4618849609375,-1.6607889314977131,-1.064765744092988,2.9073575647865857,-0.8323483350800305,-2.598460127667683,2.3893030678353657,2.948109696551067,-15.203708555640244,5.212923375571647,0.0881477029914492,-0.5112566773504303,0.6763226356976285,-2.861702900464919,13.563990696803195,-3.737548209002536,29.817803336628028,37.58130410039836,38.39599245215204,1577399075.0,-27.71375333695652,-51.10300498344756,21.42445
6991,1577399075.31,-0.7184356835342036,-0.484446267625762,9.876549009444073,-0.2234198915062874,0.209813818657107,11.414735983350802,-1.443002859124904,0.00928483082841,9.363722692871091,-2.1795877596227133,-3.078925900342988,2.6784757288490857,3.9283938524199695,-9.800608565167684,2.3587854897103657,-5.352671553448933,-5.499118711890244,3.473421422446646,0.440738514957264,0.7157593482905988,0.5260287166537111,-2.861702900464919,8.065075549450551,-3.737548209002536,29.76988049240722,37.725072633060776,38.44391529637284,1577399075.0,-27.71375333695652,-51.10300498344756,21.42445
6992,1577399075.32,-0.4502850975967032,-0.1181334136218558,11.90204361393626,1.0395214842261336,0.2110109194871856,10.178130825880098,-1.2969565578553728,-1.256050746564167,8.01818135986328,-0.1043924471227134,-4.391181759717988,2.7547696741615857,0.5714602586699691,-0.2028302448551828,2.0536097084603657,1.8799944621760671,-4.553073790015244,2.451082555259146,0.7933293269230788,-1.3292673611111123,0.6763226356976285,-3.2725932921245406,13.93058503996004,-3.737548209002536,29.5302662713032,37.653188366729566,38.32410818582083,1577399075.0,-27.71375333695652,-51.10300498344756,21.42445
6993,1577399075.33,1.132282199766577,0.0446722992687682,9.36897825749095,-0.6855008119164436,0.2816398684617945,10.485785739210176,-1.2251305080506851,-1.4320245685856514,10.345345373535157,0.5975118497522866,-2.804267697217988,3.5787442835365857,-4.524975288205031,2.040211747332317,2.9081018959603657,-1.5684918659489329,5.883937928734756,2.100130406821646,0.7933293269230788,-1.3292673611111123,0.6763226356976285,-3.2725932921245406,19.79609453046953,-38.25132739856297,29.62611195974481,37.772995477281576,38.44391529637284,1577399075.0,-27.71375333695652,-51.10300498344756,21.42445
6994,1577399075.34,0.7276621192001708,0.1164983490734557,9.775992539717512,0.6265216978491803,-0.2570555050733607,8.948708273389862,2.083656186285251,2.6045994304377857,10.3812583984375,0.0787130216272865,-0.6985548065929879,3.0599454554115857,1.1818118211699695,3.535573075457317,1.5042933022103655,1.4832659465510671,1.4894066787347562,0.9404624380716464,1.4985109508547012,1.1247646901709418,0.3757347976097936,-2.450812508805297,20.529283216783217,-37.07136913567202,29.72195764818641,37.62922694461916,38.44391529637284,1577399075.0,-27.71375333695652,-51.10300498344756,21.42445
6995,1577399075.35,1.4662733313583738,0.1045273407726744,9.675436069990948,2.8890422666968365,-0.4438032345655481,7.806674081495331,0.6231931735899388,0.0356210490901287,9.299079248046874,0.9789815763147868,1.346122927782012,3.1209806116615857,-1.9614987257050305,4.023854325457317,1.9010218178353653,2.246205399676067,-8.123630430640244,3.015657750571646,-1.1459201388888864,0.1022513354700851,-0.2254408785658793,-7.9978327962102,20.71258038836164,-32.20404130124683,29.76988049240722,37.62922694461916,38.39599245215204,1577399075.0,-27.71375333695652,-51.10300498344756,21.42445
6996,1577399075.36,0.6318940527939207,0.5354836396007995,8.772822044112042,1.1460634581030864,0.6683034365770294,9.847730996778536,0.6243902744200169,-0.4767381061833082,9.679757312011718,0.0787130216272865,-2.468574337842988,2.2970060022865857,2.021045219607469,-4.444773604230183,2.0993860756478657,0.4914446574885671,-0.3111304306402439,2.267977086509146,-0.6170339209401661,1.5337700320512828,0.0751469595219524,-8.511445785784726,14.022233625749251,-0.123926028898985,29.67403480396561,37.67714978883997,38.34806960793124,1577399075.0,-27.71375333695652,-51.10300498344756,21.42445
6997,1577399075.37,0.6678070776962646,-0.4796578643054495,7.262080796553448,-0.6711356019555061,-0.2714207150342982,7.4331786225109555,-1.5986259670350602,2.049144645281535,11.49216796875,1.0247579435022869,0.3695604277820121,2.4190763147865857,0.7240481492949695,-2.964671065167683,3.2437952553353657,-0.6224469440739329,-11.419528868140244,3.961702672446646,-0.6170339209401661,1.5337700320512828,0.0751469595219524,1.6580914077909268,13.563990696803195,-1.6726212489433638,29.67403480396561,37.725072633060776,38.635606673256056,1577399075.0,-27.71375333695652,-51.10300498344756,21.42445
6998,1577399075.38,0.4451463233017333,0.1859301972179869,9.62994623844798,0.6360985044898053,-0.0703077755811732,11.374034555128146,1.4276449314024386,0.52643238942216,10.299855541992187,1.6045919278772869,-1.247871212842988,2.1749356897865857,-2.0225338819550305,-5.375559737042683,2.4808558022103657,-7.702525069073933,-9.893649961890244,4.785677281821647,-0.6170339209401661,1.5337700320512828,0.0751469595219524,1.6580914077909268,13.563990696803195,-1.6726212489433638,29.67403480396561,37.43753556773595,38.25222391948962,1577399075.0,-27.71375333695652,-51.10300498344756,21.42445
6999,1577399075.39,-0.7268153893447501,-0.532330300828887,10.615160221602276,-1.1894802613793345,0.0314457949754669,10.871252206495331,-0.5715134548280294,-0.9256509174626044,10.019733947753906,0.2923360685022865,-1.522529415967988,2.8005460413490857,0.3425784227324695,0.8042498332698171,2.1756800209603657,-3.399546553448933,-19.003147032202744,5.273958531821647,0.1762954059829055,0.2045026709401705,0.3005878380878318,-5.532490446252465,11.364424637862138,-2.7050847289729503,29.91364902506964,37.50941983406716,38.30014676371043,1577399075.0,-27.71375333695652,-51.10300498344756,21.42445
7000,1577399075.4,-0.5604183739638907,0.1931128021984557,10.654664548994852,-0.3527067811547249,-0.8316639035108607,10.27270179145627,1.5904506442930637,1.1178001994807536,9.172186560058591,-1.2030252596227131,-4.726875119092988,2.5716642054115857,2.677173149294969,-6.626780440167683,3.1827600990853657,-2.911265303448933,-14.227146055640244,4.053255406821647,-0.4407385149572604,0.1022513354700852,1.127204392829393,-3.067148096294731,11.54772180944056,-3.8850429918639056,29.72195764818641,37.58130410039836,38.39599245215204,1577399075.0,-27.71375333695652,-51.10300498344756,21.42445
7001,1577399075.41,-0.5771777855849844,-0.0750377837390433,11.150264292647195,-0.2473619081078499,1.189042297661013,10.208058346632052,3.1323165134336888,-0.4264598713200264,6.655880615234374,0.9332052091272866,-2.254951290967988,3.1514981897865857,2.036304008669969,2.192799637957317,1.1380823647103655,5.053822587176067,-14.288181211890244,3.931185094321646,-0.4407385149572604,0.1022513354700852,1.127204392829393,-3.067148096294731,11.54772180944056,-3.8850429918639056,30.05741755773205,37.62922694461916,38.39599245215204,1577399075.0,-27.71375333695652,-51.10300498344756,21.42445
7002,1577399075.42,1.2783285010361085,-0.0546870696277156,9.142726200606184,1.0909968199194928,-0.0607309689405482,7.37332358100705,-1.6560868068788102,-2.923612202862995,8.360552197265624,0.9789815763147868,-3.475654415967988,2.6174405725990857,-3.0906491163300305,14.186207841082316,2.6639612709603657,0.8118792278010671,4.113918397484756,1.4897788443216462,0.3525908119658147,0.818010683760684,-3.219646771412954e-15,-3.2725932921245406,17.596528471528472,0.6872952768385466,29.841764758738428,37.43753556773595,38.10845538682721,1577399075.0,-27.71375333695652,-51.10300498344756,21.42445
7003,1577399075.43,1.5704211035751707,-0.6304925688952933,9.5413607770222,1.600961773532774,-0.6784349972608608,8.624293948438691,0.4663729648497048,-0.3163265949528395,10.600327850341795,0.3838888028772865,-3.536689572217988,2.4495938929115857,0.8308596727324695,-2.216990401105183,2.2519739662728657,1.9410296184260671,2.633815858422256,0.6810630240091463,0.0881477029914492,-0.1022513354700852,0.6763226356976285,-8.511445785784726,7.056941105769232,-13.398456486422232,29.96157186929044,37.50941983406716,38.276185341600026,1577399075.0,-27.71375333695652,-51.10300498344756,21.42445
7004,1577399075.44,1.910397739317358,0.482811203077362,9.809511362959698,0.5499072447241804,1.8929375857469508,9.860899105909397,0.9248625827696264,-0.6730626423161202,8.298302954101562,2.0623555997522867,-0.0271680878429878,2.4190763147865857,-2.2056393507050305,2.375905106707317,3.2437952553353657,1.4527483684260671,1.3673363662347562,0.6352866568216463,0.2644431089743619,0.1022513354700852,1.7283800690050692,-13.955743475274724,16.496745442057946,1.2772744082840235,29.72195764818641,37.725072633060776,38.25222391948962,1577399075.0,-27.71375333695652,-51.10300498344756,21.42445
7005,1577399075.45,1.0125721167587645,1.787651107862518,9.71853169987376,1.8355935362280864,-0.2594497067335169,10.083559860303929,-2.6496804958436546,0.29658903004716,11.23598839111328,-0.1349100252477134,-0.4849317597179878,2.1139005335365857,-1.1680416944550305,3.871266434832317,0.4666956459603658,-2.331431319073933,2.710109803734756,0.5437339224466463,-0.2644431089743548,-0.1022513354700852,-0.5260287166537173,0.0145298411524369,15.030368069430567,1.2772744082840235,29.86572618084883,37.58130410039836,38.39599245215204,1577399075.0,-27.71375333695652,-51.10300498344756,21.42445
7006,1577399075.46,-0.5065488366103751,-0.7765388701648245,10.228496653487042,-0.5801559388695686,-0.1277686154249232,10.53606397407346,0.3478599826719699,1.9485881755549723,14.528015673828124,-1.8591531893102131,2.5820848418445124,2.6937345179115857,-0.8933834913300305,3.047291825457317,2.0536097084603657,-1.7515973346989329,-9.832614805640244,3.564974156821646,-0.2644431089743548,0.1022513354700852,-0.3757347976097999,0.4254202328120589,12.83080201048951,-3.4425586432797965,29.74591907029682,37.58130410039836,38.39599245215204,1577399075.0,-27.71375333695652,-51.10300498344756,21.42445
7007,1577399075.47,-0.955461647889672,-0.0223653472156058,10.920420933272196,-0.3646777894555061,-0.1098121029737518,13.467763906934788,-0.0423948879334982,0.5527686076838791,12.879607830810546,-0.5926736971227134,-3.689277462842988,2.7242520960365857,0.0984377977324695,-0.1723126667301837,2.2824915443978657,-9.457285811261432,-27.212375547827744,6.403108922446647,-0.9696247329059772,-0.1022513354700852,0.3757347976097936,-2.7589803025500137,14.205530797327672,-17.380815623679204,29.86572618084883,37.60526552250876,38.34806960793124,1577399075.0,-27.71375333695652,-51.10300498344756,21.42445
7008,1577399075.48,-1.465426601502953,-0.1181334136218558,9.98668228581126,0.3320348936499616,0.3223412966844508,9.312626925733612,0.27124552954697,-0.4168830646794014,9.58877764892578,1.9402852872522869,-1.949775509717988,3.0904630335365857,7.529468071169969,-14.561350752667684,1.6263636147103655,-7.214243819073933,-28.600925352515244,9.424349156821648,-0.6170339209401661,1.1247646901709418,-0.2254408785658824,-3.2725932921245406,13.563990696803195,-31.171577821217245,29.62611195974481,37.58130410039836,38.30014676371043,1577399075.0,-27.71375333695652,-51.10300498344756,21.42445
7009,1577399075.49,-0.1605866967177969,-0.1827768584460745,10.00583589909251,-0.9943528260766,0.573732471000857,9.504163058546112,0.2688513278868137,-0.4815265095036202,5.329492895507812,-0.4400858064977134,-7.442939572217988,2.0833829554115857,-1.6563229444550305,-2.934153487042683,1.5653284584603655,-2.636607100323933,-22.527927305640244,6.616731969321647,-0.6170339209401661,-0.1022513354700852,0.6763226356976285,-2.2453673129754868,19.612797358891108,-3.5900534261411665,29.5302662713032,37.58130410039836,38.39599245215204,1577399075.0,-27.71375333695652,-51.10300498344756,21.42445
7010,1577399075.5,0.3398014502548588,-0.0630667754382625,9.96154316837962,1.284927154392149,-0.4461974362257049,9.287487808301972,2.107598202886813,-1.3218912922184638,6.946776116943359,1.6503682950647869,-4.696357540967988,2.8158048304115857,1.9447512742949693,-7.404978682355184,1.5042933022103655,3.894154618426067,-1.2571753525152438,1.9322837271341464,-0.0881477029914492,0.3067540064102557,-0.0751469595219649,-3.2725932921245406,8.065075549450551,-36.48139000422654,29.67403480396561,37.725072633060776,38.44391529637284,1577399075.0,-27.71375333695652,-51.10300498344756,21.42445
7011,1577399075.51,1.7236500098251708,-0.532330300828887,8.734514817549542,1.7877095030249617,-1.0710840695264856,8.685346090772674,-1.0862668117616228,0.14336012379716,12.92150635986328,0.1702657560022865,-3.292548947217988,2.5716642054115857,2.127856743044969,-7.267649580792683,1.9010218178353653,3.680531571551067,-4.217380430640244,-0.2192055306783537,0.2644431089743619,-0.3067540064102557,-0.0751469595219649,-13.133962691955478,23.09544361888112,-31.171577821217245,29.67403480396561,37.62922694461916,38.58768382903526,1577399075.0,-27.71375333695652,-51.10300498344756,21.42445
7012,1577399075.52,1.9295513525986083,-0.3575535796374808,9.70656069157298,0.7318665708960553,-0.8268755001905482,12.518462948682831,0.7955756931211887,1.2063856609065349,14.259865087890624,0.5975118497522866,-6.985175900342988,2.4495938929115857,-3.5789303663300305,1.4603777629573171,2.6334436928353657,-2.850230147198933,-16.454929258765244,0.4826987661966463,0.7933293269230788,0.7157593482905967,0.9769104737854758,-13.133962691955478,23.09544361888112,-31.171577821217245,29.817803336628028,37.43753556773595,38.68352951747686,1577399075.0,-27.71375333695652,-51.10300498344756,21.42445
7013,1577399075.53,0.7611809424423583,1.033477584913299,13.130269065596416,0.1524697691382428,0.1164399539110133,11.728376400831271,2.514612485113376,0.2630702068049725,14.087482568359372,3.5577169278772867,-1.583564572217988,2.0528653772865857,8.261889946169969,-11.082346846417684,1.5653284584603655,-6.603892256573933,-7.452243711890244,1.7034018911966462,0.6170339209401732,0.5112566773504262,1.7283800690050692,-13.133962691955478,20.162688873626376,-32.3515360841082,29.86572618084883,37.725072633060776,38.44391529637284,1577399075.0,-27.71375333695652,-51.10300498344756,21.42445
7014,1577399075.54,0.1710102332138427,-0.5909882415027151,12.639457725264386,0.9856519468726178,-0.4485916378858606,11.603877914503146,-0.8923364772889665,1.8743679240901283,14.604630126953124,-1.8591531893102136,2.0175096465320124,2.7547696741615857,1.6395754930449695,-1.1946515339176829,1.3211878334603655,-9.686167647198932,-26.952976133765244,5.640169469321647,1.14592013888889,0.3067540064102557,1.7283800690050692,-13.133962691955478,20.162688873626376,-31.171577821217245,29.76988049240722,37.62922694461916,38.30014676371043,1577399075.0,-27.71375333695652,-51.10300498344756,21.42445
7015,1577399075.55,0.4379637183212646,-0.2689681182116995,11.88289000065501,-0.0342779603539441,0.3031876834032013,12.279042782667208,-0.0842934169862326,-0.1068339496891671,10.274716424560546,-0.6231912752477134,-3.963935665967988,1.5645841272865857,0.3730960008574693,0.0565691692073171,1.5958460365853655,-5.154307295636433,-25.076145079077744,8.051058141196647,-0.0881477029914563,1.738272702991453,-0.9769104737854758,-6.148826033741899,12.280910495754243,-3.2950638604184275,29.86572618084883,37.70111121095037,38.37203103004163,1577399075.0,-27.71375333695652,-51.10300498344756,21.42445
7016,1577399075.56,0.1339001074814208,-0.1612290435046683,11.988234873701884,-0.5250893006859749,-0.5659075192335169,8.872093820264862,0.1299876315977512,-0.8981175983708077,8.738836059570312,5.846535287252286,-2.285468869092988,2.5411466272865857,2.280444633669969,1.7350359660823171,2.8165491615853657,-3.002818037823933,-20.452731993140244,3.107210484946646,1.14592013888889,2.351780715811969,0.6763226356976285,0.0145298411524369,10.631235951548453,-4.032537774725275,29.72195764818641,37.58130410039836,38.25222391948962,1577399075.0,-27.71375333695652,-51.10300498344756,21.42445
7017,1577399075.57,0.5217607764267334,0.3271880951672057,9.639523045088604,0.1548639707983991,-0.671252392280392,10.840127584913304,1.5689028293516574,2.499254557390911,10.275913525390624,3.5271993497522867,-6.924140744092988,1.9002774866615848,0.5409426805449695,1.2162371379573171,2.4808558022103657,0.2015276653010671,-1.5013159775152438,2.130647984946646,1.3222155448717956,0.9202620192307712,-0.3757347976097998,-10.668620341997745,12.097613324175825,-2.852579511834319,29.86572618084883,37.725072633060776,38.39599245215204,1577399075.0,-27.71375333695652,-51.10300498344756,21.42445
7018,1577399075.58,0.3793057776474364,-0.7166838286609182,10.121954679610088,-0.0917388001976941,-0.0571396664503143,10.9059681305676,2.1626648410704075,0.8149336894709881,10.524910498046877,3.130470834127286,-0.7443311737804881,2.4953702600990857,1.8989749071074693,-0.157053877667683,1.6568811928353655,2.246205399676067,-12.640231993140244,0.8031333365091462,1.3222155448717956,0.9202620192307712,-0.3757347976097998,-2.861702900464919,20.16268887362637,-38.25132739856298,29.79384191451762,37.60526552250876,38.49183814059365,1577399075.0,-27.71375333695652,-51.10300498344756,21.42445
7019,1577399075.59,0.9814474951767332,-0.4245912261218558,11.114351267744857,1.275350347751524,-2.2586080929639856,12.709999081495331,2.437998031988376,-0.6467264240544015,11.207257971191405,3.618752084127287,-1.888740353467988,2.5411466272865857,7.346362602419969,-7.908518721417683,2.6029261147103657,-0.5919293659489329,-12.487644102515244,2.130647984946646,0.2644431089743619,0.9202620192307712,0.8266165547415459,-9.8468395586785,19.429500187312687,-37.07136913567202,29.67403480396561,37.725072633060776,38.15637823104801,1577399075.0,-27.71375333695652,-51.10300498344756,21.42445
7020,1577399075.6,-0.2587489647842032,-0.4317738311023245,11.43038588688548,0.1093741392554303,-0.2402960934522669,12.860833786085175,3.024577438726657,-0.919665413312214,10.180145458984374,4.229103646627286,-2.315986447217988,1.8392423304115848,7.285327446169969,-13.188059737042684,1.1991175209603655,-1.4769391315739329,-0.4942358993902439,1.4287436880716462,0.6170339209401732,1.3292673611111123,1.4277922309172282,-9.8468395586785,21.2624719030969,-32.05654651838546,29.67403480396561,37.62922694461916,38.44391529637284,1577399075.0,-27.71375333695652,-51.10300498344756,21.42445
7021,1577399075.61,0.5241549780868896,0.5522430512218931,12.316240501143293,0.8419998472632428,0.238544238578982,11.369246151807834,1.7795925754454074,-0.8310799518864328,11.84890401611328,3.984963021627286,-3.399360470655488,1.8239835413490852,4.691333305544969,-4.002268721417683,2.4808558022103657,-0.6529645221989329,3.717189881859756,0.7573569693216463,-1.1459201388888864,0.5112566773504283,1.127204392829393,-13.133962691955478,13.563990696803195,-0.4926629860524088,29.69799622607601,37.58130410039836,38.15637823104801,1577399075.0,-27.71375333695652,-51.10300498344756,21.42445
7022,1577399075.62,0.6678070776962646,-0.4150144194812308,11.095197654463604,0.3045015745581652,0.0577820132371856,10.864069601514863,0.8961321628477511,1.4900985576350505,9.713276135253906,4.961525521627286,1.925956912157012,2.2970060022865857,1.5175051805449693,6.968800614519817,1.3211878334603655,4.245106766863567,1.5199242568597562,3.427645055259146,-0.4407385149572604,-0.3067540064102557,1.127204392829393,-12.004014114891516,12.189261909965037,-3.368811251849112,29.67403480396561,37.58130410039836,38.44391529637284,1577399075.0,-27.71375333695652,-51.10300498344756,21.42445
7023,1577399075.63,1.1490416113876707,-1.585779031297637,11.073649839522195,1.8547471495093364,-1.4302143185499232,7.914413156202362,-2.125350332269435,-3.71848715403487,10.97980881347656,1.7266622403772869,-1.003730587842988,2.4190763147865857,5.240649711794969,-9.403880049542684,2.6944788490853657,3.009144852801067,5.670314881859756,2.069612828696646,0.4407385149572675,1.1247646901709418,0.6763226356976285,-12.106736712806422,10.081344436813186,-3.8850429918639056,29.62611195974481,37.53338125617755,38.39599245215204,1577399075.0,-27.71375333695652,-51.10300498344756,21.42445
7024,1577399075.64,1.2735400977157958,0.4923880097179869,9.840635984541729,1.6775762266577738,1.5721145632860134,13.016456893995334,2.1171750095274384,0.4186933147151287,11.02529864501953,7.463966927877286,1.071464724657012,2.6632169397865857,0.3883547899199695,-0.7979230182926829,2.4503382240853657,6.457631180926067,-7.604831602515244,0.6963218130716463,1.8511017628205124,1.1247646901709418,0.9769104737854758,-8.614168383699631,13.563990696803195,-4.032537774725275,29.817803336628028,37.58130410039836,38.44391529637284,1577399075.0,-27.71375333695652,-51.10300498344756,21.42445
7025,1577399075.65,0.6725954810165771,1.0382659882336118,11.399261265303448,0.5499072447241804,2.115598340141482,12.482549923780487,2.58883273657822,0.2080035686213787,8.748412866210938,3.527199349752286,-1.644599728467988,2.4343351038490857,1.8226809617949693,-1.1946515339176829,1.2601526772103655,3.375355790301067,6.585842225609756,-6.872037561928353,0.1762954059829055,1.2270160256410272,-0.1502939190439236,-2.0399221171456747,13.563990696803195,-32.3515360841082,29.76988049240722,37.58130410039836,38.49183814059364,1577399075.0,-27.71375333695652,-51.10300498344756,21.42445
7026,1577399075.66,1.1203111914657955,0.0015766693859557,9.067308848311262,1.3184459776343365,-1.1189681027296108,7.139888919141815,0.0126717502500954,0.2439165935237225,9.957484704589843,2.3064962247522867,2.4752733184070124,2.4495938929115857,1.3496585008574695,3.581349442644817,1.7179163490853655,4.733388016863567,8.325344178734756,0.8794272818216462,0.2644431089743619,0.1022513354700852,-0.0751469595219649,-2.656257704635109,21.07917473151848,-3.737548209002536,29.817803336628028,37.74903405517118,38.44391529637284,1577399075.0,-27.71375333695652,-51.10300498344756,21.42445
7027,1577399075.67,0.835401193907202,1.0669964081554868,10.23567925846751,0.7007419493140241,2.575285058891482,12.487338327100804,1.0613320773985324,-1.1327493610661203,9.509768994140623,3.1304708341272867,-1.980293087842988,1.6866544397865857,-0.4356198194550305,0.056569169207317,1.1075647865853655,10.058705399676068,6.738430116234756,1.1235679068216462,-0.6170339209401661,1.1247646901709418,1.8786739880489869,-2.450812508805297,16.1301510989011,-37.07136913567202,29.67403480396561,37.772995477281576,38.25222391948962,1577399075.0,-27.71375333695652,-51.10300498344756,21.42445
7028,1577399075.68,1.2208676611923583,-0.2282666899890433,10.276380686690167,1.9217847959937115,0.3007934817430445,10.67492767036252,-0.8707886623475602,-3.356962703351276,10.065223779296874,4.259621224752286,-3.750312619092988,1.7782071741615857,6.766528618044969,-4.978831221417683,2.1146448647103657,6.427113602801067,7.898098084984756,-0.0361000619283536,-0.0881477029914563,1.738272702991453,1.127204392829393,-9.8468395586785,20.895877559940057,-32.3515360841082,29.67403480396561,37.58130410039836,38.44391529637284,1577399075.0,-27.71375333695652,-51.10300498344756,21.42445
7029,1577399075.69,1.4435284155868895,0.4325329682140807,11.182586015059307,2.357529498142149,-2.117350195014767,10.75872472846799,0.65431779517197,-1.894105488995808,10.66137999267578,1.3909688810022869,-0.729072384717988,1.8087247522865857,0.0831790086699695,3.230397294207317,1.8094690834603653,4.199330399676067,8.508449647484756,-0.4633461556783537,0.8814770299145316,0.818010683760684,0.3005878380878318,-16.215640629402646,10.814533123126871,-3.8850429918639056,29.602150537634408,37.725072633060776,38.58768382903526,1577399075.0,-27.71375333695652,-51.10300498344756,21.42445
7030,1577399075.7,1.4507110205673583,0.4684459931164244,10.961122361494857,0.930585308689024,1.472755194389529,10.567188595655487,1.106821908941501,0.4929135661799724,9.10514891357422,3.649269662252287,-0.4544141815929878,1.2288907679115857,1.8989749071074693,-6.809885908917683,1.9162806068978653,5.023305009051067,5.441433045922256,0.7268393911966462,1.3222155448717956,0.5112566773504262,-0.0751469595219649,-6.148826033741899,15.03036806943057,-1.9676108146661029,29.72195764818641,37.74903405517118,38.41995387426245,1577399075.0,-27.71375333695652,-51.10300498344756,21.42445
7031,1577399075.71,1.2735400977157958,-0.273756521532012,11.13589908268626,1.8355935362280864,-1.911448852241329,8.165804330518768,0.9655640109922824,-0.1487324787419014,9.33978067626953,-3.888572134622713,-1.217353634717988,1.4425138147865857,9.787768852419967,-5.711253096417683,0.9244593178353658,3.711049149676067,11.560207459984756,1.8254722036966464,0.2644431089743619,1.3292673611111123,-0.6763226356976347,0.0145298411524369,13.563990696803195,-2.2626003803888417,29.72195764818641,37.725072633060776,38.0605325426064,1577399075.0,-27.71375333695652,-51.10300498344756,21.42445
7032,1577399075.72,1.3094531226181396,0.6456169159679869,10.594809507490949,2.072619500583555,0.9879293582078882,9.55683549506955,1.09485090064072,0.4737599528987224,9.14824454345703,1.6961446622522869,4.062187380907012,1.7782071741615857,2.555102836794969,-10.197337080792684,2.3587854897103657,4.565541337176067,8.691555116234756,1.6423667349466462,-0.2644431089743548,2.351780715811969,0.9769104737854758,-11.901291516976611,10.997830294705292,-3.4425586432797965,29.72195764818641,37.58130410039836,38.39599245215204,1577399075.0,-27.71375333695652,-51.10300498344756,21.42445
7033,1577399075.73,1.035317032530249,0.8527153595715025,9.050549436690169,0.1788059873999616,1.5936623782274195,9.631055746534392,1.3318768649961883,-1.602012886456745,9.284714038085935,1.7266622403772869,0.8731004668445121,1.5951017054115857,-1.3816647413300305,-5.284007002667683,1.4737757240853655,3.466908524676067,3.503566834984756,0.6963218130716463,0.8814770299145316,1.8405240384615384,-0.300587838087841,-11.901291516976611,10.997830294705292,-3.4425586432797965,29.721957648186415,37.58130410039836,38.39599245215204,1577399075.0,-27.71375333695652,-51.10300498344756,21.42445
7034,1577399075.74,0.3733202734970458,0.1380461640148619,7.695431297041729,0.7234868650855084,-0.045168658149533,8.564438906934784,0.3346918735411111,-1.1459174701969794,9.18176336669922,-2.9730447908727133,2.9025194121570124,1.7171720179115857,2.875537407107469,-3.590281416730183,1.1533411537728655,0.2473040324885671,9.942775819359756,-0.5396401009908536,1.4985109508547012,2.7607860576923056,-0.2254408785658824,-4.71070966293322,8.248372721028971,-3.8850429918639056,29.72195764818641,37.55734267828796,38.515799562704046,1577399075.0,-27.71375333695652,-51.10300498344756,21.42445
7035,1577399075.75,0.8306127905868895,0.3463417084484557,9.917250437666729,0.6145506895483991,0.1954486086961695,7.976662399366424,1.9064852634336888,-0.8119263386051827,7.113173132324218,0.5669942716272866,-1.492011837842988,0.8626798304115855,-3.3653073194550305,1.4298601848323171,0.2835901772103658,5.481068680926067,9.698635194359756,-0.4633461556783537,1.4985109508547012,2.7607860576923056,-0.2254408785658824,-1.0126961379966188,21.07917473151848,-29.25414564401944,29.67403480396561,37.58130410039836,38.30014676371043,1577399075.0,-27.71375333695652,-51.10300498344756,21.42445
7036,1577399075.76,0.854554807188452,0.1404403656750182,10.039354722334698,0.928191107028868,-0.709559618842892,10.27988439643674,2.8019166843321264,-1.4607549885075264,9.074024291992188,-1.935447134622713,-3.353584103467988,0.3743985804115854,-1.0459713819550305,4.512135575457317,1.7179163490853655,2.124135087176067,13.330226991234756,-1.0431801400533538,0.6170339209401732,-0.7157593482906008,0.526028716653711,-8.203277992040011,17.963122814685313,-32.05654651838546,29.67403480396561,37.62922694461916,38.44391529637284,1577399075.0,-27.71375333695652,-51.10300498344756,21.42445
7037,1577399075.77,1.2065024512314209,0.1224838532238463,9.900491026045636,1.0694490049780865,0.859839569389529,10.486982840040255,2.2883604282286107,-0.0565557148258863,9.035717065429688,-2.362693228372714,-0.011909298780488,0.8931974085365855,0.5104251024199695,-6.825144697980184,0.5887659584603658,8.715931962176068,13.177639100609756,-1.2262856088033538,-0.3525908119658112,-0.2045026709401725,0.300587838087838,-9.949562156593403,16.954988371004,-15.315888663620036,29.65007338185521,37.84487974361278,38.22826249737922,1577399075.0,-27.71375333695652,-51.10300498344756,21.42445
7038,1577399075.78,1.4914124487900144,1.3040223725109557,9.529389768721416,2.3814715147437115,-0.5730901242139856,8.326215841749237,0.4555990573790012,-0.9603668415348704,10.26633671875,0.3838888028772865,3.4213182402820124,1.2594083460365857,-8.217602241330031,8.601491044207316,0.9244593178353658,1.5748186809260671,20.07461175685976,-2.660611780678354,0.9696247329059844,1.738272702991453,-0.3757347976097998,-2.0399221171456747,19.429500187312687,1.5722639740067632,29.86572618084883,37.58130410039836,38.39599245215204,1577399075.0,-27.71375333695652,-51.10300498344756,21.42445
7039,1577399075.79,1.3357893408798582,-0.1708058501452933,8.420874400069073,-0.3455241761742561,-0.7837798703077357,9.815409274366427,2.533766098394626,0.9142930583674724,10.43871923828125,-4.285300650247714,-1.339423947217988,-0.0223299352134145,1.0597415086699695,-15.721018721417684,-0.3877965415396341,5.725209305926067,12.079006288109756,-1.9587074838033536,0.9696247329059844,1.738272702991453,-0.3757347976097998,-2.0399221171456747,19.79609453046953,-3.147569077557058,29.817803336628028,37.725072633060776,38.30014676371043,1577399075.0,-27.71375333695652,-51.10300498344756,21.42445
7040,1577399075.8,1.8768789160751709,-0.7597794585437307,10.15906480534251,1.2059184996069927,0.305581885063357,8.536905587842988,1.8035345920469696,-1.408082551984089,9.66539210205078,-3.2171854158727133,0.5221483184070121,0.1912931116615854,-1.0459713819550305,-12.333567549542684,0.6192835365853658,-1.6600446003239329,7.135158631859756,0.7878745474466463,0.3525908119658112,1.8405240384615364,-0.3005878380878412,-3.2725932921245406,12.097613324175825,-4.032537774725275,29.79384191451762,37.772995477281576,38.39599245215204,1577399075.0,-27.71375333695652,-51.10300498344756,21.42445
7041,1577399075.81,1.661400766661108,0.9975645600109556,9.807117161299542,1.803271813815977,0.1739007937547638,8.374099874952362,-0.0435919887635763,-1.4739230976383857,9.354145886230468,-0.8673319002477134,1.101982302782012,0.0997403772865854,-8.843212592892531,3.321950028582317,0.4209192787728658,-4.238779951886433,14.825588319359758,0.0554526724466463,0.6170339209401732,0.5112566773504262,-0.0751469595219649,-7.48421980663567,13.83893645417083,-16.34835214364962,29.72195764818641,37.653188366729566,38.39599245215204,1577399075.0,-27.71375333695652,-51.10300498344756,21.42445
7042,1577399075.82,0.7611809424423583,0.0566433075695494,9.000271201826887,1.1077562315405869,0.4061383547899195,9.171369027784394,1.585662240972751,0.5096729778010662,10.096348400878906,-2.8509744783727133,3.665458865282013,0.3438810022865854,-0.0388913038300304,-4.063303877667683,0.5582483803353658,-1.3853863971989329,5.975490663109756,-0.6464516244283537,0.2644431089743619,2.1472780448717903,0.526028716653711,-3.2725932921245406,19.79609453046953,-28.811661295435336,29.62611195974481,37.62922694461916,38.39599245215204,1577399075.0,-27.71375333695652,-51.10300498344756,21.42445
7043,1577399075.83,1.5321138770126708,0.2816982636242369,8.229338267256573,1.83319933456793,0.8394888552782007,8.709288107374237,0.8506423313047825,-0.5868713825504952,9.871293444824218,-6.207908072122714,5.923759646532012,0.5880216272865855,-2.9380612257050305,-0.1265362995426829,0.2225550209603658,-8.587534834698932,16.839748475609756,-1.7450844369283538,0.2644431089743619,2.1472780448717903,0.526028716653711,-3.2725932921245406,19.429500187312687,-28.811661295435336,29.67403480396561,37.62922694461916,38.635606673256056,1577399075.0,-27.71375333695652,-51.10300498344756,21.42445
7044,1577399075.84,0.6187259436630614,-0.292910134813262,10.257227073408917,1.7350370665015238,0.4635991946336695,12.334109420850805,0.7740278781797825,0.4474237346370037,10.232817895507813,-4.743064322122714,-0.0729444550304878,0.0539640100990854,-5.989819038205031,4.359547684832317,-0.8150426352896342,-1.2022809284489329,11.621242616234756,-1.6535317025533538,-3.552713678800501e-15,1.840524038461539,-1.0520574333074375,-3.2725932921245406,20.529283216783217,-27.631703032544383,29.62611195974481,37.58130410039836,38.30014676371043,1577399075.0,-27.71375333695652,-51.10300498344756,21.42445
7045,1577399075.85,1.1586184180282957,0.2553620453625182,10.958728159834696,1.1652170713843366,-0.7059683163526576,11.387202664259004,1.591647745123142,-1.4619520893376043,11.707646118164062,-4.315818228372714,0.5221483184070121,0.2523282679115854,-3.502636421017531,-12.27253239329268,0.9854944740853656,-0.5461529987614329,1.6572533584222562,-1.4246498666158538,0.0881477029914492,-0.5112566773504303,-1.1272043928293995,-7.792387600380389,5.3156179757742255,-14.062183009298394,29.67403480396561,37.461496989846346,38.37203103004163,1577399075.0,-27.71375333695652,-51.10300498344756,21.42445
7046,1577399075.86,1.381279172422827,-0.024759548875762,11.06646723454173,1.045506988376524,1.2848103640672637,14.192009909132052,4.748402634039158,2.4370053142268477,11.75313594970703,-1.874411978372713,0.4305955840320121,0.0692227991615854,0.0221438524199695,-0.0349835651676829,-0.0826207602896341,0.1710100871760671,-1.1351050400152438,-1.1652504525533538,-0.2644431089743548,-1.3292673611111123,-1.1272043928293995,-9.025058775359255,16.863339785214784,-1.0826421174978862,29.4823434270824,37.43753556773595,38.25222391948962,1577399075.0,-27.71375333695652,-51.10300498344756,21.42445
7047,1577399075.87,0.3230420386337645,-0.5514839141101371,9.457563718916733,0.4038609434546491,0.3654369265672633,11.144191195753146,-0.3560353054139665,0.4402411296565349,12.485761657714844,-0.5316385408727134,2.3226854277820124,0.7711270960365855,0.8156008836699695,0.117604325457317,-0.4488316977896341,-1.8431500690739329,7.135158631859756,0.7268393911966463,-0.2644431089743548,-1.3292673611111123,-1.1272043928293995,-11.28495592948718,13.74728786838162,-0.9351473346365172,29.5302662713032,37.58130410039836,38.635606673256056,1577399075.0,-27.71375333695652,-51.10300498344756,21.42445
7048,1577399075.88,1.1203111914657955,-0.6053534514636532,9.29116670353587,1.5770197569312114,-1.2733941098096897,7.640277066114471,1.155903042974704,-0.3977294513981514,9.524134204101562,-4.010642447122714,-1.308906369092988,0.0997403772865854,-1.6258053663300305,-4.078562666730184,0.6803186928353658,-2.407725264386433,8.844143006859756,2.054354039634146,-0.0881477029914528,0.7157593482905987,-0.0751469595219618,-5.327045250422654,16.680042613636363,-3.147569077557057,29.626111959744808,37.653188366729566,38.44391529637284,1577399075.0,-27.71375333695652,-51.10300498344756,21.42445
7049,1577399075.89,1.1945314429306395,-0.6304925688952933,8.796764060713604,-1.1858889588891,1.538595740043826,9.51134566352658,0.2449093112852512,-1.2692188556950263,9.409212524414064,5.999123177877286,-1.125800900342988,0.4964688929115854,-4.341869819455031,5.946461747332317,0.7108362709603658,-9.960825850323932,10.797268006859756,0.4521811880716463,0.9696247329059844,2.1472780448717903,0.526028716653711,-0.8072509421668069,13.563990696803195,-4.032537774725275,29.62611195974481,37.62922694461916,38.25222391948962,1577399075.0,-27.71375333695652,-51.10300498344756,21.42445
7050,1577399075.9,0.864131613829077,0.1667765839367369,9.091250864912825,1.344782195896055,-0.508446679389767,8.395647689893769,-0.9785277370545914,-0.7784075153629952,8.930372192382812,-2.8204569002477133,-0.3018262909679878,0.2828458460365854,1.0902590867949695,3.230397294207317,0.1004847084603658,-6.725962569073933,11.132961366234756,-0.0666176400533536,0.9696247329059844,-1.1247646901709418,0.2254408785658761,-2.861702900464919,13.563990696803195,-1.6726212489433638,29.86572618084883,37.772995477281576,38.49183814059364,1577399075.0,-27.71375333695652,-51.10300498344756,21.42445
7051,1577399075.91,0.575630313780249,-0.6089447539538869,8.728529313399152,2.053465887302305,-1.1596695309522669,6.920819467237519,-0.159710769281154,-1.527792634991901,7.64229169921875,-2.957786001810213,2.6736375762195124,1.1831144007240857,3.073901664919969,-1.6524152057926829,-0.2046910727896341,-1.1717633503239329,7.684475038109756,0.1470054068216463,0.5288862179487168,-0.2045026709401725,-0.1502939190439206,-2.861702900464919,13.93058503996004,-3.737548209002536,29.65007338185521,37.62922694461916,38.39599245215204,1577399075.0,-27.71375333695652,-51.10300498344756,21.42445
7052,1577399075.92,1.3884617774032957,0.7413849823742369,11.080832444502668,0.1728204832495714,0.8430801577684357,10.006945407178923,0.9703524143125948,0.5156584819514574,10.29147583618164,-0.6231912752477134,-6.557929806592988,-0.3885408727134145,-7.103710639767531,10.814015458269818,0.6040247475228658,3.665272782488567,5.624538514672256,-0.8753334603658536,-0.4407385149572604,0.1022513354700852,-0.6763226356976347,-6.046103435826994,7.790129792082917,-29.91787216689561,29.817803336628028,37.67714978883997,38.80333662802887,1577399075.0,-27.71375333695652,-51.10300498344756,21.42445
7053,1577399075.93,0.481059348204077,-0.0199711455554495,10.36975455143626,2.4580859678687115,-0.3959192013624231,10.63662044380002,1.346242074957126,-0.7903785236637765,10.907982763671876,-0.4706033846227134,0.0949022246570121,0.4659513147865854,-5.715160835080031,12.324635575457316,-0.9676305259146342,1.8189593059260671,-0.7078589462652439,-1.5619789681783538,-0.6170339209401661,0.3067540064102557,0.3757347976097936,-9.8468395586785,-4.032537774725275,-32.3515360841082,29.86572618084883,37.53338125617755,38.49183814059364,1577399075.0,-27.71375333695652,-51.10300498344756,21.42445
7054,1577399075.94,0.8617374121689207,-0.3958608061999807,10.333841526533917,0.1979596006812115,1.9312448123094508,11.139402792432834,3.7548089450743136,-0.2516831501286202,9.85692823486328,-4.712546743997714,1.498710818407012,0.9542325647865856,-5.684643256955031,5.244557450457317,2.4198206459603657,2.673451493426067,-11.205905821265244,-0.8600746713033537,-0.0881477029914563,0.1022513354700852,-0.0751469595219649,-9.8468395586785,-4.032537774725275,-32.3515360841082,29.67403480396561,37.58130410039836,38.44391529637284,1577399075.0,-27.71375333695652,-51.10300498344756,21.42445
7055,1577399075.95,0.1698131323837645,0.3607069184093937,9.062520444990948,0.5906086729468366,-0.0487599606397669,11.630214132764864,1.6119984592344698,0.21997457692216,9.30147344970703,-0.5011209627477131,-0.5459669159679876,1.0305265100990857,1.1512942430449695,-6.321604658917683,-0.1741734946646341,-0.6834821003239329,2.221828553734756,1.0320151724466462,-0.0881477029914563,0.1022513354700852,-0.0751469595219649,-9.8468395586785,19.79609453046953,-32.05654651838546,29.62611195974481,37.62922694461916,38.39599245215204,1577399075.0,-27.71375333695652,-51.10300498344756,21.42445
7056,1577399075.96,1.3166357275986085,-1.3200226470202931,9.823876572920636,0.9353737120093364,-0.7765972653272669,8.639856259229706,0.2832165378477517,0.2858151225764568,11.030087048339842,-0.7452615877477134,-7.015693478467988,0.1302579554115854,-0.1151852491425307,-9.69379704173018,0.4361780678353656,2.139393876238567,-6.689304258765244,2.481600133384146,1.4985109508547012,1.1247646901709418,0.9769104737854758,-2.450812508805297,16.680042613636363,-17.01207866652578,29.817803336628028,37.653188366729566,38.34806960793124,1577399075.0,-27.71375333695652,-51.10300498344756,21.42445
7057,1577399075.97,0.9766590918564207,0.7413849823742369,10.364966148115949,0.8060868223608991,1.0022945681688258,10.457055319288305,1.3677898898985323,-0.6730626423161202,9.662997900390623,0.0787130216272865,-4.024970822217988,-0.0528475133384145,-8.278637397580031,2.894703934832317,1.3517054115853655,-4.009898115948933,-4.766696836890244,2.679964391196646,1.6748063568376068,-0.7157593482906008,-0.6763226356976347,-12.312181908636234,9.531452922077923,-4.032537774725275,29.72195764818641,37.58130410039836,38.44391529637284,1577399075.0,-27.71375333695652,-51.10300498344756,21.42445
7058,1577399075.98,0.3685318701767333,0.5163300263195495,8.504671458174542,1.0862084165991803,-0.1948062619092982,8.479444747999237,0.108439816656345,-0.8789639850895578,8.750807067871094,-0.4706033846227134,2.0785448027820124,1.7171720179115857,3.012866508669969,-1.5608624714176829,-1.3033238852896345,-0.6834821003239329,-8.398288633765244,0.0859702505716463,0.9696247329059844,-1.1247646901709418,0.8266165547415459,-3.2725932921245406,12.097613324175825,-4.032537774725275,29.72195764818641,37.43753556773595,38.49183814059364,1577399075.0,-27.71375333695652,-51.10300498344756,21.42445
7059,1577399075.99,0.4391608191513427,-0.5658491240710746,9.382146366621807,-0.0462489686547249,0.7437207888719507,9.094754574659394,2.28237492407822,0.8352844035823161,8.118737829589843,-4.926169790872714,-2.651679806592988,1.3509610804115852,2.188891899294969,-14.805491377667684,1.6568811928353655,-0.1341656940739328,-5.346530821265244,2.283235875571646,1.14592013888889,0.7157593482905967,-0.8266165547415584,-2.0399221171456747,19.429500187312687,-1.6726212489433638,29.62611195974481,37.772995477281576,38.49183814059364,1577399075.0,-27.71375333695652,-51.10300498344756,21.42445
7060,1577399076.0,0.7061143042587645,-0.0702493804187308,10.700154380537825,0.9760751402319928,-0.4306351254346893,10.243971371534396,0.6136163669493142,-0.6275728107731515,9.452308154296874,-1.2335428377477131,-3.078925900342988,0.4964688929115854,1.5785403367949693,-2.522166182355183,0.7108362709603656,-1.4464215534489329,2.771144959984756,0.1164878286966462,0.0881477029914492,-1.738272702991453,0.0751469595219524,-0.909973540081713,8.156724135239763,-20.330711280906595,29.62611195974481,37.50941983406716,38.49183814059364,1577399075.0,-27.71375333695652,-51.10300498344756,21.42445
7061,1577399076.01,1.3788849707626707,-0.8531533232898244,11.044919419600324,0.4948406065405866,-0.2379018917921107,9.990185995557834,1.085274094000095,-1.678627339581745,11.200075366210935,-1.843894400247713,-4.513252072217988,0.7406095179115855,-1.9920163038300305,-2.140696455792683,1.0160120522103655,-1.4159039753239329,0.3907738662347561,0.3301108755716463,0.2644431089743619,1.738272702991453,0.8266165547415459,-3.2725932921245406,-4.032537774725275,-32.3515360841082,29.67403480396561,37.725072633060776,38.44391529637284,1577399075.0,-27.71375333695652,-51.10300498344756,21.42445
7062,1577399076.02,1.6135167334579832,0.0805853241711119,10.934786143233136,0.3368232969702741,-0.3576119747999232,11.87681690376096,3.62312785376572,-1.5948302814762765,9.950302099609374,0.2313009122522865,0.7052537871570121,1.2594083460365857,7.407397758669969,-15.385325362042684,2.6639612709603657,2.734486649676067,3.961330506859756,-0.6159340463033537,0.4407385149572675,1.1247646901709418,-0.5260287166537173,-16.421085825232456,-3.665943431568431,-2.852579511834319,29.72195764818641,37.38961272351514,38.44391529637284,1577399075.0,-27.71375333695652,-51.10300498344756,21.42445
7063,1577399076.03,1.2304444678329831,0.0111534760265812,9.955557664229229,1.7278544615210552,0.8107584353563257,11.213623043897677,2.8258587009336886,0.880774235125285,8.214505895996094,-0.5621561189977134,1.5750047637195126,1.4577726038490857,-0.3745846632050305,-0.5842999714176829,0.1615198647103658,-3.430064131573933,2.130275819359756,-1.0431801400533538,0.4407385149572675,-1.3292673611111123,0.3757347976097936,-15.599305041913214,13.93058503996004,-3.4425586432797965,29.76988049240722,37.58130410039836,38.39599245215204,1577399075.0,-27.71375333695652,-51.10300498344756,21.42445
7064,1577399076.04,1.0891865698837646,-1.4924051665515432,8.255674485518291,1.3878778257788678,-0.7837798703077362,8.2352361786633,1.2468827060606418,0.3576411723811443,9.501389288330078,-3.1561502596227133,-2.895820431592988,1.1068204554115857,-1.763134467892531,4.542653153582317,0.6040247475228658,-0.4546002643864328,3.061061952172256,1.4592612661966462,-0.6170339209401661,0.3067540064102557,0.6763226356976285,-10.257729950338122,13.93058503996004,-4.032537774725275,29.62611195974481,37.50941983406715,38.276185341600026,1577399075.0,-27.71375333695652,-51.10300498344756,21.42445
7065,1577399076.05,2.013348410704077,-0.3838897978991995,10.058508335615947,1.7685558897437117,-0.2809975216749232,10.856886996534396,0.97992922095322,0.10505289723466,9.725247143554688,2.0928731778772867,-1.064765744092988,0.8016446741615855,2.829761039919969,-17.430003096417682,1.1380823647103655,0.6592913371760671,2.221828553734756,2.252718297446646,-0.0881477029914563,1.738272702991453,-0.0751469595219649,-10.668620341997745,13.93058503996004,-4.032537774725275,29.72195764818641,37.725072633060776,38.25222391948962,1577399075.0,-27.71375333695652,-51.10300498344756,21.42445
7066,1577399076.06,1.0580619483017333,0.0446722992687682,9.419256492354233,0.1500755674780866,1.3326943972703884,10.667745065382052,0.42447443579697,-1.2117580158512764,10.436325036621094,3.4661641935022867,-0.0576856659679878,1.9002774866615848,-2.8465084913300305,1.1552019817073171,1.2601526772103655,-1.3853863971989329,2.649074647484756,1.8254722036966464,-0.0881477029914563,0.1022513354700852,-1.277498311873317,-3.2725932921245406,12.097613324175825,-3.4425586432797965,29.62611195974481,37.62922694461916,38.44391529637284,1577399075.0,-27.71375333695652,-51.10300498344756,21.42445
7067,1577399076.07,1.044893839170874,-0.3060782439441214,8.777610447432354,0.9006577879370709,-0.8963073483350794,8.442334622266815,-0.1884411892030295,-1.436812971905964,9.961076007080075,1.6045919278772869,2.0175096465320124,1.3051847132240857,2.783984672732469,-1.9118146198551829,0.7108362709603656,-1.4616803425114329,5.044704530297256,0.2080405630716463,0.6170339209401732,1.3292673611111123,-0.6763226356976347,-2.7589803025500137,13.838936454170833,-1.5988738575126793,29.86572618084883,37.55734267828795,38.37203103004164,1577399075.0,-27.71375333695652,-51.10300498344756,21.42445
7068,1577399076.08,0.0740450659775145,-0.3623419829577933,11.832611765791729,-1.0829382875023812,0.104468945610232,12.45142530219846,1.1475233371641576,0.9454176799495037,11.171344946289064,0.3533712247522865,1.132499880907012,1.0457852991615857,2.005786430544969,0.6669207317073171,1.9620569740853653,5.725209305926067,-9.008640196265244,2.466341344321646,0.0881477029914492,1.5337700320512828,0.3757347976097936,-1.629031725486053,20.895877559940057,-32.3515360841082,29.817803336628028,37.58130410039836,38.39599245215204,1577399075.0,-27.71375333695652,-51.10300498344756,21.42445
7069,1577399076.09,0.7587867407822021,-0.6041563506335745,10.601992112471416,0.6145506895483991,-0.8747595333936732,9.939907760694553,-0.7798089992616227,-1.3745637287419012,8.465897070312499,2.0318380216272867,2.9330369902820124,1.5035489710365857,-0.1914791944550304,15.986744950457316,0.3751429115853658,6.091420243426067,-2.447360899390244,1.7034018911966462,-0.4407385149572604,0.9202620192307712,-1.277498311873317,-6.55971642540152,17.596528471528472,-32.3515360841082,29.62611195974481,37.58130410039836,38.49183814059364,1577399075.0,-27.71375333695652,-51.10300498344756,21.42445
7070,1577399076.1,1.4842298438095458,-0.0606725737781058,9.27799859440501,1.7470080748023051,0.8490656619188257,9.6142963349133,2.409267612066501,-1.6068012897770576,8.717288244628906,5.419289193502286,3.1771776152820124,1.8392423304115848,-2.7854733350800305,10.707203934832316,1.3822229897103655,3.650013993426067,-3.271335508765244,0.4216636099466463,1.8511017628205124,1.5337700320512828,0.3757347976097936,-6.55971642540152,19.79609453046953,-32.3515360841082,29.62611195974481,37.58130410039836,38.39599245215204,1577399075.0,-27.71375333695652,-51.10300498344756,21.42445
7071,1577399076.11,0.9551112769150144,0.144031668165253,8.64592935612376,0.5918057737769147,-0.3264873532178924,9.744780325391815,2.6702355930235324,-1.3314680988590888,8.811859210205078,1.3299337247522869,0.964653201219512,1.2441495569740857,2.112597953982469,-3.391917158917683,0.8786829506478657,0.7813616496760671,-0.1738013290777438,0.2843345083841463,1.8511017628205124,1.942775373931624,0.0751469595219524,-14.777524258593967,15.030368069430567,-1.2301369003592564,29.74591907029682,37.58130410039836,38.276185341600026,1577399075.0,-27.71375333695652,-51.10300498344756,21.42445
7072,1577399076.12,1.793081857969702,0.4085909516125182,9.232508762862045,2.721448150485899,-1.1907941525342982,10.34452784126096,0.8027582981016576,0.861620621844035,11.420341918945311,2.0623555997522867,-2.956855587842988,0.8626798304115855,0.9987063524199696,-1.5913800495426829,0.8329065834603658,1.0560198528010671,2.160793397484756,0.9404624380716464,1.8511017628205124,1.942775373931624,0.0751469595219524,-1.629031725486053,15.39696241258741,-4.032537774725275,29.72195764818641,37.725072633060776,38.39599245215204,1577399075.0,-27.71375333695652,-51.10300498344756,21.42445
7073,1577399076.13,0.6127404395126708,-0.8316055083484182,12.36173033268626,-1.7317669374047249,1.0190539797899194,12.669297653272675,0.6806540134336888,0.3157426433284099,10.876858142089842,0.6585470060022866,-3.353584103467988,1.5035489710365857,-1.6868405225800305,8.113209794207316,0.6192835365853658,0.9949846965510672,-6.445163633765244,3.259798375571646,-0.2644431089743548,1.942775373931624,-0.5260287166537173,-1.629031725486053,15.39696241258741,-4.032537774725275,29.62611195974481,37.58130410039836,38.30014676371043,1577399075.0,-27.71375333695652,-51.10300498344756,21.42445
7074,1577399076.14,0.7911084631943114,-0.0965855986804495,10.167444511153056,1.6727878233374611,-0.1014323971632044,11.83132707221799,-1.8500171413514663,0.9717538982112224,14.245499877929689,1.7724386075647869,2.1090623809070124,1.3051847132240852,4.904956352419969,-3.361399580792683,2.3282679115853657,-3.246958662823933,-1.2571753525152438,3.351351109946646,-0.2644431089743583,1.5337700320512826,-0.6763226356976377,-1.2181413338264289,12.83080201048951,-2.2626003803888417,29.91364902506964,37.58130410039836,38.25222391948962,1577399075.0,-27.71375333695652,-51.10300498344756,21.42445
7075,1577399076.15,-0.2683257714248282,-0.1708058501452933,9.646705650069077,0.2590117430151964,-0.3875394955518768,9.965046878126191,-0.1944266933534201,0.0691398723323167,10.82897410888672,1.5435567716272869,1.773369021532012,1.3814786585365857,2.783984672732469,-3.880198408917683,0.7566126381478656,-3.918345381573933,-10.565036680640244,2.634188024009146,-0.4407385149572604,1.738272702991453,-0.3757347976097998,-3.067148096294731,14.480476554695304,-2.70508472897295,29.67403480396561,37.58130410039836,38.41995387426245,1577399075.0,-27.71375333695652,-51.10300498344756,21.42445
7076,1577399076.16,1.3549429541611082,-0.8363939116687307,9.3498246442097,0.5594840513648054,0.506694824516482,10.033281625440646,-0.485322195062404,-0.7041872638981516,10.71165822753906,1.3909688810022869,-0.6070020722179879,1.2594083460365857,4.569262993044969,-9.983714033917684,1.6873987709603655,0.8423968059260671,-17.339939024390244,3.076692906821646,-0.4407385149572604,1.738272702991453,-0.3757347976097998,-2.2453673129754868,19.612797358891108,-0.6401577689137783,29.817803336628028,37.53338125617755,38.39599245215204,1577399075.0,-27.71375333695652,-51.10300498344756,21.42445
7077,1577399076.17,0.7923055640243896,0.0973447357922057,9.76402153141673,-0.2713039247094124,0.152352978813357,10.715629098585175,0.1778716648008762,-0.3091439899723702,7.773972790527344,7.372414193502286,0.4305955840320121,2.0528653772865857,0.2052493211699695,11.073414872332316,1.7484339272103655,1.1170550090510671,-10.900730040015244,2.740999547446646,0.9696247329059844,-0.7157593482906008,0.2254408785658761,-1.2181413338264289,19.429500187312687,-37.07136913567202,29.72195764818641,37.43753556773595,38.30014676371043,1577399075.0,-27.71375333695652,-51.10300498344756,21.42445
7078,1577399076.18,1.793081857969702,0.1548055756359561,11.393275761153058,1.1484576597632428,-0.3456409664991419,9.432337008741424,3.2831512180235323,-0.0505702106754952,7.038952880859375,2.703224740377287,-2.346504025342988,1.4730313929115857,1.8837161180449693,5.366627762957317,2.0230921303353657,2.917592118426067,-12.243503477515244,1.7034018911966462,-0.3525908119658112,1.4315186965811977,-0.601175676175676,-11.079510733657369,19.429500187312687,-32.3515360841082,29.74591907029682,37.725072633060776,38.25222391948962,1577399075.0,-27.71375333695652,-51.10300498344756,21.42445
7079,1577399076.19,1.8553311011337643,0.3080344818859557,10.489464634444072,2.570613445896055,0.4600078921434351,9.68492528388791,1.3187087558653292,-0.4946946186344796,9.367313995361329,-3.4002908846227133,-1.705634884717988,1.4425138147865857,-0.5882077100800305,6.221119950457317,1.3517054115853655,5.923573563738568,6.860500428734756,-0.0208412728658536,1.3222155448717956,-0.7157593482906008,0.2254408785658761,-15.18841465025359,13.563990696803195,-4.032537774725275,29.86572618084883,37.67714978883997,38.34806960793124,1577399075.0,-27.71375333695652,-51.10300498344756,21.42445
7080,1577399076.2,2.4706409277939216,-0.8435765166491994,9.850212791182354,1.5578661436499617,-0.8005392819288295,11.110672372510958,1.046966867437595,0.5240381877620037,11.671733093261718,3.5882345060022867,1.346122927782012,1.4730313929115857,4.080981743044969,1.0331316692073171,1.9010218178353653,6.182972977801067,2.588039491234756,0.3911460318216463,1.3222155448717956,-0.7157593482906008,0.2254408785658761,-11.490401125316987,16.496745442057946,-1.6726212489433638,29.86572618084883,37.58130410039836,38.39599245215204,1577399075.0,-27.71375333695652,-51.10300498344756,21.42445
7081,1577399076.21,0.7635751441025146,0.2888808686047057,11.76796832096751,0.2937276670874615,0.3079760867235133,9.77949624946408,1.0541494724180638,0.612623649187785,10.989385620117186,0.5364766935022866,1.925956912157012,1.4730313929115857,-2.8465084913300305,3.138844559832317,1.9925745522103653,10.394398759051068,-1.4097632431402438,1.8559897818216464,0.2644431089743619,0.9202620192307712,-0.0751469595219649,-0.8072509421668069,19.429500187312687,-1.0826421174978862,29.72195764818641,37.62922694461916,38.49183814059364,1577399075.0,-27.71375333695652,-51.10300498344756,21.42445
7082,1577399076.22,0.4247956091904052,0.1141041474132999,10.928800639082745,0.9329795103491804,-0.2762091183546107,11.421918588331271,1.3510304782774385,1.2351160808284098,8.786720092773438,1.3146749356897869,3.985893435594512,2.0681241663490857,1.5175051805449695,-4.521067549542683,1.9010218178353653,4.657094071551067,2.801662538109756,2.618929234946646,1.7629540598290596,1.4315186965811977,-0.601175676175679,-11.901291516976611,7.698481206293707,-4.032537774725275,29.74591907029682,37.38961272351514,38.25222391948962,1577399075.0,-27.71375333695652,-51.10300498344756,21.42445
7083,1577399076.23,1.0700329566025146,-0.8220287017077932,8.971540781905011,-0.2222227906762097,-0.1409367245557831,9.081586465528536,0.3370860752012673,0.2618731059748949,10.433930834960936,3.710304818502287,-1.217353634717988,1.2288907679115857,3.775805961794969,1.1246844035823171,2.3740442787728657,1.6511126262385671,1.3520775771722562,2.512117711509146,0.6170339209401732,0.9202620192307712,-0.3757347976097998,-0.6018057463369949,11.914316152597404,-2.70508472897295,29.72195764818641,37.653188366729566,38.39599245215204,1577399075.0,-27.71375333695652,-51.10300498344756,21.42445
7084,1577399076.24,1.2974821143173585,0.511541622999237,10.858171690108136,0.7989042173804304,-1.2482549923780482,8.070036264112519,0.1682948581602512,1.36919137379716,7.6231380859375,4.198586068502286,0.2780076934070121,1.2288907679115857,1.5175051805449695,2.375905106707317,2.0536097084603657,1.6968889934260671,13.269191834984756,1.5813315786966462,0.6170339209401732,0.9202620192307712,-0.3757347976097998,-0.8072509421668069,16.496745442057946,-1.6726212489433638,29.5302662713032,37.62922694461916,38.39599245215204,1577399075.0,-27.71375333695652,-51.10300498344756,21.42445
7085,1577399076.25,0.7946997656845458,-0.8028750884265432,11.080832444502668,-0.2234198915062874,0.7054135623094507,9.310232724073456,1.8729664401915007,0.3133484416682537,10.462661254882812,4.473244271627286,5.343925662157012,2.5411466272865857,2.127856743044969,0.4838152629573171,1.1685999428353655,4.687611649676067,6.952053163109756,-0.7685219369283537,0.6170339209401732,0.5112566773504262,0.2254408785658761,-2.2453673129754868,17.779825643106893,-0.345168203191039,29.67403480396561,37.725072633060776,38.25222391948962,1577399075.0,-27.71375333695652,-51.10300498344756,21.42445
7086,1577399076.26,1.7416065222763426,0.5857618744640807,10.01900400822337,0.9808635435523052,1.138764062797732,9.291079110792204,-0.8061452175233415,-1.3027376789372138,10.256759912109374,3.374611459127286,3.924858279344512,1.5798429163490857,-0.9849362257050304,7.930104325457317,3.1217249428353657,6.518666337176067,0.7569848037347561,-1.0736977181783538,-0.7933293269230752,2.1472780448717943,-0.2254408785658824,-9.8468395586785,20.529283216783217,-32.05654651838546,29.69799622607601,37.58130410039836,38.39599245215204,1577399075.0,-27.71375333695652,-51.10300498344756,21.42445
7087,1577399076.27,1.1179169898056396,0.6312517060070494,8.724938010908916,1.79489210800543,-0.6760407956007045,8.53451138618283,2.8426181125547827,1.7857824626643477,10.237606298828124,2.7642598966272867,10.348808474657012,2.2054532679115857,2.738208305544969,11.134450028582316,0.6192835365853658,3.100697587176067,7.928615663109756,-0.0055824838033536,0.6170339209401732,1.738272702991453,-0.0751469595219649,-3.2725932921245406,-4.032537774725275,-31.171577821217245,29.67403480396561,37.43753556773595,38.30014676371043,1577399075.0,-27.71375333695652,-51.10300498344756,21.42445
7088,1577399076.28,0.9766590918564207,-0.4820520659656058,9.218143552901106,1.093391021579649,-0.1134034054639857,8.647038864210174,1.5497492160704074,-0.6060249958317452,10.417171423339845,-1.813376822122713,-0.7595899628429879,1.3509610804115857,5.210132133669969,-5.863840987042683,1.7789515053353655,0.9034319621760672,7.379299256859756,1.1235679068216462,-0.4407385149572604,1.738272702991453,0.526028716653711,-13.133962691955478,13.563990696803195,-1.3776316832206257,29.86572618084883,37.58130410039836,38.30014676371043,1577399075.0,-27.71375333695652,-51.10300498344756,21.42445
7089,1577399076.29,0.6271056494736083,0.8610950653820494,10.103998167158917,0.5726521604956651,-0.188820757758908,10.272701791456267,1.027813254156345,0.6114265483577068,10.681730706787109,8.165871224752287,2.8109666777820124,0.7711270960365855,1.9600100633574693,9.47124202076982,2.2061975990853657,4.229847977801067,6.768947694359756,1.6576255240091462,0.0881477029914492,1.1247646901709418,0.0751469595219524,0.0145298411524369,16.496745442057943,-3.885042991863905,29.72195764818641,37.653188366729566,38.44391529637284,1577399075.0,-27.71375333695652,-51.10300498344756,21.42445
7090,1577399076.3,0.1602363257431396,0.0350954926281432,11.676988657881571,-1.2241961854516,1.3063581790086696,11.117854977491428,0.9847176242735324,0.3875686931330975,10.034099157714843,-1.7828592439977131,5.588066287157012,1.9307950647865848,4.203052055544969,-10.716135908917684,3.6710413490853657,3.314320634051067,2.343898866234756,2.344271031821646,-0.4407385149572604,-0.7157593482906008,-0.9769104737854758,-10.463175146167934,7.881778377872128,-3.8850429918639056,29.62611195974481,37.58130410039836,38.30014676371043,1577399075.0,-27.71375333695652,-51.10300498344756,21.42445
7091,1577399076.31,0.414021701719702,-0.8531533232898244,8.28201070378001,1.179582281345274,-0.5730901242139856,8.421983908155488,-0.2291426174256852,1.0866755778987225,8.17859287109375,-1.813376822122713,2.0175096465320124,1.3814786585365857,1.7311282274199695,9.303395341082316,2.1146448647103657,1.5443011028010671,7.531887147484756,2.710481969321646,1.14592013888889,0.3067540064102557,-0.2254408785658824,-3.2725932921245406,14.663773726273726,-4.032537774725275,29.67403480396561,37.58130410039836,38.30014676371043,1577399075.0,-27.71375333695652,-51.10300498344756,21.42445
7092,1577399076.32,0.7635751441025146,0.3846489350109557,10.185401023604228,0.4565333799780866,-0.996863818061642,8.63027945258908,1.6981897190000947,-0.0098687824528389,8.963891015625,3.649269662252287,2.8109666777820124,1.6561368616615857,5.393237602419969,-10.716135908917684,3.2743128334603657,-0.8665875690739329,8.569484803734756,0.5437339224466463,-0.4407385149572604,-0.3067540064102557,-1.578086149961158,0.0145298411524369,20.529283216783217,-1.6726212489433638,29.62611195974481,37.62922694461916,38.25222391948962,1577399075.0,-27.71375333695652,-51.10300498344756,21.42445
7093,1577399076.33,0.8856794287704833,1.0310833832531432,10.31229371159251,0.0447306944312116,-0.5228118893507044,9.63823835151486,0.4771468723204074,0.3636266765315349,9.969455712890625,1.7876973966272869,0.5831834746570121,1.8087247522865848,0.9681887742949696,-0.8284405964176829,1.5958460365853655,-2.300913740948933,28.25332269435976,0.2385581411966463,-0.7933293269230717,1.738272702991453,-0.3757347976097998,0.0145298411524369,20.529283216783217,-1.6726212489433638,29.86572618084883,37.62922694461916,38.49183814059364,1577399075.0,-27.71375333695652,-51.10300498344756,21.42445
7094,1577399076.34,1.398038584043921,0.5666082611828307,9.847818589522198,1.313657574314024,-0.2977569332960169,6.743648544385956,0.7859988864805637,-1.9994503620426824,8.870517150878905,0.1092305997522865,4.397880740282012,1.2288907679115857,1.7311282274199695,1.9486590129573167,1.4127405678353655,-0.1952008503239328,6.952053163109756,-0.5243813119283537,0.9696247329059844,1.3292673611111123,0.8266165547415459,-1.4235865296562409,-3.849240603146853,-3.5900534261411665,29.86572618084883,37.43753556773595,38.15637823104801,1577399075.0,-27.71375333695652,-51.10300498344756,21.42445
7095,1577399076.35,1.6374587500595457,-1.5235297881335743,7.515866172530011,0.4756869932593366,-0.0679135739210169,8.184957943800018,2.777974667730564,-0.1415498737614327,9.744400756835937,-2.4847635408727133,4.825126834032012,1.8697599085365848,7.071704399294969,-9.312327315167684,1.9315393959603653,5.603138993426067,-11.541599180640244,1.2456382193216462,0.2644431089743619,2.1472780448717903,1.127204392829393,-16.010195433572836,-4.032537774725275,-3.4425586432797965,29.62611195974481,37.772995477281576,38.44391529637284,1577399075.0,-27.71375333695652,-51.10300498344756,21.42445
7096,1577399076.36,1.2208676611923583,0.8539124604015806,10.223708250166728,0.8779128721655866,1.7277376711961696,8.520146176221893,1.6790361057188448,-0.680245247296589,7.1778165771484375,1.6351095060022869,-0.0271680878429878,0.9237149866615856,-2.9075436475800305,3.108326981707317,2.8165491615853657,4.016224930926067,-3.149265196265244,1.1235679068216462,0.9696247329059844,-0.7157593482906008,0.2254408785658761,-11.079510733657369,-4.032537774725275,1.5722639740067632,29.86572618084883,37.58130410039836,38.25222391948962,1577399075.0,-27.71375333695652,-51.10300498344756,21.42445
7097,1577399076.37,1.0628503516220458,1.5338657318859557,10.056114133955791,1.0981794248999617,-0.0415773556592982,8.22805357368283,0.2377267063047825,1.5080550700862223,12.253524096679689,-1.5997537752477131,1.071464724657012,1.4425138147865857,0.8766360399199695,0.4532976848323171,2.7249964272103657,-4.772837569073933,7.928615663109756,1.5813315786966462,0.6170339209401732,-0.3067540064102557,-0.3757347976097998,-3.2725932921245406,13.93058503996004,-0.7876525517751477,29.72195764818641,37.58130410039836,38.44391529637284,1577399075.0,-27.71375333695652,-51.10300498344756,21.42445
7098,1577399076.38,0.9479286719345458,0.4971764130382994,10.199766233565168,0.4278029600562116,0.8011816287157008,12.698028073194552,-0.3009686672303727,0.4737599528987224,11.822567797851562,-3.766501822122713,8.121025271532012,1.4425138147865857,-5.715160835080031,4.206959794207317,2.6029261147103657,-9.197886397198932,25.44570550685976,2.069612828696646,-0.2644431089743548,0.3067540064102557,-0.2254408785658824,-3.2725932921245406,8.065075549450551,-4.032537774725275,29.86572618084883,37.58130410039836,38.39599245215204,1577399075.0,-27.71375333695652,-51.10300498344756,21.42445
7099,1577399076.39,-0.3329692162490469,-0.1899594634265433,11.650652439619854,0.2578146421851178,-1.3081100338819545,13.351645126417209,1.2289261936094698,-2.2604183429997136,12.401964599609377,-5.353415884622714,9.921562380907012,2.1444181116615857,0.9071536180449696,3.688160966082317,0.9244593178353658,-4.955943037823933,4.693752381859756,2.283235875571646,1.4985109508547012,-0.9202620192307712,-1.4277922309172344,-2.861702900464919,10.264641608391608,-2.852579511834319,29.5302662713032,37.62922694461916,38.15637823104801,1577399075.0,-27.71375333695652,-51.10300498344756,21.42445
7100,1577399076.4,-0.1821345116592032,-1.4540979399890432,9.431227500655012,0.3559769102515241,-0.0798845822217982,9.221647262647677,1.9160620700743136,1.4194696086604413,12.093112585449218,-2.6678690096227133,5.343925662157012,2.1749356897865857,-3.792553413205032,0.4532976848323171,1.5042933022103655,-2.300913740948933,-0.3416480087652439,2.924105016196646,-0.7933293269230717,1.738272702991453,-0.9769104737854758,-2.0399221171456747,14.297179383116884,-4.032537774725275,29.72195764818641,37.58130410039836,38.25222391948962,1577399075.0,-27.71375333695652,-51.10300498344756,21.42445
7101,1577399076.41,0.7037201025986083,0.1164983490734557,9.754444724776103,-0.0318837586937874,2.7141487551805445,9.987791793897678,1.0517552707579074,-0.2349237385075264,7.340622290039062,2.0623555997522867,-4.299629025342988,0.9542325647865856,-5.379467475705031,3.444020341082317,1.9315393959603653,-3.643687178448933,6.189113709984756,2.954622594321646,0.7933293269230788,0.3067540064102557,-0.5260287166537173,5.356104932727528,21.2624719030969,-30.58159868977177,29.67403480396561,37.58130410039836,38.44391529637284,1577399075.0,-27.71375333695652,-51.10300498344756,21.42445
7102,1577399076.42,0.3541666602157958,0.6671647309093931,9.969922874190166,0.7414433775366803,-1.973698095405392,5.2089652802258,0.1299876315977512,-2.6889804401676827,7.453149768066406,2.1539083341272867,1.163017459032012,1.1678556116615857,-3.4873776319550305,0.8805437785823171,2.1451624428353657,-4.315073897198933,9.942775819359756,-0.6464516244283537,0.7933293269230788,1.5337700320512828,-0.8266165547415584,-8.203277992040011,19.79609453046953,-31.761556952662723,29.67403480396561,37.341689879294336,38.25222391948962,1577399075.0,-27.71375333695652,-51.10300498344756,21.42445
7103,1577399076.43,1.2543864844345458,-0.3072753447741995,7.977947092940167,0.9712867369116804,0.7916048220750758,10.315797421339084,-1.0192291652772476,1.0794929729182536,9.392453112792968,-5.078757681497714,4.153740115282012,2.4801114710365857,-6.722240913205031,-0.7674054401676829,1.6873987709603655,-3.094370772198933,6.311184022484756,-0.7990395150533537,-0.7933293269230717,-0.7157593482906008,-0.9769104737854758,-8.203277992040011,-4.032537774725275,-31.761556952662723,29.86572618084883,37.62922694461916,38.39599245215204,1577399075.0,-27.71375333695652,-51.10300498344756,21.42445
7104,1577399076.44,1.3693081641220457,-1.2218603789538869,7.190254746748761,1.81404572128668,-1.0399594479444545,9.777102047803924,-0.5475714382264665,0.4713657512385662,11.288660827636718,-3.949607290872713,1.407158084032012,1.9307950647865848,-2.6634030225800305,13.758961747332316,1.3517054115853655,-2.148325850323933,7.379299256859756,2.069612828696646,0.7933293269230788,0.3067540064102557,-1.4277922309172344,-9.8468395586785,23.09544361888112,-30.58159868977177,29.72195764818641,37.725072633060776,38.39599245215204,1577399075.0,-27.71375333695652,-51.10300498344756,21.42445
7105,1577399076.45,1.4602878272079831,0.4804170014172057,10.850989085127669,2.2737324400366803,-2.337616747749142,7.363746774366424,-0.8516350490663102,0.3205310466487225,9.406818322753905,1.0247579435022869,-0.973213009717988,1.3814786585365857,-4.769115913205031,1.5824480754573171,0.7718714272103658,-5.169566084698933,8.722072694359756,-0.8600746713033537,-0.7933293269230717,1.738272702991453,-1.578086149961158,-9.8468395586785,23.09544361888112,-31.761556952662723,29.67403480396561,37.58130410039836,38.635606673256056,1577399075.0,-27.71375333695652,-51.10300498344756,21.42445
7106,1577399076.46,0.7444215308212645,0.4014083466320494,11.858947984053447,-1.0613904725609749,2.508247412407107,12.453819503858616,0.4603874606993137,0.23912819020341,9.900023864746093,0.6890645841272866,5.435478396532012,1.5645841272865857,-3.0906491163300305,-3.025706221417683,1.8705042397103653,1.3917132121760671,11.956935975609756,2.435823766196646,-1.4985109508547012,0.5112566773504262,-1.277498311873317,-3.2725932921245406,12.83080201048951,-4.032537774725275,29.817803336628028,37.53338125617755,38.25222391948962,1577399075.0,-27.71375333695652,-51.10300498344756,21.42445
7107,1577399076.47,0.5744332129501708,-1.2673502104968557,11.044919419600324,0.3823131285132428,0.7125961672899195,9.901600534132053,-0.0854905178163102,-1.1926044025700264,10.955866796875,-5.750144400247714,5.740654177782012,1.5035489710365857,6.217212211794969,-7.084544112042683,1.5958460365853655,-0.8971051471989329,2.923732850609756,1.7949546255716462,0.2644431089743619,0.9202620192307712,-1.277498311873317,-10.668620341997745,12.097613324175825,-4.032537774725275,29.86572618084883,37.38961272351514,38.30014676371043,1577399075.0,-27.71375333695652,-51.10300498344756,21.42445
7108,1577399076.48,-0.8213863549209219,0.6480111176281431,8.708178599287823,1.2585909361304302,-0.671252392280392,7.502610470655487,-1.1892174831483415,-0.2612599567692452,8.84178673095703,0.3533712247522865,12.637626834032012,1.5340665491615857,-2.0530514600800305,1.9486590129573167,2.8165491615853657,-3.369028975323933,15.496975038109756,0.3606284536966463,0.2644431089743619,-1.1247646901709418,-0.0751469595219649,-1.834476921315863,14.480476554695304,-3.8850429918639056,29.72195764818641,37.38961272351514,38.30014676371043,1577399075.0,-27.71375333695652,-51.10300498344756,21.42445
7109,1577399076.49,0.1027754858993895,-0.1037682036609183,6.771269456221417,-0.0941330018578499,0.736538183891482,11.069970944288302,-0.3201222805116227,-0.2325295368473702,6.751648681640624,-4.926169790872714,1.285087771532012,1.3509610804115857,-0.8323483350800305,-5.772288252667683,0.6192835365853658,2.093617509051067,8.477932069359756,2.405306188071646,0.0881477029914492,-0.1022513354700852,0.0751469595219524,-1.629031725486053,20.895877559940057,-1.6726212489433638,29.817803336628028,37.62922694461916,38.39599245215204,1577399075.0,-27.71375333695652,-51.10300498344756,21.42445
7110,1577399076.5,0.8689200171493895,0.2960634735851745,6.632405759932355,1.9074195860327736,-0.4485916378858606,6.822657199171112,-0.5308120266053727,-1.99466195872237,9.076418493652342,1.5130391935022869,-1.644599728467988,1.2594083460365857,-1.6258053663300305,4.664723466082317,0.9854944740853658,-1.0802106159489329,6.311184022484756,-0.1886879525533537,1.6748063568376068,0.5112566773504262,-0.6763226356976347,-0.8072509421668069,19.429500187312687,-38.84130653000845,29.817803336628028,37.341689879294336,38.30014676371043,1577399075.0,-27.71375333695652,-51.10300498344756,21.42445
7111,1577399076.51,1.2328386694931397,0.5857618744640807,9.893308421065166,1.9122079893530863,-1.037565246284298,8.915189450147674,2.217731479254001,1.122588602801066,9.373299499511718,-0.7757791658727134,0.7968065215320121,0.5575040491615855,-1.9004635694550305,0.3007097942073171,1.5042933022103655,-4.406626631573933,4.693752381859756,-0.7685219369283537,0.0881477029914492,0.7157593482905967,-1.1272043928293995,-8.203277992040011,19.429500187312687,-31.761556952662723,29.72195764818641,37.62922694461916,38.30014676371043,1577399075.0,-27.71375333695652,-51.10300498344756,21.42445
7112,1577399076.52,0.1219290991806395,-0.8938547515124807,10.609174717451886,0.7558085874976178,0.315158691703982,13.193627816846895,3.7835393649961886,0.3277136516291912,11.039663854980468,-4.559958853372714,5.862724490282012,2.1139005335365857,-5.226879585080031,6.068532059832317,0.1004847084603658,-4.223521162823933,10.064846131859756,1.0930503286966462,0.0881477029914492,1.1247646901709418,-1.4277922309172344,-8.614168383699631,15.763556755744256,-3.147569077557058,29.62611195974481,37.62922694461916,38.58768382903526,1577399075.0,-27.71375333695652,-51.10300498344756,21.42445
7113,1577399076.53,0.7994881690048583,-0.455715847703887,10.24286186344798,0.4134377500952741,0.6814715457078883,10.136232296827366,0.5633381320860325,-0.2612599567692452,11.595118640136718,-5.506003775247714,2.0785448027820124,0.8626798304115855,-3.823070991330032,5.793873856707317,0.8023890053353658,1.4222307903010671,0.5738793349847561,-0.5854164681783537,0.7933293269230788,0.3067540064102557,-1.1272043928293995,-11.490401125316987,16.496745442057946,-3.147569077557058,29.72195764818641,37.58130410039836,38.39599245215204,1577399075.0,-27.71375333695652,-51.10300498344756,21.42445
7114,1577399076.54,0.5528853980087646,0.0781911225109557,11.18138891422923,-0.3359473695336311,-0.4916872677686731,10.773089938428928,-1.4693390773866226,1.821695487566691,12.208034265136718,-5.658591665872714,-3.780830197217988,-0.1138826695884145,-2.3887448194550305,-5.131419112042683,2.4198206459603657,-1.1107281940739329,-7.787937071265244,1.3371909536966462,-0.7933293269230717,0.5112566773504262,-0.0751469595219649,-9.025058775359255,15.030368069430567,-2.852579511834319,29.86572618084883,37.58130410039836,38.49183814059364,1577399075.0,-27.71375333695652,-51.10300498344756,21.42445
7115,1577399076.55,0.0070074194931395,0.1883243988781432,10.487070432783916,0.6073680845679303,-0.6616755856397669,11.843298080518773,-0.0136644680116227,-0.1032426471989327,11.252747802734374,-3.0035623689977133,6.473076052782012,1.2594083460365857,-4.555492866330031,2.406422684832317,1.0160120522103655,-6.024058272198933,-0.1585425400152439,3.290315953696646,2.203692574786324,0.7157593482905967,-0.5260287166537173,-10.668620341997745,12.097613324175825,-2.852579511834319,29.67403480396561,37.341689879294336,38.25222391948962,1577399075.0,-27.71375333695652,-51.10300498344756,21.42445
7116,1577399076.56,0.8306127905868895,-0.4868404692859183,8.870984312178448,0.9760751402319928,-1.2769854122999231,9.856110702589085,1.1044277072813449,-0.5916597858708077,10.601524951171877,0.1092305997522865,7.205497927782012,1.9307950647865848,-1.5952877882050305,2.162282059832317,1.1380823647103655,-0.5003766315739329,-18.530124571265244,4.144808141196647,-0.2644431089743548,0.7157593482905967,-0.5260287166537173,-9.025058775359255,12.097613324175825,-1.9676108146661029,29.72195764818641,37.62922694461916,38.39599245215204,1577399075.0,-27.71375333695652,-51.10300498344756,21.42445
7117,1577399076.57,0.3685318701767333,0.6504053192882994,8.526219273115949,0.5834260679663679,0.889767090141482,7.861740719678925,0.5034830905821261,-1.97550834544112,8.264784130859374,-3.674949087747713,-3.078925900342988,-0.0528475133384145,-6.539135444455031,4.084889481707317,0.4972132240853658,-9.228403975323932,-19.872898008765244,5.762239781821647,1.3222155448717956,1.738272702991453,-0.6763226356976347,-3.2725932921245406,13.563990696803195,-4.032537774725275,29.817803336628028,37.43753556773595,38.30014676371043,1577399075.0,-27.71375333695652,-51.10300498344756,21.42445
7118,1577399076.58,-0.0863664452529531,-0.0487015654773245,8.57649750797923,0.6504637144507428,0.7509033938524194,9.791467257764864,-0.2770266506288102,-2.787142708234089,8.939948999023438,-0.1349100252477134,4.916679568407012,1.8392423304115848,-3.4873776319550305,-2.934153487042683,0.3141077553353658,-7.488902022198933,-12.304538633765244,2.100130406821646,1.4985109508547012,1.1247646901709418,-1.1272043928293995,-1.629031725486053,19.429500187312687,-31.761556952662723,29.817803336628028,37.725072633060776,38.39599245215204,1577399075.0,-27.71375333695652,-51.10300498344756,21.42445
7119,1577399076.59,1.0293315283798583,0.1284693573742369,10.211737241865947,0.7534143858374616,0.726961377250857,11.821750265577364,-0.753472780999904,-3.112754134015338,11.875240234375,-2.6373514314977133,-2.560127072217988,0.6185392054115855,-5.532055366330031,-1.2251691120426829,1.6568811928353655,-5.718882490948933,2.038723084984756,0.1775229849466463,0.0881477029914492,-0.1022513354700852,-0.5260287166537173,-9.025058775359255,16.863339785214784,-31.761556952662723,29.86572618084883,37.58130410039836,38.30014676371043,1577399075.0,-27.71375333695652,-51.10300498344756,21.42445
7120,1577399076.6,-0.4957749291396719,-0.3671303862781058,12.09357974674876,0.4708985899390241,-1.4014838986280482,12.281436984327366,-1.1054204250428727,0.1864557536799725,11.386823095703123,-2.3932108064977133,1.285087771532012,1.3204435022865857,-3.3653073194550305,5.763356278582317,0.1310022865853658,-2.300913740948933,-10.046237852515244,1.0014975943216462,1.14592013888889,0.7157593482905967,-0.2254408785658824,-7.792387600380388,22.36225493256743,-32.3515360841082,29.72195764818641,37.43753556773595,38.10845538682721,1577399075.0,-27.71375333695652,-51.10300498344756,21.42445
7121,1577399076.61,0.2727638037704833,-2.045465750047637,10.482282029463605,0.2769682554663678,-1.573866418159298,11.395582370069553,-1.900295376214748,-0.4384308796208077,14.973337182617186,-4.773581900247714,3.909599490282013,1.9307950647865848,0.5409426805449695,1.7350359660823171,2.0230921303353657,-6.237681319073933,-17.645114805640244,2.771517125571646,0.0881477029914492,0.7157593482905967,-0.8266165547415584,-14.777524258593967,15.39696241258741,0.6872952768385466,29.72195764818641,37.62922694461916,38.30014676371043,1577399075.0,-27.71375333695652,-51.10300498344756,21.42445
7122,1577399076.62,1.1622097205185302,-0.5646520232409968,10.895281815840557,1.610538580173399,-0.3935249997022669,13.24151185005002,2.418844418707126,2.434611112566691,10.96783780517578,2.0623555997522867,-1.232612423780488,1.3967374475990857,3.7147708055449695,-0.0044659870426829,0.2225550209603658,-6.817515303448933,-2.599948790015244,2.557894078696646,0.1762954059829091,0.0,-0.601175676175679,-1.629031725486053,19.429500187312687,-2.2626003803888417,29.65007338185521,37.43753556773595,38.30014676371043,1577399075.0,-27.71375333695652,-51.10300498344756,21.42445
7123,1577399076.63,1.2783285010361085,-0.8244229033679494,10.839018076826886,0.3583711119116803,-1.1836115475538294,8.445925924757049,0.7955756931211887,-1.9635373371403388,11.226411584472656,-2.4237283846227133,1.864921755907012,1.0763028772865857,2.829761039919969,0.056569169207317,1.1075647865853655,-6.725962569073933,-12.365573790015244,5.914827672446647,-0.6170339209401661,1.5337700320512828,-0.5260287166537173,-1.629031725486053,15.39696241258741,-31.466567386939985,30.009494713511245,37.43753556773595,38.44391529637284,1577399075.0,-27.71375333695652,-51.10300498344756,21.42445
7124,1577399076.64,1.2926937109970458,-0.484446267625762,8.880561118819074,0.1285277525366803,1.6439406130907008,9.209676254346894,0.6231931735899388,-3.1678207721989327,8.43956085205078,7.067238412252286,7.297050662157012,1.6561368616615857,-0.3135495069550305,4.145924637957317,1.3211878334603655,-0.1646832721989328,-20.818942930640244,4.114290563071647,1.3222155448717956,0.1022513354700852,-1.578086149961158,-11.490401125316987,7.698481206293707,-4.032537774725275,29.86572618084883,37.53338125617755,38.44391529637284,1577399075.0,-27.71375333695652,-51.10300498344756,21.42445
7125,1577399076.65,0.8832852271103271,-0.120527615282012,8.976329185225325,1.2370431211890238,-0.2043830685499232,7.512187277296112,2.119569211187595,-1.053740706280964,5.717353564453124,-0.7452615877477134,0.2474901152820121,0.5880216272865855,-1.9309811475800305,11.805836747332316,2.0536097084603657,-1.3853863971989329,6.707912538109756,2.130647984946646,0.9696247329059844,0.1022513354700852,-0.9769104737854758,-2.656257704635109,15.21366524100899,-31.61406216980136,29.86572618084883,37.58130410039836,38.39599245215204,1577399075.0,-27.71375333695652,-51.10300498344756,21.42445
7126,1577399076.66,0.9958127051376708,0.4133793549328307,10.226102451826886,0.7198955625952741,0.6060541934129664,10.677321872022675,0.0222485568907204,-0.8382625568669019,11.262324609375,2.5506368497522867,2.3226854277820124,1.7476895960365857,1.8226809617949693,-4.398997237042684,1.6263636147103655,3.939930985613568,9.256130311547258,-1.2568031869283538,0.2644431089743619,1.738272702991453,-0.9769104737854758,-2.656257704635109,15.21366524100899,-31.61406216980136,29.5302662713032,37.48545841195675,38.37203103004163,1577399075.0,-27.71375333695652,-51.10300498344756,21.42445
7127,1577399076.67,0.2919174170517333,-0.7454142485827931,11.207725132490948,0.3464001036108991,-1.3775418820264858,9.997368600538303,0.9392277927305638,2.271805399676066,13.91749425048828,0.5059591153772866,0.5831834746570121,1.1373380335365857,3.134936821169969,8.479420731707316,1.6568811928353655,4.901234696551067,1.0621605849847562,0.7268393911966463,1.14592013888889,2.351780715811969,0.9769104737854758,-2.450812508805297,16.496745442057946,-27.631703032544383,29.86572618084883,37.58130410039836,38.15637823104801,1577399075.0,-27.71375333695652,-51.10300498344756,21.42445
7128,1577399076.68,0.0333436377548583,-0.4676868560046683,13.099144444014383,0.0183944761694928,-0.4222554196241419,12.875198996046114,-0.7678379909608415,-0.1918281086247139,14.037204333496092,0.3533712247522865,4.642021365282012,1.4425138147865857,-0.3440670850800305,5.091969559832317,2.9996546303353657,2.978627274676067,-2.203220274390244,-0.3107582650533537,1.14592013888889,2.351780715811969,0.9769104737854758,-8.614168383699631,-4.032537774725275,-32.05654651838546,29.62611195974481,37.38961272351514,38.25222391948962,1577399075.0,-27.71375333695652,-51.10300498344756,21.42445
7129,1577399076.69,-0.0301027062392818,-0.532330300828887,11.261594669844463,-0.3000343446312874,-1.2291013790967982,14.749858895948458,-0.3440642971131852,-0.8574161701481515,15.320496423339844,2.3827901700647867,3.0703660918445124,1.7019132288490857,0.6019778367949695,9.394948075457316,0.9244593178353658,5.603138993426067,-0.2500952743902439,0.9404624380716464,3.552713678800501e-15,1.227016025641025,-1.2023513523513552,-16.421085825232456,12.464207667332667,-4.032537774725275,29.74591907029682,37.58130410039836,38.25222391948962,1577399075.0,-27.71375333695652,-51.10300498344756,21.42445
7130,1577399076.7,0.8042765723251708,0.2170548188000182,10.221314048506573,0.364356616062071,-0.2283250851514856,10.331359732130098,0.6459380893614235,0.2211716777522386,9.95868180541992,5.053078256002286,-3.292548947217988,0.9237149866615856,5.606860649294969,-2.323801924542683,2.4655970131478657,0.3235979778010671,-7.131809141577744,3.778597203696647,-0.4407385149572604,1.3292673611111123,-1.578086149961158,-2.861702900464919,15.763556755744256,-2.852579511834319,29.62611195974481,37.50941983406716,38.41995387426245,1577399075.0,-27.71375333695652,-51.10300498344756,21.42445
7131,1577399076.71,0.7228737158798583,0.1188925507336119,9.184624729658918,0.4421681700171491,-1.7989213742139856,9.39642398383908,0.1036514133360325,-0.2875961750309639,9.088389501953124,7.769142709127286,2.3837205840320124,1.9307950647865848,3.348559868044969,6.587330887957317,1.0465296303353655,1.8189593059260671,-2.630466368140244,3.717562047446646,0.9696247329059844,0.5112566773504262,-0.9769104737854758,-1.4235865296562409,15.946853927322678,-2.70508472897295,29.817803336628028,37.58130410039836,38.30014676371043,1577399075.0,-27.71375333695652,-51.10300498344756,21.42445
7132,1577399076.72,0.3421956519150145,-1.099756094285918,9.85978959782298,-0.2329966981469124,0.0709501223680445,7.677387191846893,0.740509054937595,-1.4248419636051826,7.970297326660156,3.5577169278772867,2.3837205840320124,1.5951017054115857,3.257007133669969,-0.9810284870426828,1.7789515053353655,8.746449540301068,12.719875428734756,1.5508140005716462,0.9696247329059844,0.5112566773504262,-0.9769104737854758,-13.133962691955478,7.698481206293707,-4.032537774725275,29.62611195974481,37.53338125617755,38.44391529637284,1577399075.0,-27.71375333695652,-51.10300498344756,21.42445
7133,1577399076.73,0.9156069495224364,0.3798605316906432,9.741276615645244,0.1716233824194928,2.4268445559617944,10.825762374952363,-0.7151655544374039,-3.651449507550495,9.418789331054686,2.840553841939786,2.5973436309070124,1.6713956507240857,4.813403618044969,-7.633860518292683,2.4503382240853657,2.124135087176067,-1.5623511337652438,0.0554526724466463,3.552713678800501e-15,1.4315186965811977,-1.953820947570952,-2.861702900464919,13.563990696803195,-4.032537774725275,29.72195764818641,37.38961272351514,38.10845538682721,1577399075.0,-27.71375333695652,-51.10300498344756,21.42445
7134,1577399076.74,0.5576738013290771,-1.0135648345202932,10.795922446944072,1.044309887546446,-0.9358116757276576,9.273122598341034,-0.6170032863709977,1.2506783916194266,10.13824692993164,1.5740743497522869,1.315605349657012,1.1373380335365857,0.9987063524199692,4.893605302019816,1.6873987709603655,4.657094071551068,0.9400902724847562,0.2080405630716463,0.7933293269230788,2.7607860576923056,-0.5260287166537173,-2.450812508805297,13.563990696803195,-2.852579511834319,29.67403480396561,37.653188366729566,38.34806960793124,1577399075.0,-27.71375333695652,-51.10300498344756,21.42445
7135,1577399076.75,0.165024729063452,0.3702837250500182,13.489399314619854,-0.5849443421898811,1.2560799441453885,12.391570260694552,2.617563156500095,-0.5222279377262764,10.390835205078124,1.6351095060022869,5.374443240282012,2.1749356897865857,3.012866508669969,-4.185374190167683,2.8775843178353657,-3.277476240948933,9.912258241234756,0.1775229849466463,0.6170339209401732,-0.7157593482906008,-0.6763226356976347,3.712543366089037,20.162688873626376,-28.811661295435336,29.817803336628028,37.58130410039836,38.49183814059364,1577399075.0,-27.71375333695652,-51.10300498344756,21.42445
7136,1577399076.76,0.2967058203720458,1.0933326264172056,12.321028904463605,0.0997973326148053,0.8059700320360133,12.09947765815549,1.528201401129001,0.5838932292659099,10.817003100585938,3.4051290372522867,6.412040896532012,1.7171720179115857,0.6935305711699695,17.634694169207318,0.1004847084603658,3.894154618426067,10.583644959984756,-0.1886879525533537,0.6170339209401732,-0.7157593482906008,-0.6763226356976347,-11.901291516976611,19.429500187312687,-38.25132739856297,29.67403480396561,37.58130410039836,38.49183814059364,1577399075.0,-27.71375333695652,-51.10300498344756,21.42445
7137,1577399076.77,0.9239866553329832,-0.0475044646472469,10.678606565596416,1.774541393894102,-0.1098121029737518,9.295867514112516,0.593265652837986,-1.514624525861042,10.03529625854492,2.6727071622522867,1.941215701219512,1.4882901819740857,2.677173149294969,7.640187333269818,1.8857630287728655,1.5748186809260671,4.525905702172256,0.7420981802591462,-0.0881477029914492,1.3292673611111103,-0.3757347976097998,-9.8468395586785,19.429500187312687,-36.77637956994928,29.74591907029682,37.55734267828795,38.276185341600026,1577399075.0,-27.71375333695652,-51.10300498344756,21.42445
7138,1577399076.78,2.1306642920517334,-0.2713623198718558,8.540584483076886,1.6751820249976177,0.554578857719607,10.83533918159299,1.8202940036680637,1.9342229655940348,8.688557824707031,1.7571798185022869,2.4752733184070124,1.1983731897865857,2.402514946169969,-2.598460127667683,3.2743128334603657,5.114857743426067,9.210353944359756,0.5132163443216463,-0.0881477029914563,0.9202620192307712,-0.3757347976097998,-12.312181908636234,19.429500187312687,-40.61124392434488,29.72195764818641,37.58130410039836,38.39599245215204,1577399075.0,-27.71375333695652,-51.10300498344756,21.42445
7139,1577399076.79,1.2519922827743897,-0.2306608916491995,9.108010276533918,1.5219531187476176,0.209813818657107,10.710840695264864,0.1299876315977512,2.214344559832316,9.13627353515625,7.097755990377286,4.275810427782012,2.2054532679115857,0.7545657274199695,11.195485184832316,-0.2962438071646341,7.220570634051067,8.386379334984756,1.5202964224466462,0.7933293269230788,0.3067540064102557,-0.8266165547415584,-12.312181908636234,19.429500187312687,-40.61124392434488,29.62611195974481,37.43753556773595,38.49183814059364,1577399075.0,-27.71375333695652,-51.10300498344756,21.42445
7140,1577399076.8,0.8330069922470458,1.146005062940643,10.302716904951886,0.9449505186499616,0.2026312136766383,5.773996872022675,1.0349958591368138,-2.020998176984089,10.0748005859375,2.1539083341272867,0.3085252715320121,1.0152677210365857,0.1136965867949695,4.664723466082317,2.8470667397103657,5.725209305926067,4.602199647484756,1.5202964224466462,0.7933293269230788,0.3067540064102557,-0.8266165547415584,-3.067148096294731,14.113882211538462,-31.90905173552409,29.67403480396561,37.62922694461916,38.10845538682721,1577399075.0,-27.71375333695652,-51.10300498344756,21.42445
7141,1577399076.81,1.0604561499618894,-0.0594754729480281,9.5796680035847,0.3045015745581652,0.9137091067430446,10.958640567091036,0.3227208652403293,0.4581976421077074,11.494562170410155,2.0470968106897867,3.894340701219512,1.7019132288490857,1.5022463914824693,0.9110613567073172,2.1146448647103657,-1.9041852253239329,13.681179139672258,0.0096763052591463,0.7933293269230752,0.5112566773504262,-0.6763226356976378,-6.35427122957171,14.11388221153846,-17.454563015109894,29.69799622607601,37.62922694461916,38.204301075268816,1577399075.0,-27.71375333695652,-51.10300498344756,21.42445
7142,1577399076.82,0.1674189307236083,0.2577562470226744,10.716913792158916,1.4716748838843363,-0.5467539059522669,9.47303843696408,1.997464926519626,1.2758175090510662,10.87206973876953,1.4825216153772869,5.954277224657012,1.6866544397865857,-1.6563229444550305,9.974782059832316,0.6803186928353658,6.121937821551067,1.1231957412347562,1.4592612661966462,0.2644431089743619,1.3292673611111123,0.2254408785658761,-3.067148096294731,19.612797358891108,-31.61406216980136,29.67403480396561,37.43753556773595,38.44391529637284,1577399075.0,-27.71375333695652,-51.10300498344756,21.42445
7143,1577399076.83,0.6678070776962646,-0.0678551787585745,9.828664976240947,0.5714550596655866,-0.5108408810499232,8.697317099073455,-0.8133278225038102,1.2446928874690348,11.168950744628903,1.6045919278772869,4.367363162157012,1.2899259241615857,3.9283938524199695,-7.969553877667683,2.9996546303353657,2.276722977801067,13.299709413109756,0.0554526724466463,1.3222155448717956,-0.7157593482906008,-0.6763226356976347,3.5070981702592268,19.612797358891108,-3.2950638604184275,29.72195764818641,37.43753556773595,38.44391529637284,1577399075.0,-27.71375333695652,-51.10300498344756,21.42445
7144,1577399076.84,1.1155227881454832,0.144031668165253,10.177021317793685,0.7605969908179303,1.9168796023485133,12.42508908393674,0.4843294773008762,-1.1806333942692453,9.983820922851562,4.580055795064786,0.5679246855945121,0.8626798304115856,-0.4966549757050305,3.779713700457317,0.9854944740853658,5.267445634051067,-0.8604468368902439,-0.5243813119283537,0.7933293269230788,-0.5112566773504282,-0.6763226356976347,-1.629031725486053,19.429500187312687,-37.07136913567202,29.62611195974481,37.43753556773595,38.44391529637284,1577399075.0,-27.71375333695652,-51.10300498344756,21.42445
7145,1577399076.85,1.6159109351181395,-0.158834841844512,10.058508335615947,1.574625555271055,-0.5551336117628138,7.982647903516815,2.341032864752048,-1.22851742747237,8.064868292236328,1.2078634122522869,6.015312380907012,0.8626798304115855,-0.4051022413300305,11.897389481707316,2.1299036537728657,2.719227860613567,2.252346131859756,-0.0971352181783536,-0.0881477029914563,0.9202620192307712,-1.578086149961158,-9.846839558678498,16.496745442057943,-16.864583883664412,29.817803336628028,37.55734267828795,38.41995387426245,1577399075.0,-27.71375333695652,-51.10300498344756,21.42445
7146,1577399076.86,1.900820932676733,0.5043590180187683,8.121599192549542,1.7134892515601177,1.023842383110232,9.35811675727658,3.3286410495665013,0.2439165935237225,8.049305981445311,3.832375131002287,7.968437380907012,1.5340665491615857,-3.884106147580032,7.960621903582317,1.8094690834603653,3.161732743426067,9.851223084984756,-0.3717934213033537,0.2644431089743619,0.9202620192307712,-0.9769104737854758,-3.2725932921245406,15.030368069430567,-3.4425586432797965,29.62611195974481,37.43753556773595,38.44391529637284,1577399075.0,-27.71375333695652,-51.10300498344756,21.42445
7147,1577399076.87,1.5392964819931394,0.1212867523937682,7.532625584151105,0.8036926207007429,0.6264049075242945,10.095530868604708,0.8314887180235325,0.1385717204768475,8.09479581298828,0.6280294278772866,0.8883592559070121,0.6795743616615855,0.7240481492949695,1.6740008098323171,1.0160120522103655,-3.826792647198933,9.668117616234756,-0.8600746713033537,-0.2644431089743548,0.7157593482905967,-2.329555745180745,-3.2725932921245406,15.030368069430567,-3.4425586432797965,29.817803336628028,37.725072633060776,38.30014676371043,1577399075.0,-27.71375333695652,-51.10300498344756,21.42445
7148,1577399076.88,0.7563925391220457,0.8778544770031431,10.44636900456126,1.275350347751524,-0.0966439938428919,9.738794821241424,0.9176799777891574,-1.716934566144245,10.960655200195312,0.7195821622522866,5.191337771532012,0.2828458460365854,3.7452883836699695,-8.488352705792684,1.4127405678353655,2.063099930926067,11.651760194359756,-0.2192055306783537,-1.14592013888889,2.1472780448717903,-1.277498311873317,0.0145298411524369,13.563990696803195,-4.032537774725275,29.67403480396561,37.43753556773595,38.30014676371043,1577399075.0,-27.71375333695652,-51.10300498344756,21.42445
7149,1577399076.89,0.346984055235327,-0.3336115630359187,9.140331998946026,0.5846231687964459,0.5354252444383576,10.73358561103635,0.5920685520079079,-0.3917439472477608,9.03332286376953,-2.2558817049352133,6.579887576219512,1.3357022913490857,-4.097729194455031,5.122487137957317,1.6416224037728655,-1.9194440143864329,15.359645936547256,1.5813315786966462,-1.14592013888889,2.1472780448717903,-1.277498311873317,-1.526309127571147,12.922450596278718,-3.9587903832945903,29.721957648186415,37.50941983406716,38.32410818582083,1577399075.0,-27.71375333695652,-51.10300498344756,21.42445
7150,1577399076.9,-0.4167662743545157,0.5378778412609557,10.635510935713604,0.5211768248023053,-1.2530433956983609,10.15299170844846,-0.8037510158631852,-0.3067497883122139,11.875240234375,-1.2640604158727131,3.2076951934070124,0.2828458460365854,-0.4356198194550305,2.284352372332317,1.5042933022103655,-0.1036481159489328,9.179836366234756,0.4216636099466463,1.14592013888889,0.3067540064102557,-1.1272043928293995,-3.067148096294731,12.280910495754243,-3.8850429918639056,29.72195764818641,37.62922694461916,38.49183814059364,1577399075.0,-27.71375333695652,-51.10300498344756,21.42445
7151,1577399076.91,0.184178342344702,0.4564749848156432,9.455169517256572,-1.0925150941430062,1.2632625491258571,11.283054892042207,2.540948703375095,1.79057086598466,9.0788126953125,-3.1866678377477133,1.071464724657012,0.9237149866615856,-1.8394284132050305,2.131764481707317,0.9854944740853658,-3.155405928448933,6.372219178734756,0.9099448599466464,1.3222155448717956,-0.3067540064102557,-0.3757347976097998,-3.2725932921245406,15.030368069430567,-1.6726212489433638,29.86572618084883,37.58130410039836,38.15637823104801,1577399075.0,-27.71375333695652,-51.10300498344756,21.42445
7152,1577399076.92,0.327830441954077,0.0446722992687682,9.75205052311595,-0.2425735047875379,-1.0363681454542202,8.415998404005096,0.1263963291075173,-0.6934133564274484,11.915941662597657,1.9402852872522869,1.376640505907012,0.6490567835365855,-0.2067379835175304,2.635304520769817,0.9702356850228656,0.6592913371760671,5.990749452172256,-1.1347328744283538,-0.7933293269230717,-0.3067540064102557,-0.9769104737854758,-2.7589803025500146,21.354120488886117,-32.130293909816146,29.62611195974481,37.55734267828796,38.204301075268816,1577399075.0,-27.71375333695652,-51.10300498344756,21.42445
7153,1577399076.93,0.6713983801864989,0.1200896515636901,10.56129068424876,-0.5466371156273812,0.726961377250857,9.21207045600705,2.380537192144626,-0.0290223957340889,6.4643444824218745,-2.1185526033727133,2.5668260527820124,1.1220792444740857,-3.1822018507050305,6.617848466082317,0.4972132240853658,-3.338511397198933,-2.294773008765244,-0.0971352181783536,-0.7933293269230717,-0.3067540064102557,-0.9769104737854758,-12.106736712806422,21.07917473151848,-32.20404130124683,29.578189115524005,37.43753556773595,38.25222391948962,1577399075.0,-27.71375333695652,-51.10300498344756,21.42445
7154,1577399076.94,1.6829485816025145,1.3351469940929868,7.556567600752666,0.8491824522437116,0.5689440676805445,7.22009467475705,4.14027541235947,-2.7440470783512763,8.640673791503906,-1.904929556497713,0.8578416777820121,0.6795743616615855,0.5714602586699695,-0.3401593464176829,1.1991175209603655,-8.587534834698932,15.161281678734756,0.2080405630716463,0.0881477029914492,1.1247646901709418,-1.4277922309172344,-13.33940788778529,15.21366524100899,-3.2950638604184275,29.67403480396561,37.58130410039836,38.15637823104801,1577399075.0,-27.71375333695652,-51.10300498344756,21.42445
7155,1577399076.95,1.419586398985327,0.7294139740734557,7.535019785811261,1.2681677427710552,0.056584912407107,8.852940206983613,1.2337145969297822,-0.9483958332340888,9.670180505371093,-1.996482290872713,-4.665839962842988,0.1912931116615854,-1.8699459913300305,-8.061106612042684,0.5277308022103658,-3.002818037823933,-1.0740698837652438,-0.6769692025533537,1.4985109508547012,-0.9202620192307712,-1.4277922309172344,-0.190915354677375,19.612797358891108,-3.8850429918639056,29.817803336628028,37.43753556773595,38.44391529637284,1577399075.0,-27.71375333695652,-51.10300498344756,21.42445
7156,1577399076.96,0.5492940955185301,0.1703678864269718,9.328276829268292,0.9736809385718366,-0.9801044064405482,8.759566342237518,0.4053208225157199,-1.2931608722965888,10.31661495361328,-3.888572134622714,-0.683296017530488,0.2828458460365854,-6.661205756955031,0.9415789348323172,0.2835901772103658,-5.108530928448933,7.074123475609756,0.5742515005716463,0.1762954059829092,1.0225133547008545,-0.601175676175679,-0.396360550507185,19.429500187312687,-4.032537774725275,29.67403480396561,37.58130410039836,38.39599245215204,1577399075.0,-27.71375333695652,-51.10300498344756,21.42445
7157,1577399076.97,-0.0169345971084219,-0.369524587938262,11.447145298506571,-0.1707474549828499,0.3965615481492945,11.539234469678927,0.6794569126036112,0.6724786906916917,11.064802972412108,-6.604636587747714,-0.1492384003429878,0.8321622522865855,-4.097729194455031,4.161183427019817,0.5735071693978657,-3.292735030011433,5.609279725609756,0.8031333365091462,-0.4407385149572604,1.3292673611111123,-0.3757347976097998,-5.532490446252464,12.097613324175825,-2.2626003803888417,29.72195764818641,37.43753556773595,38.34806960793124,1577399075.0,-27.71375333695652,-51.10300498344756,21.42445
7158,1577399076.98,0.404444895079077,-0.7023186186999807,10.022595310713603,1.5985675718726176,-1.236283984077267,10.571976998975805,0.2544861179258762,3.7418452190120046,11.650185278320311,-7.489646353372714,0.4305955840320121,0.4354337366615854,-4.006176460080031,3.199879716082317,0.7718714272103658,-3.094370772198933,-2.630466368140244,1.0625327505716462,-0.0881477029914563,1.3292673611111123,-1.578086149961158,-2.861702900464919,19.79609453046953,-33.8264839127219,29.62611195974481,37.58130410039836,38.30014676371043,1577399075.0,-27.71375333695652,-51.10300498344756,21.42445
7159,1577399076.99,0.117140695860327,-0.6903476103991995,10.89408471501048,-1.463616351467225,0.3007934817430445,10.291855404737522,2.471516855230564,-0.919665413312214,8.568847741699217,-1.7523416658727131,1.681816287157012,0.8321622522865855,-3.3042721632050305,1.7045183879573171,0.1004847084603658,-1.0496930378239329,-2.813571836890244,0.8794272818216463,0.0881477029914492,-0.1022513354700852,-1.4277922309172344,-0.6018057463369949,19.612797358891108,-29.54913520974218,29.86572618084883,37.43753556773595,38.39599245215204,1577399075.0,-27.71375333695652,-51.10300498344756,21.42445
7160,1577399077.0,0.7228737158798583,0.3954228424816588,10.639102238203838,-0.5011472840844123,0.085315332328982,8.352552060010956,-0.6265800930116228,-1.3482275104801826,8.595183959960938,-3.110373892435214,-2.804267697217988,0.4659513147865854,-6.569653022580031,7.045094559832317,0.1920374428353658,-4.864390303448933,3.991848084984756,0.8794272818216463,-0.176295405982902,1.6360213675213662,-0.1502939190439206,-1.4235865296562409,19.97939170204795,-28.959156078296704,29.67403480396561,37.43753556773595,38.30014676371043,1577399077.0,-27.71350491093166,-51.10334993607396,21.656397
7161,1577399077.01,0.950322873594702,-0.7669620635241995,9.366584055830792,1.496814001315977,-0.1768497494581268,8.68893739326291,-0.2686469448182633,-1.1926044025700264,10.562020623779295,-3.1256326814977133,-0.0882032440929878,0.9542325647865856,-3.578930366330031,7.075612137957316,0.1767786537728658,-5.154307295636433,11.346584413109756,-0.3565346322408537,0.2644431089743619,2.556283386752136,0.2254408785658761,-2.245367312975486,19.796094530469528,-27.92669259826712,29.62611195974481,37.48545841195675,38.39599245215204,1577399077.0,-27.71350491093166,-51.10334993607396,21.656397
7162,1577399077.02,1.2543864844345458,-0.6113389556140433,8.298770115401105,1.830805132907774,-0.7023770138624232,9.834562887647678,3.134710715093845,0.8161307903010662,10.5344873046875,-0.5926736971227134,3.695976443407013,0.4964688929115854,0.2052493211699695,-4.551585127667683,0.0394495522103658,-4.345591475323933,5.120998475609756,-1.0431801400533538,0.9696247329059844,0.1022513354700852,-2.179261826136828,-11.490401125316987,-4.032537774725275,-3.4425586432797965,29.72195764818641,37.58130410039836,38.25222391948962,1577399077.0,-27.71350491093166,-51.10334993607396,21.656397
7163,1577399077.03,1.5416906836532958,-0.3862839995593558,9.474323130537824,0.988046148532774,0.047008105766482,11.093912960889863,0.6710772067930637,0.9717538982112224,11.087547888183591,-3.0340799471227133,-0.5154493378429879,0.6490567835365855,-7.424145210080031,4.390065262957317,1.2601526772103655,-11.852915694073932,-2.538913633765244,-0.2802406869283537,1.8511017628205124,0.7157593482905967,-0.8266165547415584,-3.2725932921245406,-3.665943431568431,1.2772744082840235,29.72195764818641,37.58130410039836,38.44391529637284,1577399077.0,-27.71350491093166,-51.10334993607396,21.656397
7164,1577399077.04,0.8808910254501708,-0.541907107469512,10.801907951094464,1.0814200132788676,-0.2762091183546106,9.810620871046114,0.847051028814548,0.632974363299113,9.776722479248049,-0.9283670564977132,0.094902224657012,-0.1444002477134145,-1.5342526319550305,3.413502762957317,-0.1131383384146341,-3.460581709698933,-5.819553282202744,2.435823766196646,0.8814770299145316,0.0,-0.7514695952195966,-1.6290317254860518,13.93058503996004,-3.1475690775570584,29.76988049240722,37.60526552250876,38.46787671848324,1577399077.0,-27.71350491093166,-51.10334993607396,21.656397
7165,1577399077.05,0.4212043067001708,0.5905502777843932,11.643469834639385,-0.4724168641625373,-0.3791597897413294,13.08828294380002,1.1020335056211887,-1.161479780987995,12.255918298339845,1.2383809903772869,7.297050662157012,0.6185392054115855,-1.7478756788300305,-3.239329268292683,0.3141077553353658,-6.970103194073933,1.2452660537347562,1.3677085318216462,1.3222155448717956,0.9202620192307712,-0.6763226356976347,-9.8468395586785,7.698481206293707,-3.737548209002536,29.67403480396561,37.58130410039836,38.39599245215204,1577399077.0,-27.71350491093166,-51.10334993607396,21.656397
7166,1577399077.06,-1.0105282860732656,-0.015182742235137,10.807893455244852,-0.1468054383812874,2.029407080375857,12.714787484815648,1.5234129978086886,-1.1040189411442451,9.572018237304688,-4.590476431497714,3.787529177782013,1.1983731897865857,-3.0601315382050305,6.739918778582317,0.0699671303353658,5.877797196551067,-3.515476133765244,1.8559897818216464,2.556283386752135,-0.5112566773504303,-2.329555745180745,-2.861702900464919,13.563990696803195,-3.147569077557058,29.67403480396561,37.43753556773595,38.30014676371043,1577399077.0,-27.71350491093166,-51.10334993607396,21.656397
7167,1577399077.07,-0.9482790429092032,-1.2242545806140432,8.507065659834698,-0.0199127503930061,0.0517965090867945,10.68929288032346,-2.491663186273342,1.831272294207316,10.953472595214842,-4.346335806497714,1.986992068407012,0.8016446741615855,0.3883547899199695,-6.657298018292683,-0.6014195884146342,0.5372210246760671,-8.001560118140244,2.283235875571646,0.0881477029914492,0.3067540064102557,-0.5260287166537173,-1.629031725486053,15.030368069430567,-2.852579511834319,29.72195764818641,37.43753556773595,38.49183814059364,1577399077.0,-27.71350491093166,-51.10334993607396,21.656397
7168,1577399077.08,0.414021701719702,-0.355159377977325,10.06329673893626,0.3092899778784776,-0.6413248715284396,9.463461630323456,-0.1393600551698263,-1.3410449054997138,9.428366137695312,1.9555440763147869,-7.107246212842988,0.4506925257240854,0.0221438524199693,2.208058427019817,0.2072962318978656,-1.1107281940739329,-2.493137266577744,0.2385581411966463,0.705181623931626,1.227016025641027,-0.9017635142635172,-0.7045283442519019,18.78796008678821,-17.528310406540577,29.76988049240722,37.43753556773595,38.44391529637284,1577399077.0,-27.71350491093166,-51.10334993607396,21.656397
