,timestamp,acc_x_dashboard,acc_y_dashboard,acc_z_dashboard,acc_x_above_suspension,acc_y_above_suspension,acc_z_above_suspension,acc_x_below_suspension,acc_y_below_suspension,acc_z_below_suspension,gyro_x_dashboard,gyro_y_dashboard,gyro_z_dashboard,gyro_x_above_suspension,gyro_y_above_suspension,gyro_z_above_suspension,gyro_x_below_suspension,gyro_y_below_suspension,gyro_z_below_suspension,mag_x_dashboard,mag_y_dashboard,mag_z_dashboard,mag_x_above_suspension,mag_y_above_suspension,mag_z_above_suspension,temp_dashboard,temp_above_suspension,temp_below_suspension,timestamp_gps,latitude,longitude,speed
32243,1577310573.29,0.7602466198432729,-0.7349615145055254,11.245623592916347,1.3627679059284483,0.6860847635408726,9.570032801781627,-0.3205894418111659,7.658291973728086,12.779898090939405,-0.1151852491425304,2.1838676638719514,0.9849362257050304,-1.922607421875,2.853579637480945,1.8530124571265243,0.7474945812690548,-9.892905630716465,-10.464924137766769,-8.254542675688512,6.709357347234502,-0.0907905794479859,-2.525660004861394,-9.26594076448243,-211.31061674870253,25.408901668314016,35.13723904513733,32.45355976877228,1577310572.999,-27.69337607695336,-51.11987856835037,5.741345
32244,1577310573.3,0.8296784679878042,-2.5258243563024,9.646296883931974,1.6500721051471985,-1.6267140401700648,10.582780104027725,3.9315127066263327,5.5442119078101175,10.20373710461128,-2.5871090772675305,-0.5932319455030487,0.0083737257050304,0.091552734375,1.2971831531059452,0.8459323790015244,-0.7783843249809452,-10.442222036966465,8.272868830983231,-7.74916251187085,6.18655028121623,-0.2723717383439576,-2.525660004861394,-9.26594076448243,-211.31061674870253,25.504747356755622,34.993470512474914,32.45355976877228,1577310572.999,-27.69337607695336,-51.11987856835037,5.741345
32245,1577310573.31,1.7298982922065542,-2.8514357820836502,10.029369149556974,1.8643531537311828,-1.8613458028653769,9.513769062767958,1.7659573050150057,0.3823131285132427,8.001071577267531,-0.1151852491425304,0.7190239138719513,0.3745846632050305,0.7476806640625,2.060122606230945,-0.0238185975609755,-0.7783843249809452,-2.416098990091464,3.817302424733232,-7.5807024572649615,4.269591039149227,-0.453952897239937,-11.430922972346584,-12.5219275369692,-176.84654876373617,25.31305597987241,34.7778177134813,32.02225417078503,1577310572.999,-27.69337607695336,-51.11987856835037,5.741345
32246,1577310573.32,0.3041512035835078,0.7949333463343173,10.3837109952601,0.3763568219440734,0.3101951028963414,7.190196351586318,1.010586681235708,-1.4612221498070683,1.1967504591034674,-0.7255368116425305,0.7953178591844514,0.4813961866425304,-2.716064453125,0.5342436999809451,0.2355808165015244,-2.304263231230945,7.959877572408536,13.704997737233231,-7.5807024572649615,6.01228125921014,0.2723717383439652,1.370392543413376,-9.599888125763124,-164.85904685592186,25.408901668314016,34.94554766825411,32.30979123610986,1577310572.999,-27.69337607695336,-51.11987856835037,5.741345
32247,1577310573.33,-0.436854210234851,0.9577390592249424,7.613619674459318,-1.4599958513957694,2.44342878209556,9.531725575219127,2.2579657461771143,-3.060548858791444,2.164007929806593,-0.4508786085175305,4.625273913871951,1.1070065382050305,-1.0986328125,2.090640184355945,0.8459323790015244,-1.8159819812309448,23.890053353658537,3.908855159108232,-7.74916251187085,5.838012237204049,1.1802775328238315,1.6486820111472866,-12.521927536969203,-174.59889215602104,25.60059304519724,34.753856291370894,32.30979123610986,1577310572.999,-27.69337607695336,-51.11987856835037,5.741345
32248,1577310573.34,-0.6068425281059447,0.1030090665491611,8.245688912740567,-0.7991961931926442,2.61581130162681,11.37047245021913,0.9770678579935204,7.778002056735898,8.353019221310499,-1.3053707960175305,-1.1425483517530486,1.4121823194550305,-3.326416015625,1.6633940906059452,1.9140476133765243,-1.2666655749809452,31.214272103658537,7.509929377858231,-7.917622566476737,5.663743215197955,-0.0907905794479859,-3.082238940329218,-12.605414377289376,-176.84654876373614,25.45682451253482,34.8017791355917,32.30979123610986,1577310572.999,-27.69337607695336,-51.11987856835037,5.741345
32249,1577310573.35,-1.0952596667778198,-1.278445291360994,8.07809479652963,0.8025247174518864,-1.556085091195455,9.475461836205458,-0.5731777169576507,-5.185402832180115,7.714964478878858,-0.3593258741425305,-2.1191108517530486,1.4732174757050305,0.579833984375,-0.5949066906440548,1.1816257383765243,-1.922793504668445,35.39518030678354,-1.050251286204268,-7.412242402659081,5.838012237204049,0.0907905794479934,-5.030265214466604,-9.766861806403472,-199.3231148408881,25.45682451253482,34.8017791355917,32.33375265822026,1577310572.999,-27.69337607695336,-51.11987856835037,5.741345
32250,1577310573.36,2.0028372814643665,-1.7429204134313063,9.262027517476897,3.100958311201886,-4.612283510384908,7.223715174828505,-1.2255976693502284,1.1628228697241805,8.637929218869093,-2.3124508741425305,-1.7528999142530486,0.2677731397675304,-1.312255859375,-0.0455902843940548,0.7238620665015244,-0.6868315906059452,32.49601038490854,-3.690021794016769,-7.917622566476737,6.01228125921014,-0.0907905794479859,-10.87434403687876,-9.93383548704382,-206.81530353327216,25.55267020097643,34.94554766825411,32.45355976877228,1577310572.999,-27.69337607695336,-51.11987856835037,5.741345
32251,1577310573.37,1.583851990937023,0.3711596524866611,8.568906136861662,0.3787510236042297,-0.6905811910489702,6.668260389672255,0.8693287832864893,1.7182776548804302,8.001071577267531,0.0984377977324695,2.4280082888719514,0.8323483350800305,-5.43212890625,-1.7850922375190548,1.2731784727515243,-2.670474168730945,30.787026009908537,1.5590016434832317,-7.917622566476737,6.01228125921014,-0.0907905794479859,-10.87434403687876,-9.93383548704382,-206.81530353327216,25.408901668314016,34.8017791355917,32.30979123610986,1577310572.999,-27.69337607695336,-51.11987856835037,5.741345
32252,1577310573.38,0.6046235119331167,1.9154197232874424,10.378922591939784,-0.2150109881145193,1.2056265237947787,6.847825514183974,2.583577171958364,-0.3120053529320686,6.686654865841749,-1.9767575147675305,1.2683403201219514,0.0388913038300304,-2.25830078125,2.884097215605945,0.1745456602515244,-1.7549468249809452,33.01480921303354,-1.4012034346417683,-9.60222311253562,5.315205171185774,0.9986963739278524,-10.87434403687876,-9.93383548704382,-206.81530353327216,25.504747356755622,34.94554766825411,32.45355976877228,1577310572.999,-27.69337607695336,-51.11987856835037,5.741345
32253,1577310573.39,1.0080464916694447,-0.7852397493688071,8.48630617958627,0.6480987103718077,-0.3434219503263149,8.953525874291396,-2.4717796334615563,-3.0234387330590216,12.969040022091749,-1.5037350538300305,2.5195610232469514,0.0236325147675304,-0.42724609375,1.419253465605945,0.1745456602515244,-1.602358934355945,23.56961878334604,-4.9717600752667686,-8.507232757597343,6.447953814225368,-1.089486953375842,-9.76118616594311,-10.60173020960521,-210.56139787946412,25.504747356755622,34.70593344715009,32.357714080330666,1577310572.999,-27.69337607695336,-51.11987856835037,5.741345
32254,1577310573.4,-0.7648598376762572,-3.1794414095250563,10.402864608541348,0.3572032086628234,-4.22202863977944,8.099992982445693,0.2205001333841455,0.1859885923804303,18.91623694591987,-1.4884762647675305,0.4443657107469513,-0.2968020555449695,2.166748046875,3.494448778105945,-1.2902980897484757,-0.1069976062309452,0.7272115567835366,-10.617512028391769,-8.928382894112062,6.01228125921014,-0.453952897239937,-9.76118616594311,-11.269624932166597,-149.87466947115377,25.504747356755622,34.70593344715009,32.357714080330666,1577310572.999,-27.69337607695336,-51.11987856835037,5.741345
32255,1577310573.41,1.2654231701362415,-0.9815642855016192,10.366951583639004,3.685143516280011,-3.2691363790372523,9.14865330959413,-0.2272155770650721,1.4333676573218364,12.755956074337842,-2.2514157178925305,2.5500786013719514,-1.2733645555449695,-5.828857421875,4.806704637480945,0.1440280821265244,-0.1375151843559452,-11.388266958841465,0.9791676591082316,-8.928382894112062,6.01228125921014,-0.453952897239937,-9.76118616594311,-11.269624932166597,-152.87154494810736,25.45682451253482,34.89762482403331,32.30979123610986,1577310572.999,-27.69337607695336,-51.11987856835037,5.741345
32256,1577310573.42,0.3412613293159292,0.3376408292444736,9.133937728658536,-1.0912887957317068,1.775446518911966,12.048031520043349,-0.6198646493306972,1.7110950498999613,8.831859553341749,-0.0236325147675304,1.4514457888719514,0.3440670850800305,-4.180908203125,-0.0150727062690548,-0.1611476991234756,-1.6023589343559452,-13.005698599466465,-2.927082340891769,-9.096842948717953,5.838012237204049,0.0907905794479934,-9.204607230475286,-12.605414377289376,-140.884043040293,25.45682451253482,34.8017791355917,33.07655674364273,1577310572.999,-27.69337607695336,-51.11987856835037,5.741345
32257,1577310573.43,-0.1710978259575077,1.5562894742640043,9.275195626607754,0.7737942975300114,2.244710044302592,8.68896659084413,0.7986998343118804,-0.5753675355492567,5.507510548214796,-2.709179389767531,-1.5392768673780486,-0.3273196336699696,-0.9613037109375,-0.7169770031440548,-0.3595119569359755,-3.051943895293445,-3.758872427591464,4.915935237233232,-7.580702457264966,6.012281259210139,0.8171152150318806,-7.256580956337901,-12.354953856328857,-103.423099578373,25.456824512534823,34.8497019798125,32.30979123610986,1577310572.999,-27.69337607695336,-51.11987856835037,5.741345
32258,1577310573.44,2.074663331269054,-0.6751064730016191,7.302373458639005,1.3436142926471983,-1.0161926168302202,5.9547882949456925,0.119943663657583,0.3559769102515241,4.570180598263624,-1.9767575147675305,0.3833305544969513,-0.3578372117949695,2.777099609375,0.2595854968559451,-0.4663234803734756,-1.4802886218559452,11.316811166158535,-7.352131169016768,-8.254542675688512,5.315205171185774,0.2723717383439652,-2.525660004861394,-12.605414377289376,-116.90903922466424,25.45682451253482,34.94554766825411,32.07017701500584,1577310572.999,-27.69337607695336,-51.11987856835037,5.741345
32259,1577310573.45,0.8344668713081167,-2.2313375521031817,9.37335789467416,1.3124896710651672,-2.768748232064596,6.021825941430068,4.091924217856802,4.962420904392149,8.52540174084175,-3.5331539991425305,-0.2880561642530487,-0.0526614305449695,-6.77490234375,1.4192534656059452,0.3576511290015244,-3.280825731230945,12.201820931783535,2.4745289872332314,-8.254542675688512,5.315205171185774,0.2723717383439652,-2.8039494725953062,-11.854032814407812,-134.14107321714732,25.64851588941804,34.8017791355917,32.30979123610986,1577310572.999,-27.69337607695336,-51.11987856835037,5.741345
32260,1577310573.46,-0.676274376250476,-2.568919986185213,10.22808788734994,1.128136143233136,-1.107172279916158,12.356883534203504,-0.6282443551412444,-7.176181512600038,17.146921919064404,-1.4274411085175305,0.5359184451219513,-0.3273196336699695,-4.7454833984375,-2.1207855968940548,-0.2527004334984756,-3.051943895293445,-6.444419302591464,3.5884205887957314,-7.917622566476737,4.618129083161412,-0.453952897239937,-1.2733574000587895,-12.229723595848592,-137.51255812872017,25.64851588941804,34.84970197981251,32.30979123610986,1577310572.999,-27.69337607695336,-51.11987856835037,5.741345
32261,1577310573.47,-0.1495500110161015,-0.0167010164586508,9.61038385902963,-1.675474000809832,0.0492271219393101,11.226820350609756,-2.468188330971322,0.4469565733374616,13.70166573009956,-1.8546872022675305,-2.8515327267530486,-0.2662844774199695,-1.312255859375,-2.2123383312690548,-0.3137355897484756,-0.0154448718559452,-27.623618521341463,-11.136310856516769,-8.84415286680912,5.9251467482070925,-0.3631623177919473,-0.8559231984579215,-12.605414377289376,-152.87154494810736,25.45682451253482,34.8017791355917,32.30979123610986,1577310572.999,-27.69337607695336,-51.11987856835037,5.741345
32262,1577310573.48,0.1688788097846792,2.966474252096036,10.874522335592127,1.7195039532917296,1.593487192740091,9.452716920433971,1.048893907798208,3.4492854551733987,8.017830988888624,-0.8170895460175305,0.9021293826219512,-0.0526614305449695,-0.823974609375,-1.8766449718940548,-1.5954738709984757,-2.090640184355945,-27.867759146341463,-0.2720530440167683,-8.928382894112062,4.966667127173593,0.2723717383439652,-0.8559231984579215,-12.605414377289376,-152.87154494810736,25.74436157785965,34.70593344715009,32.45355976877228,1577310572.999,-27.69337607695336,-51.11987856835037,5.741345
32263,1577310573.49,0.2047918346870229,1.0774491422327548,9.490673776021817,-0.0450226702434255,2.982124155630716,7.180619544945693,-0.8712558236471034,1.6679994200171488,2.0347210401581552,-5.547314155392531,-4.346894054878049,-0.2968020555449695,-1.52587890625,-1.1442230968940548,-0.5578762147484756,-2.395815965605945,-18.865073599466463,-2.377765934641769,-8.928382894112062,4.966667127173593,0.2723717383439652,-0.8559231984579215,-12.605414377289376,-152.87154494810736,25.504747356755622,34.993470512474914,32.50148261299308,1577310572.999,-27.69337607695336,-51.11987856835037,5.741345
32264,1577310573.5,0.9230523327338984,-3.242887753519197,8.760442269674162,0.6277479962604802,-2.265965883431784,8.041335041771864,-1.4949453561178063,1.7673587889136333,5.41533378429878,-3.380566108517531,-1.7986762814405486,-0.0068850633574695,-4.2724609375,-2.4107025890815548,0.7391208555640243,-3.891177293730945,2.3904195645960367,0.5519215653582316,-7.412242402659078,6.186550281216231,-0.6355340561359087,-0.8559231984579215,-12.605414377289376,-152.87154494810736,25.408901668314016,34.8497019798125,32.45355976877227,1577310572.999,-27.69337607695336,-51.11987856835037,5.741345
32265,1577310573.51,-0.034628331328601,-1.709401590189119,10.706928219381192,-0.4616137591106131,-2.998591591439596,9.871702210961317,-1.797811866127572,-4.221736663967224,13.49097598400581,-4.692821967892531,-4.743622570503049,-0.0221438524199695,-3.90625,-1.2052582531440548,-0.2221828553734756,-4.928774949980945,-3.6062845369664633,2.3524586747332314,-8.591462784900287,5.315205171185774,0.2723717383439652,8.605918704495092,-12.605414377289376,-164.85904685592186,25.504747356755622,34.8017791355917,32.64525114565549,1577310572.999,-27.69337607695336,-51.11987856835037,5.741345
32266,1577310573.52,1.3300666149604603,1.0822375455530673,11.58320602699838,1.6045822736042297,-0.0513293477872513,10.894026319848036,-0.9071688485494472,2.5299120176733987,16.086290583615185,-3.3805661085175305,-3.3398139767530486,-0.3883547899199695,-5.340576171875,-1.2052582531440548,0.1440280821265244,-2.975649949980945,-13.463462271341465,2.0472828934832314,-8.254542675688512,5.315205171185774,-0.8171152150318806,8.605918704495092,-12.271467016008682,-212.8090544871794,25.45682451253482,34.70593344715009,32.357714080330666,1577310572.999,-27.69337607695336,-51.11987856835037,5.741345
32267,1577310573.53,0.434635194062023,2.458903500142911,11.667003085103849,0.9940608502643858,1.9574058450838407,10.032113722191786,-1.2926353158346031,-0.6519819886742562,18.581048713498,-4.570751655392531,-3.4313667111280486,-0.3883547899199695,-1.77001953125,-1.7545746593940548,-1.5039211366234757,-3.524966356230945,-31.468833365091463,0.7655446122332317,-8.254542675688512,5.315205171185774,-0.8171152150318806,1.370392543413376,-12.438440696649028,-208.3137412717489,25.504747356755622,34.89762482403331,32.118099859226646,1577310572.999,-27.69337607695336,-51.11987856835037,5.741345
32268,1577310573.54,0.5016728405463979,-1.086909158548495,9.90367356239877,1.9601212201374327,-0.5397464864591269,9.644253053246477,0.4611174002298492,-2.8175373902855854,10.018186475949172,-4.708080756955031,-2.8515327267530486,-0.6019778367949695,-2.3193359375,-2.7311371593940548,-0.5273586366234756,-2.136416551543445,-39.23555699790396,-13.867634098704269,-8.844152866809118,5.053801638176639,-0.1815811588959717,-1.1342126661918337,-9.599888125763124,-248.77156021062265,25.43286309042442,34.873663401922904,31.99829274867464,1577310572.999,-27.69337607695336,-51.11987856835037,5.741345
32269,1577310573.55,0.903898719452648,-3.402102163919588,8.03260496498666,1.044339085127667,-2.51735705774819,10.398426576195693,1.278737267173208,2.647227899021055,6.399350666623,-2.6176266553925305,-1.0509956173780486,0.5271725538300305,-5.462646484375,-3.3720063000190548,-0.2527004334984756,-1.6328765124809452,-32.23177281821646,-4.6360667158917686,-9.096842948717953,4.443860061155317,-0.2723717383439576,-11.987501907814408,-9.766861806403472,-248.77156021062265,25.504747356755622,34.94554766825411,32.357714080330666,1577310572.999,-27.69337607695336,-51.11987856835037,5.741345
32270,1577310573.56,0.8224958630073355,-1.948821756204744,9.93599528481088,-0.4855557757121755,-2.450319411263815,6.261246107445693,-0.2463691903463221,2.915378484958555,5.721791596798781,-4.875927436642531,-2.3327338986280486,0.5271725538300305,-5.79833984375,-2.0902680187690548,0.9374851133765244,-3.524966356230945,-27.348960318216463,8.639079768483231,-8.759922839506174,6.18655028121623,0.8171152150318806,-11.430922972346584,-11.436598612806945,-211.31061674870253,25.60059304519724,34.70593344715009,32.45355976877228,1577310572.999,-27.69337607695336,-51.11987856835037,5.741345
32271,1577310573.57,1.009243592499523,-1.5896915071813065,10.584823934713224,-0.1814921648723318,-1.320256227670065,7.393703492699599,-0.6246530526510097,-8.734806793361757,9.375343330197218,-2.1598629835175305,-2.1496284298780486,1.0764889600800305,-4.638671875,-3.4025238781440548,0.9069675352515244,-3.311343309355945,-19.750083365091463,5.739909846608232,-8.759922839506174,6.18655028121623,0.8171152150318806,-11.430922972346584,-9.26594076448243,-206.81530353327216,25.45682451253482,34.993470512474914,32.30979123610986,1577310572.999,-27.69337607695336,-51.11987856835037,5.741345
32272,1577310573.58,0.8715769970405386,1.9944283780725989,11.682565395894864,0.6588726178425108,0.9709947610994664,10.233226661644911,0.2324711416849268,5.33831056503668,13.569984638790968,-2.6176266553925305,-1.0662544064405486,0.3135495069550304,-3.509521484375,-2.3344086437690548,0.8764499571265244,-2.639956590605945,-24.632895865091463,-1.0349924971417683,-8.844152866809118,5.7508777262010025,0.1815811588959718,-10.87434403687876,-9.599888125763124,-161.86217137896827,25.55267020097643,34.89762482403331,32.45355976877228,1577310572.999,-27.69337607695336,-51.11987856835037,5.741345
32273,1577310573.59,0.0731107433784292,-0.9073440340367752,11.152249728170254,-0.2640921221477229,0.1677401041170449,10.849733589135148,0.0828335379251617,-5.305112915187928,10.359360212521436,-3.5941891553925305,-0.4101264767530487,0.1304440382050304,-4.08935546875,-1.2205170422065548,1.0442966368140243,-3.524966356230945,-26.051963247903963,1.5284840653582314,-8.591462784900287,6.01228125921014,-0.8171152150318806,-10.596054569144847,-9.850348646723646,-161.11295250972978,25.2651331356516,34.8257405577021,32.285829813999456,1577310572.999,-27.69337607695336,-51.11987856835037,5.741345
32274,1577310573.6,0.5519510754096792,-1.4005495760289628,10.21611687904916,-1.160720643876238,-1.1718157247403764,12.165347401391005,2.511751122153677,3.36548839706793,5.649965546994093,-2.8617672803925305,-0.3796088986280487,0.1304440382050304,-2.716064453125,-0.8695648937690549,0.7238620665015244,-2.548403856230945,-17.064536490091463,-2.774494450266769,-9.939143221747395,4.966667127173593,-0.8171152150318806,-10.596054569144847,-9.850348646723646,-161.11295250972978,25.45682451253482,34.70593344715009,32.26186839188906,1577310572.999,-27.69337607695336,-51.11987856835037,5.741345
32275,1577310573.61,-0.3865759753715698,-3.0860675447789627,10.096406796041348,-1.591676942704363,-1.2388533712247525,9.919586244164442,2.380070030845083,1.6895472349585552,5.28125849133003,-2.8617672803925305,-2.3022163205030486,0.9239010694550304,-4.39453125,-0.8085297375190549,1.6088718321265243,-3.433413621855945,-4.125083365091464,12.148601252858231,-7.0753222934473055,5.838012237204049,-0.6355340561359087,-10.87434403687876,-8.931993403201735,-164.85904685592186,25.504747356755622,34.8017791355917,32.30979123610986,1577310572.999,-27.69337607695336,-51.11987856835037,5.741345
32276,1577310573.62,0.2263396496284292,-0.9217092439977128,10.26759221474252,-0.950030897782488,-0.3913059835294399,9.070841755639051,-1.5284641793599938,-0.6507848878441785,6.242530457882765,-1.7020993116425305,-2.6836860470655486,1.2901120069550305,-1.7242431640625,-0.0608490734565547,1.1816257383765243,-2.700991746855945,13.300453744283535,5.099040705983232,-7.833392539173796,5.7508777262010025,0.0,3.874997753018585,-12.521927536969203,-185.83717519459705,25.45682451253482,34.89762482403331,32.38167550244107,1577310572.999,-27.69337607695336,-51.11987856835037,5.741345
32277,1577310573.63,0.8536204845893667,0.9026724210413486,10.493844271627284,1.2669998395221984,0.3006182962557163,9.18696053615663,0.6490622305521143,-2.548189703518006,12.380066413693312,-1.7631344678925305,-0.2880561642530487,1.3206295850800305,-2.349853515625,2.792544481230945,2.0666355040015243,-3.006167528105945,13.575111947408535,3.3900563309832314,-7.917622566476737,5.663743215197955,-1.1802775328238315,-2.247370537127482,-12.521927536969203,-207.56452240251068,25.64851588941804,34.8017791355917,32.26186839188906,1577310572.999,-27.69337607695336,-51.11987856835037,5.741345
32278,1577310573.64,2.6229355114448354,0.3208814176233798,11.420400314107754,3.7210565411823535,-2.3904643697599086,10.860507496605848,2.0688238150247704,-2.4955172669945687,12.717648847775342,-2.4650387647675305,-1.9970405392530488,0.7407956007050305,-2.86865234375,1.9075347156059448,1.4868015196265243,-0.5952788562309452,8.936440072408537,-12.845295231516769,-8.591462784900287,6.01228125921014,0.9986963739278524,-11.430922972346584,-8.931993403201735,-209.81217901022572,25.2651331356516,34.70593344715009,32.30979123610986,1577310572.999,-27.69337607695336,-51.11987856835037,5.741345
32279,1577310573.65,1.897492408417492,-1.7812276399938065,10.390893600240569,1.5614866437214172,-1.7990965597013149,9.680166078148815,-0.0524388558736659,0.3679479185523053,13.93869169445503,-1.9462399366425305,2.0617973513719514,1.1375241163300305,-2.25830078125,0.2290679187309451,0.6933444883765244,-1.4192534656059452,2.6193014005335367,-9.885090153391769,-7.412242402659081,5.489474193191865,-0.2723717383439576,-11.987501907814408,-12.605414377289376,-187.33561293307372,25.504747356755622,34.993470512474914,32.597328301434686,1577310572.999,-27.69337607695336,-51.11987856835037,5.741345
32280,1577310573.66,2.0028372814643665,-2.2133810396520097,9.41166512123666,0.4769132916706358,-2.0277428182462365,8.912824446068738,2.281907762778677,-3.671070282131288,10.506603614621046,-0.9086422803925304,2.2296440310594514,0.6187252882050305,-1.312255859375,0.3206206531059452,0.8306735899390244,-1.2514067859184452,-4.445517935403964,-5.7346995283917686,-9.096842948717953,5.140936149179684,-0.6355340561359087,-0.855923198457921,-12.605414377289376,-159.61451477125303,25.43286309042442,34.8257405577021,32.30979123610986,1577310572.999,-27.69337607695336,-51.11987856835037,5.741345
32281,1577310573.67,1.423440479706554,1.8316226651819736,10.237664693990569,0.7283044659870421,-0.669033376107564,7.465529542504287,2.789478514731801,4.5123109922827735,11.549278437619092,-0.5119137647675305,4.777861804496951,0.3745846632050305,1.03759765625,2.456851121855945,-0.4052883241234756,-1.3887358874809452,-10.076011099466465,-4.4834788252667686,-6.738402184235517,6.18655028121623,0.0907905794479934,-2.525660004861394,-12.605414377289376,-160.3637336404914,25.408901668314016,34.753856291370894,32.45355976877228,1577310572.999,-27.69337607695336,-51.11987856835037,5.741345
32282,1577310573.68,0.1305715832221792,-0.6248282381383379,12.229640475240569,0.3428379987018859,-0.7983202657560015,11.456663709984754,-0.4211459115377283,-2.8570417176781624,11.14226415539253,-1.9767575147675305,1.909209460746952,0.0083737257050304,-3.90625,3.677554246855945,0.2660983946265244,-1.9990874499809448,-15.416587271341465,0.7655446122332317,-8.086082621082625,5.838012237204049,-2.4513456450956417,-3.082238940329218,-12.605414377289376,-185.8371751945969,25.79228442208045,34.94554766825411,32.45355976877228,1577310572.999,-27.69337607695336,-51.11987856835037,5.741345
32283,1577310573.69,-0.072935557891101,-0.2249965608922441,11.09239468666635,0.1967916974323546,0.2647052713533726,13.103874452172256,1.8461630606302395,-0.0055475404320686,8.494277119259717,-0.2677731397675305,4.930449695121951,0.2219967725800304,-2.50244140625,3.586001512480945,0.9374851133765244,0.2592133312690547,-8.580649771341463,-6.5281565596417686,-7.243782348053194,6.01228125921014,-0.453952897239937,-3.082238940329218,-12.271467016008682,-187.33561293307372,25.74436157785965,34.94554766825411,32.45355976877228,1577310572.999,-27.69337607695336,-51.11987856835037,5.741345
32284,1577310573.7,-0.0561761462700077,-1.7022189852086502,10.699745614400724,-0.4089413225871761,0.5472210672518106,11.502153541527724,1.1961373098978174,0.2709827513159776,10.924391804318311,-1.2595944288300305,0.6732475466844514,1.1070065382050305,0.8697509765625,0.869937059355945,0.2966159727515244,-1.2819243640434452,-8.473838247903965,3.557903010670732,-8.086082621082625,5.489474193191865,-0.2723717383439576,-7.534870424071813,-12.605414377289376,-212.8090544871794,25.62455446730764,34.753856291370894,32.50148261299308,1577310572.999,-27.69337607695336,-51.11987856835037,5.741345
32285,1577310573.71,3.2286685314643666,-2.037407217630525,9.23928260170541,2.172008067061261,-1.8278269796231896,9.902826832543347,1.3409865103372705,1.6751820249976177,7.359425532345655,-1.9767575147675305,-0.4101264767530487,0.6492428663300305,-0.54931640625,-0.2286957531440548,0.4186862852515244,-0.5952788562309452,0.2389303067835365,-4.6360667158917686,-8.254542675688512,5.663743215197955,0.9986963739278524,-7.534870424071813,-12.605414377289376,-212.8090544871794,25.45682451253482,34.753856291370894,32.07017701500584,1577310572.999,-27.69337607695336,-51.11987856835037,5.741345
32286,1577310573.72,2.373938538788585,-0.0526140413609941,10.630313766256192,1.5926112653034483,-1.8565573995450648,8.301105921898818,0.9579142447122704,10.943136651462462,6.938046040158155,-0.5729489210175305,3.4045707888719514,1.1985592725800305,-1.5869140625,4.257388231230945,1.7309421446265243,-1.1751128406059452,5.854164681783536,13.491374690358231,-9.265303003323838,5.663743215197955,0.9986963739278524,-7.534870424071813,-12.605414377289376,-206.81530353327216,25.45682451253482,34.8017791355917,32.30979123610986,1577310572.999,-27.69337607695336,-51.11987856835037,5.741345
32287,1577310573.73,0.1832440197456167,1.9872457730921296,10.884099142232754,1.2382694196003234,-1.11196068323647,9.201325746117568,2.102342638266958,-3.1323749085961308,6.092892854122999,-0.8476071241425305,5.235625476371951,0.8933834913300305,-5.859375,4.348940965605945,1.6088718321265243,-2.975649949980945,13.636147103658535,21.27335711223323,-8.759922839506174,5.489474193191865,-0.2723717383439576,-9.76118616594311,-12.605414377289376,-160.3637336404914,25.60059304519724,34.8017791355917,32.357714080330666,1577310572.999,-27.69337607695336,-51.11987856835037,5.741345
32288,1577310573.74,0.9398117443549916,-1.8757986055699785,9.671436001363617,1.1544723614948549,-1.0556969442227986,12.931491932641006,2.360916417563833,-3.700997802883241,11.635469697384718,-0.1609616163300307,2.4585258669969514,0.3898434522675305,0.8544921875,1.922793504668445,0.4186862852515244,-1.999087449980945,15.696083627096035,6.4570729325457314,-7.412242402659081,4.792398105167502,0.0907905794479934,4.1532872207525,-12.5219275369692,-162.6113902482066,25.45682451253482,34.8497019798125,32.30979123610986,1577310572.999,-27.69337607695336,-51.11987856835037,5.741345
32289,1577310573.75,1.2510579601753042,-1.4532220125524002,9.852198226705411,1.1496839581745422,-2.44074260462319,7.69297870021913,1.441542980063833,-1.911332061916444,12.255567927365188,-1.6105465772675305,-0.2575385861280487,0.5576901319550305,1.77001953125,1.9990874499809448,0.2660983946265244,-1.4802886218559452,11.957680306783535,6.533366877858232,-8.254542675688512,5.315205171185774,-0.0907905794479859,19.18091847838376,-12.605414377289376,-148.37623173267704,25.60059304519724,34.89762482403331,32.357714080330666,1577310572.999,-27.69337607695336,-51.11987856835037,5.741345
32290,1577310573.76,0.5998351086128042,-0.5960978182164628,9.14351453529916,1.6620431134479796,-1.7224821065763147,8.837407093773816,1.9060181021341456,-7.231248150783632,4.4696241285370615,0.7087893602324695,5.144072741996951,0.6492428663300305,1.40380859375,2.762026903105945,-1.2902980897484757,-0.7783843249809452,15.986000619283535,-1.2791331221417683,-8.928382894112062,5.663743215197955,0.2723717383439652,20.294076349319404,-12.438440696649028,-116.90903922466424,25.408901668314016,34.70593344715009,32.45355976877228,1577310572.999,-27.69337607695336,-51.11987856835037,5.741345
32291,1577310573.77,-0.1902514392387573,2.420596273580411,9.256042013326503,0.1010236310261051,0.3951892618318882,8.86134911037538,-1.3081976266256188,-2.7912011720238663,11.141067054562452,0.1594729539824695,6.029082507621951,0.1914791944550304,-2.6397705078125,2.380557176543445,0.6017917540015243,-0.4426909656059452,17.206703744283537,-8.466022770579269,-7.5807024572649615,5.315205171185774,-1.1802775328238315,-7.256580956337901,-12.104493335368335,-91.43559767055856,25.74436157785965,34.8017791355917,32.47752119088268,1577310572.999,-27.69337607695336,-51.11987856835037,5.741345
32292,1577310573.78,-0.6032512256157104,-1.3598481478063067,9.8198765042933,-0.5166803972942068,1.4163162698885288,13.530042347680068,2.047276000083364,1.1843706846655866,11.96586952648628,-0.9849362257050304,2.3364555544969514,0.3440670850800305,-0.30517578125,1.7549468249809452,0.4492038633765244,2.2733734875190548,10.675942025533535,-24.77766827839177,-8.254542675688512,5.315205171185774,-1.5434398506157752,-2.525660004861394,-9.26594076448243,-110.91528827075692,25.528708778866022,34.993470512474914,32.30979123610986,1577310572.999,-27.69337607695336,-51.11987856835037,5.741345
32293,1577310573.79,0.2335222546088979,0.7374725064905673,9.837833016744474,0.0794758160846984,-0.3984885885099076,12.323364710961318,1.7336355826028955,3.4468912535132423,14.776662275509718,-1.6105465772675305,-1.6613471798780486,0.4661373975800305,1.15966796875,1.9990874499809448,1.1816257383765243,0.7169770031440548,6.586586556783536,-15.439289372141769,-8.254542675688512,5.315205171185774,-1.5434398506157752,7.492760833559443,-9.93383548704382,-110.91528827075692,25.45682451253482,34.94554766825411,32.50148261299308,1577310572.999,-27.69337607695336,-51.11987856835037,5.741345
32294,1577310573.8,1.1696551037299916,-2.2313375521031817,11.973460897603848,2.665213609053448,-2.105554372201315,11.820582362328503,2.806237926352896,2.233031011814024,10.572444160275342,1.3191409227324695,-0.3490913205030487,0.4966549757050305,1.922607421875,2.731509324980945,0.5407565977515244,-0.1985503406059452,2.9244771817835367,-4.8496897627667686,-10.444523385565056,5.838012237204049,-0.9986963739278598,7.492760833559443,-9.93383548704382,-158.86529590201468,25.31305597987241,35.13723904513733,32.357714080330666,1577310572.999,-27.69337607695336,-51.11987856835037,5.741345
32295,1577310573.81,1.6293418224799916,-2.178665115579744,6.682275228658536,1.6213416852253235,-2.020560213265768,8.633899952660537,-1.4458642220846032,3.144024743503477,7.175072004513624,2.448291313357469,5.479766101371951,0.0694088819550304,1.46484375,1.877017137480945,0.0524753477515244,0.9458588390815548,7.746254525533535,7.6777760575457314,-9.265303003323838,5.663743215197955,-1.5434398506157752,-0.8559231984579215,-9.599888125763124,-146.87779399420018,25.45682451253482,34.89762482403331,32.30979123610986,1577310572.999,-27.69337607695336,-51.11987856835037,5.741345
32296,1577310573.82,0.5232206554878043,-0.6798948763219317,9.070491384664397,0.8192841290729795,0.5041254373689976,7.973100294457412,-0.9311108651510096,-0.9847760194359748,2.8726916212128426,1.9142336961699693,4.350615710746951,-0.0221438524199695,3.0517578125,3.158755418730945,-0.4663234803734756,-0.4121733874809452,18.641029916158537,17.61124773723323,-8.254542675688516,4.966667127173591,-0.4539528972399332,-0.8559231984579215,-9.599888125763124,-146.87779399420018,25.36097882409321,34.753856291370894,32.30979123610986,1577310572.999,-27.69337607695336,-51.11987856835037,5.741345
32297,1577310573.83,1.6915910656440545,-1.4101263826695878,8.62636697670541,0.0507453961628234,-0.2117408590177201,7.518201979027724,0.8405983633646142,0.0207886778296491,3.933322956662061,1.2581057664824695,1.1157524294969514,0.3745846632050305,2.13623046875,4.135317918730945,0.1135105040015244,0.1676605968940547,29.047524056783537,17.24503679973323,-7.243782348053194,5.663743215197955,-0.0907905794479859,-0.8559231984579215,-9.93383548704382,-146.87779399420018,25.45682451253482,34.8017791355917,32.357714080330666,1577310572.999,-27.69337607695336,-51.11987856835037,5.741345
32298,1577310573.84,2.237469044159679,0.7063478849085361,9.981485116353848,2.306083360030011,-0.5469290914395951,6.993871815453505,1.4439371817239892,7.57928331894293,0.8400144117401863,1.1665530321074695,4.289580554496951,0.2219967725800304,-0.335693359375,7.644839403105945,1.3036960508765243,-0.7173491687309452,44.73355921303354,24.05045672160823,-8.928382894112062,6.709357347234502,0.2723717383439652,-2.525660004861394,-9.432914445122778,-164.85904685592186,25.504747356755622,34.753856291370894,32.357714080330666,1577310572.999,-27.69337607695336,-51.11987856835037,5.741345
32299,1577310573.85,1.844819971894054,-0.1986603426305253,8.054152779928067,1.818863322188214,-0.1123814901212362,6.09724329372499,0.2659899649271148,-7.919581128078554,3.971630183224562,1.4564700242949695,7.60073778105945,0.3440670850800304,1.46484375,5.798525926543445,0.5712741758765244,-1.6023589343559452,64.08170374428353,15.413982112233231,-7.496472429962021,4.879532616170547,-1.0894869533758458,4.43157668848641,-12.271467016008682,-179.8434242406898,25.38494024620361,34.8497019798125,32.38167550244107,1577310572.999,-27.69337607695336,-51.11987856835037,5.741345
32300,1577310573.86,1.200779725312023,0.3041220060022861,7.929654293599942,2.4856484845417297,-0.7073406026700639,7.460741139183974,-0.2894648202291346,-3.783597760158631,12.384854817013624,0.8308596727324695,8.92825242949695,0.0388913038300304,2.50244140625,6.210513231230945,-0.1916652772484756,-0.3511382312309452,59.29044397865854,-6.1619456221417686,-9.433763057929731,4.792398105167502,-0.6355340561359087,5.823024027155972,-12.104493335368334,-194.82780162545768,25.45682451253482,34.89762482403331,32.16602270344745,1577310572.999,-27.69337607695336,-51.11987856835037,5.741345
32301,1577310573.87,0.549556873749523,-0.5386369783727128,8.145132443014004,0.9174463971393858,-0.5517174947599076,8.119146595726942,-1.3261541390767908,-7.544888568264101,17.61139704113472,1.3801760789824695,8.89773485137195,0.9849362257050304,0.3662109375,5.844302293730945,0.2355808165015244,-0.9004546374809452,40.00333460365854,-17.02620343464177,-9.433763057929731,4.792398105167502,-0.6355340561359087,-2.8039494725953062,-10.518243369285036,-206.06608466403384,25.504747356755622,34.89762482403331,32.26186839188906,1577310572.999,-27.69337607695336,-51.11987856835037,5.741345
32302,1577310573.88,0.3149251110542105,0.7901449430140048,10.232876290670257,0.5894407696979796,0.1593603983064976,9.615522633324598,-0.2056677621236659,1.60335597519293,19.148474506955026,0.7393069383574695,7.249785632621951,0.6492428663300305,-0.335693359375,6.698794481230945,1.2731784727515243,1.7240570812690548,23.005043588033537,-20.65779523151677,-8.4230027302944,4.792398105167502,-1.3618586917198034,-3.082238940329218,-9.26594076448243,-212.8090544871794,25.408901668314016,34.8017791355917,32.45355976877228,1577310572.999,-27.69337607695336,-51.11987856835037,5.741345
32303,1577310573.89,-0.904920634795398,-0.9636077730504472,8.966343612447599,0.0878555218952457,0.5532065714022012,12.994938276635146,0.9782649588235988,-3.302363226467226,15.346482270626906,1.3649172899199695,5.022002429496951,1.2748532178925305,0.9613037109375,3.601260301543445,0.9527439024390244,0.6712006359565548,3.0007711270960367,-21.11555890339177,-9.349533030626787,6.099415770213184,-0.9079057944798664,-7.534870424071813,-10.935677570885904,-232.28874508737775,25.45682451253482,34.7778177134813,32.237906969778656,1577310572.999,-27.69337607695336,-51.11987856835037,5.741345
32304,1577310573.9,-0.312355723906726,-1.776439236673494,8.506656893697599,-0.7896193865520192,-1.2867374044278774,11.269915980492568,1.3888705435403954,9.47549103378668,19.572248200802683,-0.5729489210175305,0.1086723513719513,0.4966549757050305,0.946044921875,0.1680327624809451,1.5783542540015243,3.616146925019055,-16.271079458841463,-18.82674054401677,-7.5807024572649615,5.663743215197955,-1.1802775328238315,-9.76118616594311,-9.93383548704382,-206.81530353327216,25.45682451253482,34.94554766825411,32.30979123610986,1577310572.999,-27.69337607695336,-51.11987856835037,5.741345
32305,1577310573.91,-0.7265526111137572,-1.0342367220250566,10.517786288228848,0.6325363995807921,-2.014574709115377,11.63144043117616,-0.8497080087056972,-3.874577423244568,15.858841425900344,0.8003420946074695,0.6579887576219513,1.4121823194550305,1.739501953125,0.1375151843559451,-0.0085598084984755,2.4564789562690548,-35.86336461509146,-8.511799137766769,-7.5807024572649615,5.663743215197955,-1.1802775328238315,-10.87434403687876,-9.93383548704382,-212.8090544871794,25.45682451253482,34.753856291370894,32.30979123610986,1577310572.999,-27.69337607695336,-51.11987856835037,5.741345
32306,1577310573.92,0.645324940155773,-1.6687001619664628,8.992679830709317,0.0687019086139957,-1.5548879903653767,8.782340455590225,3.590338970054068,8.838633392185118,1.3380083570526873,-0.9391598585175304,-1.2646186642530486,1.0764889600800305,-1.220703125,1.205630418730945,1.6546481993140243,3.7229584484565543,-21.047080435403963,4.610759455983232,-8.254542675688512,4.966667127173593,0.6355340561359087,-7.534870424071813,-9.599888125763124,-212.8090544871794,25.504747356755622,34.921586246143704,32.18998412555786,1577310572.999,-27.69337607695336,-51.11987856835037,5.741345
32307,1577310573.93,1.1109971630561637,0.7446551114710362,9.260830416646815,0.7522464825886046,0.6405949319979037,8.602775331078504,2.571606163657583,0.5355420347632428,0.4641247510956551,-0.6187252882050305,1.9244682498094516,1.0917477491425305,-1.52587890625,2.487368699980945,1.6393894102515243,-6.241030809355945,13.575111947408535,39.85856219035824,-7.833392539173797,5.053801638176636,-1.0894869533758458,-7.534870424071813,-9.599888125763124,-212.8090544871794,25.408901668314016,34.993470512474914,32.16602270344745,1577310572.999,-27.69337607695336,-51.11987856835037,5.741345
32308,1577310573.94,0.8344668713081167,-0.1723241243688066,9.179427560201503,1.8104836163776672,0.81537165318931,10.81501766506288,-0.7419689339986659,-2.260885504299256,10.814258527951123,-0.5729489210175305,1.3904106326219514,0.7713131788300305,-0.30517578125,0.0154448718559451,0.8459323790015244,-3.677554246855945,21.723305306783537,34.884196955983235,-7.243782348053194,4.966667127173593,-0.8171152150318806,-11.987501907814408,-9.93383548704382,-200.821552579365,25.45682451253482,34.753856291370894,32.30979123610986,1577310572.999,-27.69337607695336,-51.11987856835037,5.741345
32309,1577310573.95,-1.722540501738757,-0.2417559725133378,8.916065377584317,-1.438448036454363,0.3413197244783726,11.12147547756288,-1.874426319252572,-6.520170257717226,15.365635883908157,1.7463870164824695,3.3435356326219514,0.7713131788300305,2.0751953125,0.1375151843559451,0.6933444883765244,-3.982730028105945,12.751137338033535,25.27115984660823,-7.243782348053194,4.966667127173593,-0.8171152150318806,1.370392543413376,-9.26594076448243,-140.884043040293,25.504747356755622,34.753856291370894,32.16602270344745,1577310572.999,-27.69337607695336,-51.11987856835037,5.741345
32310,1577310573.96,0.1006440624702266,-1.1575381075231037,10.371739986959318,-1.026645350907488,-2.44074260462319,8.507007264672255,-1.8552727059713217,-1.1260339173851937,13.581955647091748,-1.5037350538300305,-1.6003120236280486,-0.2510256883574695,1.0986328125,1.0225249499809452,-0.1611476991234756,-1.3887358874809452,-6.200278677591464,12.667400080983231,-7.496472429962022,5.053801638176639,0.0,2.483550414349024,-9.26594076448243,-182.8402997176433,25.504747356755622,34.70593344715009,32.16602270344745,1577310572.999,-27.69337607695336,-51.11987856835037,5.741345
32311,1577310573.97,1.5168143444526478,-1.5513842806188065,8.243294711080411,-0.2437414080363943,-1.3058910177091267,5.674666700707411,1.0895953360208648,-8.003378186184023,5.549409077267531,-0.2982907178925305,2.6416313357469514,0.3135495069550305,-2.655029296875,1.770205614043445,0.3271335508765244,-1.800723192168445,-4.704917349466464,5.739909846608232,-9.60222311253562,4.269591039149227,0.2723717383439652,0.1180899386107706,-10.142552587844254,-186.96100349845457,25.504747356755622,34.96950909036451,32.357714080330666,1577310572.999,-27.69337607695336,-51.11987856835037,5.741345
32312,1577310573.98,-0.9779437854301636,1.1013911588343173,9.727699740377286,-0.8470802263957692,1.0093019876619662,9.074433058129284,-0.9646296883931972,0.786933209079649,6.23893915539253,-1.2748532178925305,1.817656726371952,0.3745846632050305,-3.11279296875,-0.2897309093940549,0.8459323790015244,0.3202484875190547,5.426918588033536,-9.824054997141769,-9.939143221747395,4.618129083161412,-1.5434398506157752,-6.97829148860399,-10.935677570885904,-188.8340506715505,25.31305597987241,34.8017791355917,32.30979123610986,1577310572.999,-27.69337607695336,-51.11987856835037,5.741345
32313,1577310573.99,0.1880324230659292,1.4605214078577549,11.504197372213223,-0.2006457781535818,0.1689372049471226,10.73840321193788,0.8310215567239893,-6.776349835353944,9.617157697873,-3.2890133741425305,0.1697075076219513,-0.3578372117949695,-0.823974609375,2.456851121855945,0.0219577696265244,-0.9309722156059452,5.030190072408536,-16.41585187214177,-9.939143221747395,4.618129083161412,-1.5434398506157752,-7.2565809563379,-9.850348646723646,-164.10982798668337,25.504747356755622,34.8017791355917,32.357714080330666,1577310572.999,-27.69337607695336,-51.11987856835037,5.741345
32314,1577310574.0,0.286194691132336,-0.8929788240758384,9.637917178121429,0.1082062360065734,-0.6953695943692827,12.704042774926162,0.6346970205911768,-2.617621551662537,12.39922002697456,-1.5037350538300305,1.0547172732469514,0.2219967725800304,-0.762939453125,4.654116746855945,0.4492038633765244,0.0455902843940547,1.9784322599085369,-29.11116437214177,-9.26530300332384,5.140936149179684,-0.8171152150318806,-1.9690810693935703,-12.438440696649028,-164.85904685592186,25.528708778866022,34.94554766825411,32.30979123610986,1577310573.999,-27.693355537630627,-51.11992958065772,5.52493
32315,1577310574.01,-0.8055612658989135,-0.4093500887242753,8.762836471334317,1.0191999676960264,-1.4256011007169394,9.973455781517956,0.3234508047708648,3.968827215427305,11.405626338009718,-3.6247067335175305,-1.2646186642530486,-0.8156008836699695,-1.40380859375,0.2443267077934451,-0.4205471131859756,-0.4121733874809452,-3.911460318216464,-19.72700909870427,-7.5807024572649615,6.01228125921014,-0.453952897239937,-2.66480473872835,-12.396697276488943,-157.741467598157,25.2651331356516,34.8257405577021,32.04621559289544,1577310573.999,-27.693355537630627,-51.11992958065772,5.52493
32316,1577310574.02,0.3723859508979605,-2.8442531771031816,8.2001990811976,0.4793074933307921,-0.9515491720060014,12.000147486840223,-3.581492102943978,2.573007647556212,9.564485261349562,-1.2748532178925305,-1.7834174923780486,-1.1818118211699695,-2.197265625,0.4426909656059451,-0.9546047303734756,-1.9685698718559448,-11.327231802591465,-0.1194651533917683,-9.265303003323838,4.966667127173593,-0.453952897239937,-0.2993442629900964,-10.43475652896486,-199.3231148408881,25.504747356755622,34.753856291370894,32.50148261299308,1577310573.999,-27.693355537630627,-51.11992958065772,5.52493
32317,1577310574.03,-0.2213760608207885,1.1157563687952547,11.528139388814786,-0.8758106463176443,-0.1925872457364701,8.866137513695692,-0.7898529672017909,2.781303191989805,7.6203935133026866,-2.2819332960175305,1.1767875857469514,-0.4799075242949695,-3.082275390625,-0.5338715343940549,-1.2597805116234757,-1.4802886218559452,-6.139243521341464,-2.652424137766769,-7.917622566476737,4.966667127173593,-0.453952897239937,-3.082238940329218,-10.267782848324511,-209.81217901022572,25.31305597987241,34.993470512474914,32.45355976877228,1577310573.999,-27.693355537630627,-51.11992958065772,5.52493
32318,1577310574.04,0.0036788952338984,-0.5817326082555254,10.915223763814788,0.9796956403034484,1.237948246206888,8.788325959740614,-0.1230678048482757,0.2685885496558208,10.157050172238232,-3.0753903272675305,-2.6379096798780486,-0.6172366258574695,-2.44140625,0.7631255359184451,-0.2069240663109756,-3.662295457793445,-5.513633169778964,15.230876643483231,-8.254542675688512,5.140936149179684,-0.453952897239937,-3.082238940329218,-10.267782848324511,-211.31061674870256,25.504747356755622,34.8257405577021,32.45355976877228,1577310573.999,-27.693355537630627,-51.11992958065772,5.52493
32319,1577310574.05,1.4856897228706167,-0.5601847933141191,8.602424960103848,-1.0769235857707693,0.4275109842439976,9.692137086449598,0.5748419790872705,-2.497911468654725,12.480622883419874,-2.7091793897675305,0.3222953982469513,-0.0526614305449695,-1.861572265625,-0.6254242687690549,0.3271335508765244,-3.921694871855945,-6.352866568216464,5.678874690358232,-8.591462784900287,4.966667127173593,-0.0907905794479859,-3.082238940329218,-10.935677570885904,-212.8090544871794,25.74436157785965,34.94554766825411,32.30979123610986,1577310573.999,-27.693355537630627,-51.11992958065772,5.52493
32320,1577310574.06,0.3987221691596792,-0.1124690828649003,10.639890572896816,-0.0905125017863943,-0.7264942159513139,8.528555079613662,3.706457750571645,4.754125359958555,12.80862851086128,-1.9462399366425305,-0.3185737423780487,0.3440670850800305,-2.716064453125,-0.6559418468940549,-0.0390773866234755,-5.325503465605945,-15.935386099466465,15.200359065358231,-9.770683167141508,4.443860061155317,-0.6355340561359087,-10.317765101410934,-12.271467016008682,-163.36060911744488,25.45682451253482,34.89762482403331,32.30979123610986,1577310573.999,-27.693355537630627,-51.11992958065772,5.52493
32321,1577310574.07,0.8248900646674917,-0.3590718538609941,10.479479061666348,1.073069505049542,-2.251600673470846,10.79586405178163,0.0337524038919581,-6.290326898342226,12.380066413693312,-5.760937202267531,-3.1872260861280486,-0.8766360399199695,-5.2490234375,-1.3883637218940548,-0.3137355897484756,-4.654116746855945,-25.090659536966463,8.455974299733231,-8.759922839506174,5.838012237204049,-0.9986963739278598,-10.317765101410934,-12.271467016008682,-163.36060911744488,25.504747356755622,34.753856291370894,32.357714080330666,1577310573.999,-27.693355537630627,-51.11992958065772,5.52493
32322,1577310574.08,0.6393394360053823,0.6464928434046299,10.777557168355802,0.6157769879596984,-0.7528304342130326,10.263154182396864,-1.1920788461080414,-1.2660947145043353,10.352177607540968,-3.3805661085175305,-0.5779731564405487,-0.6324954149199695,-3.4942626953125,-0.3660248547065548,-0.4968410584984756,-3.097720262480945,-32.56746617759146,-7.9472239424542686,-8.4230027302944,5.140936149179684,-1.7250210095117509,-8.926317762741373,-11.937519654727986,-164.10982798668337,25.60059304519724,34.753856291370894,32.285829813999456,1577310573.999,-27.693355537630627,-51.11992958065772,5.52493
32323,1577310574.09,0.319713514374523,-2.7652445223180253,8.81790310951791,1.645283701826886,-0.3218741353849076,10.530107667504286,-0.6509892709127284,-1.5258655946312871,7.148735786251906,-3.2890133741425305,-0.5016792111280487,-0.7545657274199695,-4.180908203125,1.0835601062309452,-0.7409816834984756,-2.243228074980945,-26.555503286966463,-8.298176090891769,-7.917622566476737,4.966667127173593,0.6355340561359087,18.34605007518202,-10.351269688644688,-138.63638643257775,25.408901668314016,34.8017791355917,32.45355976877228,1577310573.999,-27.693355537630627,-51.11992958065772,5.52493
32324,1577310574.1,1.0786754406440542,0.1628641080530674,9.68699831215463,1.0180028668659482,0.7770644266268101,10.1135165786371,-1.192078846108041,-0.1276518251000374,5.597293110470655,-1.7020993116425305,2.8247368044969514,-0.0221438524199695,-2.38037109375,-0.2592133312690549,-0.4052883241234756,-2.395815965605945,-15.935386099466465,-11.258381169016769,-7.243782348053194,5.315205171185774,-0.8171152150318806,-10.596054569144847,-10.85219073056573,-114.66138261694888,25.45682451253482,34.753856291370894,32.26186839188906,1577310573.999,-27.693355537630627,-51.11992958065772,5.52493
32325,1577310574.11,0.7901741405952261,-1.4376597017613848,11.292310525289396,-0.6100542620403006,-1.401659084115377,9.37131406398866,-1.1489832162252285,2.5634308409155864,11.063255500607374,-3.1669430616425305,0.4443657107469513,0.3288082960175304,-4.94384765625,-0.5338715343940549,0.5407565977515244,-1.7244292468559452,-15.721763052591465,-5.9178049971417686,-8.086082621082625,4.443860061155317,-0.6355340561359087,-5.308554682200516,-11.436598612806945,-85.4418467166513,25.28909455776201,34.8017791355917,32.30979123610986,1577310573.999,-27.693355537630627,-51.11992958065772,5.52493
32326,1577310574.12,0.9469943493354605,-0.3638602571813066,11.63348426186166,-0.3502833819133474,-1.0820331624845174,11.742770808373429,0.2516247549661773,-1.4420685365258192,12.17057376842964,-3.2279782178925305,0.8410942263719513,0.2830319288300305,-3.997802734375,1.159854051543445,0.8001560118140244,-2.029605028105945,-22.206748404153963,-7.230060856516768,-7.0753222934473055,3.746783973130955,-0.9986963739278598,-0.855923198457921,-12.187980175688509,-91.4355976705585,25.408901668314016,34.873663401922904,32.38167550244107,1577310573.999,-27.693355537630627,-51.11992958065772,5.52493
32327,1577310574.13,-0.3339035388481323,0.2825741910608799,10.68298620277963,-0.9452424944621756,-0.9395781637052202,12.062396730004286,0.972279454673208,7.861799114841367,12.415979438595656,-1.2443356397675305,2.3364555544969514,0.2830319288300305,-1.190185546875,0.0459624499809451,-0.2832180116234756,-3.189272996855945,-26.097739615091463,9.005290705983231,-7.5807024572649615,5.663743215197955,0.6355340561359087,-0.8559231984579215,-9.93383548704382,-116.90903922466424,25.504747356755622,34.753856291370894,32.357714080330666,1577310573.999,-27.693355537630627,-51.11992958065772,5.52493
32328,1577310574.14,-0.0585703479301635,-1.3430887361852129,10.149079232564786,0.2901655621784484,-0.7528304342130326,13.819740748558974,0.570053575766958,-2.739725836330506,8.108810651974562,-2.5260739210175305,-1.2341010861280486,-0.2052493211699695,-1.983642578125,1.8159819812309448,-0.5273586366234756,-2.914614793730945,-21.214927115091463,5.923015315358232,-7.74916251187085,4.792398105167502,0.453952897239937,-2.8039494725953062,-9.6833749660833,-158.1160770327762,25.504747356755622,34.70593344715009,32.357714080330666,1577310573.999,-27.693355537630627,-51.11992958065772,5.52493
32329,1577310574.15,0.9960754833686636,-0.7648890352574785,12.17696803871713,1.7913300030964172,-0.5277754781583451,7.36736727443788,-1.5919105233541344,-2.9480213807641,10.155853071408156,-2.7854733350800305,-2.2716987423780486,-0.1747317430449695,0.762939453125,-0.1371430187690548,-0.1916652772484756,-0.9920073718559452,-12.486899771341465,-6.1009104658917686,-8.591462784900287,4.269591039149227,-0.0907905794479859,-2.8039494725953062,-9.6833749660833,-158.1160770327762,25.48078593464522,35.08931620091653,32.45355976877228,1577310573.999,-27.693355537630627,-51.11992958065772,5.52493
32330,1577310574.16,1.0020609875190545,-2.1164158724156814,10.948742587056971,0.2985452679889957,-0.1028046834806113,10.765936531029675,0.929183824790396,0.9138258970679308,12.548857630734329,-2.1598629835175305,0.6274711794969513,0.5271725538300305,-2.9144287109375,-0.6101654797065548,0.1440280821265244,-3.311343309355945,-15.340293326028965,11.645061213795731,-8.591462784900287,4.966667127173593,-0.8171152150318806,-2.8039494725953062,-9.766861806403472,-155.1192015558226,25.45682451253482,34.8497019798125,32.33375265822026,1577310573.999,-27.693355537630627,-51.11992958065772,5.52493
32331,1577310574.17,-0.7935902575981323,-0.9264976473180254,11.010991830221036,-1.4552074480754569,1.9262812235018096,9.139076502953504,0.9363664297708644,-9.201676117092225,12.648216999630812,-1.6410641553925305,-0.3490913205030487,1.1680416944550305,-1.129150390625,-2.8532074718940548,0.7543796446265244,-2.273745653105945,-21.306479849466463,1.4369313309832317,-8.4230027302944,5.140936149179684,0.0907905794479934,-2.8039494725953062,-9.6833749660833,-158.1160770327762,25.408901668314016,34.70593344715009,32.30979123610986,1577310573.999,-27.693355537630627,-51.11992958065772,5.52493
32332,1577310574.18,-0.4105179919731322,-0.1483821077672441,11.856145016256193,0.5678929547565734,0.0588039285799351,9.107951881371472,0.8501751700052392,-3.2544791932641,10.869325166134718,-3.3195309522675305,-3.2177436642530486,0.7713131788300305,0.091552734375,-0.9306000500190548,1.0595554258765243,-1.1445952624809452,-22.160972036966463,-4.6665842940167686,-10.781443494776832,5.838012237204049,-0.2723717383439576,6.379602962623795,-9.93383548704382,-131.8934166094322,25.31305597987241,34.94554766825411,32.16602270344745,1577310573.999,-27.693355537630627,-51.11992958065772,5.52493
32333,1577310574.19,2.1440951794135854,0.0096352018030679,10.800302084127289,1.311292570235089,-0.930001357064596,5.267652418480849,3.2395884268411765,1.583005261081602,5.503919245724561,-2.5108151319550305,-0.9289253048780488,0.6950192335175305,0.5950927734375,2.929873582793445,0.2966159727515244,-2.502627489043445,-11.693442740091465,2.703410823170732,-7.412242402659081,5.140936149179684,-0.9986963739278598,7.353616099692486,-11.227881512006512,-174.22428272140178,25.504747356755622,34.873663401922904,32.285829813999456,1577310573.999,-27.693355537630627,-51.11992958065772,5.52493
32334,1577310574.2,1.7131388805854604,-1.1060627718297442,9.366175289693691,0.7857653058307921,-2.7256526021817837,10.530107667504286,1.6665979361185206,2.091773113864805,6.365831843380811,-3.6247067335175305,1.817656726371952,0.0694088819550304,-4.852294921875,0.1680327624809451,1.9445651915015243,-1.6023589343559452,0.7272115567835366,0.4298512528582316,-8.4230027302944,4.792398105167502,-1.3618586917198034,7.492760833559443,-12.605414377289376,-184.33873745612016,25.504747356755622,34.89762482403331,32.26186839188906,1577310573.999,-27.693355537630627,-51.11992958065772,5.52493
32335,1577310574.21,2.0770575329292105,-2.2241549471227127,10.125137215963225,-0.4400659441692068,0.6190471170564975,9.663406666527722,0.3545754263528956,-3.410102301174256,9.39928534679878,-0.5119137647675305,2.4585258669969514,0.3745846632050305,-6.103515625,0.7173491687309451,1.5478366758765243,0.1371430187690547,6.342445931783536,-7.779377262766768,-8.254542675688512,6.01228125921014,-0.0907905794479859,7.771050301293356,-12.521927536969203,-231.53952621813943,25.45682451253482,34.94554766825411,31.97433132656424,1577310573.999,-27.693355537630627,-51.11992958065772,5.52493
32336,1577310574.22,0.2095802380073354,1.2929272916468175,10.49145006996713,-0.2868370379192068,1.081128037466654,13.61144520412538,3.577170860923208,0.7342607725562116,13.239584809689404,0.4951663133574695,3.4350883669969514,1.4121823194550305,2.288818359375,4.348940965605945,0.3576511290015244,-0.3206206531059452,8.509193978658537,-8.267658512766769,-9.770683167141508,5.489474193191865,-0.6355340561359087,-1.9690810693935703,-9.599888125763124,-235.2856205643314,25.31305597987241,34.753856291370894,32.26186839188906,1577310573.999,-27.693355537630627,-51.11992958065772,5.52493
32337,1577310574.23,0.3304874218452265,-1.7273581026402909,10.8433977140101,1.1604578656452451,-2.1869572286466274,10.907194428978896,-0.2128503671041351,-0.6208573670922248,12.508156202511673,-1.2748532178925305,0.6579887576219513,0.7560543897675305,2.6092529296875,2.670474168730945,0.7086032774390244,0.4423188000190547,3.977333627096036,0.3535573075457316,-8.254542675688512,4.966667127173593,-0.453952897239937,-9.4828966982092,-9.6833749660833,-245.77468473366903,25.528708778866022,34.72989486926049,32.33375265822026,1577310573.999,-27.693355537630627,-51.11992958065772,5.52493
32338,1577310574.24,0.8631972912299917,-1.563355288919588,9.607989657369474,-1.3666219866496756,-1.4998213521817836,11.47821152492616,-0.0069490243306971,1.9960050474585551,12.523718513302686,3.6689944383574695,2.4890434451219514,1.5647702100800305,-1.0986328125,3.586001512480945,1.8224948790015243,1.2662934093940548,1.5206685880335369,3.786784846608232,-8.254542675688512,4.966667127173593,-0.453952897239937,18.067760607448104,-9.93383548704382,-188.8340506715505,25.45682451253482,34.8017791355917,32.26186839188906,1577310573.999,-27.693355537630627,-51.11992958065772,5.52493
32339,1577310574.25,-0.8917525256645384,-0.3662544588414628,11.894452242818693,-0.0378400652629568,-0.5517174947599076,9.304276417504283,5.231564208091177,-0.1683532533226936,4.797629755978467,1.1360354539824695,2.0617973513719514,0.9239010694550304,-1.556396484375,1.4192534656059452,0.6017917540015244,0.7474945812690548,7.074867806783536,7.265788752858231,-7.0753222934473055,6.18655028121623,-1.725021009511747,19.45920794611767,-9.850348646723646,-182.0910808484049,25.2651331356516,34.753856291370894,32.357714080330666,1577310573.999,-27.693355537630627,-51.11992958065772,5.52493
32340,1577310574.26,0.8284813671577266,-0.6858803804723228,9.556514321676111,0.0770816144245421,1.514478537954935,9.842971791039442,5.107065721763052,-0.7453558534203498,4.294847407345655,0.8003420946074695,0.1849662966844513,1.0612301710175305,3.387451171875,1.9380522937309448,0.7543796446265244,0.5949066906440548,16.413246713033537,10.958415705983231,-8.086082621082625,5.315205171185774,-0.8171152150318768,-11.709212440080496,-9.182453924162257,-164.10982798668337,25.504747356755622,34.70593344715009,32.45355976877228,1577310573.999,-27.693355537630627,-51.11992958065772,5.52493
32341,1577310574.27,0.9589653576362416,1.364753341451505,10.63749637123666,0.2985452679889957,0.0097227945467324,8.501021760521864,-1.4877627511373377,-0.0474460694848035,10.85495995617378,0.8613772508574695,0.8716118044969513,1.5342526319550305,2.197265625,1.2971831531059452,1.3189548399390243,0.0608490734565547,23.50858362709604,9.173137385670731,-10.444523385565056,4.792398105167502,-1.3618586917198034,-11.291778238479628,-9.892092066883734,-163.7352185520642,25.504747356755622,34.921586246143704,32.40563692455147,1577310573.999,-27.693355537630627,-51.11992958065772,5.52493
32342,1577310574.28,0.4681540173042104,0.3903132657679111,8.274419332662442,0.2135511090534484,-0.2787785055020951,9.151047511254284,-0.7994297738424159,-9.496162921291443,8.59483358898628,2.112597953982469,3.801299304496952,1.2901120069550305,-0.67138671875,1.9075347156059448,2.0971530821265243,0.9611176281440548,21.051918588033537,-3.079670231516769,-10.444523385565056,4.792398105167502,-1.3618586917198034,1.370392543413376,-12.605414377289376,-133.39185434790895,25.504747356755622,34.8017791355917,32.30979123610986,1577310573.999,-27.693355537630627,-51.11992958065772,5.52493
32343,1577310574.29,0.2981656994331167,-0.1004980745641191,9.052534872213224,2.399457224776105,-0.6570623678067827,8.586015919457411,-3.3253125253072597,3.48041007675543,10.718490461544874,0.6172366258574695,1.5124809451219514,1.2595944288300305,2.44140625,1.7549468249809452,0.8154148008765244,3.4330414562690548,10.889565072408535,-16.87361554401677,-7.917622566476737,4.966667127173593,-0.8171152150318806,1.370392543413376,-12.605414377289376,-133.39185434790895,25.45682451253482,34.993470512474914,32.26186839188906,1577310573.999,-27.693355537630627,-51.11992958065772,5.52493
32344,1577310574.3,0.578287293671398,-1.2616858797399004,9.301531844869473,-0.3131732561809255,-0.6953695943692827,6.273217115746474,-1.0963107797017908,-0.7142312318383186,11.42956835461128,2.677173149294969,1.3141166873094514,1.0459713819550305,4.57763671875,0.8394194812309451,0.2050632383765244,1.6935395031440548,6.098305306783536,-10.892170231516769,-8.254542675688512,5.4894741931918665,-0.8171152150318843,5.823024027155972,-9.599888125763124,-163.36060911744488,25.55267020097643,34.8017791355917,32.45355976877228,1577310573.999,-27.693355537630627,-51.11992958065772,5.52493
32345,1577310574.31,1.3180956066596792,-0.0909212679234941,10.89367594887338,1.628524290205792,-1.3418040426114706,10.018945613060929,-0.9370963693014008,3.517520202487852,11.872495661740189,0.4951663133574695,0.4138481326219513,0.6187252882050305,1.220703125,3.326602098418445,1.5020603086890243,3.7839936047065543,-0.6155618807164634,-10.434406559641769,-8.254542675688512,4.618129083161412,-1.1802775328238315,-2.2473705371274817,-11.186138091846423,-210.5613978794643,25.2172102914308,34.8017791355917,32.30979123610986,1577310573.999,-27.693355537630627,-51.11992958065772,5.52493
32346,1577310574.32,1.2893651867378042,-0.1244400911656816,11.418006112447598,-0.681880311844988,0.3915979593416538,10.139852796898818,-1.4458642220846032,0.0255770811499616,10.58680937023628,4.187793266482469,6.303740710746951,1.2901120069550305,0.701904296875,0.3206206531059451,1.1205905821265243,1.4188813000190548,-3.6673196932164633,3.817302424733232,-8.254542675688512,4.618129083161412,-1.1802775328238315,-11.987501907814408,-9.93383548704382,-188.8340506715505,25.60059304519724,34.8017791355917,33.12447958786354,1577310573.999,-27.693355537630627,-51.11992958065772,5.52493
32347,1577310574.33,0.4106931774604604,-3.172258804544588,9.607989657369474,1.1664433697956358,-1.1742099264005326,11.497365138207412,3.287472460044301,-0.8842195497094124,8.175848298458936,2.814502250857469,2.5805961794969514,1.0459713819550305,3.509521484375,3.067202684355945,1.1205905821265243,3.2499359875190548,5.976234994283536,4.793864924733232,-9.096842948717953,6.535088325228411,-0.6355340561359087,-11.987501907814408,-9.599888125763124,-182.8402997176433,25.45682451253482,34.753856291370894,32.26186839188906,1577310573.999,-27.693355537630627,-51.11992958065772,5.52493
32348,1577310574.34,1.1828232128608511,-1.7477088167516197,9.353007180562832,1.7985126080768858,-1.3286359334806117,8.89965633693788,5.141781645835318,3.5294912107886334,6.754889613156203,5.210132133669969,2.5958549685594514,1.2595944288300305,5.0506591796875,1.785464403105945,0.8459323790015243,2.6853607922065548,11.301552377096035,18.58781023723323,-8.67569281220323,5.4023396821888205,-0.9079057944798702,-5.865133617668341,-12.5219275369692,-163.36060911744488,25.45682451253482,34.753856291370894,32.30979123610986,1577310573.999,-27.693355537630627,-51.11992958065772,5.52493
32349,1577310574.35,0.7434872082221792,1.1325157804163486,10.745235445943692,2.210315293623761,-2.03851672571694,6.270822914086318,1.7910964224466457,0.5427246397437115,6.327524616818312,2.326221000857469,1.0852348513719514,0.8018307569550305,0.3662109375,1.7244292468559452,0.8764499571265244,0.5949066906440548,20.227943978658537,23.89786883098323,-8.759922839506174,5.489474193191865,-0.6355340561359087,-3.082238940329218,-12.605414377289376,-184.33873745612016,25.45682451253482,34.70593344715009,32.357714080330666,1577310573.999,-27.693355537630627,-51.11992958065772,5.52493
32350,1577310574.36,0.8967161144721792,-1.2257728548375566,8.504262692037443,-0.1144545183879568,1.0715512308260289,11.35850144191835,-1.3500961556783533,-4.920843548732851,9.746444587521436,2.722949516482469,1.2378227419969514,0.7102780225800305,0.42724609375,1.1140776843559452,2.0361179258765243,2.5785492687690548,23.279701791158537,12.942058284108231,-8.759922839506174,5.489474193191865,-0.6355340561359087,-2.525660004861394,-10.100809167684169,-188.8340506715505,25.31305597987241,34.70593344715009,32.30979123610986,1577310573.999,-27.693355537630627,-51.11992958065772,5.52493
32351,1577310574.37,-1.2724305896293822,1.2246925443323644,9.933601083150725,-2.290783827469988,1.0140903909822787,10.467858424340225,-1.6326119515767907,-3.3981312928734746,10.443157270626903,3.760547172732469,0.6274711794969514,1.2748532178925305,3.509521484375,0.6257964343559451,2.4938815977515243,4.226498487519055,26.880776009908537,-4.1477854658917686,-8.170312648385568,6.273684792219276,-1.4526492711677892,-2.525660004861394,-10.100809167684169,-188.8340506715505,25.504747356755622,34.562164914487674,32.597328301434686,1577310573.999,-27.693355537630627,-51.11992958065772,5.52493
32352,1577310574.38,0.1042353649604604,-2.355836038431306,7.362228500142911,0.6720407269733708,-0.4966508565763139,9.607142927514053,-0.2391865853658539,-1.4372801332055072,6.401744868283156,2.783984672732469,-1.7834174923780486,1.5647702100800305,8.026123046875,-1.0068939953315548,0.4492038633765244,3.0210541515815548,29.36795862709604,-0.0736887862042683,-7.412242402659081,5.489474193191865,-1.3618586917198034,-2.525660004861394,-9.599888125763126,-200.82155257936492,25.45682451253482,34.8497019798125,32.237906969778656,1577310573.999,-27.693355537630627,-51.11992958065772,5.52493
32353,1577310574.39,0.3939337658393667,-0.9241034456578692,8.968737814107755,0.1872148907917296,0.6932673685213413,4.4727774673089735,-2.8177417733541343,-3.3574298646508183,8.647506025509717,3.241748344607469,0.7495414919969513,1.4121823194550305,2.38037109375,0.8089019031059451,2.0056003477515243,4.348568800019055,29.078041634908537,-10.434406559641769,-8.086082621082625,5.489474193191865,-0.9986963739278598,-1.9690810693935703,-9.432914445122778,-212.8090544871794,25.408901668314016,34.94554766825411,32.357714080330666,1577310573.999,-27.693355537630627,-51.11992958065772,5.52493
32354,1577310574.4,1.1385304821479605,0.3184872159632236,10.067676376119474,0.8767449689167296,0.2766762796541538,7.281176014672256,-0.4546647347799158,0.2673914488257428,10.67778903332222,2.600879203982469,1.2378227419969514,1.1375241163300305,1.46484375,3.219790574980945,2.4633640196265243,4.562191846894055,24.958168588033537,-7.718342106516768,-8.086082621082625,5.489474193191865,-0.9986963739278598,-3.082238940329218,-12.104493335368334,-164.85904685592186,25.64851588941804,34.94554766825411,32.30979123610986,1577310573.999,-27.693355537630627,-51.11992958065772,5.52493
32355,1577310574.41,3.1963468090522573,-0.0981038729039634,10.605174648824551,2.406639829756573,-0.4296132100919388,7.068092066918349,0.119943663657583,-5.969503875881288,12.31063456554878,1.2733645555449695,2.1838676638719514,0.4661373975800305,1.129150390625,3.524966356230945,1.3647312071265243,2.1513031750190548,16.932045541158537,-6.3755686690167686,-8.001852593779681,5.7508777262010025,-0.3631623177919473,-3.082238940329218,-12.605414377289376,-164.85904685592186,25.55267020097643,34.753856291370894,32.30979123610986,1577310573.999,-27.693355537630627,-51.11992958065772,5.52493
32356,1577310574.42,1.3755564465034291,-0.991141092142244,10.800302084127289,1.069478202559308,-0.0489351461270956,8.904444740258192,1.6199110037454736,3.609696966403868,9.993047358517533,1.0139651414824695,4.533721179496951,0.7407956007050305,3.84521484375,4.608340379668445,0.8611911680640243,1.8461273937690548,12.873207650533535,-2.423542301829269,-9.60222311253562,6.709357347234502,0.6355340561359087,-11.152633504612671,-12.271467016008682,-161.11295250972978,25.504747356755622,35.04139335669572,32.40563692455147,1577310573.999,-27.693355537630627,-51.11992958065772,5.52493
32357,1577310574.43,1.823272156952648,-0.3183704256383378,10.366951583639004,0.9437826154011044,-2.1199195821622525,5.102452503930068,1.700116759360708,1.1843706846655866,7.934033930783156,3.119678032107469,4.289580554496951,0.8628659132050305,4.364013671875,6.149478074980945,0.7543796446265244,-0.3816558093559452,16.230141244283537,11.019450862233231,-8.4230027302944,4.792398105167502,-0.2723717383439576,-8.091449359539638,-12.271467016008682,-110.91528827075692,25.60059304519724,34.8017791355917,32.30979123610986,1577310573.999,-27.693355537630627,-51.11992958065772,5.52493
32358,1577310574.44,0.808130653046398,-1.5106828523961504,9.109995712056971,1.405863535811261,-1.6123488302091271,10.465464222680067,2.966649437583364,-0.0318837586937874,10.141487861447215,1.5022463914824695,6.212187976371951,0.4356198194550305,2.3193359375,6.759829637480945,0.1135105040015244,0.1676605968940547,16.443764291158537,16.48209734660823,-8.4230027302944,4.792398105167502,-0.2723717383439576,-7.534870424071813,-11.937519654727987,-92.93403540903536,25.504747356755622,34.8017791355917,32.30979123610986,1577310573.999,-27.693355537630627,-51.11992958065772,5.52493
32359,1577310574.45,0.6309597301948354,0.336443728414396,9.178230459371427,2.1265182355182923,0.6477775369783726,8.099992982445693,0.6730042471536768,-4.580866912990662,10.565261555294876,2.173633110232469,4.594756335746951,0.4508786085175304,0.732421875,6.912417528105945,1.1511081602515243,1.9681977062690548,16.138588509908537,6.319743830983232,-8.67569281220323,5.228070660182729,-1.0894869533758382,-9.482896698209196,-11.854032814407812,-92.18481653979686,25.48078593464522,34.94554766825411,32.357714080330666,1577310573.999,-27.693355537630627,-51.11992958065772,5.52493
32360,1577310574.46,-0.6499381579887572,0.3496118375452549,11.04690485512338,-0.2437414080363943,1.3277308084627475,11.655382447777724,-0.2427778878560883,-3.2736328065453497,11.45470747204292,3.8826174852324695,4.503203601371951,1.2290768507050305,3.1890869140625,4.913516160918445,0.2813571836890244,1.8308686047065548,11.744057259908535,-0.1957590987042685,-9.096842948717953,5.489474193191865,-0.2723717383439576,-0.8559231984579215,-11.186138091846423,-104.9215373168498,25.504747356755622,34.94554766825411,32.357714080330666,1577310573.999,-27.693355537630627,-51.11992958065772,5.52493
32361,1577310574.47,-0.5565642932426635,0.0670960416468174,9.914447469869474,-1.141567030594988,0.3532907327791539,10.5348960708246,0.7448302969583643,1.2394373228491802,10.883690376095656,1.1360354539824695,4.075957507621951,0.4661373975800305,1.312255859375,3.891177293730945,1.3342136290015243,4.195980909394055,7.044350228658536,-6.1314280440167686,-8.759922839506174,4.443860061155317,-0.9986963739278598,-3.082238940329218,-12.605414377289376,-140.884043040293,25.408901668314016,34.70593344715009,33.07655674364273,1577310573.999,-27.693355537630627,-51.11992958065772,5.52493
32362,1577310574.48,0.2167628429878042,-1.6830653719274002,8.075700594869474,0.5080379132526671,-0.3027205221036576,10.285899098168349,-0.3780502816549159,-1.0709672792015998,10.447945673947215,2.448291313357469,2.7026664919969514,1.1680416944550305,2.838134765625,3.189272996855945,1.5783542540015243,1.6935395031440548,3.4432760099085367,-2.408283512766769,-8.928382894112062,4.966667127173593,0.6355340561359087,-1.4125021339257453,-12.605414377289376,-140.884043040293,25.60059304519724,34.753856291370894,32.07017701500584,1577310573.999,-27.693355537630627,-51.11992958065772,5.52493
32363,1577310574.49,0.8296784679878042,0.4106639798792392,8.159497652974942,2.35157319157298,-1.29751131189858,7.895288740502333,0.9076360098489892,-0.2186314881859754,10.068464710812451,2.967090141482469,4.075957507621951,1.0001950147675305,2.6397705078125,1.739688035918445,0.2355808165015244,1.8308686047065548,-0.7834085604039634,-4.3308909346417686,-8.4230027302944,5.315205171185774,0.6355340561359087,-2.525660004861394,-12.605414377289376,-158.86529590201468,25.360978824093213,34.753856291370894,32.26186839188906,1577310573.999,-27.693355537630627,-51.11992958065772,5.52493
32364,1577310574.5,0.2885888927924917,0.6560696500452549,9.301531844869473,-0.0737530901653005,0.2072444315096226,9.02654902492616,-1.2591164925924156,0.8396056456030866,11.024948274044874,2.631396782107469,4.503203601371951,0.4356198194550305,-0.396728515625,2.639956590605945,0.6323093321265244,1.7850922375190548,-7.146323599466464,-0.4246409346417683,-9.096842948717953,5.140936149179684,-0.9986963739278598,-1.9690810693935703,-12.605414377289376,-158.86529590201468,25.2651331356516,34.94554766825411,32.357714080330666,1577310573.999,-27.693355537630627,-51.11992958065772,5.52493
32365,1577310574.51,-0.8797815173637572,0.8715477994593174,9.528981002584317,-0.4209123308879568,-0.2763843038419389,10.003383302269912,-0.4570589364400721,2.3838657164038675,13.371265900998,0.4341311571074695,3.3740532107469514,0.2830319288300305,-0.30517578125,2.456851121855945,0.8764499571265244,1.5714691906440548,-12.914145865091465,1.3453785966082317,-9.433763057929731,5.838012237204049,-0.6355340561359087,-1.9690810693935703,-12.605414377289376,-158.86529590201468,25.504747356755622,34.753856291370894,32.357714080330666,1577310573.999,-27.693355537630627,-51.11992958065772,5.52493
32366,1577310574.52,0.549556873749523,-0.6918658846227133,10.120348812642913,0.7402754742878234,0.0396503152986851,11.19090732570741,1.3912647452005518,0.1261335508765241,12.631457588009718,1.1665530321074695,2.2449028201219514,0.4203610303925304,-0.030517578125,3.799624559355945,1.2121433165015243,1.0221527843940548,-17.857993521341463,3.3290211747332314,-7.243782348053194,4.966667127173593,-0.0907905794479859,8.605918704495092,-12.605414377289376,-164.85904685592186,25.48078593464522,34.94554766825411,32.30979123610986,1577310573.999,-27.693355537630627,-51.11992958065772,5.52493
32367,1577310574.53,-0.2141934558403198,-1.019871512064119,11.576023422017911,0.7594290875690733,-2.0923862630704555,9.901629731713273,-0.2332010812154628,-0.4508690492211316,11.36612201061714,-0.0236325147675304,0.3833305544969513,0.5882077100800305,1.0833740234375,1.800723192168445,0.0066989805640244,0.0150727062690547,-21.352256216653963,2.749187190358232,-8.4230027302944,4.095322017143136,-0.2723717383439576,5.962168761022927,-12.396697276488943,-182.46569028302423,25.45682451253482,34.89762482403331,32.40563692455147,1577310573.999,-27.693355537630627,-51.11992958065772,5.52493
32368,1577310574.54,-0.934848155547351,-1.2640800814000566,11.21210476967416,-0.049811073563738,-1.4519373189786586,11.775092530785535,-0.4211459115377283,-1.8419002137719125,10.10078643322456,0.5256838914824695,5.479766101371951,0.2219967725800304,-2.197265625,1.6328765124809452,0.7848972227515244,-0.4121733874809452,-20.787681021341463,8.639079768483231,-7.917622566476737,5.663743215197955,-1.1802775328238315,1.6486820111472866,-12.521927536969203,-212.05983561794105,25.60059304519724,34.993470512474914,32.30979123610986,1577310573.999,-27.693355537630627,-51.11992958065772,5.52493
32369,1577310574.55,-0.9516075671684447,-1.314358316263338,7.106048922506193,-1.4025350115520194,1.2894235819002475,11.087956654320692,1.5995602896341454,-4.0661135560570685,9.497447614865186,1.0750002977324695,3.5571586794969514,0.3135495069550305,-0.42724609375,1.7244292468559452,1.2121433165015243,-0.8394194812309452,-19.994223990091463,2.4745289872332314,-7.74916251187085,4.792398105167502,0.453952897239937,-2.247370537127482,-10.18429600800434,-251.01921681833767,25.408901668314016,34.89762482403331,32.30979123610986,1577310573.999,-27.693355537630627,-51.11992958065772,5.52493
32370,1577310574.56,-0.9144974414360229,1.6053706082972083,10.1921748624476,-1.1200192156535818,1.3923742532869663,10.7264322036371,-0.2367923837056971,-4.722124810939881,11.357742304806592,-1.4426998975800305,-0.0744331173780486,0.9696774366425304,2.044677734375,-0.7169770031440549,-0.3442531678734756,-0.8394194812309452,-23.198569693216463,-3.995197575266769,-8.086082621082625,5.489474193191865,-1.3618586917198034,-10.87434403687876,-9.93383548704382,-235.2856205643314,25.43286309042442,34.993470512474914,32.30979123610986,1577310573.999,-27.693355537630627,-51.11992958065772,5.52493
32371,1577310574.57,0.1688788097846792,-0.9360744539586504,10.56806452309213,-1.0146743426067069,0.1797111124178257,8.990636000023818,-0.2463691903463226,0.0662785093726183,10.028960383419872,-1.8852047803925305,0.0781547732469513,0.7407956007050305,-2.44140625,0.9462310046684452,1.8835300352515243,-0.5189849109184452,-27.821982779153963,-6.6044505049542686,-7.0753222934473055,4.792398105167502,-0.6355340561359087,-11.987501907814408,-9.93383548704382,-197.8246771024114,25.504747356755622,34.8497019798125,32.30979123610986,1577310573.999,-27.693355537630627,-51.11992958065772,5.52493
32372,1577310574.58,-0.551775889922351,1.1875824185999424,13.010150216451503,-1.7018102190715505,-0.3529987569669389,10.822200270043348,0.7615897085794581,2.991992938083555,5.0681745435761245,-1.0917477491425305,1.909209460746952,1.2595944288300305,-4.852294921875,1.6633940906059452,1.7004245665015243,-0.0154448718559452,-22.130454458841463,-6.7112620283917686,-8.591462784900287,6.01228125921014,-0.0907905794479859,-10.596054569144847,-9.850348646723646,-200.07233371012663,25.45682451253482,34.89762482403331,32.26186839188906,1577310573.999,-27.693355537630627,-51.11992958065772,5.52493
32373,1577310574.59,-1.0904712634575071,-2.348653433450838,10.1155604093226,-1.141567030594988,-2.6107309224942834,12.330547315941786,-0.0763808724752284,7.260854498142149,8.558920564083937,-0.3593258741425305,0.2917778201219513,1.4121823194550305,1.434326171875,-0.9000824718940549,1.4257663633765243,0.1676605968940547,-13.280356802591465,-2.682941715891769,-8.928382894112062,6.01228125921014,-1.1802775328238315,-10.87434403687876,-9.599888125763124,-155.8684204250611,25.64851588941804,34.8017791355917,32.50148261299308,1577310573.999,-27.693355537630627,-51.11992958065772,5.52493
32374,1577310574.6,0.3400642284858516,-2.6886300691930254,9.121966720357754,-0.0689646868449885,-2.51735705774819,8.590804322777723,-1.7583075387349938,-2.7935953736840227,7.389353053097609,-1.1680416944550305,0.6885063357469514,1.0001950147675305,0.030517578125,1.648135301543445,0.4339450743140244,-2.685732957793445,-3.972495474466464,16.37528582317073,-8.086082621082625,5.489474193191865,-2.4513456450956417,-9.482896698209196,-9.6833749660833,-140.1348241710545,25.528708778866022,34.873663401922904,32.33375265822026,1577310573.999,-27.693355537630627,-51.11992958065772,5.52493
32375,1577310574.61,0.8009480480659292,1.5203764493616612,11.829808797994474,-0.0545994768840505,1.37082643834556,8.483065248070693,2.444713475669302,-0.6902892152367561,5.812771259884718,-1.5189938428925305,2.6416313357469514,0.7713131788300305,-3.5400390625,2.060122606230945,1.4868015196265243,-2.639956590605945,6.830727181783536,4.275066096608232,-9.096842948717953,4.095322017143136,-0.6355340561359087,-9.482896698209196,-9.6833749660833,-140.1348241710545,25.504747356755622,34.70593344715009,32.50148261299308,1577310573.999,-27.693355537630627,-51.11992958065772,5.52493
32376,1577310574.62,-0.4057295886528198,2.229060140767911,9.387723104635098,-0.3826051043254568,2.1513361795564974,7.843813404808974,1.6570211294778956,9.106783978122618,4.474412531857373,-0.9391598585175304,5.388213366996951,1.0154538038300305,-3.173828125,1.5108061999809452,1.5783542540015243,-4.623599168730945,13.636147103658535,20.99869890910823,-8.591462784900287,6.01228125921014,-1.1802775328238315,-9.482896698209196,-9.6833749660833,-140.1348241710545,25.45682451253482,34.8017791355917,32.30979123610986,1577310573.999,-27.693355537630627,-51.11992958065772,5.52493
32377,1577310574.63,0.3532323376167104,0.2203249478968174,6.869022958150723,-1.6180131609660815,1.1912613138338413,8.925992555199597,-0.5480385995260096,-8.440319989162537,6.040220417599562,-3.1059079053925305,1.3598930544969514,1.1680416944550305,0.8544921875,0.1985503406059451,0.5712741758765244,-5.111880418730945,21.601234994283537,16.75675554973323,-7.5807024572649615,5.315205171185774,-0.8171152150318806,-11.987501907814408,-9.93383548704382,-128.8965411324786,25.408901668314016,34.8017791355917,32.45355976877228,1577310573.999,-27.693355537630627,-51.11992958065772,5.52493
32378,1577310574.64,-1.386155168486804,-0.6116601290074785,8.054152779928067,0.195594596602277,-1.119143288216939,11.752347615014052,-0.2284126778951502,-4.0840700685082405,16.263461506466747,-1.8699459913300305,1.4667045779344514,1.5495114210175305,-2.8228759765625,2.044863817168445,1.5630954649390243,-1.754946824980945,11.683022103658535,-7.977741520579267,-7.917622566476737,5.663743215197955,-0.8171152150318806,-5.865133617668341,-9.599888125763124,-194.82780162545777,25.504747356755622,34.65801060292928,32.30979123610986,1577310573.999,-27.693355537630627,-51.11992958065772,5.52493
32379,1577310574.65,-1.2939784045707885,0.2658147794397861,11.010991830221036,0.9126579938190732,-1.7847313497403774,11.648199842797254,-0.0644098641744471,1.2298605162085552,11.61392188244331,-3.5941891553925305,-3.4618842892530486,1.0459713819550305,-1.28173828125,0.8089019031059451,1.1511081602515243,-2.762026903105945,-1.5921243807164631,-4.2393382002667686,-7.917622566476737,5.663743215197955,-0.8171152150318806,-10.87434403687876,-9.599888125763124,-188.8340506715505,25.45682451253482,34.70593344715009,31.73471710546021,1577310573.999,-27.693355537630627,-51.11992958065772,5.52493
32380,1577310574.66,-0.2333470691215697,-1.8219290682164628,11.025357040181971,0.2829829571979796,-0.1566742208341263,11.482999928246471,0.5676593741068018,-2.095685589748475,6.617223017697218,-2.6786618116425305,-0.4406440548780487,1.4732174757050305,-2.13623046875,-2.3954438000190548,1.2426608946265243,-1.7854644031059452,5.091225228658536,-8.176105778391769,-9.265303003323838,4.966667127173593,-1.1802775328238315,-9.76118616594311,-12.271467016008682,-164.85904685592186,25.504747356755622,34.753856291370894,32.45355976877228,1577310573.999,-27.693355537630627,-51.11992958065772,5.52493
32381,1577310574.67,-0.0944833728325077,-0.0454314363805258,10.159853140035487,-1.036222157548113,1.12182946568931,7.52059618068788,0.838204161704458,2.788485796970274,4.100917072872999,-2.0530514600800305,-0.5627143673780486,1.5342526319550305,-3.23486328125,-1.7850922375190548,1.3647312071265243,-1.9380522937309448,16.474281869283537,-5.7041819502667686,-8.591462784900287,4.966667127173593,-1.180277532823828,-3.082238940329218,-12.605414377289376,-154.36998268658422,25.576631623086836,34.70593344715009,32.357714080330666,1577310573.999,-27.693355537630627,-51.11992958065772,5.52493
32382,1577310574.68,1.806512745331554,0.5650899869593173,9.931206881490567,-0.0569936785442072,-1.401659084115377,8.26758709865663,-0.6737341866842128,0.6037767820776964,10.796302015499952,-1.8852047803925305,1.6345512576219514,1.8394284132050305,-5.18798828125,0.3053618640434451,1.7004245665015243,-3.570742723418445,17.527138314596037,2.535564143483232,-8.591462784900287,4.269591039149227,-1.1802775328238315,-0.855923198457921,-11.10265125152625,-176.84654876373617,25.60059304519724,34.8497019798125,32.357714080330666,1577310573.999,-27.693355537630627,-51.11992958065772,5.52493
32383,1577310574.69,0.6501133434760855,-1.3598481478063067,9.390117306295254,-1.7760304705363943,-1.8445863912442837,8.691360792504286,4.592312364829458,-5.392501275783632,11.163811970333937,-5.211620796017531,-0.1965034298780487,1.2290768507050305,-6.561279296875,0.7173491687309451,2.3107761290015243,-4.348940965605945,10.950600228658535,-1.9810374190167683,-8.591462784900287,4.269591039149227,-1.1802775328238315,-0.8559231984579215,-9.93383548704382,-187.33561293307372,25.504747356755622,34.89762482403331,32.45355976877228,1577310573.999,-27.693355537630627,-51.11992958065772,5.52493
32384,1577310574.7,1.5575157726753042,-2.0493782259313065,9.08605369545541,2.646059995772198,-1.1837867330411576,8.933175160180067,4.819761522544302,4.126844524997617,9.083250727658156,-4.723339546017531,-2.6684272580030486,0.6492428663300305,-6.04248046875,-0.4423188000190549,1.7309421446265243,-3.830142137480945,8.600746713033537,4.976970393483232,-7.917622566476737,4.966667127173593,-1.1802775328238315,-3.082238940329218,-12.605414377289376,-188.8340506715505,25.45682451253482,34.70593344715009,31.73471710546021,1577310573.999,-27.693355537630627,-51.11992958065772,5.52493
32385,1577310574.71,0.9015045177924924,1.357570736471036,9.588836044088223,0.0698990094440734,-0.8078970723966264,5.904510060082411,-0.0955344857564784,1.4309734556616802,4.718621101193311,-3.2890133741425305,1.0852348513719514,1.0001950147675305,-2.044677734375,1.9685698718559448,0.8764499571265244,-4.287905809355945,12.476479134908535,9.066325862233231,-8.086082621082625,5.315205171185774,-0.998696373927856,-7.534870424071813,-10.60173020960521,-206.81530353327216,25.360978824093213,34.70593344715009,32.45355976877228,1577310573.999,-27.693355537630627,-51.11992958065772,5.52493
32386,1577310574.72,-0.7648598376762572,-0.2992168123570878,6.241742123189786,-0.6459672869426443,0.7519253091951694,10.492997541771864,0.8058824392923493,0.6037767820776964,5.171125214962843,-4.418163764767531,1.4819633669969514,0.7102780225800305,-1.3885498046875,2.914614793730945,0.3576511290015244,-4.364199754668445,28.406654916158537,8.181316096608231,-8.086082621082625,5.140936149179684,-0.6355340561359087,-8.64802829500746,-11.269624932166597,-188.8340506715505,25.2172102914308,34.753856291370894,32.45355976877228,1577310573.999,-27.693355537630627,-51.11992958065772,5.52493
32387,1577310574.73,-1.5166391589653196,-1.0988801668492754,7.627984884420255,0.1082062360065734,1.2056265237947787,9.85733700100038,1.2380358389505517,-4.025412127834413,8.092051240353468,-3.1974606397675305,-0.2270210080030487,1.4732174757050305,-2.655029296875,0.9309722156059452,1.4257663633765243,-4.043765184355945,34.78482874428354,4.732829768483232,-8.086082621082625,5.140936149179684,-0.6355340561359087,-8.64802829500746,-11.269624932166597,-188.8340506715505,25.45682451253482,34.753856291370894,32.16602270344745,1577310573.999,-27.693355537630627,-51.11992958065772,5.52493
32388,1577310574.74,-0.369816563750476,0.620156625142911,8.791566891256192,-0.1814921648723318,-0.6067841329435013,7.599604835473037,-0.3924154916158534,-3.2975748231469124,8.436816279415968,-1.8241696241425305,-0.9594428830030488,2.0835690382050305,-4.608154296875,-1.1137055187690548,2.7990573790015243,-3.524966356230945,34.72379358803354,-4.9412424971417686,-9.770683167141508,4.095322017143136,-0.6355340561359087,-10.87434403687876,-10.60173020960521,-188.8340506715505,25.45682451253482,34.753856291370894,32.30979123610986,1577310573.999,-27.693355537630627,-51.11992958065772,5.52493
32389,1577310574.75,0.4466062023628042,-1.6938392793981034,8.22414109779916,0.1896090924518864,-1.356169252572408,8.741639027367567,-1.1142672921529633,-0.5909298463402723,9.716517066769484,-2.846508491330031,-0.0896919064405487,1.7936520460175305,-3.3416748046875,0.7631255359184451,2.0513767149390243,-3.708071824980945,28.08622034584604,0.9791676591082316,-8.928382894112065,4.6181290831614135,-0.4539528972399332,-11.430922972346584,-12.605414377289376,-152.87154494810744,25.38494024620361,34.873663401922904,32.52544403510348,1577310573.999,-27.693355537630627,-51.11992958065772,5.52493
32390,1577310574.76,-0.6499381579887572,-1.036630923685213,9.026198653951504,-0.892570057938738,0.3700501444002476,7.989859706078505,3.201281200278677,6.039811651462461,7.912486115841749,-3.5331539991425305,0.0476371951219513,1.6563229444550305,-1.0986328125,-0.4423188000190549,1.2426608946265243,-3.372378465605945,33.25894983803354,4.091960627858232,-7.5807024572649615,5.315205171185774,-1.9066021684077188,-6.421712553136165,-12.271467016008682,-116.90903922466424,25.408901668314016,34.94554766825411,32.26186839188906,1577310573.999,-27.693355537630627,-51.11992958065772,5.52493
32391,1577310574.77,0.0802933483588979,1.4150315763147865,7.053376485982755,0.7426696759479796,1.6653132425447787,6.957958790551162,-0.3708676766744471,-0.8243645082055061,9.305911482052686,-1.0001950147675305,1.5124809451219514,1.9614987257050305,-2.01416015625,0.3206206531059451,1.2731784727515243,-5.386538621855945,33.13687952553354,10.653239924733231,-7.5807024572649615,5.315205171185774,-1.9066021684077188,-6.421712553136165,-11.436598612806945,-97.4293486244658,25.64851588941804,34.753856291370894,32.45355976877228,1577310573.999,-27.693355537630627,-51.11992958065772,5.52493
32392,1577310574.78,0.4885047314155386,1.174414309469083,8.644323489156584,-0.480767372391863,-0.2069524556974076,5.976336109887099,-2.2096145516744468,-13.88473456435785,15.229166389279248,-5.150585639767531,-0.9594428830030486,1.4274411085175305,-3.0517578125,-0.0455902843940548,1.1816257383765243,-6.790347215605945,19.922768197408537,-5.8872874190167686,-8.338772702991456,6.099415770213185,-1.089486953375842,-3.082238940329218,-12.104493335368334,-116.90903922466424,25.43286309042442,34.753856291370894,32.45355976877228,1577310573.999,-27.693355537630627,-51.11992958065772,5.52493
32393,1577310574.79,-0.1423674060356322,-1.6926421785680252,8.887334957662443,0.2195366132038395,-1.1718157247403769,9.322232929955458,-3.929848444496713,-0.529877704006288,21.88744120617378,-6.005077827267531,-0.1049506955030487,1.5647702100800305,-8.3770751953125,1.541323778105945,2.7990573790015243,-2.548403856230945,-21.382773794778963,-15.942829411204269,-7.917622566476737,5.315205171185774,0.2723717383439652,-0.8559231984579215,-12.438440696649028,-140.13482417105456,25.408901668314016,34.753856291370894,32.237906969778656,1577310573.999,-27.693355537630627,-51.11992958065772,5.52493
32394,1577310574.8,-0.4224890002739135,-0.7660861360875566,9.998244527974942,-0.7130049334270192,0.1856966165682163,12.73037899318788,-2.678878077065072,-3.1275865052758185,16.387959992794872,-2.8922848585175305,0.9021293826219512,2.2971920850800305,-4.8828125,-0.5338715343940549,2.2802585508765243,-0.7478667468559452,-57.62239781821646,-23.49592999714177,-7.0753222934473055,4.792398105167502,-0.2723717383439576,-3.082238940329218,-12.271467016008682,-152.87154494810736,25.408901668314016,34.70593344715009,32.26186839188906,1577310573.999,-27.693355537630627,-51.11992958065772,5.52493
32395,1577310574.81,-2.108006969023913,-0.9384686556188068,11.587994430318693,1.3124896710651672,-1.0449230367520952,12.447863197289443,0.1175494619974268,6.676669293064023,9.799117024044874,-2.4955563428925305,0.2917778201219513,2.5413327100800305,-2.25830078125,-1.7240570812690548,1.0290378477515243,2.0292328625190548,-56.52376500571646,-18.88777570026677,-7.0753222934473055,4.792398105167502,-0.2723717383439576,-2.8039494725953062,-12.521927536969203,-149.12545060191542,25.31305597987241,34.70593344715009,32.16602270344745,1577310573.999,-27.693355537630627,-51.11992958065772,5.52493
32396,1577310574.82,-0.7852105517875853,-1.6471523470250566,9.94796629311166,0.7953421124714171,-1.370534462533346,10.582780104027725,1.5325226431497705,8.934401458591367,1.428988020138624,-2.7854733350800305,-1.3256538205030486,2.1903805616425305,-1.861572265625,1.8159819812309448,2.0361179258765243,-2.334780809355945,-43.40120641196646,2.1388356278582314,-8.759922839506176,4.443860061155319,-1.9066021684077223,-1.9690810693935703,-12.605414377289376,-161.86217137896827,25.45682451253482,34.89762482403331,32.357714080330666,1577310573.999,-27.693355537630627,-51.11992958065772,5.52493
32397,1577310574.83,-0.2788369006645385,1.0726607389124423,8.22414109779916,-0.4544311541301443,-0.392503084359518,5.320324855004286,-0.1194765023580414,1.5327270262183212,3.2461870801972177,-1.0917477491425305,1.2988578982469514,2.5718502882050305,-3.8909912109375,-2.4412201672065548,2.0666355040015243,-3.662295457793445,-19.383872427591463,16.64994402629573,-8.086082621082625,4.792398105167502,-1.725021009511747,-3.082238940329218,-11.937519654727987,-149.87466947115377,25.504747356755622,34.873663401922904,32.47752119088268,1577310573.999,-27.693355537630627,-51.11992958065772,5.52493
32398,1577310574.84,-0.1160311877739135,-1.5920857088414628,7.596860262838224,-0.5765354387981131,-1.0952012716153765,5.0354148574456925,-1.5057192635885095,-2.945627179103944,12.55244893322456,-6.401806342892531,-3.2177436642530486,1.3816647413300305,-3.41796875,-0.7780121593940549,2.5854343321265243,-4.928774949980945,-21.275962271341463,14.467937190358231,-8.254542675688512,3.572514951124864,-0.453952897239937,-3.082238940329218,-11.937519654727987,-149.87466947115377,25.74436157785965,34.8017791355917,32.45355976877228,1577310573.999,-27.693355537630627,-51.11992958065772,5.52493
32399,1577310574.85,0.8057364513862417,-1.946427554544588,8.3151207608851,-1.5988595476848315,-1.4208126973966273,9.11513448635194,-2.4993129525533533,-1.9807639100609749,17.5467535963105,-3.5026364210175305,0.0171196169969513,2.3887448194550305,-5.55419921875,-1.5714691906440548,2.3718112852515243,-4.013247606230945,-35.55818883384146,11.233073909108231,-8.254542675688512,3.572514951124864,-0.453952897239937,-0.8559231984579215,-12.605414377289376,-137.8871675633394,25.64851588941804,34.8017791355917,32.30979123610986,1577310573.999,-27.693355537630627,-51.11992958065772,5.52493
32400,1577310574.86,-0.5493816882621948,0.7207130948694741,12.0309217374476,-2.0537578631145195,-0.0513293477872513,12.1821068130121,-2.298200013100228,-3.869789019924256,14.400772614865186,-3.2737545850800305,-0.4711616330030487,2.6786618116425305,-5.462646484375,0.5342436999809451,3.836655035251524,-4.959292528105945,-47.27693883384146,9.981853205983231,-8.254542675688512,4.792398105167502,-1.180277532823828,-0.5776337307240097,-12.354953856328857,-149.12545060191542,25.528708778866022,34.94554766825411,32.357714080330666,1577310573.999,-27.693355537630627,-51.11992958065772,5.52493
32401,1577310574.87,0.2287338512885854,-0.4763877352086503,12.275130306783536,0.4924756024616515,-0.96591438196694,11.310617408715224,-2.441852112709604,-8.5791836854516,18.717518208126904,-4.540234077267531,-1.7528999142530486,2.2971920850800305,-3.4332275390625,-0.9306000500190548,2.5091403868140243,-2.762026903105945,-71.96565953696647,-6.2840159346417686,-8.591462784900287,3.572514951124864,-0.8171152150318806,-1.551646867792702,-12.14623675552842,-231.1649167835202,25.45682451253482,34.72989486926049,32.38167550244107,1577310573.999,-27.693355537630627,-51.11992958065772,5.52493
32402,1577310574.88,0.9709363659370228,-2.7389083040563067,9.378146297994473,-0.4759789690715506,-1.31067942102944,9.450322718773815,0.0553002188333643,-3.8578180116234746,5.412939582638624,-2.7396969678925305,-0.7153022580030487,3.3653073194550305,-1.5869140625,-0.7780121593940549,3.2263034727515243,1.3883637218940548,-74.46810094321647,-32.773273747141765,-8.759922839506174,5.838012237204049,-0.6355340561359087,-9.76118616594311,-9.93383548704382,-260.75906211843704,25.31305597987241,35.08931620091653,32.16602270344745,1577310573.999,-27.693355537630627,-51.11992958065772,5.52493
32403,1577310574.89,0.5184322521674917,-1.0988801668492754,10.860157125631192,0.5056437115925109,-0.4272190084317826,9.356948854027722,2.401617845786489,12.02292160019293,4.579757404904249,-1.4884762647675305,-0.4101264767530487,3.4263424757050305,-0.8544921875,2.304263231230945,3.928207769626524,1.6325043468940548,-62.41365758384146,-28.28718976276677,-9.433763057929731,5.140936149179684,-1.3618586917198034,-9.76118616594311,-9.93383548704382,-260.75906211843704,25.504747356755622,34.753856291370894,32.30979123610986,1577310573.999,-27.693355537630627,-51.11992958065772,5.52493
32404,1577310574.9,-0.4356571094047728,-1.6627146578160723,10.527363094869472,-0.1024835100871755,-2.38328176477944,17.15965206447694,-0.3038300301900721,18.43938204941168,6.356255036740187,-1.5647702100800305,1.3293754763719514,3.197460639767531,-7.32421875,-2.3954438000190548,3.684067144626524,-0.1680327624809452,-43.79793492759146,3.1153981278582314,-8.338772702991463,5.402339682188819,-1.9973927478557083,-10.87434403687876,-9.26594076448243,-230.7903073489009,25.48078593464522,35.08931620091653,32.30979123610986,1577310573.999,-27.693355537630627,-51.11992958065772,5.52493
32405,1577310574.91,0.2790120861518667,-1.256897476419588,11.044510653463224,0.5116292157429021,-1.0497114400724077,13.284636677514053,2.285499065268911,-3.9200672547875377,3.134856702999952,-2.1293454053925305,-3.3703315548780486,3.1516842725800305,0.7781982421875,0.4121733874809451,2.8906101133765243,-2.868838426543445,-20.787681021341463,27.74308367473323,-7.74916251187085,4.792398105167502,-2.814507962887585,-11.848357173947452,-9.224197344322343,-188.45944123693135,25.60059304519724,34.72989486926049,32.30979123610986,1577310573.999,-27.693355537630627,-51.11992958065772,5.52493
32406,1577310574.92,-0.3578455554496947,-1.3766075594274003,11.283930819478847,-0.1240313250285818,-0.1590684224942826,9.26836339260194,3.768706993735708,9.899264727634336,13.265921027951125,-1.0307125928925305,0.4443657107469513,3.5789303663300305,1.922607421875,-3.0363129406440548,2.5854343321265243,-2.395815965605945,-10.564292349466465,22.82975359660823,-8.254542675688512,5.315205171185774,0.2723717383439652,-11.709212440080496,-10.351269688644688,-131.1441977401937,25.64851588941804,35.13723904513733,32.30979123610986,1577310573.999,-27.693355537630627,-51.11992958065772,5.52493
32407,1577310574.93,-0.1256079944145385,0.0120294034632236,10.026974947896818,-2.1255839129192067,1.6605248392244665,11.322588417016004,-1.9342813607564784,-1.3032048402367562,14.568366731076123,0.8613772508574695,-0.4101264767530487,4.219799506955031,-5.950927734375,-2.4564789562690548,5.728744879001525,-6.881899949980945,-15.904868521341465,32.900554377858235,-8.086082621082625,5.838012237204049,0.0907905794479934,-7.534870424071813,-12.605414377289376,-121.40435244009456,25.504747356755622,34.8017791355917,32.50148261299308,1577310573.999,-27.693355537630627,-51.11992958065772,5.52493
32408,1577310574.94,-0.0908920703422734,-0.2226023592320883,12.908396645894864,-2.388946095536394,-0.2500480855802212,12.706436976586318,-0.5061400704732757,-4.440806115871522,8.706163966183546,-2.3429684522675305,-3.2940376095655486,3.639965522580031,-2.838134765625,-3.2651947765815548,4.447006597751525,-1.907534715605945,-11.708701529153965,10.500652034108231,-7.917622566476737,5.4894741931918665,-0.8171152150318768,-0.7167784645909654,-12.229723595848592,27.31559310372792,25.408901668314016,34.89762482403331,32.357714080330666,1577310573.999,-27.693355537630627,-51.11992958065772,5.52493
32409,1577310574.95,-0.0226573230278197,-1.5825089022008378,11.324632247701503,0.7330928693073546,-4.425535780892721,9.766357337914442,-0.9670238900533534,-3.149134320217225,12.509353303341747,1.6853518602324695,-1.6003120236280486,4.158764350705031,1.46484375,0.2901030749809451,3.745102300876524,-0.4426909656059452,-5.559409536966464,8.028728205983231,-6.906862238841405,6.709357347234502,-1.9066021684077188,6.101313494889882,-12.02100649504816,27.69020253834717,25.45682451253482,34.993470512474914,32.30979123610986,1577310573.999,-27.693355537630627,-51.11992958065772,5.52493
32410,1577310574.96,1.1672609020698357,-0.3135820223180253,11.753194344869474,2.104970420576886,-2.3521571431974087,8.485459449730849,-3.2798226937642907,-7.317439410549257,13.474216572384718,-1.0612301710175305,-3.5229194455030486,2.9380612257050305,0.946044921875,0.1375151843559451,2.2192233946265243,1.9987152843940548,-12.456382193216465,-7.779377262766768,-8.759922839506174,3.398245929118777,-0.9986963739278598,8.32762923676118,-12.354953856328857,27.69020253834717,25.2172102914308,34.753856291370894,32.45355976877228,1577310573.999,-27.693355537630627,-51.11992958065772,5.52493
32411,1577310574.97,0.836861072968273,-1.3227380220738847,11.051693258443692,3.53909721501048,-0.97788539026772,7.965917689476942,0.7184940786966455,1.3854836241187114,4.6946790845917485,-0.0236325147675307,1.6955864138719514,2.9990963819550305,0.091552734375,3.891177293730945,2.8295749571265243,1.2052582531440548,-8.580649771341463,-8.267658512766769,-9.265303003323838,5.663743215197955,0.2723717383439652,-11.987501907814408,-9.599888125763124,-142.38248077876986,25.45682451253482,34.753856291370894,32.45355976877228,1577310573.999,-27.693355537630627,-51.11992958065772,5.52493
32412,1577310574.98,1.0786754406440542,-0.4045616854039628,10.884099142232754,0.645704508711652,1.087113541617045,12.397584962426162,1.634276213706411,-1.625224963527773,7.531808051876905,2.783984672732469,2.5195610232469514,3.4263424757050305,-1.190185546875,-0.5033539562690548,2.905868902439024,-0.1985503406059452,2.649818978658536,1.5284840653582317,-8.759922839506174,5.489474193191865,0.0907905794479934,-11.987501907814408,-11.10265125152625,-180.5926431099282,25.45682451253482,34.7778177134813,32.47752119088268,1577310573.999,-27.693355537630627,-51.11992958065772,5.52493
32413,1577310574.99,0.0539571300971792,2.164416695943693,9.447578146139003,-1.1679032488567067,1.3061829935213412,6.1798432510003805,2.1909280996927394,-5.691776483303163,7.582086286740187,0.8308596727324695,-1.2951362423780486,3.762035835080032,1.64794921875,-1.6019867687690548,2.2192233946265243,1.6630219250190548,14.063393197408535,-21.93953351276677,-8.4230027302944,5.140936149179684,0.0907905794479934,-1.9690810693935703,-12.271467016008682,-148.37623173267704,25.64851588941804,35.08931620091653,32.357714080330666,1577310573.999,-27.693355537630627,-51.11992958065772,5.52493
32414,1577310575.0,0.0946585583198354,-0.9576222689000566,12.212881063619474,0.7737942975300108,-2.462290419564596,8.684178187523818,4.721599254477895,12.733999493259336,8.769610310177686,-3.2584957960175305,-4.957245617378049,2.1751217725800305,-1.953125,1.5718413562309452,4.172348394626525,0.6864594250190548,24.805580697408537,-6.4671214033917686,-6.233022020417861,5.663743215197955,-0.453952897239937,0.5355241402116392,-11.687059133767466,-176.09732989449776,25.45682451253482,34.8017791355917,32.30979123610986,1577310574.999,-27.69333396292992,-51.11998218524805,5.6587596
32415,1577310575.01,0.4274525890815542,-1.9955086885777908,9.568485329976896,1.101799924971417,-1.3729286641935023,11.52370135646913,3.847715648520864,-1.4133381166039436,7.443222590451124,-0.4813961866425305,-1.0357368283155486,2.7396969678925305,-0.457763671875,-1.3578461437690548,2.0971530821265243,-1.6023589343559452,31.794106088033537,10.500652034108231,-8.4230027302944,5.838012237204049,0.0907905794479934,-0.8559231984579215,-12.104493335368334,-188.8340506715505,25.48078593464522,34.94554766825411,32.45355976877228,1577310574.999,-27.69333396292992,-51.11998218524805,5.6587596
32416,1577310575.02,1.0738870373237417,-0.4261095003453691,11.86332762123666,1.0096231610554014,-1.058091145882955,6.038585353051162,-2.2167971566549163,-4.613188635402772,10.373725422482377,0.0374026414824695,-0.7763374142530487,1.7173581007050305,4.2724609375,-1.4188813000190548,1.5325778868140243,-1.1293364734184452,33.48783167397104,12.728435237233231,-8.591462784900287,5.315205171185774,-0.453952897239937,-3.082238940329218,-11.52008545312712,-200.07233371012657,25.60059304519724,34.873663401922904,32.47752119088268,1577310574.999,-27.69333396292992,-51.11998218524805,5.6587596
32417,1577310575.03,1.0547334240424917,0.8476057828577548,10.793119479146815,-1.2900075335246757,1.3349134134432163,4.269270326195692,-1.9247045541158527,-8.761143011623476,9.605186689572218,-0.3593258741425305,4.014922351371951,1.2595944288300305,2.227783203125,3.006167528105945,0.4492038633765244,0.0455902843940547,21.936928353658537,-4.8496897627667686,-9.096842948717953,4.443860061155317,-1.725021009511747,-11.709212440080496,-10.18429600800434,-207.56452240251068,25.504747356755622,34.94554766825411,32.30979123610986,1577310574.999,-27.69333396292992,-51.11998218524805,5.6587596
32418,1577310575.04,1.2462695568549915,-1.2928105013219315,11.815443588033537,-1.3546509783488945,1.0404266092439975,6.804729884301161,-1.771475647865853,3.219442095798399,6.7201736890839365,-1.5189938428925305,4.899932116996951,2.3582272413300305,-4.791259765625,7.553286668730945,3.1042331602515243,1.5714691906440548,22.211586556783537,-12.418049137766769,-8.086082621082625,4.095322017143136,-1.725021009511747,-9.76118616594311,-12.605414377289376,-188.8340506715505,25.79228442208045,34.8017791355917,32.30979123610986,1577310574.999,-27.69333396292992,-51.11998218524805,5.6587596
32419,1577310575.05,1.8472141735542105,0.6476899442347079,10.94515128456674,2.685564323164777,-0.4272190084317836,12.34132122341249,0.2408508474954742,3.773699780124572,10.233664625363234,-0.9239010694550304,5.876494616996951,2.4497799757050305,-4.058837890625,6.912417528105945,3.7451023008765247,-1.587100145293445,15.635048470846035,4.381877620045732,-8.4230027302944,5.838012237204049,0.453952897239937,-10.735199303011804,-11.478342032967031,-164.48443742130263,25.528708778866022,34.921586246143704,32.26186839188906,1577310574.999,-27.69333396292992,-51.11998218524805,5.6587596
32420,1577310575.06,3.9110160046088978,-0.3997732820836503,8.801143697896817,5.394603501631573,-3.103936464486471,9.265969190941783,1.4056299551614893,-0.0869503968773811,6.595675202755812,-2.1903805616425305,8.65359422637195,1.8394284132050305,-0.335693359375,8.194155809355944,1.2121433165015243,-0.9004546374809452,22.364174447408537,-4.2698557783917686,-8.4230027302944,5.838012237204049,0.453952897239937,-10.87434403687876,-12.271467016008682,-164.85904685592186,25.45682451253482,34.8017791355917,32.30979123610986,1577310574.999,-27.69333396292992,-51.11998218524805,5.6587596
32421,1577310575.07,1.7107446789253042,-2.121204275735994,8.604819161764004,2.5790223492878237,-1.9786616842130336,13.563561170922254,0.215711730063833,5.297609136814024,9.844606855587845,0.2510256883574695,9.50808641387195,2.0530514600800305,0.823974609375,5.325503465605945,0.4492038633765244,1.2052582531440548,26.728188119283537,-9.061115544016769,-8.928382894112062,5.315205171185774,-0.453952897239937,-10.87434403687876,-12.605414377289376,-163.36060911744488,25.31305597987241,34.753856291370894,32.16602270344745,1577310574.999,-27.69333396292992,-51.11998218524805,5.6587596
32422,1577310575.08,0.6596901501167105,-1.5023031465856034,9.761218563619474,0.7905537091511046,-2.7926902486661587,11.02570741115663,2.868487169516958,6.590478033298399,9.53336063976753,0.5714602586699695,7.35659715605945,1.3358883741425305,-1.678466796875,5.783267137480945,1.8835300352515243,-0.9309722156059452,28.498207650533537,10.531169612233231,-7.496472429962015,4.879532616170548,-0.1815811588959717,-11.709212440080496,-12.354953856328857,-162.61139024820653,25.528708778866022,34.993470512474914,32.357714080330666,1577310574.999,-27.69333396292992,-51.11998218524805,5.6587596
32423,1577310575.09,-0.360239757109851,-0.6487702547399004,8.425254037252285,-0.1443820391399099,0.0133140970369668,10.083589057885144,-0.7515457406392909,-5.92999954848871,10.81665272961128,0.8308596727324695,8.71462938262195,1.7173581007050305,1.922607421875,5.981631395293445,0.8459323790015243,-0.5800200671684452,34.09818323647104,6.258708674733232,-7.917622566476737,4.966667127173593,-1.1802775328238315,-8.369738827273547,-9.766861806403472,-89.9371599320817,25.45682451253482,34.753856291370894,32.21394554766826,1577310574.999,-27.69333396292992,-51.11998218524805,5.6587596
32424,1577310575.1,0.1688788097846792,-1.4675872225133375,11.022962838521815,-0.7824367815715505,-0.9347897603849076,6.651500978051161,-0.8473138070455409,-6.378912359768007,16.112626801876903,0.5867190477324695,5.022002429496951,2.4497799757050305,5.43212890625,6.607241746855945,1.5478366758765243,1.0221527843940548,20.563637338033537,-8.603351872141769,-7.917622566476737,4.966667127173593,-1.1802775328238315,2.2052609466151134,-9.850348646723646,-89.18794106284327,25.64851588941804,34.89762482403331,32.357714080330666,1577310574.999,-27.69333396292992,-51.11998218524805,5.6587596
32425,1577310575.11,0.568710487030773,-2.501882339700838,10.77875426918588,-0.1982515764934255,-0.0944249776700638,9.16062431789491,-4.194407727943978,-7.470668316799257,14.984957819943313,0.7698245164824695,5.845977038871951,2.8770260694550305,-3.936767578125,8.957095262480944,4.660629644626525,3.829769971894055,8.844887338033537,-21.81746320026677,-8.591462784900287,3.9210529951370456,-0.8171152150318806,-2.525660004861394,-9.93383548704382,-115.41060148618736,25.504747356755622,34.993470512474914,32.118099859226646,1577310574.999,-27.69333396292992,-51.11998218524805,5.6587596
32426,1577310575.12,1.861579383515148,2.77254391762338,12.109930392232757,1.365162107588605,-0.2069524556974076,7.0226022353753805,-1.7044380013814782,0.6911651426733991,9.248450642208937,0.7087893602324695,9.05032274199695,3.2737545850800305,-1.5869140625,10.910220262480944,4.294418707126525,4.073910596894055,4.602943978658536,-30.82014874714177,-8.254542675688512,6.01228125921014,-1.1802775328238315,-1.9690810693935703,-11.77054597408764,-139.38560530181627,25.45682451253482,34.8017791355917,32.30979123610986,1577310574.999,-27.69333396292992,-51.11998218524805,5.6587596
32427,1577310575.13,1.9896691723335072,-1.033039621194979,10.362163180318692,3.2924944440143857,-1.690160384164205,10.737206111107804,5.97017542024938,10.141079095310118,1.7689646558808114,0.5409426805449695,11.27810594512195,2.8312497022675305,2.4566650390625,10.788149949980944,2.1124118711890243,0.3049896984565547,29.200111947408537,2.7186696122332314,-8.928382894112062,5.4894741931918665,-0.635534056135905,-6.421712553136166,-12.187980175688509,-157.3668581635378,25.528708778866022,34.94554766825411,32.47752119088268,1577310574.999,-27.69333396292992,-51.11998218524805,5.6587596
32428,1577310575.14,2.6468775280463976,-3.787568631204744,7.237730013814786,3.4888189801471983,-1.2388533712247525,9.005001209984755,4.034463378013052,-2.0908971864281622,2.458494734005811,-0.0236325147675304,8.37893602324695,2.2056393507050305,3.84521484375,10.971255418730944,1.8835300352515243,-3.738589403105945,55.35367640053354,32.442790705983235,-8.928382894112062,6.01228125921014,-1.5434398506157752,-1.9690810693935703,-12.271467016008682,-152.87154494810736,25.2651331356516,34.753856291370894,32.357714080330666,1577310574.999,-27.69333396292992,-51.11998218524805,5.6587596
32429,1577310575.15,0.8608030895698354,0.3256698209436923,10.079647384420255,2.35157319157298,-1.013798415170064,7.235686183129286,-0.2511575936666346,-5.325463629299257,10.44076306896675,2.570361625857469,13.81106492949695,2.1446041944550305,1.5869140625,7.217593309355945,1.6699069883765243,-1.1445952624809452,59.10733850990854,22.86027117473323,-7.917622566476737,4.618129083161412,-0.8171152150318806,-3.082238940329218,-12.605414377289376,-152.87154494810736,25.504747356755622,34.993470512474914,32.357714080330666,1577310574.999,-27.69333396292992,-51.11998218524805,5.6587596
32430,1577310575.16,-0.0418109363090702,-0.4117442903844321,9.004650839010099,0.9342058087604797,-0.1375206075528764,8.571650709496474,0.435978282798208,-1.05181366592035,15.576325630001906,0.3730960008574696,10.74404832793445,2.0988278272675305,1.190185546875,10.940737840605944,1.7309421446265243,0.9000824718940548,48.54825647865854,14.376384455983231,-8.759922839506174,4.443860061155319,-0.6355340561359087,5.823024027155972,-12.271467016008682,-163.36060911744488,25.480785934645223,34.70593344715009,32.07017701500584,1577310574.999,-27.69333396292992,-51.11998218524805,5.6587596
32431,1577310575.17,-1.3466508410942255,1.4653098111780674,7.941625301900723,-0.4496427508098317,0.8788179971834507,10.31822082058046,-1.3321396432271817,-3.7464876344262095,16.92665536633003,3.424853813357469,14.26882860137195,3.4568600538300305,0.3814697265625,9.689517137480944,3.439926519626524,1.2815521984565548,23.35599573647104,2.9628102372332314,-9.433763057929731,5.489474193191865,-2.4513456450956417,5.823024027155972,-11.269624932166597,-197.8246771024114,25.60059304519724,34.8257405577021,32.357714080330666,1577310574.999,-27.69333396292992,-51.11998218524805,5.6587596
32432,1577310575.18,-1.1790567248832884,-0.6607412630406816,9.950360494771818,-2.551751808427019,-0.2763843038419389,11.145417494164445,-2.0707508553853846,-4.037383136135193,15.06875487804878,2.021045219607469,7.188750476371951,3.1211666944550305,3.875732421875,5.905337449980945,3.1347507383765243,2.2733734875190548,4.297768197408536,-12.357013981516769,-9.433763057929731,5.489474193191865,-2.4513456450956417,6.936181898091619,-12.605414377289376,-200.821552579365,25.64851588941804,34.61008775870848,32.357714080330666,1577310574.999,-27.69333396292992,-51.11998218524805,5.6587596
32433,1577310575.19,-0.4033353869926635,-2.4659693147984942,9.593624447408535,-0.3562688860637381,-2.6849511739591274,8.703331800805067,-3.667683362709603,-4.4036959901391,11.838976838498,1.6548342821074695,8.40945360137195,3.5789303663300305,3.96728515625,9.964175340605944,3.3483737852515243,4.714779737519055,-4.949057974466464,-23.95369366901677,-9.433763057929731,5.489474193191865,-2.4513456450956417,6.936181898091619,-12.438440696649028,-212.8090544871794,25.45682451253482,34.70593344715009,32.45355976877228,1577310574.999,-27.69333396292992,-51.11998218524805,5.6587596
32434,1577310575.2,0.5986380077827261,-2.282812887796541,9.895293856588223,0.3260785870807922,-3.343356630502096,6.728115431176161,-0.5647980111471034,7.052558953708555,12.573996748165968,3.058642875857469,8.74514696074695,3.350048530392531,2.166748046875,9.018130418730944,4.111313238376525,5.264096143769055,-8.733237661966463,-13.150471012766769,-8.67569281220323,5.053801638176638,-1.6342304300637611,-2.8039494725953062,-9.6833749660833,-258.5114055107218,25.48078593464522,34.70593344715009,32.45355976877228,1577310574.999,-27.69333396292992,-51.11998218524805,5.6587596
32435,1577310575.21,-0.3530571521293822,0.4453799039515048,8.183439669576504,0.1596815716999332,0.5915137979647007,9.291108308373428,0.2372595450052398,0.8384085447730089,9.235282533078076,7.636279594607469,16.77127000762195,3.4873776319550305,3.875732421875,9.750552293730944,3.4704440977515243,4.562191846894055,-10.030234732278965,1.620036799733232,-7.74916251187085,4.792398105167502,-0.2723717383439576,-11.987501907814408,-9.93383548704382,-236.7840583028082,25.2651331356516,34.65801060292928,32.30979123610986,1577310574.999,-27.69333396292992,-51.11998218524805,5.6587596
32436,1577310575.22,-2.249264866973132,2.1093500577600985,8.343851180806974,-1.895740553544207,0.9805715677400912,9.622705238305066,3.299443468345083,2.314433868259336,11.135081550412062,4.065722953982469,11.36965867949695,3.3958248975800305,10.80322265625,5.386538621855945,2.3107761290015243,5.233578565644055,-9.068931021341465,-1.7674143721417683,-7.74916251187085,4.792398105167502,-0.2723717383439576,-11.987501907814408,-9.93383548704382,-203.8184280563186,25.45682451253482,34.61008775870848,32.45355976877228,1577310574.999,-27.69333396292992,-51.11998218524805,5.6587596
32437,1577310575.23,-1.5142449573051633,-3.653493338235994,5.995139352193693,-1.0625583758098318,-2.3353977315763146,10.000989100609756,0.7304650869974267,1.1388808531226178,11.266762641720655,2.906054985232469,4.686309070121951,3.3958248975800305,7.598876953125,5.722231981230945,2.6769870665015243,3.890805128144055,-15.263999380716465,8.913737971608231,-7.74916251187085,4.792398105167502,-0.2723717383439576,-11.430922972346584,-9.26594076448243,-206.81530353327216,25.45682451253482,34.70593344715009,32.07017701500584,1577310574.999,-27.69333396292992,-51.11998218524805,5.6587596
32438,1577310575.24,-3.3470063281547726,-1.9883260835973224,9.289560836568691,-3.941585872147722,-2.445531007943502,8.924795454369521,-1.1250411996236662,-4.653890063625428,17.10622049084175,5.194873344607469,4.259062976371951,4.051952827267531,2.655029296875,2.395815965605945,4.157089605564025,3.8145111828315543,-35.89388219321646,7.2505299637957314,-8.254542675688512,4.966667127173593,-0.8171152150318843,-11.430922972346584,-9.850348646723646,-155.1192015558226,25.45682451253482,34.753856291370894,32.285829813999456,1577310574.999,-27.69333396292992,-51.11998218524805,5.6587596
32439,1577310575.25,-3.132725279570788,-1.5777204988805251,10.22329948402963,-2.2740244158488943,-0.1710394307950639,12.306605299340225,-2.8728084115377284,-2.54579550185785,16.08389638195503,-0.0236325147675304,-3.1872260861280486,2.1446041944550305,-0.579833984375,1.7854644031059452,4.050278082126525,4.440121534394055,-58.23274938071646,4.366618830983232,-8.254542675688512,4.966667127173593,-0.453952897239937,-3.082238940329218,-9.599888125763124,-152.87154494810736,25.31305597987241,34.8017791355917,32.30979123610986,1577310574.999,-27.69333396292992,-51.11998218524805,5.6587596
32440,1577310575.26,-3.7169104846489134,1.965697958150724,10.326250155416348,-3.80870768000905,3.5399731424471224,14.04479570461366,-2.468188330971322,-1.5976916444359748,12.930732795529249,4.309863578982469,3.2519828982469514,3.731518256955032,4.21142578125,-3.951840284394055,3.1042331602515243,3.707699659394055,-61.58968297446646,-0.4246409346417683,-8.4230027302944,5.838012237204049,-0.2723717383439576,-3.082238940329218,-9.599888125763124,-152.87154494810736,25.2651331356516,34.70593344715009,32.07017701500584,1577310574.999,-27.69333396292992,-51.11998218524805,5.6587596
32441,1577310575.27,-4.985837364531726,1.4677040128382235,10.278366122213225,-5.975460182450457,3.097045835318216,13.66890604396913,-0.2391865853658534,-0.5897327455101936,10.285139961056592,1.7158694383574695,-3.1261909298780486,4.128246772580031,3.204345703125,-4.043393018769055,4.965805425876525,4.684262159394055,-62.32210484946646,-6.5586741377667686,-8.4230027302944,5.838012237204049,-0.2723717383439576,-0.2993442629900964,-12.605414377289376,-164.85904685592186,25.2172102914308,34.94554766825411,32.30979123610986,1577310574.999,-27.69333396292992,-51.11998218524805,5.6587596
32442,1577310575.28,-3.856971281768054,-1.4256886934606037,10.818258596578458,-2.6259720598918626,-2.6969221822599083,13.45342789455507,2.2495860403665677,3.123674029392149,8.578074177365187,3.943652641482469,-4.835175304878049,4.372387397580031,2.0294189453125,-4.165463331269056,5.286239996189025,5.294613721894055,-50.69490758384146,-0.7603342940167681,-8.423002730294407,4.7923981051675,-0.6355340561359087,5.823024027155972,-12.605414377289376,-188.8340506715505,25.33701740198281,34.96950909036451,32.30979123610986,1577310574.999,-27.69333396292992,-51.11998218524805,5.6587596
32443,1577310575.29,-4.380104344512194,-3.50265863364615,7.917683285299161,-3.6004121355754566,-5.016903590951315,13.644964027367568,-1.876820520912728,-2.1818768495141,10.301899372677688,5.072803032107469,-3.9501655392530486,4.891186225705031,4.5166015625,-12.954525831269056,4.935287847751525,3.3414887218940548,-39.55599156821646,13.003093440358231,-9.60222311253562,4.618129083161412,-0.8171152150318806,5.823024027155972,-12.605414377289376,-188.8340506715505,25.504747356755622,34.94554766825411,32.50148261299308,1577310574.999,-27.69333396292992,-51.11998218524805,5.6587596
32444,1577310575.3,-3.659449644805163,-4.503434927591463,8.985497225728848,-2.7959603777629565,-3.6234782247403774,10.551655482445693,-0.6462008675924159,-2.4380564271508187,8.810311738400342,3.8520999071074695,-5.964325695503049,4.372387397580031,3.96728515625,-8.010678175019056,4.874252691501525,4.073910596894055,-35.71077672446646,15.932780940358231,-8.591462784900287,5.315205171185774,-0.8171152150318806,5.823024027155972,-12.605414377289376,-188.8340506715505,25.504747356755622,34.753856291370894,32.357714080330666,1577310574.999,-27.69333396292992,-51.11998218524805,5.6587596
