,timestamp,acc_x_dashboard,acc_y_dashboard,acc_z_dashboard,acc_x_above_suspension,acc_y_above_suspension,acc_z_above_suspension,acc_x_below_suspension,acc_y_below_suspension,acc_z_below_suspension,gyro_x_dashboard,gyro_y_dashboard,gyro_z_dashboard,gyro_x_above_suspension,gyro_y_above_suspension,gyro_z_above_suspension,gyro_x_below_suspension,gyro_y_below_suspension,gyro_z_below_suspension,mag_x_dashboard,mag_y_dashboard,mag_z_dashboard,mag_x_above_suspension,mag_y_above_suspension,mag_z_above_suspension,temp_dashboard,temp_above_suspension,temp_below_suspension,timestamp_gps,latitude,longitude,speed
121809,1577398275.82,0.1158560022865843,-0.5327974621284293,9.824577314869948,0.2791872716391959,-0.5558635512933497,9.752225708603278,0.1187757604087271,-0.5453524220536394,9.905396219690834,0.1925956912157013,0.2798685213414634,-0.1784533989138719,0.1470054068216463,0.1064393578506097,0.23651123046875,-0.1581703744283537,-7.638326505335366,0.0658733088795732,-30.39136915360874,-14.059558627136752,0.9299436240842456,17.720463399034827,-43.47151862026863,-86.44796781994047,27.373738281367,32.30979123610986,34.61008775870848,1577398274.999,-27.71779547358392,-51.09908023507685,0.07556704
121810,1577398275.83,0.0978994898354124,-0.4825192272651479,9.85570193645198,0.2097554234946646,-0.5247389297113184,9.79532133848609,0.0972279454673209,-0.5956306569169206,9.843146976526771,0.2078544802782013,0.2035745760289634,0.019910858898628,-0.0055824838033536,-0.2292540015243902,0.26702880859375,-0.0666176400533536,-0.2530725990853658,-0.1782673161204268,-31.62217226574866,-13.968262791895604,-0.0774953020070232,17.237178033606607,-41.272570207570205,-80.17370364010989,27.373738281367,32.30979123610986,34.8017791355917,1577398274.999,-27.71779547358392,-51.09908023507685,0.07556704
121811,1577398275.84,0.0799429773842406,-0.5327974621284293,9.91316277629573,0.2265148351157584,-0.5498780471429591,9.73187499449195,0.0828627355063834,-0.560914732844655,9.908987522181068,0.0094902224657013,-0.0253072599085365,-0.2089709770388719,-0.0971352181783536,0.0148866234756097,-0.00762939453125,-0.0818764291158536,0.0063268149771341,-0.2545612614329268,-33.04232970283318,-14.059558627136752,0.0,17.881558520844237,-43.97896825396825,-81.7928685897436,27.421661125587804,32.26186839188906,34.514242070266874,1577398274.999,-27.71779547358392,-51.09908023507685,0.07556704
121812,1577398275.85,0.0775487757240843,-0.4849134289253042,9.886826558034011,0.2336974400962271,-0.5079795180902247,9.706735877060307,0.1163815587485709,-0.5645060353348894,9.922155631311927,0.0094902224657013,0.1577982088414634,0.035169647961128,0.1470054068216463,0.2285096703506097,0.08392333984375,-0.2192055306783537,0.0521031821646341,0.0658733088795732,-32.852975377888576,-12.781416933760685,0.464971812042126,18.84812925170068,-42.62576923076923,-81.7928685897436,27.373738281367,32.07017701500584,34.70593344715009,1577398274.999,-27.71779547358392,-51.09908023507685,0.07556704
121813,1577398275.86,0.0560009607826781,-0.4681540173042104,9.89400916301448,0.2360916417563834,-0.539104139672256,9.749831506943124,0.1139873570884146,-0.5669002369950457,9.996375882776771,0.1620781130907013,0.1272806307164634,0.004652069836128,-0.2497231088033537,0.1369569359756097,0.38909912109375,-0.2802406869283537,-0.0394495522103658,-0.0561970036204267,-32.852975377888576,-12.781416933760685,0.464971812042126,17.720463399034827,-42.45661935286935,-78.35214307177198,27.3258154371462,31.97433132656424,34.46631922604607,1577398274.999,-27.71779547358392,-51.09908023507685,0.07556704
121814,1577398275.87,0.0859284815346312,-0.4849134289253042,9.898797566334792,0.2217264317954459,-0.558257752953506,9.759408313583748,0.0589207189048209,-0.5669002369950457,9.903002018030676,-0.2651679806592987,-0.0253072599085365,-0.0411242973513719,-0.3107582650533537,-0.0766661108993902,0.23651123046875,-0.3412758431783537,-0.0394495522103658,0.0048381526295732,-32.474266727999364,-13.329191945207572,0.1549906040140431,17.881558520844237,-43.30236874236874,-81.7928685897436,27.373738281367,32.30979123610986,34.70593344715009,1577398274.999,-27.71779547358392,-51.09908023507685,0.07556704
121815,1577398275.88,0.0990965906654906,-0.5136438488471792,9.898797566334792,0.2301061376059927,-0.5079795180902247,9.747437305282968,0.1343380711997427,-0.6387262867997331,9.819204959925209,0.0094902224657013,0.0357278963414634,0.065687226086128,-0.1581703744283537,0.0606629906631097,0.06866455078125,-0.2649818978658536,-0.0089319740853658,-0.0409382145579267,-31.90620375316556,-13.329191945207572,-0.6199624160561659,17.720463399034827,-43.13321886446885,-80.78089049622251,27.3258154371462,32.47752119088268,34.70593344715009,1577398274.999,-27.71779547358392,-51.09908023507685,0.07556704
121816,1577398275.89,0.0416357508217406,-0.4968844372260855,9.886826558034011,0.2241206334556021,-0.586988172875381,9.68039965879859,0.1451119786704459,-0.5190162037919206,9.713860086878334,0.0400078005907013,0.2798685213414634,0.2182751167111281,-0.1886879525533537,0.5947206078506098,0.05340576171875,-0.4633461556783537,-0.0699671303353658,-0.2698200504954268,-30.959432128442547,-13.146600274725277,-0.464971812042126,18.84812925170068,-42.96406898656898,-81.7928685897436,27.229969748704587,32.16602270344745,34.562164914487674,1577398274.999,-27.71779547358392,-51.09908023507685,0.07556704
121817,1577398275.9,0.0320589441811156,-0.4681540173042104,9.865278743092604,0.2049670201743521,-0.5438925429925685,9.728283692001716,0.1163815587485709,-0.4687379689286394,9.795262943323646,0.0400078005907013,-0.2084127286585365,-0.3005237114138719,-0.0666176400533536,-0.1377012671493902,-0.00762939453125,-0.0666176400533536,0.1131383384146341,-0.1782673161204268,-33.23168402777778,-13.876966956654458,0.1549906040140463,17.881558520844237,-35.52147435897436,-81.7928685897436,27.3258154371462,32.30979123610986,34.70593344715009,1577398274.999,-27.71779547358392,-51.09908023507685,0.07556704
121818,1577398275.91,0.0859284815346312,-0.4897018322456167,9.889220759694169,0.2145438268149771,-0.5151621230706934,9.601391004013434,0.1379293736899771,-0.5788712452958269,10.056230924280678,-0.0973213009717987,0.0052103182164634,-0.2242297661013719,-0.2802406869283537,-0.0156309546493902,0.32806396484375,-0.4633461556783537,0.0521031821646341,0.0658733088795732,-32.28491240305477,-13.876966956654458,0.7749530200702089,17.237178033606607,-42.62576923076923,-81.7928685897436,27.301854015035797,32.45355976877228,34.61008775870848,1577398274.999,-27.71779547358392,-51.09908023507685,0.07556704
121819,1577398275.92,0.0368473475014281,-0.520826453827648,9.903585969655104,0.2157409276450552,-0.5355128371820216,9.741451801132577,0.098425046297399,-0.5405640187333269,10.013135294397864,0.1315605349657013,0.3714212557164634,0.004652069836128,-0.1276527963033536,0.0454042016006097,0.22125244140625,-0.0513588509908536,-0.1767786537728658,-0.1172321598704267,-32.28491240305476,-14.424741968101342,0.3099812080280861,17.237178033606607,-42.62576923076923,-81.7928685897436,27.373738281367,32.237906969778656,34.65801060292928,1577398274.999,-27.71779547358392,-51.09908023507685,0.07556704
121820,1577398275.93,0.0607893641029906,-0.5280090588081168,9.826971516530104,0.1714481969321646,-0.5510751479730372,9.709130078720468,0.0493439122641959,-0.5214104054520768,9.879060001429115,0.0705253787157013,0.1577982088414634,-0.4531116020388719,-0.1886879525533537,-0.1987364233993902,0.20599365234375,-0.2192055306783537,-0.3141077553353658,-0.1782673161204268,-31.14878645338715,-13.329191945207572,0.3099812080280861,17.237178033606607,-43.97896825396825,-80.17370364010989,27.565429658250217,32.16602270344745,34.753856291370894,1577398274.999,-27.71779547358392,-51.09908023507685,0.07556704
121821,1577398275.94,0.0727603724037718,-0.4873076305854604,9.889220759694169,0.1762366002524771,-0.539104139672256,9.69955327207984,0.0684975255454459,-0.5645060353348894,9.857512186487709,0.0400078005907013,0.0662454744664634,0.004652069836128,-0.0361000619283536,0.2285096703506097,0.14495849609375,-0.1581703744283537,-0.1004847084603658,-0.0561970036204267,-32.28491240305476,-12.96400860424298,0.6199624160561659,18.20374876446305,-41.94916971916971,-80.98328611492674,27.229969748704587,32.45355976877228,34.562164914487674,1577398274.999,-27.71779547358392,-51.09908023507685,0.07556704
121822,1577398275.95,0.0727603724037718,-0.5016728405463979,9.908374372975418,0.2061641210044302,-0.5989591811761622,9.698356171249763,0.088848239656774,-0.5070451954911394,9.901804917200598,-0.0820625119092986,0.0052103182164634,0.019910858898628,-0.0055824838033536,-0.0003721655868902,0.12969970703125,-0.2649818978658537,-0.0852259193978658,-0.3461139958079268,-32.28491240305476,-13.511783615689868,1.2399248321123348,18.042653642653644,-41.61086996336996,-81.38807735233517,27.373738281367,32.237906969778656,34.63404918081888,1577398274.999,-27.71779547358392,-51.09908023507685,0.07556704
121823,1577398275.96,0.0751545740639281,-0.5639220837104605,9.862884541432448,0.1906018102134146,-0.586988172875381,9.711524280380624,0.0684975255454459,-0.5908422535966081,9.953280252893958,0.0705253787157013,0.1577982088414634,0.065687226086128,0.0554526724466463,0.0454042016006097,0.51116943359375,-0.2497231088033537,0.0826207602896341,-0.1172321598704267,-31.14878645338715,-15.885475331959707,0.0,17.881558520844237,-41.272570207570205,-81.7928685897436,27.229969748704587,32.26186839188906,34.70593344715009,1577398274.999,-27.71779547358392,-51.09908023507685,0.07556704
121824,1577398275.97,0.0775487757240843,-0.5663162853706167,9.905980171315262,0.2624278600181021,-0.6851504409417872,9.63730402891578,0.0972279454673209,-0.5788712452958269,9.912578824671302,-0.1430976681592987,0.3409036775914634,0.096204804211128,-0.0971352181783536,0.2285096703506097,-0.00762939453125,-0.1581703744283537,-0.1920374428353658,-0.2087848942454268,-31.338140778331752,-14.972516979548232,0.464971812042126,17.881558520844237,-40.59597069597069,-81.7928685897436,27.229969748704587,32.357714080330666,34.46631922604607,1577398274.999,-27.71779547358392,-51.09908023507685,0.07556704
121825,1577398275.98,0.0751545740639281,-0.5723017895210073,9.88084105388362,0.1953902135337271,-0.5989591811761622,9.678005457138434,0.0493439122641959,-0.5669002369950457,9.96525126119474,0.1163017459032013,0.0052103182164634,-0.0106067192263719,-0.1581703744283537,0.0759217797256097,0.20599365234375,-0.3412758431783537,-0.1004847084603658,-0.4834430973704268,-33.23168402777778,-13.511783615689868,0.1549906040140463,18.20374876446305,-40.934270451770445,-79.36412116529304,27.3258154371462,32.16602270344745,34.27462784916285,1577398274.999,-27.71779547358392,-51.09908023507685,0.07556704
121826,1577398275.99,0.0679719690834593,-0.5998351086128042,9.939498994557448,0.2109525243247428,-0.5762142654046778,9.71870688536109,0.0589207189048209,-0.6052074635575456,9.871877396448646,-0.0820625119092987,-0.0558248380335365,0.035169647961128,-0.1123940072408536,0.3353211937881097,0.11444091796875,-0.2802406869283537,-0.0089319740853658,-0.0104206364329267,-32.09555807811016,-11.685866910866912,-0.1549906040140398,18.525939008081867,-40.934270451770445,-80.98328611492676,27.373738281367,32.11809985922664,34.53820349237728,1577398274.999,-27.71779547358392,-51.09908023507685,0.07556704
121827,1577398276.0,0.0799429773842406,-0.5471626720893668,9.956258406178543,0.1786308019126334,-0.6516316176995998,9.76419671690406,0.1115931554282584,-0.5669002369950457,9.953280252893958,-0.0515449337842987,0.0357278963414634,0.035169647961128,-0.0971352181783536,0.1064393578506097,0.11444091796875,0.0249350943216463,-0.2530725990853658,0.1269084651295732,-31.527495103276355,-14.789925309065936,0.6199624160561659,17.881558520844237,-41.94916971916971,-80.17370364010989,27.373738281367,32.26186839188906,34.562164914487674,1577398275.999,-27.71779475714497,-51.09908097301335,0.00839101
121828,1577398276.01,0.0823371790443968,-0.559133680390148,9.889220759694169,0.1666597936118521,-0.5702287612542872,9.735466296982183,0.0948337438071646,-0.6626683034012957,9.989193277796302,0.2841484255907013,0.4934915682164634,0.035169647961128,-0.1581703744283537,0.1979920922256097,0.02288818359375,-0.1581703744283537,0.2046910727896341,0.0963908870045732,-32.47426672799937,-14.242150297619048,1.3949154361263716,17.720463399034827,-41.78001984126984,-81.59047297103938,27.373738281367,32.357714080330666,34.70593344715009,1577398275.999,-27.71779475714497,-51.09908097301335,0.00839101
121829,1577398276.02,0.0344531458412718,-0.5232206554878043,9.9203453812762,0.1882076085532584,-0.6205069961175684,9.768985120224372,0.0900453404868521,-0.5669002369950457,9.924549832972083,0.2231132693407013,-0.0253072599085365,0.065687226086128,0.0554526724466463,0.1369569359756097,0.23651123046875,-0.1276527963033537,-0.1004847084603658,-0.2393024723704268,-30.01266050371953,-13.694375286172162,0.9299436240842456,19.49250973893832,-40.59597069597069,-81.38807735233516,27.373738281367,32.30979123610986,34.562164914487674,1577398275.999,-27.71779475714497,-51.09908097301335,0.00839101
121830,1577398276.03,0.0727603724037718,-0.5519510754096792,9.846125129811355,0.1953902135337271,-0.5917765761956935,9.790532935165778,0.1235641637290396,-0.5812654469559831,9.92574693380216,0.1925956912157013,0.2188333650914634,0.1877575385861281,-0.1581703744283537,0.0911805687881097,0.05340576171875,-0.2954994759908536,0.052103182164634,-0.1324909489329267,-30.202014828664137,-14.242150297619048,1.3949154361263716,17.881558520844237,-43.97896825396825,-81.38807735233516,27.3258154371462,32.30979123610986,34.514242070266874,1577398275.999,-27.71779475714497,-51.09908097301335,0.00839101
121831,1577398276.04,0.0536067591225218,-0.520826453827648,9.862884541432448,0.2073612218345084,-0.5558635512933497,9.754619910263434,0.0876511388266959,-0.5836596486161394,9.993981681116615,0.1620781130907013,0.0662454744664634,-0.0563830864138719,-0.1276527963033537,-0.1071836890243902,0.08392333984375,0.0249350943216463,0.0826207602896341,-0.1172321598704267,-30.01266050371953,-14.424741968101342,0.6199624160561659,17.881558520844237,-43.97896825396825,-81.7928685897436,27.229969748704587,32.26186839188906,34.70593344715009,1577398275.999,-27.71779475714497,-51.09908097301335,0.00839101
121832,1577398276.05,0.0416357508217406,-0.5064612438667104,9.860490339772293,0.2049670201743521,-0.5798055678949122,9.766590918564216,0.0852569371665396,-0.5860538502762956,9.953280252893958,0.1620781130907013,0.0357278963414634,-0.0563830864138719,-0.0055824838033536,0.2285096703506097,0.11444091796875,-0.0971352181783536,-0.0089319740853658,-0.0867145817454267,-30.01266050371953,-14.424741968101342,0.3099812080280861,17.881558520844237,-42.62576923076923,-81.7928685897436,27.373738281367,32.30979123610986,34.61008775870848,1577398275.999,-27.71779475714497,-51.09908097301335,0.00839101
121833,1577398276.06,0.0751545740639281,-0.5459655712592886,9.870067146412918,0.2013757176841177,-0.5642432571038966,9.697159070419684,0.0864540379966177,-0.5549292286942644,9.92574693380216,0.1620781130907013,-0.1168599942835365,-0.1479358207888719,-0.0055824838033536,-0.0461485327743902,0.23651123046875,-0.0513588509908536,0.0063268149771341,-0.0714557926829267,-32.47426672799937,-14.60733363858364,1.084934228098292,17.237178033606607,-42.62576923076923,-80.98328611492676,27.301854015035797,32.21394554766825,34.65801060292928,1577398275.999,-27.71779475714497,-51.09908097301335,0.00839101
121834,1577398276.07,0.0751545740639281,-0.4729424206245229,9.860490339772293,0.1977844151938834,-0.529527333031631,9.759408313583748,0.0756801305259146,-0.5453524220536394,9.93891504293302,0.0094902224657013,0.4019388338414634,0.004652069836128,0.0554526724466463,0.0148866234756097,0.08392333984375,-0.2192055306783537,-0.0089319740853658,0.1574260432545732,-32.47426672799937,-14.60733363858364,1.084934228098292,17.237178033606607,-42.62576923076923,-81.7928685897436,27.517506814029414,32.16602270344745,34.562164914487674,1577398275.999,-27.71779475714497,-51.09908097301335,0.00839101
121835,1577398276.08,0.0655777674233031,-0.4992786388862417,9.905980171315262,0.1953902135337271,-0.5414983413324123,9.745043103622807,0.0661033238852896,-0.6028132618973894,9.919761429651771,0.1315605349657013,0.1577982088414634,-0.2089709770388719,-0.2802406869283537,-0.1071836890243902,-0.06866455078125,-0.0971352181783536,0.0215856040396341,-0.1782673161204268,-32.28491240305476,-14.424741968101342,0.6199624160561659,17.237178033606607,-42.62576923076923,-80.17370364010989,27.421661125587804,32.30979123610986,34.370473537604454,1577398275.999,-27.71779475714497,-51.09908097301335,0.00839101
121836,1577398276.09,0.0583951624428343,-0.5088554455268667,9.834154121510574,0.2097554234946646,-0.5271331313714748,9.754619910263434,0.0804685338462271,-0.5238046071122331,9.881454203089271,0.1620781130907013,0.0662454744664634,0.096204804211128,0.0249350943216463,0.0148866234756097,0.08392333984375,-0.1276527963033537,-0.2225550209603658,0.2489787776295732,-33.23168402777778,-14.242150297619048,0.464971812042126,17.237178033606607,-43.97896825396825,-80.17370364010989,27.18204690448378,32.16602270344745,34.46631922604607,1577398275.999,-27.71779475714497,-51.09908097301335,0.00839101
121837,1577398276.1,0.0560009607826781,-0.4908989330756949,9.83056281902034,0.1870105077231802,-0.5163592239007716,9.68758226377906,0.0720888280356802,-0.5489437245438737,9.910184623011146,0.1315605349657013,-0.0710836270960365,0.2182751167111281,-0.1581703744283537,0.1979920922256097,-0.06866455078125,-0.0971352181783536,0.0215856040396341,-0.1324909489329267,-30.580723478553335,-13.876966956654456,0.3099812080280797,17.639915838130122,-42.541194291819295,-80.88208830557463,27.373738281367,32.16602270344745,34.58612633659808,1577398275.999,-27.71779475714497,-51.09908097301335,0.00839101
121838,1577398276.11,0.1158560022865843,-0.444212000702648,9.922739582936355,0.2145438268149771,-0.5271331313714748,9.651669238876716,0.0661033238852896,-0.5405640187333269,9.82399336324552,-0.0820625119092987,0.0052103182164634,-0.0563830864138719,0.0249350943216463,0.1369569359756097,0.20599365234375,-0.3412758431783537,-0.0394495522103658,-0.1782673161204268,-31.14878645338715,-14.059558627136752,-0.3099812080280861,17.237178033606607,-42.62576923076923,-80.98328611492674,27.373738281367,32.16602270344745,34.41839638182526,1577398275.999,-27.71779475714497,-51.09908097301335,0.00839101
121839,1577398276.12,0.0919139856850218,-0.4968844372260855,9.89400916301448,0.2408800450766959,-0.5247389297113184,9.639698230575934,0.0661033238852896,-0.5309872120927018,9.855117984827553,-0.1125800900342987,0.0052103182164634,-0.0258655082888719,0.0249350943216463,-0.1377012671493902,-0.03814697265625,-0.0971352181783536,-0.1615198647103658,0.0048381526295732,-31.14878645338715,-14.789925309065936,1.859887248168504,18.68703412989128,-43.80981837606838,-80.78089049622251,27.517506814029414,32.16602270344745,34.562164914487674,1577398275.999,-27.71779475714497,-51.09908097301335,0.00839101
121840,1577398276.13,0.1014907923256468,-0.4897018322456167,9.911965675465652,0.2456684483970084,-0.5343157363519435,9.73786049864234,0.0924395421470083,-0.6052074635575456,9.855117984827553,0.1163017459032013,-0.0100484708460365,-0.1326770317263719,0.0554526724466463,-0.1682188452743902,0.11444091796875,-0.3717934213033537,0.0826207602896341,-0.0561970036204267,-31.81152659069325,-14.516037803342492,1.0074389260912686,18.36484388627246,-35.690624236874235,-80.78089049622251,27.3976997034774,32.30979123610986,34.70593344715009,1577398275.999,-27.71779475714497,-51.09908097301335,0.00839101
121841,1577398276.14,0.0583951624428343,-0.4897018322456167,9.929922187916825,0.2085583226645865,-0.5367099380120998,9.692370667099372,0.0828627355063834,-0.5836596486161394,9.88743970723966,0.0400078005907013,0.3103860994664634,-0.0258655082888719,0.0707114615091463,0.0301454125381097,0.19073486328125,-0.1734291634908537,0.0063268149771341,-0.1935261051829267,-31.338140778331752,-12.781416933760685,1.084934228098292,18.525939008081867,-42.28746947496947,-80.17370364010989,27.3258154371462,32.357714080330666,34.681972025039684,1577398275.999,-27.71779475714497,-51.09908097301335,0.00839101
121842,1577398276.15,0.0368473475014281,-0.530403260468273,9.956258406178543,0.1977844151938834,-0.5821997695550685,9.654063440536872,0.0852569371665396,-0.5357756154130144,9.941309244593178,-0.2346504025342987,0.0052103182164634,-0.1479358207888719,0.2385581411966463,0.1674745141006097,0.29754638671875,-0.1886879525533537,0.0215856040396341,0.0353557307545732,-31.338140778331752,-12.781416933760685,1.084934228098292,17.237178033606607,-41.272570207570205,-79.76891240270146,27.373738281367,32.30979123610986,34.70593344715009,1577398275.999,-27.71779475714497,-51.09908097301335,0.00839101
121843,1577398276.16,0.0799429773842406,-0.5088554455268667,9.865278743092604,0.2336974400962271,-0.558257752953506,9.66124604551734,0.0780743321860708,-0.5836596486161394,9.90779042135099,0.2841484255907013,-0.0253072599085365,-0.2394885551638719,-0.0055824838033536,-0.0156309546493902,0.11444091796875,-0.2802406869283537,0.1436559165396341,-0.1782673161204268,-32.663621052943974,-12.96400860424298,1.2399248321123315,17.237178033606607,-41.272570207570205,-79.76891240270146,27.517506814029414,32.30979123610986,34.562164914487674,1577398275.999,-27.71779475714497,-51.09908097301335,0.00839101
121844,1577398276.17,0.0464241541420531,-0.530403260468273,9.860490339772293,0.2121496251548209,-0.5558635512933497,9.64209243223609,0.0924395421470083,-0.5357756154130144,9.943703446253334,0.0705253787157013,-0.0710836270960365,-0.0411242973513719,-0.1276527963033537,0.0454042016006097,0.23651123046875,-0.2192055306783537,-0.1920374428353658,-0.2393024723704268,-32.37958956552707,-14.516037803342492,1.6274013421474314,19.170319495319497,-41.272570207570205,-80.17370364010989,27.3258154371462,32.16602270344745,34.753856291370894,1577398275.999,-27.71779475714497,-51.09908097301335,0.00839101
121845,1577398276.18,0.0488183558022093,-0.5088554455268667,9.884432356373855,0.2289090367759146,-0.5798055678949122,9.755817011093512,0.0684975255454459,-0.5549292286942644,9.917367227991615,0.0094902224657013,0.0967630525914634,-0.1784533989138719,-0.0666176400533536,0.0454042016006097,0.17547607421875,-0.1276527963033536,-0.1920374428353657,-0.0409382145579267,-32.663621052943974,-13.329191945207572,1.5499060401404114,11.357206087563233,-41.18799526862027,-80.4772970681662,27.3258154371462,32.14206128133705,34.58612633659808,1577398275.999,-27.71779475714497,-51.09908097301335,0.00839101
121846,1577398276.19,0.0775487757240843,-0.5543452770698355,9.846125129811355,0.2360916417563834,-0.5893823745355372,9.759408313583748,0.0637091222251334,-0.5429582203934832,9.931732437952553,0.0400078005907013,-0.0253072599085365,-0.0563830864138719,-0.0055824838033536,-0.1682188452743902,0.26702880859375,-0.2802406869283537,0.1436559165396341,0.0658733088795732,-32.663621052943974,-13.329191945207572,1.5499060401404114,3.22190243618815,-43.13321886446885,-81.18568173363096,27.229969748704587,32.26186839188906,34.46631922604607,1577398275.999,-27.71779475714497,-51.09908097301335,0.00839101
121847,1577398276.2,0.0560009607826781,-0.5447684704292105,9.903585969655104,0.2145438268149771,-0.6037475844964747,9.788138733505622,0.1427177770102896,-0.5597176320145769,10.008346891077553,-0.0210273556592986,0.3103860994664634,0.035169647961128,-0.0361000619283536,0.0759217797256097,-0.06866455078125,-0.2802406869283537,0.2962438071646341,-0.2698200504954268,-33.04232970283318,-12.96400860424298,1.859887248168504,17.237178033606607,-42.62576923076923,-81.7928685897436,27.373738281367,32.30979123610986,34.562164914487674,1577398275.999,-27.71779475714497,-51.09908097301335,0.00839101
121848,1577398276.21,0.0727603724037718,-0.530403260468273,9.87485554973323,0.2145438268149771,-0.5726229629144435,9.72588949034156,0.1056076512778677,-0.580068346125905,9.95208315206388,-0.0973213009717987,0.1883157869664634,0.080946015148628,-0.2344643197408537,-0.0614073218368902,0.17547607421875,-0.1276527963033536,-0.1615198647103658,0.0048381526295732,-32.00088091563786,-13.968262791895606,2.092373154189564,17.962106081748942,-42.541194291819295,-81.69167078039149,27.445622547698207,32.118099859226646,34.61008775870848,1577398275.999,-27.71779475714497,-51.09908097301335,0.00839101
121849,1577398276.22,0.0248763392006468,-0.5519510754096792,9.891614961354325,0.2265148351157584,-0.586988172875381,9.778561926864995,0.1091989537681021,-0.5764770436356706,9.924549832972083,0.1925956912157013,0.0052103182164634,0.096204804211128,-0.1276527963033537,0.2590272484756097,0.11444091796875,-0.2802406869283537,-0.2225550209603658,-0.0867145817454267,-31.14878645338715,-14.059558627136752,0.6199624160561659,17.237178033606607,-41.272570207570205,-81.7928685897436,27.373738281367,32.118099859226646,34.70593344715009,1577398275.999,-27.71779475714497,-51.09908097301335,0.00839101
121850,1577398276.23,0.0512125574623656,-0.5806814953315542,9.884432356373855,0.2049670201743521,-0.596564979516006,9.689976465439216,0.0900453404868521,-0.5860538502762956,9.891031009729897,0.1315605349657013,-0.0253072599085365,0.035169647961128,0.0249350943216463,0.2285096703506097,0.05340576171875,-0.0971352181783536,-0.1615198647103658,-0.2087848942454268,-31.14878645338715,-14.059558627136752,0.6199624160561659,17.55936827722542,-41.272570207570205,-81.7928685897436,27.373738281367,32.30979123610986,34.562164914487674,1577398275.999,-27.71779475714497,-51.09908097301335,0.00839101
121851,1577398276.24,0.0655777674233031,-0.5040670422065542,9.903585969655104,0.2217264317954459,-0.5510751479730372,9.747437305282968,0.0732859288657584,-0.6028132618973894,9.898213614710365,0.2231132693407013,-0.0558248380335365,0.1572399604611281,-0.0055824838033536,-0.0461485327743902,0.08392333984375,0.1775229849466463,0.0826207602896341,-0.1782673161204268,-31.338140778331752,-15.337700320512822,1.7048966441544513,17.55936827722542,-35.85977411477411,-80.98328611492674,27.229969748704587,32.07017701500584,34.89762482403331,1577398275.999,-27.71779475714497,-51.09908097301335,0.00839101
121852,1577398276.25,0.0787458765541624,-0.4897018322456167,9.884432356373855,0.1989815160239615,-0.6013533828363185,9.740254700302495,0.0936366429770865,-0.5585205311844987,9.924549832972083,0.1315605349657013,-0.0405660489710365,-0.0258655082888719,0.0859702505716463,0.1369569359756097,0.20599365234375,-0.0971352181783536,-0.0394495522103658,0.1879436213795732,-31.14878645338715,-14.60733363858364,1.2399248321123286,17.881558520844237,-42.96406898656898,-79.36412116529304,27.46958396980861,32.33375265822026,34.61008775870848,1577398275.999,-27.71779475714497,-51.09908097301335,0.00839101
121853,1577398276.26,0.0775487757240843,-0.5160380505073354,9.927527986256669,0.2121496251548209,-0.5750171645745997,9.759408313583748,0.0732859288657584,-0.5645060353348894,9.919761429651771,0.1620781130907013,0.0052103182164634,-0.1784533989138719,-0.0361000619283536,0.1064393578506097,0.26702880859375,-0.3412758431783537,-0.2225550209603658,0.0963908870045732,-31.90620375316556,-12.96400860424298,1.2399248321123315,17.237178033606607,-35.85977411477411,-80.98328611492674,27.517506814029414,32.30979123610986,34.46631922604607,1577398275.999,-27.71779475714497,-51.09908097301335,0.00839101
121854,1577398276.27,0.0655777674233031,-0.5423742687690543,9.91316277629573,0.1906018102134146,-0.558257752953506,9.71870688536109,0.0756801305259146,-0.5190162037919206,9.996375882776771,0.1315605349657013,0.4934915682164634,-0.2700061332888719,0.0859702505716463,0.2895448266006097,0.23651123046875,-0.3412758431783537,-0.1004847084603658,-0.0256794254954267,-31.90620375316556,-12.96400860424298,1.2399248321123315,17.237178033606607,-41.272570207570205,-80.98328611492674,27.18204690448378,32.45355976877228,34.70593344715009,1577398275.999,-27.71779475714497,-51.09908097301335,0.00839101
121855,1577398276.28,0.0751545740639281,-0.4956873363960073,9.819788911549637,0.2432742467368521,-0.5558635512933497,9.685188062118904,0.0996221471274771,-0.5597176320145769,9.86230058980802,0.0247490115282013,0.1120218416539634,0.111463593273628,-0.2802406869283537,-0.0156309546493902,0.29754638671875,-0.2192055306783537,-0.3751429115853658,-0.0561970036204267,-32.00088091563786,-13.42048778044872,1.1624295301053118,17.237178033606607,-41.272570207570205,-78.55453869047619,27.3497768592566,32.26186839188906,34.46631922604607,1577398275.999,-27.71779475714497,-51.09908097301335,0.00839101
121856,1577398276.29,0.0703661707436156,-0.4729424206245229,9.984988826100418,0.2277119359458365,-0.5438925429925685,9.71870688536109,0.0804685338462271,-0.5537321278641862,9.88265130391935,-0.0515449337842987,0.0052103182164634,0.065687226086128,0.0401938833841463,0.1064393578506097,0.09918212890625,-0.1429115853658536,-0.1157434975228658,-0.0561970036204267,-32.47426672799937,-13.511783615689868,-0.1549906040140398,17.237178033606607,-35.85977411477411,-81.7928685897436,27.373738281367,32.30979123610986,34.65801060292928,1577398275.999,-27.71779475714497,-51.09908097301335,0.00839101
121857,1577398276.3,0.0871255823647093,-0.4705482189643667,9.860490339772293,0.2408800450766959,-0.4888259048089747,9.69955327207984,0.1139873570884146,-0.5716886403153582,9.948491849573646,-0.1736152462842987,0.1272806307164634,-0.0563830864138719,-0.4023109994283537,0.3200624047256097,-0.00762939453125,-0.1886879525533537,-0.0394495522103658,-0.0256794254954267,-30.58072347855334,-12.416233592796097,1.084934228098292,17.237178033606607,-35.52147435897436,-81.38807735233516,27.3258154371462,32.357714080330666,34.61008775870848,1577398275.999,-27.71779475714497,-51.09908097301335,0.00839101
121858,1577398276.31,0.0943081873451781,-0.4585772106635855,9.915556977955886,0.2743988683188834,-0.548680946312881,9.711524280380624,0.1020163487876334,-0.5333814137528581,9.903002018030676,0.0094902224657013,0.3103860994664634,-0.0869006645388719,0.0249350943216463,-0.1987364233993902,0.29754638671875,-0.0971352181783536,-0.0089319740853658,-0.1477497379954268,-32.28491240305476,-14.424741968101342,1.859887248168504,18.20374876446305,-42.62576923076923,-79.76891240270146,27.229969748704587,32.45355976877228,34.562164914487674,1577398275.999,-27.71779475714497,-51.09908097301335,0.00839101
121859,1577398276.32,0.0811400782143187,-0.4573801098335073,9.93830189372737,0.2193322301352896,-0.5103737197503809,9.678005457138434,0.0708917272056021,-0.5405640187333269,9.929338236292397,-0.0057685665967986,0.1730569979039634,0.019910858898628,-0.0971352181783536,-0.0156309546493902,0.05340576171875,-0.2192055306783537,0.0215856040396341,-0.0561970036204267,-32.09555807811016,-13.69437528617216,0.929943624084252,18.20374876446305,-35.52147435897436,-80.98328611492674,27.373738281367,32.16602270344745,34.46631922604607,1577398275.999,-27.71779475714497,-51.09908097301335,0.00839101
121860,1577398276.33,0.0799429773842406,-0.4753366222846792,9.925133784596513,0.2025728185141959,-0.5271331313714748,9.679202557968512,0.1151844579184927,-0.5261988087723893,9.972433866175209,0.0400078005907013,0.1272806307164634,-0.1479358207888719,-0.1734291634908536,0.0148866234756097,0.11444091796875,-0.1429115853658536,0.0978795493521341,0.0353557307545732,-31.338140778331752,-14.972516979548232,0.7749530200702057,17.237178033606607,-35.52147435897436,-81.38807735233516,27.373738281367,32.237906969778656,34.58612633659808,1577398275.999,-27.71779475714497,-51.09908097301335,0.00839101
121861,1577398276.34,0.0129053308998656,-0.4801250256049917,9.91316277629573,0.2169380284751334,-0.5726229629144435,9.826445960068122,0.0948337438071646,-0.5669002369950457,9.967645462854897,-0.1430976681592987,0.1272806307164634,0.035169647961128,-0.0361000619283536,0.1674745141006097,-0.19073486328125,-0.2497231088033537,-0.1310022865853658,-0.0561970036204267,-32.47426672799937,-15.337700320512822,1.7048966441544513,17.55936827722542,-41.272570207570205,-80.98328611492674,27.565429658250217,32.30979123610986,34.46631922604607,1577398275.999,-27.71779475714497,-51.09908097301335,0.00839101
121862,1577398276.35,0.0488183558022093,-0.5112496471870229,9.898797566334792,0.1906018102134146,-0.548680946312881,9.783350330185309,0.0708917272056021,-0.5573234303544207,9.914973026331458,-0.1125800900342987,-0.1473775724085365,0.065687226086128,0.2995932974466463,-0.0766661108993902,0.08392333984375,-0.2802406869283537,-0.1004847084603658,-0.0561970036204267,-32.28491240305476,-14.424741968101342,1.859887248168504,20.13689022617594,-43.30236874236874,-79.76891240270146,27.517506814029414,32.30979123610986,34.46631922604607,1577398275.999,-27.71779475714497,-51.09908097301335,0.00839101
121863,1577398276.36,0.0895197840248656,-0.5148409496772574,9.909571473805496,0.1989815160239615,-0.5702287612542872,9.745043103622807,0.1008192479575552,-0.5669002369950457,9.947294748743568,-0.1430976681592986,-0.0863424161585365,0.0199108588986281,-0.3870522103658537,0.1827333031631097,0.05340576171875,-0.1734291634908536,-0.0394495522103658,-0.1782673161204268,-31.90620375316556,-14.059558627136752,2.169868456196584,18.60648656898657,-40.8496955128205,-81.28687954298306,27.3497768592566,32.18998412555786,34.65801060292928,1577398275.999,-27.71779475714497,-51.09908097301335,0.00839101
121864,1577398276.37,0.0703661707436156,-0.5351916637885855,9.877249751393386,0.1834192052329459,-0.529527333031631,9.73786049864234,0.1187757604087271,-0.5764770436356706,9.950886051233802,-0.2346504025342987,0.0052103182164634,0.004652069836128,-0.0666176400533536,-0.0461485327743902,0.14495849609375,-0.1886879525533537,-0.0699671303353658,0.0353557307545732,-32.47426672799937,-14.242150297619048,1.084934228098292,19.170319495319497,-40.934270451770445,-80.98328611492674,27.421661125587804,32.30979123610986,34.70593344715009,1577398275.999,-27.71779475714497,-51.09908097301335,0.00839101
121865,1577398276.38,0.0775487757240843,-0.559133680390148,9.862884541432448,0.2145438268149771,-0.5558635512933497,9.740254700302495,0.0900453404868521,-0.5645060353348894,9.97722226949552,-0.0820625119092987,-0.0253072599085365,-0.1479358207888719,-0.0666176400533536,-0.0461485327743902,0.20599365234375,-0.3412758431783537,-0.1004847084603658,0.0963908870045732,-31.71684942822096,-14.242150297619048,0.7749530200702057,17.237178033606607,-42.28746947496948,-80.17370364010989,27.229969748704587,32.16602270344745,34.562164914487674,1577398275.999,-27.71779475714497,-51.09908097301335,0.00839101
121866,1577398276.39,0.0536067591225218,-0.5639220837104605,9.870067146412918,0.2169380284751334,-0.5702287612542872,9.716312683700934,0.0876511388266959,-0.6004190602372331,9.950886051233802,0.1925956912157013,0.0967630525914634,-0.2700061332888719,0.1164878286966463,0.0148866234756097,0.05340576171875,0.0249350943216463,0.2352086509146341,-0.1782673161204268,-31.90620375316556,-14.424741968101342,0.9299436240842456,17.237178033606607,-41.94916971916971,-81.7928685897436,27.373738281367,32.16602270344745,34.46631922604607,1577398275.999,-27.71779475714497,-51.09908097301335,0.00839101
121867,1577398276.4,0.0691690699135374,-0.5555423778999136,9.862884541432448,0.2205293309653677,-0.5857910720453028,9.666034448837651,0.0649062230552115,-0.5884480519364519,9.904199118860756,0.0094902224657013,-0.0253072599085365,0.065687226086128,0.0249350943216463,0.0148866234756097,0.05340576171875,-0.1123940072408536,-0.1462610756478658,0.0811320979420732,-32.00088091563786,-14.516037803342492,1.0074389260912688,17.881558520844237,-41.78001984126984,-80.57849487751832,27.445622547698207,32.16602270344745,34.65801060292928,1577398275.999,-27.71779475714497,-51.09908097301335,0.00839101
121868,1577398276.41,0.0655777674233031,-0.5447684704292105,9.89400916301448,0.1666597936118521,-0.5630461562738185,9.656457642197028,0.0852569371665396,-0.5645060353348894,9.931732437952553,-0.2041328244092987,-0.1778951505335365,-0.0563830864138719,0.1164878286966463,0.0759217797256097,0.23651123046875,-0.0666176400533536,-0.0089319740853658,-0.0561970036204267,-31.90620375316556,-15.520291990995116,0.9299436240842456,18.525939008081867,-41.272570207570205,-80.98328611492674,27.229969748704587,32.16602270344745,34.562164914487674,1577398275.999,-27.71779475714497,-51.09908097301335,0.00839101
121869,1577398276.42,0.1014907923256468,-0.5639220837104605,9.870067146412918,0.2265148351157584,-0.606141786156631,9.689976465439216,0.1068047521079458,-0.5645060353348894,9.843146976526771,0.1925956912157013,0.0357278963414634,-0.1174182426638719,0.0859702505716463,0.0148866234756097,0.29754638671875,-0.2497231088033537,-0.1004847084603658,-0.2393024723704268,-33.04232970283318,-14.059558627136752,1.859887248168504,17.237178033606607,-42.62576923076923,-81.7928685897436,27.517506814029414,32.30979123610986,34.46631922604607,1577398275.999,-27.71779475714497,-51.09908097301335,0.00839101
121870,1577398276.43,0.0416357508217406,-0.5543452770698355,9.883235255543775,0.2193322301352896,-0.6013533828363185,9.711524280380624,0.0589207189048209,-0.5381698170731707,9.867088993128334,-0.0515449337842987,-0.0405660489710365,-0.0258655082888719,-0.4023109994283537,0.0759217797256097,0.32806396484375,-0.1276527963033537,-0.1920374428353658,-0.1172321598704267,-32.28491240305476,-12.96400860424298,2.169868456196584,18.525939008081867,-43.640668498168495,-81.7928685897436,27.445622547698207,32.118099859226646,34.8017791355917,1577398275.999,-27.71779475714497,-51.09908097301335,0.00839101
121871,1577398276.44,0.0799429773842406,-0.549556873749523,9.841336726491043,0.2109525243247428,-0.6049446853265529,9.736663397812263,0.0649062230552115,-0.6052074635575456,9.904199118860756,-0.0820625119092987,0.3103860994664634,-0.0563830864138719,0.0249350943216463,-0.0919248999618902,0.08392333984375,0.0249350943216463,0.0368443931021341,-0.0714557926829267,-32.47426672799937,-14.242150297619048,2.324859060210624,17.639915838130126,-41.864594780219775,-81.48927516168729,27.18204690448378,32.18998412555785,34.58612633659808,1577398275.999,-27.71779475714497,-51.09908097301335,0.00839101
121872,1577398276.45,0.0679719690834593,-0.539980067108898,9.908374372975418,0.1929960118735709,-0.5702287612542872,9.728283692001716,0.0613149205649771,-0.5812654469559831,9.905396219690834,0.2231132693407013,0.1883157869664634,0.035169647961128,-0.0361000619283536,-0.1071836890243902,0.26702880859375,-0.0971352181783536,-0.0699671303353658,0.0963908870045732,-30.58072347855334,-14.242150297619048,0.1549906040140463,19.170319495319497,-35.85977411477411,-81.7928685897436,27.373738281367,32.26186839188906,34.46631922604607,1577398275.999,-27.71779475714497,-51.09908097301335,0.00839101
121873,1577398276.46,0.0200879358803343,-0.5447684704292105,9.8820381547137,0.1977844151938834,-0.5510751479730372,9.673217053818124,0.0565265172446646,-0.6076016652177019,9.950886051233802,0.1315605349657013,0.0967630525914634,-0.3005237114138719,-0.1276527963033537,-0.0156309546493902,0.14495849609375,-0.0666176400533536,0.0215856040396341,-0.0561970036204267,-30.770077803497944,-12.233641922313796,1.5499060401404114,17.237178033606607,-35.85977411477411,-81.7928685897436,27.517506814029414,32.30979123610986,34.70593344715009,1577398275.999,-27.71779475714497,-51.09908097301335,0.00839101
121874,1577398276.47,0.0643806665932249,-0.539980067108898,9.864081642262526,0.1858134068931021,-0.567834559594131,9.639698230575934,0.0637091222251334,-0.6076016652177019,9.919761429651771,0.1773369021532013,-0.0100484708460365,0.0504284370236279,-0.0666176400533536,-0.0766661108993902,0.02288818359375,-0.2802406869283537,-0.1004847084603658,-0.1172321598704267,-31.71684942822096,-14.242150297619048,0.7749530200702057,18.525939008081867,-43.97896825396825,-80.17370364010989,27.3497768592566,32.16602270344745,34.61008775870848,1577398275.999,-27.71779475714497,-51.09908097301335,0.00839101
121875,1577398276.48,0.0655777674233031,-0.5567394787299917,9.98977722942073,0.2025728185141959,-0.567834559594131,9.760605414413826,0.0649062230552115,-0.5908422535966081,9.949688950403724,0.2231132693407013,-0.0558248380335365,-0.1784533989138719,-0.0208412728658535,0.0301454125381097,0.14495849609375,-0.1886879525533536,-0.2378138100228657,0.0658733088795732,-31.71684942822096,-14.242150297619048,0.7749530200702057,17.47882071632072,-43.38694368131867,-81.48927516168726,27.421661125587804,32.33375265822026,34.53820349237728,1577398275.999,-27.71779475714497,-51.09908097301335,0.00839101
121876,1577398276.49,0.0536067591225218,-0.5184322521674917,9.927527986256669,0.2217264317954459,-0.5558635512933497,9.711524280380624,0.1020163487876334,-0.5740828419755144,9.883848404749427,0.1010429568407013,0.2798685213414634,-0.1174182426638719,-0.0971352181783536,-0.1377012671493902,0.08392333984375,-0.1581703744283537,-0.0394495522103658,-0.0867145817454267,-32.47426672799937,-13.146600274725277,0.1549906040140463,17.237178033606607,-43.640668498168495,-81.38807735233516,27.421661125587804,32.45355976877228,34.8017791355917,1577398275.999,-27.71779475714497,-51.09908097301335,0.00839101
121877,1577398276.5,0.0895197840248656,-0.530403260468273,9.884432356373855,0.2049670201743521,-0.5558635512933497,9.752225708603278,0.0924395421470083,-0.6267552784989519,9.924549832972083,0.2231132693407013,0.2798685213414634,-0.0258655082888719,-0.0971352181783536,-0.0156309546493902,0.26702880859375,-0.2192055306783537,0.0215856040396341,0.0353557307545732,-31.338140778331752,-13.876966956654458,0.1549906040140463,17.237178033606607,-42.28746947496948,-84.62640725160256,27.421661125587804,32.357714080330666,34.70593344715009,1577398275.999,-27.71779475714497,-51.09908097301335,0.00839101
121878,1577398276.51,0.0703661707436156,-0.5232206554878043,9.870067146412918,0.2265148351157584,-0.5750171645745997,9.788138733505622,0.0828627355063834,-0.5764770436356706,9.88265130391935,0.2231132693407013,0.2188333650914634,0.187757538586128,-0.1734291634908536,0.1827333031631097,0.22125244140625,-0.0818764291158536,0.0215856040396341,0.0506145198170732,-31.52749510327635,-14.059558627136752,0.9299436240842488,17.237178033606607,-42.96406898656898,-81.38807735233516,27.3497768592566,32.237906969778656,34.58612633659808,1577398275.999,-27.71779475714497,-51.09908097301335,0.00839101
121879,1577398276.52,0.0775487757240843,-0.5136438488471792,9.927527986256669,0.1953902135337271,-0.5175563247308497,9.759408313583748,0.0852569371665396,-0.5381698170731707,9.912578824671302,0.1315605349657013,-0.0253072599085365,0.1572399604611281,-0.0666176400533536,0.0454042016006097,-0.06866455078125,0.0554526724466463,-0.1615198647103658,-0.0256794254954267,-32.09555807811016,-14.242150297619048,1.084934228098292,17.55936827722542,-42.62576923076923,-80.98328611492674,27.517506814029414,32.30979123610986,34.562164914487674,1577398275.999,-27.71779475714497,-51.09908097301335,0.00839101
121880,1577398276.53,0.0703661707436156,-0.5112496471870229,9.898797566334792,0.1977844151938834,-0.5558635512933497,9.790532935165778,0.0589207189048209,-0.5764770436356706,9.943703446253334,-0.2041328244092987,0.0357278963414634,0.004652069836128,-0.0666176400533536,0.0148866234756097,0.14495849609375,-0.3107582650533537,0.3267613852896341,-0.0867145817454267,-32.663621052943974,-15.155108650030527,1.5499060401404114,17.237178033606607,-35.85977411477411,-79.76891240270146,27.373738281367,32.30979123610986,34.61008775870848,1577398275.999,-27.71779475714497,-51.09908097301335,0.00839101
121881,1577398276.54,0.0512125574623656,-0.4490004040229605,9.85570193645198,0.2384858434165396,-0.5343157363519435,9.754619910263434,0.0804685338462271,-0.5692944386552019,9.855117984827553,-0.0820625119092987,0.3409036775914634,0.1267223823361281,0.0249350943216463,0.1064393578506097,0.11444091796875,-0.1886879525533537,-0.1004847084603658,-0.1477497379954268,-29.06588887899652,-14.972516979548232,-0.1549906040140398,17.237178033606607,-35.85977411477411,-79.76891240270146,27.373738281367,32.16602270344745,34.70593344715009,1577398275.999,-27.71779475714497,-51.09908097301335,0.00839101
121882,1577398276.55,0.0560009607826781,-0.4585772106635855,9.864081642262526,0.2444713475669302,-0.529527333031631,9.710327179550545,0.0876511388266959,-0.5309872120927018,9.917367227991615,0.1468193240282013,0.0052103182164634,-0.0716418754763719,-0.0361000619283536,0.1064393578506097,0.02288818359375,-0.1886879525533537,-0.0089319740853658,0.0658733088795732,-30.959432128442547,-13.876966956654456,0.154990604014043,17.237178033606607,-38.56617216117216,-81.7928685897436,27.206008326594183,32.26186839188906,34.53820349237728,1577398275.999,-27.71779475714497,-51.09908097301335,0.00839101
121883,1577398276.56,0.0368473475014281,-0.4513946056831167,9.826971516530104,0.2241206334556021,-0.558257752953506,9.697159070419684,0.1211699620688833,-0.5525350270341082,9.929338236292397,0.1620781130907013,0.0967630525914634,-0.1784533989138719,-0.2497231088033537,0.0148866234756097,0.14495849609375,-0.2192055306783537,-0.3446253334603658,0.1269084651295732,-30.39136915360874,-14.424741968101342,0.3099812080280861,17.237178033606607,-42.96406898656898,-80.17370364010989,27.3258154371462,32.357714080330666,34.61008775870848,1577398275.999,-27.71779475714497,-51.09908097301335,0.00839101
121884,1577398276.57,0.0775487757240843,-0.4657598156440542,9.903585969655104,0.2073612218345084,-0.5702287612542872,9.658851843857184,0.0924395421470083,-0.5429582203934832,9.797657144983802,0.0705253787157013,-0.1778951505335365,0.035169647961128,0.1164878286966463,0.1369569359756097,0.11444091796875,0.0249350943216463,-0.1004847084603658,-0.2393024723704268,-33.23168402777778,-12.781416933760685,1.084934228098292,17.237178033606607,-43.30236874236874,-81.7928685897436,27.565429658250217,32.118099859226646,34.562164914487674,1577398275.999,-27.71779475714497,-51.09908097301335,0.00839101
121885,1577398276.58,0.0751545740639281,-0.5411771679389761,9.903585969655104,0.2265148351157584,-0.5630461562738185,9.654063440536872,0.0804685338462271,-0.5740828419755144,9.855117984827553,0.1468193240282013,0.0662454744664634,-0.1479358207888719,-0.1886879525533537,0.1369569359756097,0.23651123046875,-0.2192055306783537,-0.3141077553353658,-0.1172321598704267,-32.000880915637865,-14.333446132860196,0.0774953020070231,17.237178033606607,-43.30236874236874,-81.7928685897436,27.3976997034774,32.30979123610986,34.46631922604607,1577398275.999,-27.71779475714497,-51.09908097301335,0.00839101
121886,1577398276.59,0.0799429773842406,-0.5184322521674917,9.841336726491043,0.2265148351157584,-0.5163592239007716,9.77137932188453,0.1247612645591177,-0.3095235585282483,9.874271598108802,0.0400078005907013,0.0662454744664634,-0.2700061332888719,-0.1886879525533537,-0.0308897437118902,0.16021728515625,0.1012290396341463,-0.0089319740853658,0.2337199885670732,-32.47426672799937,-14.60733363858364,0.7749530200702057,18.20374876446305,-43.30236874236874,-80.57849487751832,27.3258154371462,32.30979123610987,34.70593344715009,1577398275.999,-27.71779475714497,-51.09908097301335,0.00839101
121887,1577398276.6,0.0344531458412718,-0.4370293957221792,9.89400916301448,0.2265148351157584,-0.4912201064691309,9.730677893661872,0.1379293736899771,-0.4519785573075456,9.912578824671302,0.2536308474657013,-0.1168599942835365,-0.0258655082888719,-0.1886879525533537,0.2285096703506097,0.11444091796875,0.1470054068216463,0.1131383384146341,0.6151897151295732,-32.47426672799937,-14.60733363858364,0.7749530200702057,17.55936827722542,-41.272570207570205,-80.98328611492674,27.517506814029414,32.16602270344745,34.61008775870848,1577398275.999,-27.71779475714497,-51.09908097301335,0.00839101
121888,1577398276.61,0.0416357508217406,-0.4681540173042104,9.9203453812762,0.1738423985923209,-0.4241824599847559,9.75701411192359,0.0780743321860708,-0.6411204884598893,10.008346891077553,0.1010429568407013,0.1272806307164634,-0.0563830864138719,-0.2497231088033537,0.0454042016006097,-0.06866455078125,0.2690757193216463,0.0826207602896341,0.3100139338795732,-32.09555807811016,-12.781416933760685,-0.1549906040140398,17.237178033606607,-41.272570207570205,-80.98328611492674,27.373738281367,32.30979123610986,34.70593344715009,1577398275.999,-27.71779475714497,-51.09908097301335,0.00839101
121889,1577398276.62,0.0560009607826781,-0.4418177990424917,9.901191767994948,0.1953902135337271,-0.4840375014886622,9.670822852157968,0.0804685338462271,-0.8542044362137956,10.051442520960364,-0.1125800900342986,0.1883157869664634,0.096204804211128,0.0249350943216463,0.1369569359756097,0.11444091796875,-0.0971352181783536,-0.0394495522103658,0.1269084651295732,-32.09555807811016,-14.059558627136752,0.464971812042126,17.237178033606607,-41.272570207570205,-80.98328611492674,27.421661125587804,32.30979123610986,34.61008775870848,1577398275.999,-27.71779475714497,-51.09908097301335,0.00839101
121890,1577398276.63,0.0895197840248656,-0.4657598156440542,9.860490339772293,0.2073612218345084,-0.5127679214105372,9.73187499449195,0.1068047521079459,-0.5333814137528576,9.956871555384192,0.2536308474657013,-0.0253072599085365,-0.0258655082888719,-0.2192055306783537,-0.0766661108993902,0.16021728515625,-0.0208412728658536,-0.0547083412728657,-0.3766315739329267,-32.663621052943974,-14.059558627136752,1.2399248321123315,17.398273155416014,-41.10342032967033,-81.38807735233517,27.229969748704587,32.38167550244107,34.681972025039684,1577398275.999,-27.71779475714497,-51.09908097301335,0.00839101
121891,1577398276.64,0.0775487757240843,-0.5064612438667104,9.872461348073074,0.2313032384360709,-0.5750171645745997,9.752225708603278,0.0996221471274771,-0.4017003224442644,9.816810758265053,0.0094902224657013,-0.0253072599085365,0.1877575385861281,-0.3107582650533537,0.1979920922256097,0.05340576171875,-0.3717934213033537,-0.0394495522103658,0.1574260432545732,-32.663621052943974,-14.059558627136752,1.2399248321123315,17.55936827722542,-41.94916971916971,-80.17370364010989,27.373738281367,32.16602270344745,34.61008775870848,1577398275.999,-27.71779475714497,-51.09908097301335,0.00839101
121892,1577398276.65,0.0847313807045531,-0.5519510754096792,9.934710591237137,0.2241206334556021,-0.5821997695550685,9.807292346786872,0.1187757604087271,-0.5285930104325456,9.876665799768958,0.1315605349657013,-0.0253072599085365,-0.0563830864138719,-0.0361000619283536,-0.0156309546493902,0.17547607421875,-0.2802406869283537,0.1131383384146341,0.2794963557545732,-32.28491240305476,-12.598825263278387,1.2399248321123315,18.20374876446305,-40.59597069597069,-80.17370364010989,27.373738281367,32.26186839188906,34.70593344715009,1577398275.999,-27.71779475714497,-51.09908097301335,0.00839101
121893,1577398276.66,0.0703661707436156,-0.4765337231147573,9.84253382732112,0.1810250035727896,-0.5223447280511622,9.698356171249763,0.0673004247153677,-0.6518943959305925,9.96405416036466,-0.1278388790967987,-0.0710836270960365,0.141981171398628,-0.0361000619283536,-0.1682188452743902,0.14495849609375,-0.1734291634908536,-0.0394495522103658,0.2337199885670732,-31.71684942822096,-13.146600274725277,0.1549906040140431,17.720463399034827,-41.272570207570205,-80.78089049622253,27.3258154371462,32.40563692455147,34.70593344715009,1577398275.999,-27.71779475714497,-51.09908097301335,0.00839101
121894,1577398276.67,0.0488183558022093,-0.4178757824409292,9.953864204518386,0.1666597936118521,-0.4936143081292872,9.749831506943124,0.0493439122641959,-0.6099958668778581,9.93891504293302,0.0400078005907013,0.0052103182164634,0.5234508979611281,-0.1581703744283537,0.2285096703506097,0.23651123046875,-0.0666176400533536,-0.1920374428353658,-0.0867145817454267,-31.90620375316556,-15.520291990995116,0.6199624160561659,17.237178033606607,-42.62576923076923,-81.38807735233516,27.565429658250217,32.357714080330666,34.562164914487674,1577398275.999,-27.71779475714497,-51.09908097301335,0.00839101
121895,1577398276.68,0.0751545740639281,-0.463365613983898,9.848519331471511,0.1642655919516959,-0.4960085097894434,9.72588949034156,0.1115931554282584,-0.4567669606278581,9.893425211390053,0.1010429568407013,0.0357278963414634,-0.1174182426638719,-0.0361000619283536,-0.1377012671493902,0.26702880859375,-0.2192055306783537,0.0521031821646341,-0.2087848942454268,-31.90620375316556,-15.520291990995116,0.6199624160561659,18.042653642653644,-40.42682081807081,-79.97130802140566,27.18204690448378,32.30979123610986,34.70593344715009,1577398275.999,-27.71779475714497,-51.09908097301335,0.00839101
121896,1577398276.69,0.1086733973061156,-0.492096033905773,9.81739470988948,0.2073612218345084,-0.4337592666253809,9.73786049864234,0.1020163487876334,-0.4615553639481706,9.924549832972083,-0.0515449337842987,-0.0253072599085365,0.065687226086128,0.1470054068216463,0.3505799828506097,0.08392333984375,-0.2192055306783537,-0.1920374428353658,0.0963908870045732,-31.90620375316556,-15.520291990995116,0.6199624160561659,17.398273155416014,-42.45661935286935,-80.37609925881411,27.70919819091263,32.30979123610986,34.70593344715009,1577398275.999,-27.71779475714497,-51.09908097301335,0.00839101
121897,1577398276.7,0.1110675989662718,-0.4932931347358511,9.752751265065262,0.2277119359458365,-0.4792490981683497,9.676808356308356,0.1307467687095084,-0.4304307423661394,9.834767270716224,0.2841484255907013,0.1730569979039634,-0.1326770317263719,0.1622641958841463,0.2742860375381097,0.26702880859375,-0.1429115853658536,0.0826207602896341,0.2184611995045732,-31.811526590693266,-14.333446132860198,0.8524483220772288,17.31772559451131,-43.2177938034188,-80.88208830557463,27.3497768592566,32.30979123610986,34.58612633659808,1577398275.999,-27.71779475714497,-51.09908097301335,0.00839101
121898,1577398276.71,0.0679719690834593,-0.4777308239448354,9.752751265065262,0.2265148351157584,-0.4696722915277247,9.754619910263434,0.0804685338462271,-0.6554856984208268,9.948491849573646,0.4367363162157013,-0.0253072599085365,-0.1174182426638719,-0.1886879525533537,0.1369569359756097,0.23651123046875,-0.1886879525533537,-0.0089319740853658,0.2794963557545732,-31.90620375316556,-15.155108650030527,-0.3099812080280861,17.881558520844237,-40.934270451770445,-80.17370364010989,27.517506814029414,32.30979123610986,34.562164914487674,1577398275.999,-27.71779475714497,-51.09908097301335,0.00839101
121899,1577398276.72,0.0727603724037718,-0.396327967499523,9.757539668385574,0.2025728185141959,-0.5007969131097559,9.697159070419684,0.0661033238852896,-0.6602741017411394,9.922155631311927,0.3451835818407013,0.4324564119664634,-0.2089709770388719,-0.1276527963033537,-0.2292540015243902,0.32806396484375,-0.1276527963033537,0.2962438071646341,-0.1477497379954268,-31.90620375316556,-15.155108650030527,-0.3099812080280861,17.237178033606607,-41.272570207570205,-81.7928685897436,27.18204690448378,32.26186839188906,34.753856291370894,1577398275.999,-27.71779475714497,-51.09908097301335,0.00839101
121900,1577398276.73,0.1469806238686161,-0.4873076305854604,9.77310197917659,0.2384858434165396,-0.5175563247308497,9.752225708603278,0.0373729039634146,-0.6866103200028582,9.94609764791349,0.3146660037157013,0.2646097322789634,0.111463593273628,0.1164878286966463,0.2590272484756097,0.11444091796875,-0.0055824838033536,-0.0089319740853658,-0.3003376286204268,-32.00088091563786,-14.333446132860198,0.2324859060210598,17.237178033606607,-41.272570207570205,-81.7928685897436,27.229969748704587,32.30979123610986,34.61008775870848,1577398275.999,-27.71779475714497,-51.09908097301335,0.00839101
121901,1577398276.74,0.1158560022865843,-0.5040670422065542,9.927527986256669,0.2720046666587271,-0.5115708205804591,9.742648901962651,0.1056076512778677,-0.5058480946610613,9.883848404749427,0.7113945193407013,0.4934915682164634,-0.1784533989138719,0.0859702505716463,0.1979920922256097,-0.02288818359375,-0.2039467416158537,0.0673619712271341,-0.3308552067454268,-31.527495103276355,-14.789925309065936,0.6199624160561659,17.398273155416014,-41.272570207570205,-81.7928685897436,27.229969748704587,32.45355976877227,34.681972025039684,1577398275.999,-27.71779475714497,-51.09908097301335,0.00839101
121902,1577398276.75,0.1182502039467406,-0.5088554455268667,9.558820930592605,0.2743988683188834,-0.5031911147699122,9.79532133848609,0.1379293736899771,-0.4400075490067643,9.864694791468176,0.5588066287157013,0.4019388338414634,0.004652069836128,-0.1276527963033537,0.1064393578506097,0.08392333984375,0.1164878286966463,0.1436559165396341,0.2489787776295732,-31.527495103276355,-14.059558627136752,0.6199624160561659,17.55936827722542,-35.85977411477411,-81.7928685897436,27.3258154371462,32.50148261299308,34.753856291370894,1577398275.999,-27.71779475714497,-51.09908097301335,0.00839101
121903,1577398276.76,0.0703661707436156,-0.3412613293159292,9.886826558034011,0.1642655919516959,-0.5007969131097559,9.675611255478278,0.0661033238852896,-0.6004190602372331,9.859906388147865,0.6503593630907013,-0.0253072599085365,0.065687226086128,0.2385581411966463,-0.1987364233993902,0.11444091796875,-0.0055824838033536,0.0215856040396341,0.3710490901295732,-32.09555807811016,-14.242150297619048,0.7749530200702057,17.55936827722542,-35.85977411477411,-81.38807735233516,27.373738281367,32.26186839188906,34.993470512474914,1577398275.999,-27.71779475714497,-51.09908097301335,0.00839101
121904,1577398276.77,0.0428328516518187,-0.5232206554878043,9.771904878346511,0.2073612218345084,-0.5055853164300684,9.69955327207984,0.1235641637290396,-0.6530914967606706,9.922155631311927,0.2078544802782012,-0.0405660489710365,0.096204804211128,-0.1276527963033537,0.0148866234756097,0.08392333984375,0.1470054068216463,-0.1615198647103658,0.3405315120045732,-32.37958956552707,-14.333446132860196,1.1624295301053085,1.772046339903483,-41.272570207570205,-81.38807735233516,27.3976997034774,32.16602270344745,34.562164914487674,1577398275.999,-27.71779475714497,-51.09908097301335,0.00839101
121905,1577398276.78,0.0583951624428343,-0.5184322521674917,9.635435383717605,0.1295496678794302,-0.5235418288812403,9.748634406113045,0.127155466219274,-0.5429582203934832,9.93292953878263,-0.4482734494092987,0.3103860994664634,0.096204804211128,0.0249350943216463,-0.0614073218368902,0.19073486328125,-0.2954994759908537,0.0063268149771341,-0.3155964176829268,-30.959432128442547,-14.242150297619048,0.7749530200702057,9.504612186755043,-41.272570207570205,-80.78089049622253,27.18204690448378,32.16602270344745,34.72989486926049,1577398275.999,-27.71779475714497,-51.09908097301335,0.00839101
121906,1577398276.79,0.0296647425209593,-0.4561830090034292,10.128640925709792,0.2313032384360709,-0.5558635512933497,9.675611255478278,0.1331409703696646,-0.4136713307450456,9.910184623011146,0.1010429568407013,-0.1778951505335365,-0.0869006645388719,-0.0666176400533536,0.0148866234756097,0.17547607421875,-0.2192055306783537,-0.1920374428353658,-0.0867145817454267,-31.71684942822096,-13.146600274725277,0.464971812042126,17.881558520844237,-42.62576923076923,-81.7928685897436,27.373738281367,32.357714080330666,34.562164914487674,1577398275.999,-27.71779475714497,-51.09908097301335,0.00839101
121907,1577398276.8,0.0919139856850218,-0.4490004040229605,9.7288092484637,0.2265148351157584,-0.4864317031488184,9.824051758407968,0.1427177770102896,-0.3825467091630144,9.993981681116615,-0.4787910275342987,0.3103860994664634,-0.1479358207888719,0.1470054068216463,-0.0156309546493902,-0.03814697265625,-0.0971352181783536,-0.0089319740853658,0.0658733088795732,-32.28491240305476,-12.96400860424298,1.2399248321123315,2.0942365835222976,-40.25767094017094,-81.38807735233516,27.229969748704587,32.30979123610986,34.70593344715009,1577398275.999,-27.71779475714497,-51.09908097301335,0.00839101
121908,1577398276.81,0.0536067591225218,-0.4382264965522573,9.909571473805496,0.2648220616782584,-0.5103737197503809,9.735466296982183,0.1115931554282584,-0.5429582203934832,9.895819413050209,0.0705253787157013,-0.1168599942835365,0.004652069836128,-0.0055824838033536,0.2895448266006097,0.05340576171875,0.1164878286966463,-0.1310022865853658,0.1269084651295732,-31.52749510327635,-13.329191945207572,1.3949154361263716,3.382997557997558,-40.25767094017094,-81.38807735233516,27.445622547698207,32.357714080330666,34.61008775870848,1577398275.999,-27.71779475714497,-51.09908097301335,0.00839101
121909,1577398276.82,0.0464241541420531,-0.5136438488471792,9.937104792897292,0.2181351293052115,-0.5199505263910059,9.77616772520484,0.1319438695395865,-0.6207697743485613,9.903002018030676,-0.1430976681592987,0.0357278963414634,-0.4836291801638719,-0.0971352181783536,0.0148866234756097,0.05340576171875,-0.0818764291158536,-0.2530725990853658,0.0506145198170732,-32.663621052943974,-13.694375286172162,1.2399248321123315,10.793373161230305,-40.765120573870576,-81.59047297103939,27.373738281367,32.14206128133705,34.70593344715009,1577398275.999,-27.71779475714497,-51.09908097301335,0.00839101
121910,1577398276.83,0.0847313807045531,-0.4490004040229605,9.757539668385574,0.2839756749595084,-0.539104139672256,9.675611255478278,0.0517381139243521,-0.5884480519364519,10.017923697718178,0.0705253787157013,0.1883157869664634,-0.0258655082888719,-0.0361000619283536,-0.0461485327743902,0.14495849609375,-0.2802406869283537,-0.0394495522103658,0.0048381526295732,-32.28491240305476,-14.059558627136752,1.5499060401404114,17.237178033606607,-41.272570207570205,-80.17370364010989,27.373738281367,32.30979123610986,34.70593344715009,1577398275.999,-27.71779475714497,-51.09908097301335,0.00839101
121911,1577398276.84,0.0129053308998656,-0.4202699841010854,10.001748237721513,0.1690539952720084,-0.5175563247308497,9.673217053818124,0.0852569371665396,-0.5214104054520768,9.807233951624427,-0.2346504025342987,-0.0253072599085365,0.1572399604611281,0.2690757193216463,0.1674745141006097,-0.06866455078125,0.0249350943216463,-0.0394495522103658,-0.1477497379954268,-32.09555807811016,-14.242150297619048,0.464971812042126,19.170319495319497,-41.272570207570205,-81.7928685897436,27.373738281367,32.45355976877228,34.8017791355917,1577398275.999,-27.71779475714497,-51.09908097301335,0.00839101
121912,1577398276.85,0.0488183558022093,-0.5028699413764761,9.858096138112137,0.1917989110434927,-0.5139650222406154,9.697159070419684,0.0541323155845084,-0.4854973805497331,9.893425211390053,-0.1278388790967987,0.0662454744664634,-0.1021594536013719,-0.1581703744283536,-0.0003721655868902,0.12969970703125,-0.1886879525533537,-0.2072962318978657,-0.1630085270579268,-32.37958956552707,-13.78567112141331,-0.0774953020070199,18.848129251700684,-38.56617216117216,-81.7928685897436,27.49354539191901,32.21394554766826,34.70593344715009,1577398275.999,-27.71779475714497,-51.09908097301335,0.00839101
121913,1577398276.86,0.1038849939858031,-0.4466062023628042,9.850913533131669,0.1379293736899771,-0.5223447280511622,9.666034448837651,0.1139873570884146,-0.5285930104325456,9.898213614710365,0.1010429568407013,-0.1778951505335365,-0.2394885551638719,-0.0971352181783536,-0.0156309546493902,-0.00762939453125,0.0249350943216463,0.0521031821646341,-0.1172321598704267,-31.14878645338715,-13.694375286172162,2.169868456196584,18.525939008081867,-41.272570207570205,-81.7928685897436,27.229969748704587,32.30979123610986,34.753856291370894,1577398275.999,-27.71779475714497,-51.09908097301335,0.00839101
121914,1577398276.87,0.0200879358803343,-0.4705482189643667,9.91316277629573,0.1906018102134146,-0.4816432998285059,9.75701411192359,0.0828627355063834,-0.5812654469559831,9.879060001429115,0.2231132693407013,0.3409036775914634,0.035169647961128,-0.1581703744283537,0.1979920922256097,0.20599365234375,0.0554526724466463,-0.2225550209603658,-0.2087848942454268,-31.14878645338715,-12.96400860424298,2.169868456196584,18.36484388627246,-43.80981837606838,-78.35214307177198,27.373738281367,32.16602270344745,34.8017791355917,1577398275.999,-27.71779475714497,-51.09908097301335,0.00839101
121915,1577398276.88,0.0583951624428343,-0.4394235973823355,9.898797566334792,0.1139873570884146,-0.462489686547256,9.75701411192359,0.0661033238852896,-0.5549292286942644,9.934126639612709,0.0400078005907013,0.2188333650914634,-0.0106067192263719,0.0554526724466463,0.0759217797256097,0.26702880859375,-0.0971352181783536,-0.1615198647103658,-0.0867145817454267,-30.770077803497944,-14.424741968101342,1.5499060401404114,17.881558520844237,-42.62576923076923,-81.7928685897436,27.301854015035797,32.357714080330666,34.46631922604607,1577398275.999,-27.71779475714497,-51.09908097301335,0.00839101
121916,1577398276.89,0.0129053308998656,-0.4825192272651479,9.961046809498855,0.1690539952720084,-0.5319215346917873,9.728283692001716,0.0840598363364615,-0.4998625905106706,9.937717942102942,-0.2041328244092987,-0.2084127286585365,0.004652069836128,-0.1734291634908537,-0.0156309546493902,0.12969970703125,-0.3107582650533537,-0.1767786537728658,0.0048381526295732,-30.770077803497944,-14.424741968101342,1.5499060401404114,17.720463399034827,-41.94916971916972,-80.98328611492674,27.373738281367,32.285829813999456,34.70593344715009,1577398275.999,-27.71779475714497,-51.09908097301335,0.00839101
121917,1577398276.9,0.0224821375404906,-0.463365613983898,9.879643953053543,0.2121496251548209,-0.5319215346917873,9.656457642197028,0.0972279454673209,-0.4447959523270769,9.898213614710365,0.2536308474657013,0.1577982088414634,0.004652069836128,-0.0055824838033536,0.2285096703506097,0.08392333984375,0.0249350943216463,-0.0394495522103658,-0.1782673161204268,-32.28491240305476,-14.424741968101342,1.5499060401404114,17.237178033606607,-40.934270451770445,-81.7928685897436,27.373738281367,32.118099859226646,34.46631922604607,1577398275.999,-27.71779475714497,-51.09908097301335,0.00839101
121918,1577398276.91,0.0200879358803343,-0.4753366222846792,9.944287397877762,0.2193322301352896,-0.5247389297113184,9.812080750107183,0.0948337438071646,-0.4400075490067643,9.931732437952553,-0.1125800900342987,-0.2999654630335365,-0.0869006645388719,0.0554526724466463,0.0148866234756097,0.23651123046875,0.1164878286966463,-0.0089319740853658,0.1574260432545732,-31.90620375316556,-14.424741968101342,0.0,17.398273155416014,-41.103420329670335,-78.35214307177198,27.18204690448378,32.16602270344745,34.46631922604607,1577398275.999,-27.71779475714497,-51.09908097301335,0.00839101
121919,1577398276.92,0.0428328516518192,-0.4825192272651479,9.902388868825026,0.2025728185141959,-0.548680946312881,9.788138733505622,0.0254018956626334,-0.5477466237137957,9.941309244593178,0.1163017459032013,-0.0253072599085365,0.035169647961128,0.1470054068216463,-0.0461485327743902,0.05340576171875,0.1775229849466463,-0.1004847084603658,-0.1477497379954268,-31.14878645338715,-14.059558627136752,0.0,17.398273155416014,-42.45661935286935,-78.35214307177198,27.229969748704587,32.16602270344745,34.70593344715009,1577398275.999,-27.71779475714497,-51.09908097301335,0.00839101
121920,1577398276.93,0.0272705408608031,-0.4609714123237417,9.93231638957698,0.1534916844809928,-0.5319215346917873,9.706735877060307,0.0876511388266959,-0.5573234303544207,9.922155631311927,0.0400078005907013,-0.1168599942835365,-0.0258655082888719,-0.0513588509908536,-0.0003721655868902,0.08392333984375,-0.3107582650533537,-0.0089319740853658,-0.1019733708079267,-31.14878645338715,-14.059558627136752,0.0,17.962106081748942,-41.86459478021978,-79.66771459334936,27.18204690448378,32.30979123610987,34.65801060292928,1577398275.999,-27.71779475714497,-51.09908097301335,0.00839101
121921,1577398276.94,0.0272705408608031,-0.5088554455268667,9.922739582936355,0.1929960118735709,-0.5175563247308497,9.81447495176734,0.0972279454673209,-0.4974683888505143,9.910184623011146,0.0094902224657013,-0.0558248380335365,-0.0258655082888719,-0.0971352181783536,0.0454042016006097,0.26702880859375,-0.3107582650533537,-0.4056604897103658,-0.3613727848704268,-32.852975377888576,-13.511783615689868,0.464971812042126,3.060807314378742,-42.62576923076923,-81.7928685897436,27.229969748704587,32.26186839188906,34.70593344715009,1577398275.999,-27.71779475714497,-51.09908097301335,0.00839101
121922,1577398276.95,0.0416357508217406,-0.5040670422065542,9.901191767994948,0.2265148351157584,-0.539104139672256,9.76419671690406,0.0732859288657584,-0.4831031788895769,9.914973026331458,0.4672538943407013,0.0357278963414634,-0.0563830864138719,-0.0361000619283536,0.2590272484756097,0.14495849609375,-0.2192055306783537,-0.1615198647103658,-0.0561970036204267,-31.338140778331752,-14.972516979548232,1.7048966441544513,18.525939008081867,-43.30236874236874,-79.76891240270146,27.18204690448378,32.357714080330666,34.70593344715009,1577398275.999,-27.71779475714497,-51.09908097301335,0.00839101
121923,1577398276.96,0.0392415491615843,-0.4777308239448354,9.8820381547137,0.1917989110434927,-0.5103737197503809,9.747437305282968,0.0720888280356802,-0.5010596913407488,9.880257102259192,0.2383720584032013,0.0204691072789634,-0.1021594536013719,-0.0818764291158536,-0.1834776343368902,0.19073486328125,-0.1276527963033536,-0.1615198647103658,-0.1477497379954267,-31.71684942822096,-15.155108650030527,0.3099812080280861,18.60648656898657,-43.55609355921856,-79.26292335594093,27.421661125587804,32.16602270344745,34.63404918081888,1577398275.999,-27.71779475714497,-51.09908097301335,0.00839101
121924,1577398276.97,0.0631835657631468,-0.4513946056831167,9.927527986256669,0.2025728185141959,-0.5031911147699122,9.72588949034156,0.1235641637290396,-0.5118335988114519,9.800051346643958,0.1010429568407013,-0.1778951505335365,0.1267223823361281,0.0554526724466463,0.0454042016006097,0.26702880859375,-0.2192055306783537,-0.0699671303353658,0.0963908870045732,-32.47426672799937,-14.972516979548232,0.464971812042126,18.68703412989128,-43.80981837606838,-78.75693430918041,27.517506814029414,32.118099859226646,34.70593344715009,1577398275.999,-27.71779475714497,-51.09908097301335,0.00839101
121925,1577398276.98,0.0679719690834593,-0.4035105724799917,9.872461348073074,0.2217264317954459,-0.5343157363519435,9.685188062118904,0.0541323155845084,-0.5716886403153582,9.922155631311927,0.2231132693407013,0.0357278963414634,0.035169647961128,0.1470054068216463,0.0148866234756097,0.14495849609375,-0.0971352181783536,-0.1004847084603658,-0.0867145817454267,-32.09555807811016,-12.781416933760685,3.2548026842948694,0.6443804872376299,-41.78001984126984,-81.59047297103938,27.517506814029414,32.16602270344745,34.61008775870848,1577398275.999,-27.71779475714497,-51.09908097301335,0.00839101
121926,1577398276.99,0.0703661707436156,-0.5040670422065542,9.896403364674637,0.2480626500571646,-0.548680946312881,9.697159070419684,0.1163815587485709,-0.5692944386552019,9.864694791468176,0.1315605349657013,-0.0863424161585365,-0.2700061332888719,-0.0055824838033536,0.0148866234756097,0.02288818359375,-0.2497231088033537,-0.0394495522103658,-0.1477497379954268,-32.09555807811016,-12.051050251831503,1.7048966441544513,17.55936827722542,-35.85977411477411,-79.76891240270146,27.517506814029414,32.26186839188906,34.70593344715009,1577398275.999,-27.71779475714497,-51.09908097301335,0.00839101
121927,1577398277.0,0.0871255823647093,-0.4813221264350698,9.87485554973323,0.2061641210044302,-0.5283302322015528,9.688779364609138,0.1199728612388052,-0.4950741871903581,9.924549832972083,-0.0515449337842986,0.1272806307164634,-0.0258655082888719,0.0859702505716463,0.0148866234756097,0.11444091796875,-0.2192055306783537,-0.1004847084603658,0.0200969416920732,-31.52749510327636,-13.146600274725277,1.2399248321123315,17.237178033606607,-35.85977411477411,-80.98328611492676,27.206008326594183,32.40563692455147,34.72989486926049,1577398275.999,-27.71779475714497,-51.09908097301335,0.00839101
121928,1577398277.01,0.0129053308998656,-0.444212000702648,9.853307734791825,0.2432742467368521,-0.5319215346917873,9.709130078720468,0.0589207189048209,-0.5381698170731707,9.90060781637052,-0.1430976681592987,0.0052103182164634,0.1572399604611281,-0.1886879525533537,-0.1071836890243902,0.17547607421875,-0.2192055306783537,-0.2530725990853658,0.2489787776295732,-30.58072347855334,-13.146600274725277,1.084934228098292,1.1276658526658527,-35.85977411477411,-81.7928685897436,27.373738281367,32.30979123610986,34.70593344715009,1577398275.999,-27.71779475714497,-51.09908097301335,0.00839101
121929,1577398277.02,0.0990965906654906,-0.5088554455268667,9.908374372975418,0.2336974400962271,-0.5199505263910059,9.72588949034156,0.0948337438071646,-0.5980248585770769,9.859906388147865,0.1925956912157013,0.0357278963414634,0.1267223823361281,-0.1276527963033537,-0.1682188452743902,0.17547607421875,-0.0971352181783536,-0.1004847084603658,0.0658733088795732,-33.04232970283318,-14.424741968101342,0.3099812080280861,19.170319495319497,-41.272570207570205,-81.7928685897436,27.229969748704587,32.16602270344745,34.61008775870848,1577398275.999,-27.71779475714497,-51.09908097301335,0.00839101
121930,1577398277.03,0.0907168848549437,-0.4717453197944448,9.956258406178543,0.2336974400962271,-0.5127679214105372,9.701947473739995,0.1163815587485709,-0.6123900685380144,9.893425211390053,0.2231132693407013,-0.0100484708460365,0.0504284370236281,0.1164878286966463,0.1369569359756097,0.32806396484375,-0.0666176400533536,-0.0394495522103658,0.0353557307545732,-31.52749510327635,-14.424741968101344,0.9299436240842488,17.237178033606607,-43.640668498168495,-81.7928685897436,27.373738281367,32.30979123610986,34.70593344715009,1577398275.999,-27.71779475714497,-51.09908097301335,0.00839101
121931,1577398277.04,0.1062791956459593,-0.530403260468273,9.846125129811355,0.2480626500571646,-0.5187534255609278,9.695961969589607,0.0912424413169302,-0.5477466237137957,9.867088993128334,-0.0515449337842987,0.0052103182164634,-0.0869006645388719,-0.1581703744283536,-0.0156309546493902,0.05340576171875,-0.2039467416158537,-0.1004847084603658,-0.2240436833079268,-31.90620375316556,-13.694375286172162,1.5499060401404114,17.237178033606607,-41.10342032967033,-81.7928685897436,27.18204690448378,32.285829813999456,34.61008775870848,1577398275.999,-27.71779475714497,-51.09908097301335,0.00839101
121932,1577398277.05,0.0943081873451781,-0.4753366222846792,9.865278743092604,0.2408800450766959,-0.5151621230706934,9.742648901962651,0.1187757604087271,-0.5477466237137957,9.864694791468176,-0.0210273556592986,0.0052103182164634,-0.1479358207888719,0.0249350943216463,0.0148866234756097,-0.03814697265625,-0.0055824838033536,-0.1615198647103658,-0.0561970036204267,-31.90620375316556,-13.694375286172162,1.5499060401404114,17.237178033606607,-44.31726800976801,-81.7928685897436,27.3258154371462,32.16602270344745,34.41839638182526,1577398275.999,-27.71779475714497,-51.09908097301335,0.00839101
121933,1577398277.06,0.0703661707436156,-0.4873076305854604,9.862884541432448,0.2432742467368521,-0.5271331313714748,9.64927503721656,0.1187757604087271,-0.5429582203934832,9.90779042135099,0.1925956912157013,-0.0558248380335365,0.004652069836128,-0.0055824838033536,-0.0766661108993902,0.11444091796875,-0.1886879525533537,0.0521031821646341,0.0048381526295732,-31.71684942822096,-14.60733363858364,2.014877852182544,17.237178033606607,-42.28746947496948,-81.7928685897436,27.18204690448378,32.16602270344745,34.562164914487674,1577398275.999,-27.71779475714497,-51.09908097301335,0.00839101
121934,1577398277.07,0.1362067163979129,-0.4310438915717886,9.852110633961743,0.2408800450766959,-0.5414983413324123,9.68039965879859,0.1403235753501334,-0.5932364552567644,9.847935379847083,0.1620781130907013,0.0662454744664634,-0.0716418754763719,-0.0361000619283536,0.2895448266006097,0.20599365234375,-0.3412758431783537,0.0215856040396341,0.1269084651295732,-31.24346361585945,-14.333446132860196,1.0074389260912686,18.84812925170068,-40.934270451770445,-81.7928685897436,27.373738281367,32.30979123610986,34.46631922604607,1577398275.999,-27.71779475714497,-51.09908097301335,0.00839101
121935,1577398277.08,0.1062791956459593,-0.5711046886909292,9.597128157155105,0.2767930699790396,-0.5534693496331935,9.71870688536109,0.1103960545981802,-0.5465495228837175,9.979616471155678,-0.0515449337842987,-0.0558248380335365,-0.0869006645388719,0.0096763052591463,-0.0919248999618902,0.05340576171875,-0.3412758431783537,-0.0241907631478658,-0.1935261051829268,-32.09555807811016,-14.60733363858364,2.014877852182544,17.881558520844237,-41.272570207570205,-80.17370364010989,27.3258154371462,32.33375265822026,34.63404918081888,1577398275.999,-27.71779475714497,-51.09908097301335,0.00839101
121936,1577398277.09,0.1397980188881468,-0.3460497326362417,9.803029499928543,0.2121496251548209,-0.5414983413324123,9.76419671690406,0.1475061803306021,-0.5860538502762956,9.919761429651771,0.8944999880907013,0.3714212557164634,0.1877575385861281,-0.1276527963033537,0.1064393578506097,0.38909912109375,-0.2497231088033537,-0.1615198647103658,-0.1782673161204268,-32.09555807811016,-14.60733363858364,2.014877852182544,17.237178033606607,-40.59597069597069,-80.17370364010989,27.565429658250217,32.16602270344745,34.70593344715009,1577398275.999,-27.71779475714497,-51.09908097301335,0.00839101
121937,1577398277.1,0.0679719690834593,-0.6812379650581167,9.925133784596513,0.2552452550376334,-0.5750171645745997,9.654063440536872,0.1091989537681021,-0.5261988087723893,9.881454203089271,-0.6924140744092987,-0.6051412442835366,-0.1479358207888719,-0.2497231088033537,0.2895448266006097,0.20599365234375,-0.0055824838033536,-0.0699671303353658,0.0658733088795732,-33.23168402777778,-13.876966956654458,0.7749530200702057,17.237178033606607,-40.59597069597069,-80.17370364010989,27.18204690448378,32.07017701500584,34.70593344715009,1577398275.999,-27.71779475714497,-51.09908097301335,0.00839101
121938,1577398277.11,0.0859284815346312,-0.434635194062023,9.992171431080886,0.2121496251548209,-0.5702287612542872,9.727086591171638,0.1044105504477896,-0.5166220021317643,9.923352732142003,-0.0515449337842987,-0.1321187833460365,0.0504284370236281,-0.1123940072408536,0.1369569359756097,-0.00762939453125,-0.3412758431783537,-0.0852259193978658,-0.0561970036204267,-31.432817940804057,-13.785671121413309,1.317420134119352,17.639915838130126,-38.81989697802197,-80.88208830557463,27.517506814029414,32.38167550244107,34.442357803935664,1577398275.999,-27.71779475714497,-51.09908097301335,0.00839101
121939,1577398277.12,0.0248763392006468,-0.5232206554878043,9.98977722942073,0.2265148351157584,-0.5103737197503809,9.670822852157968,0.1068047521079458,-0.5501408253739519,9.941309244593178,0.0400078005907013,0.4019388338414634,0.1877575385861281,-0.0361000619283536,0.3200624047256097,0.26702880859375,-0.0361000619283536,-0.1615198647103658,-0.0256794254954267,-32.28491240305476,-14.059558627136752,1.2399248321123315,17.881558520844237,-41.272570207570205,-80.57849487751831,27.18204690448378,32.16602270344745,34.753856291370894,1577398275.999,-27.71779475714497,-51.09908097301335,0.00839101
121940,1577398277.13,0.0823371790443968,-0.5016728405463979,9.903585969655104,0.2217264317954459,-0.539104139672256,9.819263355087651,0.0637091222251334,-0.5621118336747332,9.809628153284583,-0.1736152462842987,-0.0558248380335365,0.035169647961128,-0.0055824838033536,0.0454042016006097,0.08392333984375,-0.0361000619283536,-0.0394495522103658,0.1269084651295732,-32.28491240305476,-14.059558627136752,1.2399248321123315,18.525939008081867,-40.934270451770445,-81.38807735233516,27.373738281367,32.50148261299308,34.41839638182526,1577398275.999,-27.71779475714497,-51.09908097301335,0.00839101
121941,1577398277.14,0.0799429773842406,-0.4944902355659292,9.903585969655104,0.2432742467368521,-0.6109301894769434,9.778561926864995,0.0541323155845084,-0.5669002369950457,9.934126639612709,0.3757011599657013,0.5850443025914634,-0.3005237114138719,-0.1886879525533537,-0.1071836890243902,0.14495849609375,-0.0055824838033536,-0.1310022865853658,-0.1477497379954268,-32.28491240305476,-14.059558627136752,1.2399248321123315,18.525939008081867,-41.272570207570205,-80.17370364010989,27.373738281367,32.26186839188906,34.70593344715009,1577398275.999,-27.71779475714497,-51.09908097301335,0.00839101
121942,1577398277.15,0.0955052881752562,-0.5830756969917105,9.807817903248855,0.242077145906774,-0.569031660424209,9.778561926864995,0.0816656346763052,-0.6099958668778581,9.912578824671302,0.3604423709032013,0.2646097322789634,0.0351696479611279,-0.0208412728658536,0.1064393578506097,0.12969970703125,-0.2344643197408537,-0.0852259193978658,0.0353557307545732,-31.81152659069325,-13.055304439484129,0.0774953020070199,17.559368277225424,-42.11831959706959,-80.57849487751832,27.27789259292539,32.357714080330666,34.63404918081888,1577398275.999,-27.71779475714497,-51.09908097301335,0.00839101
121943,1577398277.16,0.0248763392006468,-0.539980067108898,10.080756892506669,0.2289090367759146,-0.5917765761956935,9.742648901962651,0.1091989537681021,-0.5501408253739519,9.960462857874427,-0.4787910275342987,-0.3610006192835365,0.065687226086128,-0.0971352181783536,0.0759217797256097,0.05340576171875,-0.1886879525533537,0.2352086509146341,0.0353557307545732,-31.90620375316556,-14.789925309065936,1.5499060401404114,17.237178033606607,-43.97896825396825,-80.98328611492674,27.421661125587804,32.45355976877228,34.61008775870848,1577398275.999,-27.71779475714497,-51.09908097301335,0.00839101
121944,1577398277.17,0.0751545740639281,-0.4274525890815542,9.819788911549637,0.1810250035727896,-0.5534693496331935,9.745043103622807,0.1211699620688833,-0.5381698170731707,9.874271598108802,0.1620781130907013,0.4934915682164634,-0.3005237114138719,0.0249350943216463,-0.1987364233993902,0.14495849609375,-0.0055824838033536,-0.0699671303353658,0.0353557307545732,-30.202014828664137,-13.511783615689868,1.084934228098292,17.398273155416014,-41.103420329670335,-81.18568173363096,27.517506814029414,32.30979123610986,34.46631922604607,1577398275.999,-27.71779475714497,-51.09908097301335,0.00839101
121945,1577398277.18,0.0787458765541624,-0.5256148571479605,9.763525172535964,0.1714481969321646,-0.5941707778558497,9.651669238876716,0.0876511388266959,-0.5788712452958269,9.876665799768958,0.1925956912157013,-0.0253072599085365,-0.0258655082888719,-0.3717934213033537,0.1369569359756097,0.05340576171875,-0.1581703744283537,-0.1004847084603658,-0.1782673161204268,-30.675400641025643,-12.872712769001833,0.852448322077229,17.237178033606607,-41.272570207570205,-81.18568173363096,27.3497768592566,32.118099859226646,34.562164914487674,1577398275.999,-27.71779475714497,-51.09908097301335,0.00839101
121946,1577398277.19,0.0775487757240843,-0.4753366222846792,9.826971516530104,0.1798279027427115,-0.5498780471429591,9.753422809433356,0.0780743321860708,-0.5549292286942644,9.978419370325598,0.1620781130907013,-0.0253072599085365,-0.2394885551638719,-0.1886879525533537,0.0454042016006097,0.02288818359375,0.0554526724466463,-0.2072962318978658,-0.1019733708079267,-30.959432128442547,-14.242150297619048,1.3949154361263716,17.559368277225424,-41.272570207570205,-81.59047297103939,27.373738281367,32.16602270344745,34.63404918081888,1577398275.999,-27.71779475714497,-51.09908097301335,0.00839101
121947,1577398277.2,0.0272705408608031,-0.549556873749523,10.011325044362136,0.2791872716391959,-0.6109301894769434,9.685188062118904,0.0325845006431021,-0.5980248585770769,10.04186571431974,-0.0820625119092987,-0.0558248380335365,0.1572399604611281,-0.0971352181783536,0.2285096703506097,0.14495849609375,-0.3412758431783537,0.1436559165396341,-0.3003376286204268,-31.71684942822096,-14.60733363858364,-0.1549906040140398,17.881558520844237,-41.272570207570205,-81.38807735233516,27.08620121604217,32.26186839188906,34.61008775870848,1577398275.999,-27.71779475714497,-51.09908097301335,0.00839101
121948,1577398277.21,-0.0158250890220084,-0.5447684704292105,9.953864204518386,0.1522945836509146,-0.6013533828363185,9.728283692001716,0.0397671056235709,-0.5884480519364519,9.953280252893958,-0.1736152462842987,0.1272806307164634,-0.0869006645388719,-0.0971352181783536,0.0454042016006097,0.17547607421875,0.0249350943216463,0.0521031821646341,-0.0561970036204267,-33.421038352722384,-12.96400860424298,1.2399248321123315,19.331414617128907,-40.76512057387057,-80.37609925881411,27.3258154371462,32.45355976877228,34.562164914487674,1577398275.999,-27.71779475714497,-51.09908097301335,0.00839101
121949,1577398277.22,0.0476212549721312,-0.5148409496772574,9.807817903248855,0.1714481969321646,-0.5702287612542872,9.792927136825934,0.0206134923423209,-0.5692944386552019,9.941309244593178,0.0857841677782013,0.1577982088414634,-0.1479358207888719,-0.0055824838033536,-0.2292540015243902,0.20599365234375,-0.1581703744283537,-0.2530725990853658,-0.1782673161204268,-31.811526590693266,-13.237896109966425,1.0074389260912686,19.331414617128907,-40.76512057387057,-80.37609925881411,27.27789259292539,32.30979123610986,34.70593344715009,1577398275.999,-27.71779475714497,-51.09908097301335,0.00839101
121950,1577398277.23,0.0344531458412718,-0.5232206554878043,9.937104792897292,0.2277119359458365,-0.6181127944574122,9.752225708603278,0.0900453404868521,-0.5633089345048112,9.966448362024815,0.1620781130907013,-0.0558248380335365,-0.0258655082888719,-0.0361000619283536,0.2590272484756097,0.17547607421875,-0.1429115853658536,-0.0699671303353658,0.0963908870045732,-30.58072347855334,-13.511783615689868,-0.1549906040140398,17.31772559451131,-39.15819673382173,-80.67969268687041,27.229969748704587,32.26186839188906,34.63404918081888,1577398275.999,-27.71779475714497,-51.09908097301335,0.00839101
121951,1577398277.24,0.0176937342201781,-0.5423742687690543,9.9203453812762,0.1786308019126334,-0.5726229629144435,9.759408313583748,0.0134308873618521,-0.6171784718583269,9.96525126119474,0.0400078005907013,-0.1168599942835365,0.035169647961128,-0.1276527963033537,0.2895448266006097,0.20599365234375,-0.2192055306783537,0.0521031821646341,-0.1782673161204268,-30.58072347855334,-15.337700320512822,0.464971812042126,17.881558520844237,-35.85977411477411,-81.7928685897436,27.421661125587804,32.357714080330666,34.70593344715009,1577398275.999,-27.71779475714497,-51.09908097301335,0.00839101
121952,1577398277.25,0.0033285242592406,-0.5327974621284293,9.9203453812762,0.2265148351157584,-0.558257752953506,9.76419671690406,0.0661033238852896,-0.6267552784989519,9.917367227991615,-0.0820625119092987,0.1272806307164634,0.1877575385861281,0.0859702505716463,0.3810975609756097,-0.00762939453125,-0.2497231088033537,-0.0699671303353658,-0.2393024723704268,-31.527495103276355,-12.598825263278387,0.0,17.55936827722542,-40.934270451770445,-81.7928685897436,27.517506814029414,32.30979123610986,34.70593344715009,1577398275.999,-27.71779475714497,-51.09908097301335,0.00839101
121953,1577398277.26,0.0284676416908812,-0.5447684704292105,9.873658448903152,0.1702510961020865,-0.606141786156631,9.760605414413826,0.0840598363364615,-0.5669002369950457,9.937717942102942,0.2688896365282013,0.0357278963414634,0.019910858898628,0.0707114615091463,0.1522157250381097,0.14495849609375,-0.2039467416158537,-0.0089319740853658,-0.1782673161204268,-32.28491240305477,-12.598825263278387,0.6199624160561658,17.559368277225424,-42.96406898656899,-81.38807735233516,27.27789259292539,32.38167550244107,34.72989486926049,1577398275.999,-27.71779475714497,-51.09908097301335,0.00839101
121954,1577398277.27,0.0200879358803343,-0.568710487030773,9.915556977955886,0.2001786168540396,-0.5654403579339747,9.754619910263434,0.0613149205649771,-0.5214104054520768,9.883848404749427,0.0400078005907013,-0.2389303067835365,-0.0258655082888719,-0.1581703744283537,-0.1682188452743902,0.11444091796875,0.0249350943216463,0.0215856040396341,0.1879436213795732,-32.09555807811016,-12.781416933760685,1.3949154361263716,18.525939008081867,-41.272570207570205,-78.55453869047619,27.61335250247102,32.30979123610986,34.562164914487674,1577398275.999,-27.71779475714497,-51.09908097301335,0.00839101
121955,1577398277.28,0.0272705408608031,-0.530403260468273,9.834154121510574,0.1714481969321646,-0.6229011977777247,9.821657556747809,0.0254018956626334,-0.6219668751786394,9.953280252893958,0.3451835818407013,0.4019388338414634,-0.1479358207888719,-0.0666176400533536,0.1369569359756097,-0.03814697265625,-0.1276527963033537,-0.0699671303353658,0.0658733088795732,-31.527495103276355,-14.789925309065936,0.9299436240842456,18.525939008081867,-40.59597069597069,-79.76891240270146,27.421661125587804,32.26186839188906,34.70593344715009,1577398275.999,-27.71779475714497,-51.09908097301335,0.00839101
121956,1577398277.29,0.0105111292397093,-0.5160380505073354,9.901191767994948,0.2001786168540396,-0.567834559594131,9.670822852157968,0.0301902989829459,-0.6746393117020769,9.893425211390053,-0.1125800900342987,-0.2084127286585365,0.1267223823361281,0.0554526724466463,-0.1682188452743902,-0.00762939453125,-0.1581703744283537,-0.2835901772103658,0.0963908870045732,-30.58072347855334,-13.511783615689868,0.1549906040140463,17.55936827722542,-40.934270451770445,-81.38807735233516,27.517506814029414,32.118099859226646,34.70593344715009,1577398275.999,-27.71779475714497,-51.09908097301335,0.00839101
121957,1577398277.3,0.0512125574623656,-0.549556873749523,9.866475843922684,0.175039499422399,-0.6049446853265529,9.669625751327889,0.0337816014731802,-0.5968277577469988,9.908987522181068,0.0400078005907013,0.1883157869664634,0.0199108588986281,-0.0818764291158536,0.0759217797256097,0.12969970703125,-0.2039467416158536,-0.1462610756478658,-0.2545612614329268,-30.86475496597025,-14.516037803342492,0.5424671140491459,17.559368277225424,-41.272570207570205,-79.36412116529304,27.421661125587804,32.30979123610987,34.681972025039684,1577398275.999,-27.71779475714497,-51.09908097301335,0.00839101
121958,1577398277.31,0.0392415491615843,-0.6213829235542104,9.886826558034011,0.2169380284751334,-0.6707852309808497,9.706735877060307,0.0301902989829459,-0.5525350270341082,9.93891504293302,-0.2041328244092987,-0.1168599942835365,-0.1174182426638719,-0.1581703744283537,0.1369569359756097,0.20599365234375,-0.2802406869283537,-0.3751429115853658,0.0658733088795732,-30.959432128442547,-13.146600274725277,1.084934228098292,17.237178033606607,-35.85977411477411,-78.14974745306777,27.3258154371462,32.30979123610986,34.89762482403331,1577398275.999,-27.71779475714497,-51.09908097301335,0.00839101
121959,1577398277.32,0.0607893641029906,-0.5711046886909292,9.896403364674637,0.2121496251548209,-0.6252953994378809,9.69955327207984,0.0325845006431021,-0.5022567921708269,9.953280252893958,0.1315605349657013,-0.0558248380335365,-0.0869006645388719,-0.0666176400533536,0.1064393578506097,-0.06866455078125,-0.0055824838033536,-0.1920374428353658,-0.1172321598704267,-32.28491240305476,-12.598825263278387,0.9299436240842456,17.237178033606607,-35.85977411477411,-78.14974745306777,27.565429658250217,32.16602270344745,34.46631922604607,1577398275.999,-27.71779475714497,-51.09908097301335,0.00839101
121960,1577398277.33,0.1230386072670531,-0.5567394787299917,9.761130970875808,0.2552452550376334,-0.558257752953506,9.80968654844703,0.0948337438071646,-0.7991377980302019,9.996375882776771,0.2841484255907013,0.0052103182164634,0.080946015148628,-0.1886879525533537,0.1979920922256097,0.23651123046875,-0.4023109994283537,-0.0089319740853658,0.0963908870045732,-33.23168402777778,-14.60733363858364,-0.7749530200702122,17.237178033606607,-34.16827533577533,-78.55453869047619,27.3497768592566,32.30979123610986,34.70593344715009,1577398275.999,-27.71779475714497,-51.09908097301335,0.00839101
121961,1577398277.34,0.0176937342201781,-0.5950467052924917,9.7288092484637,0.184616306063024,-0.569031660424209,9.654063440536872,0.3390423131431021,-0.7380856556962175,10.177138108118568,0.0094902224657013,-0.5746236661585366,0.004652069836128,-0.2497231088033537,0.3505799828506097,0.00762939453125,-0.3412758431783537,-0.1615198647103657,-0.0561970036204267,-33.23168402777778,-14.60733363858364,-0.7749530200702122,17.881558520844237,-43.30236874236874,-81.7928685897436,27.421661125587804,32.21394554766825,34.58612633659808,1577398275.999,-27.71779475714497,-51.09908097301335,0.00839101
121962,1577398277.35,0.0990965906654906,-0.5950467052924917,9.879643953053543,0.1906018102134146,-0.6181127944574122,9.673217053818124,0.0397671056235709,-0.5453524220536394,10.192700418909585,-0.2651679806592987,-0.2084127286585365,0.065687226086128,-0.0666176400533536,0.0759217797256097,0.11444091796875,-0.0055824838033536,-0.1004847084603658,-0.2087848942454268,-30.58072347855334,-13.146600274725277,1.084934228098292,17.881558520844237,-42.28746947496948,-16.62147936698718,27.565429658250217,32.30979123610986,34.562164914487674,1577398275.999,-27.71779475714497,-51.09908097301335,0.00839101
121963,1577398277.36,0.0392415491615843,-0.5711046886909292,9.8054237015887,0.1810250035727896,-0.6444490127191309,9.706735877060307,0.0732859288657584,-0.5094393971512956,10.039471512659585,-0.4177558712842987,-0.1778951505335365,-0.0869006645388719,0.0249350943216463,-0.0156309546493902,0.02288818359375,0.2385581411966463,-0.1004847084603658,0.0048381526295732,-31.338140778331752,-14.242150297619048,0.464971812042126,17.237178033606607,-40.934270451770445,-81.7928685897436,27.517506814029414,32.45355976877228,34.753856291370894,1577398275.999,-27.71779475714497,-51.09908097301335,0.00839101
121964,1577398277.37,0.0512125574623656,-0.578287293671398,9.908374372975418,0.1786308019126334,-0.6109301894769434,9.69955327207984,0.0708917272056021,-0.6842161183427019,9.606121012171302,0.0094902224657013,0.1425394197789634,0.004652069836128,-0.1886879525533537,-0.0461485327743902,0.14495849609375,-0.1276527963033537,0.1741734946646341,-0.0561970036204267,-31.14878645338715,-13.694375286172162,0.9299436240842456,18.68703412989128,-42.7949191086691,-79.97130802140566,27.373738281367,32.30979123610986,34.70593344715009,1577398275.999,-27.71779475714497,-51.09908097301335,0.00839101
121965,1577398277.38,0.0392415491615843,-0.607017713593273,10.004142439381669,0.2360916417563834,-0.6276896010980372,9.70075037290992,0.0673004247153677,-0.7177349415848894,9.947294748743568,-0.2956855587842987,-0.3915181974085365,0.065687226086128,-0.1734291634908536,0.3048036156631097,0.19073486328125,-0.2039467416158537,-0.3141077553353658,0.1269084651295732,-31.14878645338715,-13.694375286172162,0.9299436240842456,17.962106081748942,-41.01884539072039,-81.08448392427883,27.3258154371462,32.26186839188906,34.63404918081888,1577398275.999,-27.71779475714497,-51.09908097301335,0.00839101
121966,1577398277.39,0.1637400354897103,-0.5471626720893668,9.762328071705886,0.2480626500571646,-0.5271331313714748,9.709130078720468,0.0876511388266959,-0.5214104054520768,9.905396219690834,0.4367363162157013,0.3409036775914634,-0.0563830864138719,-0.1276527963033537,0.1674745141006097,0.26702880859375,-0.1886879525533537,-0.0394495522103658,-0.2698200504954268,-31.527495103276355,-13.329191945207572,1.5499060401404114,19.331414617128907,-43.80981837606838,-78.35214307177198,27.421661125587804,32.26186839188906,34.61008775870848,1577398275.999,-27.71779475714497,-51.09908097301335,0.00839101
121967,1577398277.4,0.0488183558022093,-0.5950467052924917,9.75993387004573,0.1570829869712271,-0.663602626000381,9.730677893661872,0.1139873570884146,-0.5501408253739519,9.826387564905676,0.2536308474657013,0.3103860994664634,0.096204804211128,0.0554526724466463,-0.3208067358993902,0.05340576171875,-0.0361000619283536,-0.2530725990853658,-0.2698200504954268,-32.47426672799937,-14.60733363858364,-0.464971812042126,17.398273155416014,-41.103420329670335,-77.94735183436354,27.373738281367,32.16602270344745,34.562164914487674,1577398275.999,-27.71779475714497,-51.09908097301335,0.00839101
121968,1577398277.41,0.0476212549721312,-0.6201858227241324,9.831759919850418,0.1965873143638052,-0.6420548110589747,9.710327179550545,0.0876511388266959,-0.5992219594071551,9.656399247034583,0.2994072146532013,0.2035745760289634,0.080946015148628,-0.1276527963033537,-0.0614073218368902,0.00762939453125,-0.1429115853658537,-0.0852259193978658,0.0658733088795732,-31.90620375316556,-14.059558627136754,1.2399248321123315,18.848129251700684,-41.272570207570205,-79.56651678399726,27.27789259292539,32.21394554766826,34.70593344715009,1577398275.999,-27.71779475714497,-51.09908097301335,0.00839101
121969,1577398277.42,0.0727603724037718,-0.6046235119331167,9.9203453812762,0.2336974400962271,-0.6444490127191309,9.706735877060307,0.1259583653891959,-0.6866103200028582,9.675552860315834,-0.0515449337842987,0.4019388338414634,-0.1784533989138719,-0.0361000619283536,0.1674745141006097,0.11444091796875,-0.5243813119283537,-0.1004847084603658,-0.3308552067454268,-32.28491240305476,-14.789925309065936,1.2399248321123315,17.881558520844237,-39.91937118437118,-81.38807735233516,27.373738281367,32.16602270344745,34.562164914487674,1577398275.999,-27.71779475714497,-51.09908097301335,0.00839101
121970,1577398277.43,0.0847313807045531,-0.6213829235542104,9.929922187916825,0.2672162633384146,-0.5989591811761622,9.704341675400151,0.1068047521079458,-0.6698509083817644,9.85032958150724,-0.0515449337842987,-0.0863424161585365,0.1572399604611281,-0.2497231088033537,0.1369569359756097,0.08392333984375,-0.4633461556783537,-0.1310022865853658,-0.1172321598704267,-31.71684942822096,-12.781416933760685,-0.1549906040140398,17.881558520844237,-39.91937118437118,-81.38807735233516,27.18204690448378,32.30979123610986,34.70593344715009,1577398275.999,-27.71779475714497,-51.09908097301335,0.00839101
121971,1577398277.44,0.1026878931557249,-0.6130032177436636,9.889220759694169,0.2911582799399771,-0.606141786156631,9.780956128525151,0.0493439122641959,-0.8063204030106706,10.005952689417397,-0.0210273556592986,-0.1931539395960365,0.004652069836128,-0.4023109994283537,0.1674745141006097,0.05340576171875,-0.3412758431783537,-0.4361780678353658,0.0963908870045732,-33.32636119025008,-13.785671121413309,0.5424671140491459,17.881558520844237,-39.91937118437118,-81.38807735233516,27.206008326594183,32.30979123610986,34.46631922604607,1577398275.999,-27.71779475714497,-51.09908097301335,0.00839101
121972,1577398277.45,0.0536067591225218,-0.6333539318549917,9.946681599537918,0.2097554234946646,-0.6971214492425685,9.790532935165778,0.1139873570884146,-0.5549292286942644,9.955674454554115,-0.5093086056592987,-0.1168599942835365,-0.2089709770388719,-0.2497231088033537,0.0759217797256097,-0.00762939453125,-0.0208412728658536,-0.1310022865853658,-0.1477497379954267,-32.28491240305476,-14.059558627136752,0.9299436240842456,19.411962178033605,-41.01884539072039,-80.67969268687042,27.229969748704587,32.26186839188906,34.58612633659808,1577398275.999,-27.71779475714497,-51.09908097301335,0.00839101
121973,1577398277.46,0.1014907923256468,-0.645324940155773,9.846125129811355,0.1738423985923209,-0.7617648940667872,9.716312683700934,0.0996221471274771,-0.5070451954911394,9.955674454554115,-0.0210273556592986,0.7681497713414634,0.065687226086128,0.1470054068216463,-0.0766661108993902,0.05340576171875,-0.0971352181783536,-0.2835901772103658,-0.1477497379954268,-32.28491240305476,-14.059558627136752,0.9299436240842456,17.881558520844237,-41.272570207570205,-81.7928685897436,27.421661125587804,32.30979123610986,34.562164914487674,1577398275.999,-27.71779475714497,-51.09908097301335,0.00839101
121974,1577398277.47,0.0847313807045531,-0.6046235119331167,9.7671164750262,0.2767930699790396,-0.701909852562881,9.81447495176734,0.1307467687095083,-0.7297059498856706,9.701889078577551,-0.0515449337842987,0.3409036775914634,-0.0258655082888719,0.0554526724466463,-0.1377012671493902,0.17547607421875,-0.7685219369283537,-0.2225550209603658,0.1879436213795732,-33.23168402777778,-12.051050251831503,2.014877852182544,18.525939008081867,-42.62576923076923,-78.55453869047619,27.421661125587804,32.357714080330666,34.61008775870848,1577398275.999,-27.71779475714497,-51.09908097301335,0.00839101
121975,1577398277.48,0.0560009607826781,-0.6405365368354604,9.982594624440262,0.2480626500571646,-0.6181127944574122,9.905454614853278,0.1068047521079458,-0.6913987233231706,9.855117984827553,0.1163017459032013,-0.1168599942835365,-0.0106067192263719,0.3301108755716463,0.0759217797256097,0.17547607421875,-0.0971352181783536,-0.2530725990853658,-0.0867145817454267,-32.19023524058246,-14.1508544623779,1.0074389260912686,18.525939008081867,-42.62576923076923,-78.55453869047619,27.206008326594183,32.26186839188906,34.70593344715009,1577398275.999,-27.71779475714497,-51.09908097301335,0.00839101
121976,1577398277.49,0.1086733973061156,-0.6022293102729604,9.846125129811355,0.242077145906774,-0.7138808608636622,9.749831506943124,0.0936366429770865,-0.6135871693680925,10.001164286097085,-0.0820625119092987,-0.2999654630335365,-0.3005237114138719,-0.1581703744283537,-0.1071836890243902,0.29754638671875,-0.1123940072408536,-0.2225550209603657,0.0506145198170732,-32.663621052943974,-13.694375286172162,0.6199624160561659,18.687034129891277,-41.61086996336997,-79.97130802140569,27.08620121604217,32.285829813999456,34.514242070266874,1577398275.999,-27.71779475714497,-51.09908097301335,0.00839101
121977,1577398277.5,0.0248763392006468,-0.6764495617378042,9.97062361613948,0.1163815587485709,-0.8335909438714747,9.761802515243904,0.0086424840415396,-0.3274800709794206,9.90060781637052,-0.0515449337842987,0.6765970369664634,0.1267223823361281,-0.0666176400533536,-0.1071836890243902,0.23651123046875,-0.0055824838033536,0.1131383384146341,0.0353557307545732,-32.663621052943974,-13.694375286172162,0.6199624160561659,18.525939008081867,-40.59597069597069,-80.57849487751831,27.517506814029414,32.45355976877228,34.61008775870848,1577398275.999,-27.71779475714497,-51.09908097301335,0.00839101
121978,1577398277.51,0.0967023890053343,-0.7386988049018667,9.77908748332698,0.2935524816001334,-0.7665532973870997,9.721101087021248,0.0134308873618521,-0.6028132618973894,9.65879344869474,0.1620781130907013,0.4629739900914634,-0.1174182426638719,-0.0666176400533536,-0.4428770483993902,0.02288818359375,0.1470054068216463,-0.2530725990853658,-0.1172321598704267,-31.71684942822096,-14.242150297619048,1.084934228098292,18.525939008081867,-43.97896825396825,-79.36412116529304,27.517506814029414,32.16602270344745,34.562164914487674,1577398275.999,-27.71779475714497,-51.09908097301335,0.00839101
121979,1577398277.52,0.0560009607826781,-0.6489162426460073,10.000551136891431,0.3390423131431021,-0.711486659203506,9.85996478331031,0.0493439122641959,-0.8446276295731706,9.98440487447599,0.0705253787157013,-0.2694478849085365,-0.2852649223513719,-0.1581703744283537,0.0759217797256097,0.26702880859375,-0.0971352181783536,0.2352086509146341,-0.0256794254954267,-32.28491240305477,-13.69437528617216,1.2399248321123348,17.237178033606607,-40.25767094017094,-80.98328611492674,27.3497768592566,32.357714080330666,34.8017791355917,1577398275.999,-27.71779475714497,-51.09908097301335,0.00839101
121980,1577398277.53,0.1038849939858031,-0.6142003185737417,10.001748237721513,0.2648220616782584,-0.6803620376214747,9.69356776792945,0.3462249181235709,-0.70456683245403,10.005952689417397,0.2536308474657013,0.0357278963414634,-0.2089709770388719,-0.1276527963033536,0.2132508812881097,0.09918212890625,-0.1276527963033536,-0.1157434975228658,0.0048381526295732,-31.90620375316556,-13.329191945207572,0.6199624160561659,17.398273155416014,-40.934270451770445,-81.59047297103939,27.517506814029414,32.285829813999456,34.63404918081888,1577398275.999,-27.71779475714497,-51.09908097301335,0.00839101
121981,1577398277.54,0.0799429773842406,-0.6381423351753042,9.93231638957698,0.2767930699790396,-0.6755736343011622,9.613362012314216,0.0493439122641959,-0.6387262867997331,10.077778739222085,0.0705253787157013,-0.1778951505335365,-0.2089709770388719,0.1164878286966463,0.0148866234756097,0.11444091796875,-0.0055824838033536,0.0215856040396341,-0.0867145817454267,-31.90620375316556,-13.329191945207572,0.6199624160561659,17.55936827722542,-40.59597069597069,-78.55453869047619,27.373738281367,32.45355976877228,34.753856291370894,1577398275.999,-27.71779475714497,-51.09908097301335,0.00839101
121982,1577398277.55,0.0512125574623656,-0.6022293102729604,9.953864204518386,0.2025728185141959,-0.692333045922256,9.790532935165778,0.0493439122641959,-0.6674567067216082,9.953280252893958,0.0094902224657013,0.1577982088414634,-0.0258655082888719,-0.0361000619283536,-0.1071836890243902,0.17547607421875,0.1470054068216463,-0.1004847084603658,0.0353557307545732,-30.959432128442547,-13.511783615689868,1.084934228098292,17.55936827722542,-40.59597069597069,-78.55453869047619,27.517506814029414,32.30979123610986,34.562164914487674,1577398275.999,-27.71779475714497,-51.09908097301335,0.00839101
121983,1577398277.56,0.0595922632729124,-0.5615278820503042,9.897600465504716,0.222923532625524,-0.6384635085687403,9.73905759947242,0.0625120213950552,-0.8135030079911394,9.852723783167397,0.0247490115282013,0.1272806307164634,-0.1937121879763719,0.0096763052591463,0.2132508812881097,0.14495849609375,-0.0361000619283536,-0.1462610756478658,0.1879436213795732,-31.52749510327635,-13.329191945207572,0.464971812042126,17.31772559451131,-42.37204441391942,-80.88208830557463,27.27789259292539,32.30979123610986,34.63404918081888,1577398275.999,-27.71779475714497,-51.09908097301335,0.00839101
121984,1577398277.57,0.0703661707436156,-0.5926525036323355,9.973017817799636,0.2384858434165396,-0.6205069961175684,9.797715540146248,0.0254018956626334,-0.6698509083817644,9.953280252893958,-0.1430976681592987,0.1272806307164634,-0.0869006645388719,-0.1276527963033537,-0.3208067358993902,0.05340576171875,0.2690757193216463,-0.0089319740853658,0.3710490901295732,-32.09555807811016,-12.781416933760685,1.3949154361263716,18.84812925170068,-40.934270451770445,-78.14974745306777,27.373738281367,32.357714080330666,34.70593344715009,1577398275.999,-27.71779475714497,-51.09908097301335,0.00839101
121985,1577398277.58,0.1086733973061156,-0.5615278820503042,9.941893196217604,0.3007350865806021,-0.5343157363519435,9.701947473739995,0.0517381139243521,-0.7728015797684831,10.094538150843178,0.0705253787157013,0.3714212557164634,0.096204804211128,-0.1276527963033537,0.3810975609756097,0.02288818359375,0.2080405630716463,0.0215856040396341,0.1879436213795732,-32.09555807811016,-12.781416933760685,1.3949154361263716,17.237178033606607,-40.934270451770445,-81.38807735233516,27.373738281367,32.30979123610986,34.70593344715009,1577398275.999,-27.71779475714497,-51.09908097301335,0.00839101
121986,1577398277.59,0.0488183558022093,-0.5004757397163199,9.90717727214534,0.2480626500571646,-0.4816432998285059,9.752225708603278,0.0325845006431021,-0.5525350270341082,10.082567142542397,0.2536308474657013,-0.1626363614710365,-0.0563830864138718,-0.0055824838033536,0.1979920922256097,0.20599365234375,0.2385581411966463,-0.0394495522103658,-0.0561970036204267,-31.716849428220957,-12.59882526327839,1.2399248321123315,17.881558520844237,-42.28746947496948,-80.17370364010989,27.3258154371462,32.16602270344745,34.70593344715009,1577398275.999,-27.71779475714497,-51.09908097301335,0.00839101
121987,1577398277.6,0.0368473475014281,-0.4777308239448354,9.877249751393386,0.2540481542075553,-0.5606519546136622,9.695961969589607,0.0529352147544302,-0.5573234303544207,10.029894706018958,0.2231132693407013,-0.0253072599085365,-0.0563830864138719,0.1927817740091463,0.3505799828506097,0.16021728515625,0.1164878286966463,0.0673619712271341,0.0811320979420732,-31.527495103276355,-11.503275240384616,1.859887248168504,17.801010959939532,-41.52629502442002,-81.08448392427886,27.373738281367,32.33375265822026,34.8497019798125,1577398275.999,-27.71779475714497,-51.09908097301335,0.00839101
121988,1577398277.61,0.0871255823647093,-0.5088554455268667,9.85570193645198,0.1953902135337271,-0.5031911147699122,9.704341675400151,0.1331409703696646,-0.4878915822098894,10.020317899378334,0.1925956912157013,0.1883157869664634,0.096204804211128,0.1164878286966463,0.1064393578506097,0.20599365234375,0.2080405630716463,-0.0699671303353658,-0.0256794254954267,-31.90620375316556,-14.059558627136752,1.5499060401404114,17.237178033606607,-42.28746947496948,-81.7928685897436,27.3258154371462,32.45355976877228,34.753856291370894,1577398275.999,-27.71779475714497,-51.09908097301335,0.00839101
121989,1577398277.62,0.0895197840248656,-0.444212000702648,9.925133784596513,0.2241206334556021,-0.5247389297113184,9.730677893661872,0.0924395421470083,-0.4950741871903581,9.85032958150724,0.1010429568407013,0.1883157869664634,-0.0258655082888719,-0.0055824838033536,-0.1071836890243902,0.11444091796875,0.1164878286966463,0.2352086509146341,0.1269084651295732,-32.47426672799937,-13.876966956654458,1.3949154361263716,18.36484388627246,-41.103420329670335,-81.59047297103938,27.229969748704587,32.30979123610986,34.61008775870848,1577398275.999,-27.71779475714497,-51.09908097301335,0.00839101
121990,1577398277.63,0.0751545740639281,-0.3831598583686636,9.897600465504716,0.1858134068931021,-0.4912201064691309,9.64209243223609,0.1259583653891959,-0.4854973805497331,9.840752774866615,0.1468193240282013,-0.0863424161585365,-0.0869006645388719,0.1470054068216463,0.3810975609756097,0.17547607421875,-0.1886879525533537,0.0215856040396341,-0.1172321598704267,-32.37958956552707,-13.603079450931016,1.3174201341193514,18.36484388627246,-41.103420329670335,-81.59047297103938,27.206008326594183,32.26186839188906,34.562164914487674,1577398275.999,-27.71779475714497,-51.09908097301335,0.00839101
121991,1577398277.64,0.0631835657631468,-0.4130873791206167,9.826971516530104,0.2001786168540396,-0.462489686547256,9.658851843857184,0.1187757604087271,-0.4986654896805925,9.852723783167397,0.1010429568407013,0.3103860994664634,0.1267223823361281,0.0401938833841463,0.1216981469131097,0.16021728515625,-0.0666176400533536,-0.0547083412728658,0.0811320979420732,-31.527495103276355,-13.329191945207572,1.859887248168504,18.687034129891277,-40.934270451770445,-81.7928685897436,27.373738281367,32.30979123610986,34.63404918081888,1577398275.999,-27.71779475714497,-51.09908097301335,0.00839101
121992,1577398277.65,0.0799429773842406,-0.4130873791206167,9.819788911549637,0.2289090367759146,-0.4936143081292872,9.704341675400151,0.1068047521079458,-0.4783147755692644,9.867088993128334,0.3451835818407013,0.0967630525914634,0.004652069836128,-0.0055824838033536,0.4116151391006097,0.11444091796875,-0.0666176400533536,-0.1310022865853658,-0.1172321598704267,-32.663621052943974,-12.96400860424298,0.0,17.55936827722542,-40.59597069597069,-81.7928685897436,27.229969748704587,32.16602270344745,34.562164914487674,1577398275.999,-27.71779475714497,-51.09908097301335,0.00839101
121993,1577398277.66,0.0943081873451781,-0.4035105724799917,9.83654832317073,0.1762366002524771,-0.4385476699456935,9.654063440536872,0.1235641637290396,-0.4878915822098894,9.83117596822599,0.1010429568407013,0.0967630525914634,-0.1784533989138719,-0.1276527963033537,-0.0461485327743902,0.11444091796875,0.0249350943216463,-0.2225550209603658,0.0353557307545732,-31.71684942822096,-13.876966956654458,0.464971812042126,18.525939008081867,-41.272570207570205,-81.7928685897436,27.229969748704587,32.45355976877228,34.562164914487674,1577398275.999,-27.71779475714497,-51.09908097301335,0.00839101
121994,1577398277.67,0.0667748682533812,-0.3915395641792105,9.866475843922684,0.1977844151938834,-0.4193940566644434,9.632515625595468,0.1020163487876334,-0.5166220021317643,9.821599161585365,0.1315605349657013,0.1730569979039634,-0.1021594536013719,-0.1276527963033537,0.1064393578506097,0.08392333984375,-0.1581703744283537,0.1436559165396341,-0.2087848942454268,-31.24346361585945,-14.333446132860196,0.6974577180631858,18.525939008081867,-41.272570207570205,-81.7928685897436,27.373738281367,32.30979123610986,34.70593344715009,1577398275.999,-27.71779475714497,-51.09908097301335,0.00839101
121995,1577398277.68,0.0895197840248656,-0.3556265392768667,9.8437309281512,0.2013757176841177,-0.462489686547256,9.6744141546482,0.0708917272056021,-0.5010596913407488,9.83117596822599,0.1925956912157013,0.1272806307164634,0.2182751167111281,-0.0818764291158536,0.2437684594131097,0.06866455078125,-0.1886879525533537,0.2352086509146341,-0.1630085270579268,-31.338140778331752,-13.876966956654458,0.7749530200702057,17.962106081748942,-41.18799526862027,-81.28687954298306,27.517506814029414,32.18998412555785,34.72989486926049,1577398275.999,-27.71779475714497,-51.09908097301335,0.00839101
121996,1577398277.69,0.0655777674233031,-0.3747801525581167,9.838942524830886,0.2336974400962271,-0.4313650649652247,9.675611255478278,0.0924395421470083,-0.5022567921708269,9.795262943323646,0.0705253787157013,0.4019388338414634,-0.0869006645388719,-0.3107582650533537,-0.0156309546493902,0.11444091796875,-0.0971352181783536,-0.2225550209603658,-0.0561970036204267,-33.23168402777778,-13.511783615689868,1.084934228098292,17.237178033606607,-43.97896825396825,-80.98328611492674,27.517506814029414,32.30979123610986,34.46631922604607,1577398275.999,-27.71779475714497,-51.09908097301335,0.00839101
121997,1577398277.7,0.1038849939858031,-0.4298467907417105,9.812606306569169,0.1882076085532584,-0.4912201064691309,9.673217053818124,0.1211699620688833,-0.4902857838700456,9.929338236292397,0.0094902224657013,0.2188333650914634,-0.0563830864138719,-0.2497231088033537,0.3200624047256097,0.17547607421875,-0.0971352181783536,-0.0089319740853658,-0.0256794254954267,-32.663621052943974,-12.96400860424298,1.2399248321123315,18.042653642653644,-41.103420329670335,-81.18568173363096,27.373738281367,32.16602270344745,34.46631922604607,1577398275.999,-27.71779475714497,-51.09908097301335,0.00839101
121998,1577398277.71,0.0536067591225218,-0.4262554882514761,9.864081642262526,0.2289090367759146,-0.5187534255609278,9.666034448837651,0.0972279454673209,-0.5285930104325456,9.874271598108802,-0.1583564572217987,0.1577982088414634,0.035169647961128,-0.0513588509908536,0.0911805687881097,0.11444091796875,-0.3412758431783537,0.0826207602896341,-0.0409382145579267,-32.94765254036088,-13.42048778044872,1.3174201341193514,17.559368277225424,-40.765120573870576,-81.59047297103939,27.3497768592566,32.33375265822026,34.562164914487674,1577398275.999,-27.71779475714497,-51.09908097301335,0.00839101
121999,1577398277.72,0.0607893641029906,-0.4466062023628042,9.834154121510574,0.1929960118735709,-0.5343157363519435,9.706735877060307,0.1307467687095083,-0.5812654469559831,9.922155631311927,-0.1125800900342987,0.3103860994664634,-0.1479358207888719,-0.2192055306783537,0.3505799828506097,0.08392333984375,-0.3717934213033537,-0.0699671303353658,-0.2087848942454268,-32.852975377888576,-13.146600274725277,0.7749530200702057,17.881558520844237,-43.640668498168495,-80.17370364010989,27.373738281367,32.45355976877228,34.562164914487674,1577398275.999,-27.71779475714497,-51.09908097301335,0.00839101
122000,1577398277.73,0.0224821375404906,-0.4968844372260855,9.810212104909011,0.1882076085532584,-0.6013533828363185,9.675611255478278,0.1115931554282584,-0.5405640187333269,9.922155631311927,-0.0210273556592986,0.0052103182164634,0.065687226086128,0.1164878286966463,0.2590272484756097,0.05340576171875,-0.3717934213033537,-0.0699671303353658,-0.1172321598704267,-31.71684942822096,-13.876966956654458,1.3949154361263716,19.814699982557126,-42.28746947496948,-81.7928685897436,27.3258154371462,32.30979123610986,34.70593344715009,1577398275.999,-27.71779475714497,-51.09908097301335,0.00839101
122001,1577398277.74,0.0452270533119749,-0.5160380505073354,9.862884541432448,0.2169380284751334,-0.5845939712152247,9.788138733505622,0.0732859288657584,-0.6099958668778581,9.974828067835364,-0.2804267697217987,0.0662454744664634,-0.0106067192263719,-0.2192055306783537,0.2895448266006097,-0.09918212890625,-0.2192055306783537,0.0521031821646341,-0.0867145817454267,-32.09555807811016,-13.876966956654458,1.7048966441544513,17.237178033606607,-41.272570207570205,-81.7928685897436,27.445622547698207,32.45355976877228,34.70593344715009,1577398275.999,-27.71779475714497,-51.09908097301335,0.00839101
122002,1577398277.75,0.0224821375404906,-0.5471626720893668,9.929922187916825,0.2097554234946646,-0.567834559594131,9.77137932188453,0.1103960545981802,-0.5740828419755144,9.949688950403724,-0.1736152462842987,-0.0558248380335365,0.096204804211128,-0.2954994759908537,-0.2139952124618902,-0.02288818359375,-0.4633461556783537,-0.1157434975228658,-0.0561970036204267,-30.39136915360874,-14.789925309065936,1.5499060401404114,18.20374876446305,-41.272570207570205,-78.55453869047619,27.3258154371462,32.40563692455147,34.514242070266874,1577398275.999,-27.71779475714497,-51.09908097301335,0.00839101
122003,1577398277.76,0.0703661707436156,-0.5615278820503042,9.781481684987137,0.1977844151938834,-0.5726229629144435,9.759408313583748,0.1091989537681021,-0.5812654469559831,9.943703446253334,-0.0515449337842987,0.1272806307164634,-0.1479358207888719,-0.1581703744283537,0.0759217797256097,0.14495849609375,-0.3412758431783537,-0.1004847084603658,-0.1477497379954268,-30.770077803497944,-12.96400860424298,0.9299436240842456,17.55936827722542,-40.25767094017094,-79.76891240270146,27.373738281367,32.30979123610986,34.70593344715009,1577398275.999,-27.71779475714497,-51.09908097301335,0.00839101
122004,1577398277.77,0.0512125574623656,-0.5375858654487418,9.87485554973323,0.2265148351157584,-0.5750171645745997,9.754619910263434,0.0756801305259146,-0.5501408253739519,9.962857059534583,0.0705253787157013,-0.1778951505335365,0.1877575385861281,-0.1886879525533537,-0.0156309546493902,0.29754638671875,-0.3412758431783537,0.0826207602896341,-0.3003376286204268,-31.71684942822096,-13.146600274725277,1.7048966441544513,17.237178033606607,-35.52147435897436,-80.17370364010989,27.565429658250217,32.789019678317906,34.70593344715009,1577398275.999,-27.71779475714497,-51.09908097301335,0.00839101
122005,1577398277.78,0.0536067591225218,-0.568710487030773,9.927527986256669,0.2528510533774771,-0.6348722060785059,9.785744531845468,0.0924395421470083,-0.5812654469559831,10.029894706018958,-0.0515449337842986,-0.1016012052210365,-0.0258655082888719,-0.3107582650533537,0.0454042016006097,0.05340576171875,-0.0666176400533536,-0.1004847084603658,-0.3003376286204268,-30.959432128442547,-13.511783615689868,2.014877852182544,17.237178033606607,-35.52147435897436,-80.17370364010989,27.253931170814987,32.30979123610986,34.61008775870848,1577398275.999,-27.71779475714497,-51.09908097301335,0.00839101
122006,1577398277.79,0.0416357508217406,-0.6261713268745229,9.961046809498855,0.2169380284751334,-0.6300838027581934,9.752225708603278,0.0732859288657584,-0.5872509511063737,9.96405416036466,-0.1430976681592987,-0.4220357755335365,0.096204804211128,-0.1429115853658536,-0.0614073218368902,0.14495849609375,-0.2802406869283537,-0.0394495522103658,-0.1782673161204267,-30.959432128442547,-13.511783615689868,2.014877852182544,17.398273155416014,-42.28746947496947,-79.97130802140568,27.517506814029414,32.38167550244107,34.753856291370894,1577398275.999,-27.71779475714497,-51.09908097301335,0.00839101
122007,1577398277.8,0.0464241541420531,-0.5758930920112417,9.949075801198074,0.1834192052329459,-0.5941707778558497,9.778561926864995,0.0469497106040396,-0.5908422535966081,9.993981681116615,0.0705253787157013,0.0967630525914634,-0.0258655082888719,-0.0971352181783536,0.0759217797256097,-0.06866455078125,-0.2192055306783537,-0.3141077553353658,-0.1477497379954268,-30.959432128442547,-13.876966956654458,-0.1549906040140398,3.22190243618815,-41.103420329670335,-79.97130802140566,27.3258154371462,32.30979123610986,34.46631922604607,1577398275.999,-27.71779475714497,-51.09908097301335,0.00839101
122008,1577398277.81,0.0512125574623656,-0.5734988903510855,9.910768574635574,0.2001786168540396,-0.6324780044183497,9.730677893661872,0.0445555089438834,-0.5740828419755144,9.989193277796302,0.0094902224657013,-0.0863424161585365,-0.2700061332888719,0.0554526724466463,-0.0156309546493902,0.29754638671875,0.0249350943216463,-0.2530725990853658,-0.0867145817454267,-31.338140778331752,-13.146600274725277,0.7749530200702057,1.28876097447526,-40.088521062271056,-81.59047297103938,27.61335250247102,32.30979123610986,34.61008775870848,1577398275.999,-27.71779475714497,-51.09908097301335,0.00839101
