,timestamp,acc_x_dashboard,acc_y_dashboard,acc_z_dashboard,acc_x_above_suspension,acc_y_above_suspension,acc_z_above_suspension,acc_x_below_suspension,acc_y_below_suspension,acc_z_below_suspension,gyro_x_dashboard,gyro_y_dashboard,gyro_z_dashboard,gyro_x_above_suspension,gyro_y_above_suspension,gyro_z_above_suspension,gyro_x_below_suspension,gyro_y_below_suspension,gyro_z_below_suspension,mag_x_dashboard,mag_y_dashboard,mag_z_dashboard,mag_x_above_suspension,mag_y_above_suspension,mag_z_above_suspension,temp_dashboard,temp_above_suspension,temp_below_suspension,timestamp_gps,latitude,longitude,speed
97848,1577398036.21,3.053541439298304,2.357003941680164,8.59874606486995,2.046108096834508,2.824749192847275,9.812080750107183,-4.38471756234518,-4.170173735530203,12.142777671106847,26.5903007693407,-4.175697884908536,0.4318981635861281,11.530062047446648,4.74511123285061,1.93023681640625,21.08206400057165,43.46335806497714,-3.3673542301829267,-26.604282654716684,-16.61584201388889,1.859887248168504,7.813113407756264,-2.452673229548229,-14.901116608001374,27.517506814029414,35.37685326624135,39.04295084913289,1577398035.999,-27.687974510909733,-51.12156028515995,10.125346
97849,1577398036.22,2.1413506067787726,2.055334532500476,9.589945552174637,2.879290274568883,0.3635098862066492,5.60068002989234,-3.015234212735804,-13.517137016780204,17.406430020960364,8.9206230349657,-1.5206685880335369,-0.6362170707888719,2.618929234946646,8.49877334222561,-0.19073486328125,12.445589391196648,19.674905916539632,-9.913374737995428,-27.36169995449509,-17.34620869581807,2.7898308722527494,6.927090237804523,-3.382997557997557,-16.216688129578753,27.852966723575044,35.424776110462155,39.21068080390571,1577398035.999,-27.687974510909733,-51.12156028515995,10.125346
97850,1577398036.23,-0.2025728185141959,-0.5998351086128042,10.77507537395198,-1.6577218714272102,3.583711119116806,11.35394661924781,-3.877146810392054,-9.51642604265911,13.37459442525724,1.9015800662157007,15.752280630716465,1.530530976086128,1.5202964224466462,-3.8913633765243913,5.45501708984375,3.107210484946646,1.822122713414634,-15.650679425495428,-24.71073940527065,-16.2506586729243,0.0,7.08818535961393,-2.5372481684981683,-13.180753849015568,27.75712103513344,35.28100757779974,39.1148351154641,1577398035.999,-27.687974510909733,-51.12156028515995,10.125346
97851,1577398036.24,-0.4455842870200557,-0.1533164989936641,8.804647407643387,-0.7982034754311166,-0.5319215346917873,10.413025366806403,-6.472461410001429,13.34580561017292,1.3700673012338018,-6.2313545040968,6.200278677591463,0.7218151557736281,0.7878745474466463,17.74559951410061,-1.04522705078125,4.022737828696647,11.496194979039634,4.155228777629573,-27.7404086043843,-15.885475331959707,1.5499060401404114,1.772046339903483,-39.91937118437118,-17.026270604395606,27.733159613023037,35.52062179890376,39.01898942702249,1577398035.999,-27.687974510909733,-51.12156028515995,10.125346
97852,1577398036.25,-1.6055749913657584,4.413623167754382,8.160607161061355,-1.1094496912514291,1.8682656296148532,3.812211389755622,3.571214554354039,1.5064784007002645,8.411414383753334,14.0170585818407,16.393149771341463,2.293470429211128,2.588411656821646,-2.2128965796493905,2.51007080078125,6.921907750571648,23.672708650914632,13.112137957317072,-26.98299130460589,-15.520291990995116,1.859887248168504,11.437753648467936,-40.59597069597069,-12.573566992902933,27.61335250247102,35.56854464312457,39.13879653757451,1577398035.999,-27.687974510909733,-51.12156028515995,10.125346
97853,1577398036.26,1.5547712000404914,3.3721454455864133,3.2213691361590118,4.519318411775914,1.847914915503525,10.307680493759529,7.634174771639195,8.011524311344797,-3.2339824912466657,11.0873710818407,-7.502113900533536,0.1877575385861281,-2.416471155678354,9.26171279535061,-4.31060791015625,7.715364781821647,59.89707388528964,6.932328387004573,-27.551054279439697,-16.798433684371187,0.7749530200702057,5.638329263329263,-38.2278724053724,-10.14481956845238,27.90088956779585,35.233084733578934,39.21068080390571,1577398035.999,-27.687974510909733,-51.12156028515995,10.125346
97854,1577398036.27,1.933055062345179,-2.534350050019054,6.041738691823074,4.344541690584508,2.2357755844488376,7.274226990341559,-1.0208642298256478,-1.9148357716630144,6.40267919088224,8.9206230349657,-3.8705221036585367,-1.826402617663872,-4.949430140053353,3.6464784203506095,2.52532958984375,13.452669469321648,69.05234732278963,6.871293230754573,-26.22557400482748,-17.711392036782662,1.5499060401404114,5.638329263329263,-39.91937118437118,-9.740028331043955,27.70919819091263,35.52062179890376,39.16275795968491,1577398035.999,-27.687974510909733,-51.12156028515995,10.125346
97855,1577398036.28,-1.209334616609899,0.2884137073051635,8.256375227467606,1.1339172643149769,-0.6851504409417872,9.913834320663826,1.6702184361899768,1.07073369855183,16.896465067347084,-5.6820380978468,8.351767935403965,0.3708630073361281,-6.2159096322408525,3.036126857850609,-0.08392333984375,12.994905797446648,33.43833365091464,-6.907393292682928,-28.687180229107312,-16.798433684371187,2.014877852182544,7.732565846851561,-18.94478632478632,-9.740028331043955,27.661275346691824,35.49666037679336,39.21068080390571,1577398035.999,-27.687974510909733,-51.12156028515995,10.125346
97856,1577398036.29,-0.2911582799399771,5.368909630156726,8.567621443287917,-3.350422445157679,5.2117682480230565,11.02833519346656,-3.1301558924233044,-11.580227873713795,9.86948319478849,12.8573906130907,-6.433998666158536,-0.0563830864138719,-7.268766077553353,-7.3093321265243905,1.39617919921875,-3.393033655678354,0.3877965415396341,-2.8638141911204267,-26.22557400482748,-17.711392036782662,0.6199624160561659,9.826802430373858,2.0297985347985352,-7.311280906593407,27.565429658250217,35.52062179890376,39.21068080390571,1577398035.999,-27.687974510909733,-51.12156028515995,10.125346
97857,1577398036.3,-3.8249999303306015,4.827820054961413,15.228290461842604,-4.681598568204554,3.5477980942144622,19.07285277159156,-11.088482210782676,6.08179777325886,14.614790885218175,-0.7534492306592987,-1.1544576505335369,0.8896618354611281,-0.4633461556783537,-3.8608457983993913,0.60272216796875,-6.536344202553353,-16.427389005335368,-10.859419659870428,-28.87653455405192,-17.34620869581807,0.3099812080280861,18.042653642653644,-0.1691498778998777,-15.609501273466115,27.61335250247102,35.424776110462155,38.97106658280169,1577398035.999,-27.687974510909733,-51.12156028515995,10.125346
97858,1577398036.31,-0.913650711580602,-3.5662509655463976,13.9426041703387,-0.0631835657631468,-5.37539149318788,2.6965134161228086,6.152163944002477,11.459174701969795,10.745761002405676,-26.6933906369093,-0.7882467130335366,-3.718492461413872,3.961702672446646,6.9423768578506095,-1.59454345703125,-5.590299280678353,-22.561422208460368,-6.586958722370427,-27.551054279439697,-16.433250343406595,0.1549906040140463,17.881558520844237,0.6765995115995117,-62.36288919413919,27.70919819091263,35.424776110462155,39.21068080390571,1577398035.999,-27.687974510909733,-51.12156028515995,10.125346
97859,1577398036.32,0.8736208277260384,0.2106021533500859,9.405592024342605,-0.5097021753822885,0.8064371933355564,5.680885785507575,-4.274584285977992,-3.710487016780205,1.2683137306771612,-10.2138984494093,6.123984732278965,0.5539684760861281,-12.746671350990852,-7.065191501524391,-0.23651123046875,-9.618619593178352,15.524515291539632,11.769364519817074,-28.687180229107312,-16.433250343406595,1.084934228098292,9.665707308564452,-2.0297985347985343,-63.98205414377289,27.805043879354244,35.424776110462155,38.995028004912086,1577398035.999,-27.687974510909733,-51.12156028515995,10.125346
97860,1577398036.33,2.1102259851967413,6.558827855254382,8.280317244069167,1.6007865880454455,3.1192359970464936,5.392384485458746,6.482563773104039,2.0595389841963603,4.695613407190834,13.3151542849657,-12.323891244283535,-2.314683867663872,-7.360318811928353,19.48510146722561,-7.02667236328125,-4.979947718178353,21.841653963414632,-12.659956769245428,-27.17234562955049,-16.433250343406595,1.084934228098292,5.316139019710446,4.05959706959707,-58.31497682005494,27.517506814029414,35.52062179890376,39.1148351154641,1577398035.999,-27.687974510909733,-51.12156028515995,10.125346
97861,1577398036.34,0.9418555750404916,-0.9637537609565542,10.916333271901198,7.296592337557164,1.369074583472275,1.5808154424899965,5.314193362947789,2.0403853709151103,1.4706237709603645,-12.3196113400343,-15.253578744283535,-4.664537383288872,-8.031705530678353,3.158197170350609,2.31170654296875,18.793245641196645,59.13413443216464,-1.734663800495427,-28.87653455405192,-16.61584201388889,1.5499060401404114,5.15504389790104,4.228746947496947,-58.11258120135073,27.94881241201665,35.616467487345375,39.21068080390571,1577398035.999,-27.687974510909733,-51.12156028515995,10.125346
97862,1577398036.35,1.846863802579554,-0.1066295666206167,0.9612427689715112,-3.4868919397865854,-4.736139649926162,-3.875570141006096,-4.059106136563929,-19.0333776417802,7.482464139612708,15.4513847537157,3.240073599466464,-1.917955352038872,-12.365201624428352,-13.71802353277439,-7.66754150390625,4.816194859946647,72.92807974466463,-16.444136456745426,-28.49782590416271,-17.34620869581807,1.5499060401404114,1.772046339903483,0.6765995115995117,-57.91018558264652,27.70919819091263,35.28100757779974,39.16275795968491,1577398035.999,-27.687974510909733,-51.12156028515995,10.125346
97863,1577398036.36,0.831722298673304,-2.47329790768507,5.917240205494949,0.203769919344274,0.6388430771246189,7.041989429306403,-5.40584457040182,-0.6099958668778592,7.644072751673256,-12.1365058712843,5.528891958841464,-3.199693633288872,-10.015348108803352,1.0677430687881095,-1.19781494140625,15.588899938071648,61.773904939977136,-19.08390696455793,-26.98299130460589,-16.61584201388889,1.2399248321123315,-0.8054756090470375,-0.6765995115995113,-5.692115956959706,27.565429658250217,35.49666037679336,38.97106658280168,1577398035.999,-27.687974510909733,-51.12156028515995,10.125346
97864,1577398036.37,2.483721444181117,4.320249303008288,9.168566059987135,-0.1397980188881468,1.4935730698004002,5.794610364364996,4.897602274080602,11.765632514469797,18.409600516565835,-6.216095715034299,-1.0934224942835369,-2.955553008288872,-10.900357874428352,2.303704982850609,-1.89971923828125,3.595491734946646,22.238382479039632,-13.178755597370428,-26.98299130460589,-16.61584201388889,1.2399248321123315,-0.4832853654282228,-3.382997557997557,-5.692115956959706,27.61335250247102,35.233084733578934,38.92314373858088,1577398035.999,-27.687974510909733,-51.12156028515995,10.125346
97865,1577398036.38,-1.593603983064977,0.2094050525200072,18.426943879811358,2.03892549185404,-1.535092030297256,9.558295374130624,-9.72857566781393,-8.166096306330983,33.21773778463224,-21.1697089962843,13.921225943216465,-2.467271758288872,-8.306363733803353,-8.43848251714939,-3.45611572265625,-7.604459436928353,-20.913472989710368,-11.958052472370428,-26.793636979661287,-16.433250343406595,0.7749530200702057,0.4832853654282225,-0.6765995115995113,-8.525654618818681,27.61335250247102,35.52062179890376,39.21068080390571,1577398035.999,-27.687974510909733,-51.12156028515995,10.125346
97866,1577398036.39,-0.4491755895102896,0.7888018542778201,6.640289106862136,-3.893906222013148,3.835102293433213,18.572464624618902,-0.5899079309975228,-22.141051396663016,17.660215396936927,-4.7207343869093,17.522300161966463,-1.399156523913872,-10.778287561928352,-0.3513243140243902,1.12152099609375,-35.43649068692835,-40.65834603658536,-36.127974347370426,-27.8350857668566,-17.072321190094627,2.0923731541895574,0.4832853654282225,-0.6765995115995113,-8.525654618818681,27.876928145685447,35.52062179890376,39.01898942702249,1577398035.999,-27.687974510909733,-51.12156028515995,10.125346
97867,1577398036.4,-1.603180789705602,-8.146358741425304,9.52290790569026,3.119907541414586,-7.773184455834365,7.961362866806404,-0.0009343225990856,10.975545966618236,17.24242720723966,-23.7331855587843,22.222007193216463,-3.413316680163872,-3.682950647865853,8.10204482660061,-5.74493408203125,-17.904142054115855,-69.08547006002287,20.19221608231707,-27.36169995449509,-17.711392036782662,0.9299436240842456,12.484871940229084,-2.6218231074481078,-12.87716042095925,27.75712103513344,35.56854464312457,38.97106658280169,1577398035.999,-27.687974510909733,-51.12156028515995,10.125346
97868,1577398036.41,0.649762972501429,3.379328050566882,6.278764656178542,-2.8476400965248665,7.615546714819931,18.28755462706031,-6.06305292611471,-9.442205791194263,6.955739774378333,-14.0896308712843,3.056968130716464,-1.246568633288872,-12.822965296303352,-20.37085556402439,3.07464599609375,-52.16012349942835,-95.77309213033536,3.1786662776295733,-27.36169995449509,-17.711392036782662,0.9299436240842456,2.738617070759928,-3.382997557997557,-16.216688129578753,27.565429658250217,35.233084733578934,39.01898942702249,1577398035.999,-27.687974510909733,-51.12156028515995,10.125346
97869,1577398036.42,1.032835238126429,3.882110399199695,14.251456184498856,-0.6377919642006478,-0.9054169936761622,9.429008484482186,3.2456031285727893,12.893301496403389,3.3979561073861464,-14.3948066525343,-16.718422494283537,-7.533189727038872,-0.9516274056783536,17.62352920160061,-7.42340087890625,-35.58907857755335,-95.49843392721036,25.85322682450457,-27.17234562955049,-16.433250343406595,1.7048966441544513,2.738617070759928,-3.382997557997557,-16.216688129578753,27.61335250247102,35.52062179890376,39.1148351154641,1577398035.999,-27.687974510909733,-51.12156028515995,10.125346
97870,1577398036.43,-1.3122852879966174,-2.8455962658393665,3.545783461110183,-0.209229867032679,-0.778524305687881,2.854530725693121,-8.512321224454555,-6.073564055354421,-0.650638899938072,6.2961113162157005,10.915244497903965,-1.765367461413872,-13.494352015053352,6.0268495141006095,0.54168701171875,-31.988004358803355,-70.04677377096037,26.82978932450457,-27.267022792022797,-16.70713784913004,1.6274013421474378,3.060807314378742,-38.56617216117216,-10.549610805860803,27.565429658250217,35.52062179890376,39.1148351154641,1577398035.999,-27.687974510909733,-51.12156028515995,10.125346
97871,1577398036.44,1.3847828821693977,-1.634130225800304,8.471853376881668,-2.200008547452601,-2.234198915062881,11.46168569395484,0.37854664053568,-5.454662926204032,8.255791275843178,-10.3970039181593,4.094565786966464,-2.040025664538872,-4.979947718178353,3.249749904725609,-3.42559814453125,-17.751554163490855,-33.65456185689787,-6.953169659870428,-27.7404086043843,-16.981025354853482,0.6199624160561659,6.927090237804523,-20.805434981684986,-12.978358230311354,27.75712103513344,35.49666037679336,39.01898942702249,1577398035.999,-27.687974510909733,-51.12156028515995,10.125346
97872,1577398036.45,-0.4898770177329459,-3.4417524792182728,6.597193476979324,-1.779826156095179,-0.7593706924066309,12.536682239364998,9.276597110506382,9.534236567204172,12.993916361292396,-8.0776679806593,17.064536490091463,-0.4836291801638719,-9.191373499428352,-4.593267673399391,0.29754638671875,-5.315641077553353,-9.988180020960366,0.1574260432545732,-27.7404086043843,-16.981025354853482,0.6199624160561659,17.237178033606607,-2.0297985347985343,-17.026270604395606,27.61335250247102,35.233084733578934,39.1148351154641,1577398035.999,-27.687974510909733,-51.12156028515995,10.125346
97873,1577398036.46,-0.9232275182212272,-0.6094119152534292,17.8882485062762,0.5593088658774771,0.6172952621832127,19.40085839903297,-0.8867889368568977,-0.6171784718583269,14.509446012171304,-26.5408027462843,-0.2389303067835365,-1.643297148913872,-7.421353968178353,-9.96436142339939,1.76239013671875,-12.578824671303352,-17.922750333460368,-8.906294659870428,-26.98299130460589,-16.2506586729243,0.3099812080280861,17.237178033606607,-2.0297985347985343,-17.026270604395606,27.61335250247102,35.32893042202055,39.01898942702249,1577398035.999,-27.687974510909733,-51.12156028515995,10.125346
97874,1577398036.47,-1.9000617955649768,-0.9841044750678828,12.028439943043775,1.0285723912681015,-0.5115708205804588,19.912020453476323,10.935778860994663,12.999843470280346,19.88562584005216,-2.1114814572217995,8.519614615091465,-1.887437773913872,-5.269864710365853,5.1418397484756095,-3.12042236328125,-18.07198873380335,-52.27028451314786,-8.036543683307926,-27.4563771169674,-17.254912860576923,1.317420134119355,7.571470725042152,-0.6765995115995113,-10.14481956845238,27.66127534669183,35.56854464312457,38.97106658280168,1577398035.999,-27.687974510909733,-51.12156028515995,10.125346
97875,1577398036.48,-3.2839103551352893,-4.782505408905773,12.520448384205888,-2.842851693204554,-3.503125794945693,13.867858362411871,-6.371904940274867,-7.469383623225514,-2.592336446324791,-19.5827949337843,-1.6122213224085369,0.8286266792111281,-0.4328285775533537,-1.2973692358993902,-0.22125244140625,-26.189664515053355,-34.097066739710364,20.69575612137957,-27.36169995449509,-16.981025354853482,1.2399248321123315,9.987897552183266,0.1691498778998781,-6.70409405048077,27.852966723575044,35.32893042202055,39.21068080390571,1577398035.999,-27.687974510909733,-51.12156028515995,10.125346
97876,1577398036.49,-3.042095987459508,1.8709810046684443,9.939498994557448,-5.332821419767054,-1.3555269057855373,9.440979492782963,7.267861917635288,10.444033198063543,-4.960201888219322,13.8949882693407,17.491782583841463,1.194837616711128,-2.935269983803354,-10.02539657964939,0.78582763671875,-2.660611780678354,-8.492818692835366,0.6151897151295732,-27.36169995449509,-16.981025354853482,1.2399248321123315,9.665707308564452,0.8457493894993894,-10.347215187156593,27.565429658250217,35.616467487345375,39.21068080390571,1577398035.999,-27.687974510909733,-51.12156028515995,10.125346
97877,1577398036.5,2.7794053492104136,2.6383226367485237,7.358549604909012,0.9758999547446646,5.704973790015244,7.657299255966559,12.34356943716654,9.603668415348702,-7.4597484214224465,11.0263359255907,-21.64701136147104,-2.314683867663872,-4.125455530678353,10.05516982660061,-6.84356689453125,12.872835484946648,52.54233755716464,30.85810963700457,-28.024440091801203,-16.70713784913004,1.0074389260912686,9.665707308564452,0.8457493894993894,-10.347215187156593,27.75712103513344,35.32893042202055,38.97106658280169,1577398035.999,-27.687974510909733,-51.12156028515995,10.125346
97878,1577398036.51,1.231553975919398,-3.3244365978706165,7.109552632252761,3.030124979158727,-1.269335646019912,-0.2124416009670344,-1.1214206995522102,-19.938385869319266,1.7411685585580214,-7.345246105659299,-7.288490853658536,-4.267808867663872,-5.1172768197408525,-2.228155368711892,-1.25885009765625,9.546419469321648,81.64084829935213,-13.148238019245424,-26.22557400482748,-16.2506586729243,1.5499060401404114,1.93314146171289,-2.0297985347985343,-65.19642785599817,27.70919819091263,35.40081468835175,39.18671938179531,1577398035.999,-27.687974510909733,-51.12156028515995,10.125346
97879,1577398036.52,3.194799337247523,-4.071427515839367,2.6419723344011987,0.4012915563071646,1.2972485336675876,3.907979456161871,3.767539090486852,15.344963996403388,7.554290189417396,13.1015312380907,-8.997475228658537,-2.192613555163872,-3.972867640053354,0.9304139672256098,3.86810302734375,27.948519078696645,100.94321646341464,-9.425093487995428,-28.687180229107312,-17.16361702533578,0.1549906040140463,4.6717585324728175,-3.382997557997557,-62.36288919413919,27.75712103513344,35.66439033156618,39.1148351154641,1577398035.999,-27.687974510909733,-51.12156028515995,10.125346
97880,1577398036.53,0.4055544031654916,-2.8025006359565543,14.725508113209791,2.7404265782798203,-1.1951153945550683,6.953403967880622,-1.262678597501429,-6.913928838069265,23.324896524866613,-9.6035468869093,-9.638344369283535,-3.626939727038872,-6.505826624428353,2.181634670350609,-2.99835205078125,21.173616734946645,60.78208365091464,-11.561323956745428,-28.687180229107312,-17.16361702533578,0.1549906040140463,-0.6443804872376302,-3.21384768009768,-61.35091110061813,27.61335250247102,35.616467487345375,38.82729805013928,1577398035.999,-27.687974510909733,-51.12156028515995,10.125346
97881,1577398036.54,-0.8178826451743522,2.8837283069145383,14.645302357594558,-1.798979769376429,4.548574388159775,12.333175098251717,2.8721076695884142,7.274110200016672,19.999350418909582,-7.0400703244093,2.339805044778964,-0.956651641101372,-7.329801233803353,-4.318609470274391,-0.77056884765625,13.940950719321648,11.557230135289634,-15.894820050495428,-28.119117254273505,-17.528800366300366,0.6199624160561692,1.1276658526658527,-3.382997557997557,-59.93414176968864,27.637313924581427,35.28100757779974,39.01898942702249,1577398035.999,-27.687974510909733,-51.12156028515995,10.125346
97882,1577398036.55,0.324151546720179,-4.06903331417921,13.889931733815262,1.218911423250524,-2.5526277358636618,15.910112378525152,-0.3337283533608043,4.775760767643625,26.294903684290443,-12.9909980587843,7.909263052591464,-0.0258655082888719,2.7562583365091475,-3.860845798399391,0.57220458984375,-6.337979944740854,-42.23000131002286,-3.855635480182927,-27.551054279439697,-16.433250343406595,0.464971812042126,2.1747841444270013,-3.129272741147741,-10.4484129965087,27.70919819091263,35.56854464312457,38.99502800491209,1577398035.999,-27.687974510909733,-51.12156028515995,10.125346
97883,1577398036.56,-2.860136661287633,-1.8855214001167104,13.51404207317073,0.7987290318931021,-4.044215370141006,16.71695833799781,-5.639279232267054,-6.109477080256765,9.23023135152677,-12.4111640744093,21.703208365091463,-0.2394885551638719,5.396028844321647,-7.3703672827743905,-0.58746337890625,-24.206021936928355,-62.38686166158536,7.054398699504573,-27.929762929328906,-15.702883661477411,2.324859060210624,4.349568288854003,-0.6765995115995113,-17.026270604395606,27.61335250247102,35.32893042202055,39.21068080390571,1577398035.999,-27.687974510909733,-51.12156028515995,10.125346
97884,1577398036.57,1.3153510340248664,0.9516075671684447,7.296300361744949,4.243985220857946,1.9436829819097752,15.306773560165778,4.117092532869664,7.290869611637766,13.913289798792396,8.6764824099657,18.865073599466463,0.7981091010861281,-4.217008265053353,1.968011623475609,-3.42559814453125,-5.987027796303353,-41.08559213033536,18.52900807450457,-27.929762929328906,-15.702883661477411,2.324859060210624,7.249280481423338,-0.6765995115995113,-17.026270604395606,27.61335250247102,35.52062179890376,39.1148351154641,1577398035.999,-27.687974510909733,-51.12156028515995,10.125346
97885,1577398036.58,0.2846472193276004,1.1335668933403202,4.855411769215652,1.2632041539634142,-1.1185009414300686,5.42829751036109,-6.531119350675256,-1.9028647633622344,0.2352157143197403,13.8949882693407,-6.800209603658535,-0.3310412895388719,2.847811070884146,3.936395412538109,-1.82342529296875,-12.014249475990855,-12.612691739710366,7.313798113567072,-28.21379441674581,-16.88972951961233,2.092373154189564,7.3298280423280415,-1.945223595848596,-13.6867428957761,27.805043879354244,35.472698954682954,39.0669122712433,1577398035.999,-27.687974510909733,-51.12156028515995,10.125346
97886,1577398036.59,2.6465271570717417,0.2477122790825073,4.210174421803543,-0.0392415491615843,5.451188414038682,7.03720102598609,-8.689492147306117,-11.81485963640911,4.918274161585365,24.9728691287157,-11.042152963033535,-1.917955352038872,3.320833531821646,-14.60303329839939,-0.19073486328125,-0.9211098275533536,9.085306307164634,4.063676043254573,-27.17234562955049,-17.16361702533578,0.1549906040140463,8.215851212279782,-3.382997557997557,-10.549610805860803,27.61335250247102,35.32893042202055,39.1148351154641,1577398035.999,-27.687974510909733,-51.12156028515995,10.125346
97887,1577398036.6,2.9649559778725227,2.05294033084032,3.6355660233660414,1.0884274327720085,0.8016487900152439,14.466408777450935,-2.6441329554115853,-17.63037546892864,7.1784005287728645,17.5876152224657,-10.035072884908535,-1.856920195788872,1.7339194693216462,13.10692763910061,-0.77056884765625,2.008577672446646,16.073831697789632,-11.958052472370428,-27.551054279439697,-14.972516979548232,0.464971812042126,8.215851212279782,-3.382997557997557,-10.549610805860803,27.61335250247102,35.66439033156618,39.1148351154641,1577398035.999,-27.687974510909733,-51.12156028515995,10.125346
97888,1577398036.61,-1.1746186925376334,-4.9357343151557735,6.350590705983231,1.1961665074790395,-8.518978272973037,6.036424732040778,12.939725650545446,23.494826447575267,17.85653993306974,7.394744128715701,6.139243521341464,1.744154022961128,15.009065953696648,-4.898443454649391,2.22015380859375,16.504427281821645,-0.1310022865853658,3.4228069026295733,-27.551054279439697,-14.972516979548232,0.464971812042126,3.060807314378742,-40.934270451770445,-10.549610805860803,27.852966723575044,35.28100757779974,39.21068080390571,1577398035.999,-27.687974510909733,-51.12156028515995,10.125346
97889,1577398036.62,-1.4738939000571645,0.1064543811332889,18.023520900075027,-0.6856759974037729,-0.9820314468011622,20.352553558945075,-7.475631905606899,-5.439100615413016,21.60945103536466,-14.1964423947218,4.399741568216464,0.8744030463986281,7.150789586509148,-5.6461241187118905,2.75421142578125,-4.3543373666158525,-37.86598763814787,-15.345503644245426,-27.551054279439697,-16.2506586729243,1.3949154361263751,3.86628292342578,-21.31288461538461,-12.978358230311354,27.58939108036062,35.40081468835175,39.1148351154641,1577398035.999,-27.687974510909733,-51.12156028515995,10.125346
97890,1577398036.63,-1.6654300328696643,-1.2917593883979603,16.3559594437762,-1.588290023282679,-0.3236259902581935,19.451136633896247,6.331729068514195,6.08179777325886,19.767112857874427,-3.4084785275342986,18.498862661966463,2.476575897961128,7.623812047446647,8.95653701410061,2.76947021484375,-2.233365686928354,-87.10609994283537,4.094193621379573,-27.551054279439697,-17.16361702533578,1.7048966441544513,7.571470725042153,-2.706398046398046,-15.407105654761905,27.61335250247102,35.616467487345375,39.01898942702249,1577398035.999,-27.687974510909733,-51.12156028515995,10.125346
97891,1577398036.64,0.0320589441811156,-4.219868018769054,14.0575258500262,6.247932010408727,-0.950906825219131,15.936448596786873,1.229685330721227,10.38896655987995,17.234047501429114,-6.734894543159299,10.564292349466465,1.255872772961128,-5.071500452553353,10.78759170160061,3.83758544921875,-29.088834436928355,-96.71913705221036,12.181351824504572,-27.551054279439697,-16.068067002442003,1.7048966441544513,5.638329263329263,-2.706398046398046,-16.62147936698718,27.70919819091263,35.66439033156618,39.01898942702249,1577398035.999,-27.687974510909733,-51.12156028515995,10.125346
97892,1577398036.65,-0.6024044957602896,1.4089000842582884,7.966676826588699,-2.6177967371498667,-1.4943906020745996,11.27733216612281,-0.7670788538490853,-10.055121416194266,14.966738529261146,24.5151054568407,12.883628286966465,1.500013397961128,14.337679234946648,-0.9311582983993902,-1.19781494140625,-26.525357874428355,-95.07118783346036,5.986283465129573,-26.414928329772085,-17.528800366300366,2.014877852182544,4.510663410663409,1.522348901098901,-12.775962611607142,27.852966723575044,35.28100757779974,39.01898942702249,1577398035.999,-27.687974510909733,-51.12156028515995,10.125346
97893,1577398036.66,0.4570297388588504,-1.992063373993664,6.956323726002761,-0.5408267969643197,-4.244131208764053,5.7754567510837465,2.706907755037633,1.5399972239424542,-6.998864601842369,15.8481132693407,-5.533730111471036,1.927259491711128,9.805818883384148,-9.56763290777439,0.06866455078125,-0.4786049447408538,-46.19728646627287,16.16389576981707,-26.414928329772085,-17.528800366300366,2.014877852182544,14.9818463282749,0.3382997557997558,-12.57356699290293,27.75712103513344,35.52062179890376,38.97106658280169,1577398035.999,-27.687974510909733,-51.12156028515995,10.125346
97894,1577398036.67,0.8772121302162728,3.060899229766101,7.2699641434832305,3.089980020662633,4.677861277808212,8.88313050596656,3.0756148107016954,1.384374116032298,-0.4184013389029157,19.9679863162157,-6.067787728658536,1.896741913586128,-15.172818811928352,2.456292873475609,1.30462646484375,7.806917516196647,24.649271150914632,26.12788502762957,-27.929762929328906,-17.16361702533578,1.3949154361263716,9.504612186755043,-3.0446978021978017,-62.36288919413919,27.94881241201665,35.52062179890376,39.01898942702249,1577398035.999,-27.687974510909733,-51.12156028515995,10.125346
97895,1577398036.68,-0.3174944982016959,4.9523185412895385,8.091175312916825,7.397148807283727,5.38175656589415,17.703369421982185,-1.5164639734779914,-23.25674937029583,19.293060929163488,28.9096367068407,-22.150551400533537,-2.925035430163872,3.168245641196646,1.0830018578506098,-2.20489501953125,1.3982261099466462,20.651468416539632,-11.347700909870428,-27.551054279439697,-17.528800366300366,0.1549906040140463,6.927090237804523,-3.0446978021978017,-68.839548992674,27.852966723575044,35.616467487345375,38.92314373858088,1577398035.999,-27.687974510909733,-51.12156028515995,10.125346
97896,1577398036.69,-0.2791872716391959,-4.909398096894055,7.375309016530105,4.078785306307164,-5.770434767113661,16.508662793564216,0.0277960973227896,5.96687609357136,15.716123648890052,22.0431816287157,1.1038431307164631,1.774671601086128,7.867952672446647,8.31566787347561,0.05340576171875,12.781282750571648,-7.577291349085366,-16.779829816120426,-27.929762929328906,-17.16361702533578,2.014877852182544,-0.8054756090470375,-3.382997557997557,-61.553306719322336,27.70919819091263,35.616467487345375,38.92314373858088,1577398035.999,-27.687974510909733,-51.12156028515995,10.125346
97897,1577398036.7,-2.497415109773961,0.0082921130668827,17.27413578044612,-1.8672145166908825,-2.632833491478896,16.26924262754859,-1.997698507169398,4.689569507878001,15.433607852991614,-12.6400459103468,18.208945669778963,2.491834687023628,11.331697789634148,-10.17798447027439,1.60980224609375,10.477205602134145,-18.014303067835368,-5.976607159870426,-27.551054279439697,-16.798433684371187,0.464971812042126,-1.2887609744752604,-2.706398046398045,-66.81559280563187,27.733159613023037,35.56854464312457,39.16275795968491,1577398035.999,-27.687974510909733,-51.12156028515995,10.125346
97898,1577398036.71,-1.131523062654821,-3.520761134003429,7.674584224049636,4.8449298375571646,-2.2102568984613185,20.396846289657965,2.649446915193883,-10.11018805437786,13.123203250940833,-3.2864082150342986,15.660727896341465,2.262952851086128,-6.597379358803353,14.11400771722561,-2.38800048828125,11.865755406821648,-0.6803186928353658,6.535599871379573,-28.119117254273505,-15.520291990995116,1.5499060401404114,-2.094236583522298,-2.0297985347985343,-66.41080156822345,27.61335250247102,35.52062179890376,38.92314373858088,1577398035.999,-27.687974510909733,-51.12156028515995,10.125346
97899,1577398036.72,-0.990265164705602,-1.423440479706554,10.44228134319026,0.5114248326743521,-0.9963966567620997,14.128826343368903,1.7731691075766958,-0.2628366261552009,5.4497869301400526,9.8666679568407,-7.715736947408536,0.2487926948361281,4.724642125571647,5.9047792016006095,-0.43487548828125,-0.2802406869283537,9.756693025914634,-5.946089581745427,-26.604282654716684,-17.34620869581807,1.2399248321123315,12.726514622943194,-3.382997557997557,-68.839548992674,27.70919819091263,35.424776110462155,39.21068080390571,1577398035.999,-27.687974510909733,-51.12156028515995,10.125346
97900,1577398036.73,1.2267655725990854,3.9491480456840695,8.498189595143387,2.56205855459818,1.5594136154546971,7.490902240585699,3.4670667821372425,1.666889911930734,11.358676627405677,27.6278984255907,-12.812172494283535,0.1572399604611281,10.141512242759148,0.9456727562881097,-2.03704833984375,5.441805211509147,3.180154939977134,10.289261980754572,-28.87653455405192,-16.2506586729243,1.859887248168504,-2.220446049250313e-16,-36.53637362637363,-11.359193280677657,27.70919819091263,35.35289184413095,39.0669122712433,1577398035.999,-27.687974510909733,-51.12156028515995,10.125346
97901,1577398036.74,-0.0780743321860709,0.2177847583305546,6.660639820973465,-0.4893514612709603,3.9332645614996182,3.5105419805759333,2.83619464468607,14.43756156720417,6.225508268030677,20.9292900271532,-10.904823861471035,0.1572399604611281,0.2385581411966463,-1.8772032202743905,2.73895263671875,10.980745641196648,5.941995760289634,9.434769793254572,-27.929762929328906,-17.528800366300366,1.3949154361263716,2.738617070759928,-38.56617216117216,-16.216688129578753,27.68523676880223,35.52062179890376,38.97106658280169,1577398035.999,-27.687974510909733,-51.12156028515995,10.125346
97902,1577398036.75,2.9314371546303355,2.603606712676257,6.077651716725418,1.5098069249595083,4.074522459448837,16.293184644150152,-2.5699127039467418,-10.323272002131766,4.508865677698647,30.2524101443407,-15.345131478658535,-4.054185820788872,4.205843297446647,8.10204482660061,-2.75421142578125,0.2385581411966463,11.984476229039634,-2.0093220036204267,-28.119117254273505,-15.885475331959707,0.9299436240842456,1.9331414617128904,-2.5372481684981683,-16.823874985691393,27.70919819091263,35.616467487345375,39.01898942702249,1577398035.999,-27.687974510909733,-51.12156028515995,10.125346
97903,1577398036.76,0.8436933069740853,-1.0499450207221792,4.222145430104324,5.139416641756383,-2.933305799828506,3.7978461797946834,3.820211527010289,2.50725469464558,-1.2587661216177592,16.6110527224657,-8.234535775533537,-2.314683867663872,8.295198766196647,5.1113221703506095,-0.03814697265625,15.619417516196648,24.832376619664632,-6.647993878620427,-27.7404086043843,-17.34620869581807,0.9299436240842456,7.08818535961393,-3.21384768009768,-15.204710036057692,27.565429658250217,35.424776110462155,39.01898942702249,1577398035.999,-27.687974510909733,-51.12156028515995,10.125346
97904,1577398036.77,0.170922640470179,-1.1935971203315547,10.360878486744948,-3.709552694181117,-4.685861415062881,2.5815917364353087,3.2072959020102894,2.217556293766673,10.058625125940834,-4.1714179806593,4.445517935403964,0.7370739448361281,11.499544469321648,-7.126226657774391,1.82342529296875,13.116976109946648,22.146829744664632,1.195023699504573,-27.4563771169674,-16.88972951961233,1.4724107381333913,6.927090237804523,-2.706398046398046,-16.216688129578753,27.733159613023037,35.52062179890376,39.01898942702249,1577398035.999,-27.687974510909733,-51.12156028515995,10.125346
97905,1577398036.78,-1.229685330721227,1.423265294219226,12.972952497975417,-3.399503579190882,3.577725614966416,15.049396881698982,3.4550957738364616,5.679571894352609,16.704928934534582,3.3664238162157014,-0.0253072599085365,1.072767304211128,8.432527867759148,-5.79871200933689,1.10626220703125,17.26736673494665,-3.3658655678353657,-11.790205792682928,-28.119117254273505,-15.885475331959707,1.2399248321123315,4.349568288854004,-22.66608363858364,-42.123327323717945,27.61335250247102,35.47269895468296,39.16275795968491,1577398035.999,-27.687974510909733,-51.12156028515995,10.125346
97906,1577398036.79,-2.180183389803258,1.473543529082507,13.837259297291824,1.335030203768102,-3.08414050441835,9.69955327207984,2.8768960729087265,-7.548392278010671,12.275655863245522,4.098845691215701,6.474936880716464,2.934339569836128,11.926790563071648,6.2099549828506095,2.46429443359375,9.485384313071648,3.3785191977896343,11.632035418254572,-26.793636979661287,-17.16361702533578,2.014877852182544,1.772046339903483,-42.62576923076923,-17.026270604395606,27.70919819091263,35.52062179890376,39.01898942702249,1577398035.999,-27.687974510909733,-51.12156028515995,10.125346
97907,1577398036.8,-0.4563581944907584,1.2556711780082883,14.73987332317073,1.5816329747641955,-1.3507385024652248,10.61892670957984,-0.6928586023842416,-9.207574028498954,9.62048622213224,-2.0962226681592986,-7.257973275533536,1.927259491711128,6.769319859946647,-9.14038681402439,4.26483154296875,-3.362516077553354,11.068948885289634,-3.5352009098704267,-26.03621967988288,-16.433250343406595,0.7749530200702057,4.510663410663409,-43.80981837606838,-8.728050237522895,27.852966723575044,35.52062179890376,38.92314373858088,1577398035.999,-27.687974510909733,-51.12156028515995,10.125346
97908,1577398036.81,-0.5341697484458365,-0.721939393280773,8.421575142018387,-2.7111706018959603,-0.3116549819574122,17.451978247665778,-6.237829647306117,6.055461554997141,10.60450310445646,7.0132744021532005,-4.084145150533536,1.728895233898628,8.722444859946647,-9.01831650152439,1.91497802734375,14.795442906821648,11.160501619664634,4.521439715129573,-27.17234562955049,-16.433250343406595,1.3949154361263747,4.832853654282226,-41.103420329670335,-14.799918798649268,27.733159613023037,35.52062179890376,38.92314373858088,1577398035.999,-27.687974510909733,-51.12156028515995,10.125346
97909,1577398036.82,-0.1666597936118521,1.4711493274223508,9.000971943776198,2.92597720694193,1.1500051315679782,5.968189984726324,-0.8041889795815075,-5.1362341054032505,2.502524686487708,17.6791679568407,-7.532631478658536,1.469495819836128,5.273958531821647,2.593621975038109,-0.55694580078125,16.61123880525915,28.906473299352136,5.253861590129572,-26.98299130460589,-15.885475331959707,1.859887248168504,4.510663410663409,-21.82033424908425,-15.00231441735348,27.90088956779585,35.472698954682954,39.0669122712433,1577398035.999,-27.687974510909733,-51.12156028515995,10.125346
97910,1577398036.83,2.038399935392054,5.790289122344226,8.143847749440262,-1.90671884408346,2.537444993628525,5.392384485458746,18.61877198843607,-2.0129980397294207,5.6389288612923965,12.7048027224657,-12.568031869283535,-0.4225940239138719,10.278841344321648,-4.196539157774391,1.39617919921875,20.349642125571645,41.06772818216464,-16.505171612995426,-26.414928329772085,-17.16361702533578,1.084934228098292,4.510663410663409,-3.21384768009768,-16.419083748282965,27.852966723575044,35.52062179890376,39.35444933656812,1577398035.999,-27.687974510909733,-51.12156028515995,10.125346
97911,1577398036.84,2.086283968595179,0.2141934558403198,6.587616670338699,0.6957783605063834,1.2206340805425877,2.718061231064215,17.522227628084508,11.0210357981612,3.1010751015267712,19.9374687380907,-13.514076791158535,1.042249726086128,2.954622594321646,9.53637099847561,1.39617919921875,24.957796422446645,47.53745474466464,-9.150435284870428,-26.793636979661287,-18.259167048229543,1.3949154361263716,7.571470725042153,-0.6765995115995113,-16.62147936698718,27.70919819091263,35.616467487345375,39.1148351154641,1577398035.999,-27.687974510909733,-51.12156028515995,10.125346
97912,1577398036.85,0.3636558741127572,0.3051731189262572,9.08357190105159,2.659023721834508,-1.077799513207413,7.459777619003668,-6.505980233243617,3.851598926823312,16.60437246480802,2.9086601443407014,-6.113564095846037,-0.1326770317263719,-3.1946693978658534,-3.9676573218368905,1.38092041015625,18.823763219321645,22.34519400247714,-18.38200266768293,-27.267022792022797,-16.15936283768315,1.317420134119355,14.659656084656085,-1.8606486568986564,-41.92093170501373,27.661275346691824,35.28100757779974,39.0669122712433,1577398035.999,-27.687974510909733,-51.12156028515995,10.125346
97913,1577398036.86,-0.4731176061118521,-1.4162578747260854,12.623399055592603,-3.5371701746498667,-3.548615626488662,12.318809888290778,6.24553780874857,16.834157429020575,9.383460257776772,-14.4253242306593,2.477134146341464,0.2793102729611281,1.7644370474466462,-1.2058165015243902,1.06048583984375,-5.834439905678353,-12.399068692835366,-4.115034894245427,-27.551054279439697,-16.068067002442003,2.324859060210624,17.237178033606607,-2.0297985347985343,-59.124559294871794,27.565429658250217,35.424776110462155,39.01898942702249,1577398035.999,-27.687974510909733,-51.12156028515995,10.125346
97914,1577398036.87,-1.8282357457602896,1.9068940295707884,19.43729698039729,0.4204451695884146,-3.7880357925042873,11.037912000107184,-0.7982034754311166,-1.8334329152177016,19.908370755823647,-13.5708320431593,3.484214224466464,2.751234101086128,3.778597203696646,3.493890529725609,1.70135498046875,1.8865073599466464,-21.584859708460368,3.2091838557545733,-28.308471579218107,-18.259167048229543,-0.1549906040140398,17.237178033606607,-2.0297985347985343,-59.124559294871794,27.90088956779585,35.32893042202055,39.01898942702249,1577398035.999,-27.687974510909733,-51.12156028515995,10.125346
97915,1577398036.88,-1.1003984410727896,0.2632745898735233,10.921121675221512,3.3030639684165397,-0.8647155654535059,15.11523742735328,-5.914612423185023,5.037925849430735,9.067425638636148,-2.325104504096799,10.304892935403965,1.850965546398628,-5.224088343178353,-4.928961032774391,-1.16729736328125,-24.572232874428355,-10.384908536585366,6.871293230754573,-27.267022792022797,-17.254912860576923,1.7823919461614777,17.237178033606607,-3.382997557997557,-65.6012190934066,27.68523676880223,35.32893042202055,39.35444933656812,1577398035.999,-27.687974510909733,-51.12156028515995,10.125346
97916,1577398036.89,-2.072444315096227,4.755994005156726,15.51080625774104,-0.3433051600014292,2.065787266577744,12.863490765976325,7.631780569979038,-0.5633089345048116,7.529151071985756,-9.9697578244093,-10.645424447408535,-1.246568633288872,2.878328649009146,-3.6624815405868905,-1.56402587890625,-6.429532679115853,1.7763463462271345,9.923051043254574,-28.49782590416271,-18.07657537774725,1.859887248168504,3.060807314378742,0.5074496336996339,-64.99403223729395,27.75712103513344,35.472698954682954,39.186719381795314,1577398035.999,-27.687974510909733,-51.12156028515995,10.125346
97917,1577398036.9,0.6928586023842416,-5.057838599823742,3.66908484660823,2.450728177400914,-1.8607034560785056,-0.7248007562404714,-13.786747481778772,-7.809360258967702,5.830464994104896,0.4672538943407013,-11.377846322408535,-1.368638945788872,-3.484586390053354,-4.959478610899391,-1.59454345703125,1.4287436880716462,28.128275057164632,5.070756121379573,-28.49782590416271,-18.07657537774725,1.859887248168504,-0.8054756090470375,-35.1831746031746,-13.787940705128204,27.70919819091263,35.424776110462155,39.1148351154641,1577398035.999,-27.687974510909733,-51.12156028515995,10.125346
97918,1577398036.91,0.6377919642006478,2.8406326770317256,4.892521894948073,-0.9586149866615852,1.989172813452744,4.370060376572027,9.803321475740756,-4.0145506276200456,0.3238011757455207,22.1347343630907,1.6836771150914631,3.453138397961128,-1.7145668588033538,-22.20191025152439,2.55584716796875,6.525179234946647,36.36802115091464,1.103470965129573,-28.49782590416271,-18.07657537774725,1.859887248168504,-0.8054756090470375,-35.1831746031746,-13.787940705128204,27.61335250247102,35.52062179890376,39.1148351154641,1577398035.999,-27.687974510909733,-51.12156028515995,10.125346
97919,1577398036.92,3.276202193692836,0.1794775317680541,9.018928456227371,1.0285723912681022,1.2924601303472751,7.233525562118903,-1.8708058191811163,-8.726339494807545,7.899055228479896,-3.0270088009717995,-28.11673792397104,-3.489610625476372,0.3606284536966463,3.432855373475609,-2.72369384765625,8.936067906821647,33.22471060403964,-7.807661847370427,-27.4563771169674,-16.70713784913004,0.0774953020070199,-0.6443804872376302,-37.720422771672766,-16.823874985691393,27.733159613023037,35.52062179890376,39.35444933656812,1577398035.999,-27.687974510909733,-51.12156028515995,10.125346
97920,1577398036.93,1.0926902796303353,0.561352696562976,9.482206477467605,4.041675180574742,-1.974428034935928,6.182471033310309,0.6227552098716169,7.780483851139718,10.171152603968178,10.0497734255907,-1.4596334317835369,-0.1174182426638719,-2.6453529916158534,-2.8385069312118905,0.81634521484375,9.058138219321648,28.08249868997713,-9.455611066120424,-25.46815670504907,-16.2506586729243,0.3099812080280861,3.1413548752834464,-20.213410409035404,-16.520281557635073,27.70919819091263,35.472698954682954,39.0669122712433,1577398035.999,-27.687974510909733,-51.12156028515995,10.125346
97921,1577398036.94,0.534841292813929,-2.055509717987804,10.79422898723323,0.4803002110923209,-4.611641163598037,7.791374548935309,-8.950460128263149,-2.463107951838796,15.589230960901771,-18.9419257931593,12.090171255716465,-0.2394885551638719,-3.179410608803354,-4.593267673399391,-1.07574462890625,-0.5854164681783537,15.646585604039634,-0.4224079411204268,-25.84686535493828,-16.61584201388889,0.9299436240842456,6.927090237804523,-2.0297985347985343,-10.549610805860803,27.565429658250217,35.616467487345375,39.30652649234732,1577398035.999,-27.687974510909733,-51.12156028515995,10.125346
97922,1577398036.95,-0.5664914708579459,1.1527205066215698,14.208360554616045,-6.149244185880336,5.353026145972275,16.67625690977515,1.3278475987876333,6.594156928532297,10.913355118616614,-21.9021308712843,8.855307974466463,1.530530976086128,-4.766324671303353,-10.14746689214939,-0.98419189453125,-4.247525843178353,7.712015291539634,0.6762248713795732,-25.84686535493828,-16.61584201388889,0.9299436240842456,6.927090237804523,-2.0297985347985343,-10.549610805860803,27.75712103513344,35.32893042202055,38.82729805013928,1577398035.999,-27.687974510909733,-51.12156028515995,10.125346
97923,1577398036.96,-1.0309665929282583,2.87654570193407,12.994500312916824,3.8609129552329455,0.9860023178472752,18.73527033750953,1.7157082677329458,-4.75196473894817,12.807168631800208,-9.0389716915968,1.943076529153964,-1.612779570788872,-6.475309046303353,17.71508193597561,-3.12042236328125,-8.581021936928353,6.521829744664634,2.9345256526295733,-27.4563771169674,-17.254912860576923,0.3874765100351061,4.349568288854003,-2.0297985347985343,-10.549610805860803,27.61335250247102,35.52062179890376,39.01898942702249,1577398035.999,-27.687974510909733,-51.12156028515995,10.125346
97924,1577398036.97,-1.4954417149985708,-2.8120774425971797,10.96661150676448,1.9742820470298208,1.1859181564703218,12.361905518173591,3.1223017430747424,2.8508226328780006,10.45007709737638,-23.3364570431593,7.054770865091464,0.004652069836128,-7.543424280678352,0.7930848656631091,-1.07574462890625,-8.352140100990853,1.8831578696646345,-2.4976032536204267,-27.36169995449509,-16.61584201388889,0.9299436240842456,3.382997557997557,-22.32778388278388,-15.609501273466115,27.852966723575044,35.52062179890376,39.04295084913289,1577398035.999,-27.687974510909733,-51.12156028515995,10.125346
97925,1577398036.98,1.2507075892006478,0.2501064807426635,4.514238032643386,2.936751114412633,1.5534281113043065,11.069036621689216,0.8394304601157584,-1.558099724299733,3.769057364710365,6.967498034965701,14.409507193216465,1.927259491711128,-4.186490686928353,12.00829482660061,-3.73077392578125,-2.752164515053354,24.160989900914632,12.578080340129572,-27.17234562955049,-14.972516979548232,0.464971812042126,3.22190243618815,-40.76512057387057,-16.014292510874544,27.75712103513344,35.52062179890376,38.97106658280169,1577398035.999,-27.687974510909733,-51.12156028515995,10.125346
97926,1577398036.99,1.396753890470179,2.673038560820788,5.548533149830886,2.6853599400962267,-2.5071379043206936,-2.522846203017815,-5.758989315274866,-21.05408384295208,14.368188114222082,0.3757011599657013,-14.978920541158535,-0.1479358207888719,-0.7990395150533537,-2.3349668921493905,-2.17437744140625,-4.766324671303353,3.0123082602896343,-11.378218487995428,-27.17234562955049,-14.972516979548232,0.464971812042126,5.7994243851386695,-38.73532203907204,-12.775962611607142,27.75712103513344,35.233084733578934,39.01898942702249,1577398035.999,-27.687974510909733,-51.12156028515995,10.125346
97927,1577398037.0,-0.0433584081138052,0.3279180346977416,4.62676551067073,-2.20719115243307,1.1128950058355558,9.370350543808357,3.073220609041539,19.24272429913777,-0.9247749900259628,4.953337878715701,-0.0710836270960368,-2.284166289538872,-2.9963051400533534,-6.790533298399391,-0.69427490234375,2.313753453696646,4.141458650914633,1.3323528010670742,-27.551054279439697,-16.433250343406595,1.0849342280982883,17.31772559451131,-1.945223595848596,-10.043621759100274,27.637313924581424,35.44873753257256,39.186719381795314,1577398036.999,-27.688030811053835,-51.12148349517859,9.820285
97928,1577398037.01,0.8125686853920541,-0.8823509045112417,10.43031033488948,4.545654630037633,-0.4241824599847559,6.192047839950934,-5.622519820645961,-28.097825127131767,11.605279398401771,-11.7092597775343,-10.614906869283535,-1.643297148913872,-9.893277796303352,7.0949647484756095,-3.42559814453125,-11.541227015053352,26.571878572789632,0.4320842463795732,-26.22557400482748,-16.61584201388889,1.5499060401404114,5.960519506948078,-0.6765995115995113,-9.740028331043955,27.852966723575044,35.32893042202055,39.1148351154641,1577398036.999,-27.688030811053835,-51.12148349517859,9.820285
97929,1577398037.02,0.0919139856850218,0.2477122790825073,10.78225797893245,0.1522945836509146,-2.8159899184808497,8.375559754013434,-4.861163692716273,-4.179750542170827,11.973986454065834,-4.324005871284299,14.409507193216465,0.7370739448361281,-6.811002405678353,-4.501714939024391,1.67083740234375,-2.233365686928354,2.0052281821646343,-16.840864972370426,-28.308471579218107,-15.702883661477411,0.7749530200702057,5.960519506948078,-0.6765995115995113,-9.740028331043955,27.61335250247102,35.52062179890376,39.16275795968491,1577398036.999,-27.688030811053835,-51.12148349517859,9.820285
97930,1577398037.03,-1.2512331456626336,-1.89270400509718,12.445031031910965,-2.1198027918373663,-0.6851504409417872,11.732230481552495,4.232014212557164,20.9593668894698,10.389024955042396,-17.8280341915968,5.315268911966464,-0.3157825004763719,-1.6840492806783538,-12.46680282964939,-1.01470947265625,3.107210484946646,3.0123082602896343,5.589554949504573,-28.308471579218107,-16.2506586729243,0.9299436240842488,17.55936827722542,-0.6765995115995113,-10.549610805860803,27.70919819091263,35.616467487345375,39.01898942702249,1577398036.999,-27.688030811053835,-51.12148349517859,9.820285
97931,1577398037.04,-1.399673648592321,6.752758189727039,16.652840449635573,0.0900453404868521,0.5203300949468846,15.48514158384742,1.2236998265708363,-1.4766968678544206,9.487608029993568,-5.331085949409299,9.953940786966465,-1.032945586413872,-2.5843178353658534,0.5489442406631095,-2.17437744140625,-3.850797327553354,21.15500845560213,-2.2229450504954267,-27.7404086043843,-17.34620869581807,1.859887248168504,11.75994389208675,-0.6765995115995113,-10.14481956845238,27.75712103513344,35.472698954682954,39.0908736933537,1577398036.999,-27.688030811053835,-51.12148349517859,9.820285
97932,1577398037.05,0.5300528894936165,-4.224656422089367,7.241233723561355,2.726061368318883,0.5095561874761805,5.533642383407965,1.5792387731040396,-7.656131352717702,13.84625215230802,-3.8662421994092986,10.106528677591465,-1.032945586413872,-6.200650843178353,10.60448623285061,-3.15093994140625,-0.8905922494283537,14.486917635289634,-10.096480206745428,-28.119117254273505,-17.34620869581807,0.6199624160561659,5.638329263329263,2.3680982905982906,-65.6012190934066,27.70919819091263,35.424776110462155,39.21068080390571,1577398036.999,-27.688030811053835,-51.12148349517859,9.820285
97933,1577398037.06,2.694411190274866,-0.2838004894721792,5.4503708817644805,4.634240091463414,0.3635098862066492,4.202466260361089,4.88563126577982,9.766474128239327,10.338746720179117,-9.5425117306593,-12.995277963033535,-4.359361602038872,-8.184293421303353,3.036126857850609,-1.50299072265625,-1.0126625619283538,5.209573885289634,-13.514448956745428,-27.17234562955049,-16.798433684371187,1.3949154361263716,3.22190243618815,0.8457493894993894,-62.16049357543498,27.565429658250217,35.616467487345375,38.97106658280169,1577398036.999,-27.688030811053835,-51.12148349517859,9.820285
97934,1577398037.07,1.035229439786585,1.1156103808891482,7.86372615520198,-2.304156319669397,4.397739683569931,6.970163379501715,4.287080850740758,-6.660143462092703,1.791446793421302,3.198577136528201,1.2716898104039636,-1.597520781726372,-5.987027796303353,-9.23193954839939,1.18255615234375,1.1235679068216462,4.965433260289634,-2.6501911442454267,-27.36169995449509,-17.34620869581807,0.6199624160561659,3.060807314378742,0.6765995115995117,-62.36288919413919,27.58939108036062,35.233084733578934,39.01898942702249,1577398036.999,-27.688030811053835,-51.12148349517859,9.820285
97935,1577398037.08,1.83010439095846,-2.725886182831554,7.97864783488948,0.9435782323325552,-0.0315333877191309,2.88086694395484,0.2277119359458362,5.428180720036202,4.738709037073646,-9.2678535275343,-11.530434213033535,-4.206773711413872,-5.086759241615853,2.975091701600609,-2.89154052734375,-5.0715004525533525,7.574686189977134,-1.719405011432927,-26.98299130460589,-16.61584201388889,1.5499060401404114,3.382997557997557,-2.706398046398046,-55.076646920787546,27.565429658250217,35.47269895468296,39.04295084913289,1577398036.999,-27.688030811053835,-51.12148349517859,9.820285
97936,1577398037.09,-1.354183817049352,-0.2430990612495229,9.822183113209793,-1.741518929532679,1.0721935776129,14.121643738388434,-7.140443673185023,-1.967508208186452,10.980392765100987,3.5495292849657014,16.759360708841463,-0.3615588676638719,-5.224088343178353,-11.94800400152439,2.67791748046875,-2.874234827553354,13.846048494664634,2.5072795588795733,-27.7404086043843,-16.2506586729243,0.9299436240842456,-0.1610951218094077,-3.382997557997557,-16.216688129578753,27.565429658250217,35.28100757779974,39.01898942702249,1577398036.999,-27.688030811053835,-51.12148349517859,9.820285
97937,1577398037.1,-0.4060799596274771,0.1926456408989135,10.195678572194169,1.8378125524009143,-1.8271846328363184,11.861517371200934,-0.257113900235804,0.7092092478682356,11.851882169397864,-18.6367500119093,13.066733755716465,-1.002428008288872,-6.566861780678353,9.38378310785061,-5.16510009765625,-5.529264124428353,15.341409822789634,1.652787371379573,-28.49782590416271,-16.2506586729243,2.169868456196584,1.772046339903483,-2.706398046398046,-15.407105654761905,27.75712103513344,35.52062179890376,39.16275795968491,1577398036.999,-27.688030811053835,-51.12148349517859,9.820285
97938,1577398037.11,-0.8202768468345084,-1.728701191376476,9.782678785817216,-1.494916158536585,-2.0306917739495995,10.966085950302498,0.1235641637290396,-12.23623912859661,12.45522098775724,-11.2057197384718,5.025351919778964,-0.6819934379763719,-5.529264124428353,9.90258193597561,-1.74713134765625,-5.040982874428353,6.827005525914634,0.6151897151295732,-28.49782590416271,-16.2506586729243,2.169868456196584,2.5775219489505203,-3.382997557997557,-14.597523179945052,27.733159613023037,35.47269895468296,39.16275795968491,1577398036.999,-27.688030811053835,-51.12148349517859,9.820285
97939,1577398037.12,0.5611775110756478,1.7488767200004758,12.960981489674635,-2.0826926661049447,1.6910947067632902,13.202270300888436,2.8745018712485706,8.78126014508503,15.676619321497476,-8.8406074337843,-5.213295541158536,-2.986070586413872,-3.2862221322408534,0.2285096703506095,-1.42669677734375,-8.901456507240853,-20.058980802210368,-2.7417438786204267,-26.98299130460589,-15.520291990995116,0.9299436240842456,4.752306093377522,0.084574938949939,-16.115490320226648,27.565429658250217,35.40081468835175,39.23464222601611,1577398036.999,-27.688030811053835,-51.12148349517859,9.820285
97940,1577398037.13,-0.1882076085532584,0.9683669787895384,13.006471321217605,5.783456888338414,0.5813822372808679,12.239801233505622,-4.023193111661586,-13.780499199397392,6.994047000940833,-8.1081855587843,-7.532631478658536,-2.040025664538872,-10.808805140053352,7.7663514672256095,-2.41851806640625,-19.353727015053355,-18.960347989710368,-8.112837628620428,-25.84686535493828,-16.981025354853482,1.2399248321123315,6.927090237804523,0.6765995115995117,-15.81189689217033,27.70919819091263,35.52062179890376,39.1148351154641,1577398036.999,-27.688030811053835,-51.12148349517859,9.820285
97941,1577398037.14,1.3728118738686166,3.642690233184069,6.477483393971512,3.6238869908774767,0.8519270248785252,15.112843225693124,-2.2802143030678352,13.78633871564167,9.445709500940833,12.1860038943407,5.040610708841464,-1.551744414538872,-10.320523890053352,-9.68970322027439,0.20599365234375,2.740999547446646,0.3572789634146341,12.852738543254572,-26.03621967988288,-17.16361702533578,1.084934228098292,6.927090237804523,-2.0297985347985343,-16.216688129578753,27.61335250247102,35.28100757779974,38.92314373858088,1577398036.999,-27.688030811053835,-51.12148349517859,9.820285
97942,1577398037.15,-0.0445555089438834,-1.9992459789741324,6.151871968190261,-0.7275745264565073,-0.7318373733148342,8.306127905868903,3.580791360994665,3.2147412852217503,6.754626834925209,-7.5283515744092995,3.041709341653964,0.019910858898628,-4.430631311928353,6.4083192406631095,-0.08392333984375,-6.093839319740853,-5.608907560022866,1.271317644817073,-26.03621967988288,-17.16361702533578,1.084934228098292,6.927090237804523,-2.36809829059829,-15.81189689217033,27.61335250247102,35.52062179890376,39.16275795968491,1577398036.999,-27.688030811053835,-51.12148349517859,9.820285
97943,1577398037.16,1.8157391809975227,-0.444212000702648,8.067233296315262,4.016536063143102,-1.1735675796136622,6.046001538681403,-17.002160311368616,-12.004001567561454,9.98440487447599,0.0094902224657013,-13.422524056783535,-1.093980742663872,-1.9892250619283536,-5.447759860899391,-1.10626220703125,-9.862760218178352,8.078226229039634,9.648392840129572,-26.793636979661287,-15.702883661477411,1.084934228098292,1.772046339903483,-40.934270451770445,-15.81189689217033,27.70919819091263,35.52062179890376,38.97106658280169,1577398036.999,-27.688030811053835,-51.12148349517859,9.820285
97944,1577398037.17,0.8939715418373665,3.642690233184069,9.91316277629573,-2.620190938810023,3.157543223608993,10.86313527891578,9.810504080721229,-7.493325639827077,11.411349063929114,11.6061699099657,-7.044350228658536,-0.910875273913872,-8.672574671303353,-3.5861875952743905,1.60980224609375,-3.423551233803354,16.531595369664632,-2.4670856754954267,-27.7404086043843,-15.520291990995116,0.3099812080280861,4.349568288854003,-3.382997557997557,-12.168775755494504,27.565429658250217,35.52062179890376,39.1148351154641,1577398036.999,-27.688030811053835,-51.12148349517859,9.820285
97945,1577398037.18,0.1086733973061161,-1.503646235321789,9.955061305348464,-3.568294796231898,-1.4177761489495997,10.30049788877906,2.9990003575766955,7.705066498844797,14.34424609762052,-6.7654121212843,4.201377310403964,0.8438854682736281,5.243440953696647,-0.1682188452743902,-1.28936767578125,0.9099448599466464,-8.340230802210366,-5.244185284870427,-27.36169995449509,-16.61584201388889,1.3949154361263747,6.282709750566893,-3.0446978021978017,-10.14481956845238,27.685236768802227,35.52062179890376,38.77937520591847,1577398036.999,-27.688030811053835,-51.12148349517859,9.820285
97946,1577398037.19,-1.2464447423423208,2.4623488147270383,12.788598970143386,1.37453453116068,-0.1668057815179596,11.945314429306404,-0.8161599878822884,3.8204743052412815,6.812087674768959,0.8029472537157013,2.568686880716464,0.2487926948361281,-3.5151039681783534,-0.0461485327743906,-0.37384033203125,6.738802281821646,-1.5653284584603655,-0.3461139958079269,-26.98299130460589,-16.981025354853482,1.859887248168504,7.571470725042153,-3.382997557997557,-10.95440204326923,27.852966723575044,35.56854464312457,39.01898942702249,1577398036.999,-27.688030811053835,-51.12148349517859,9.820285
97947,1577398037.2,-1.3398186070884146,-0.9924841808784292,13.13096980754573,-4.214729244474086,-3.919716883812881,14.222200208114996,6.030059659334508,2.504860492985423,4.88954374166349,-15.8596504025343,5.956138052591464,-0.1174182426638719,4.083772984946647,3.9821717797256095,-0.89263916015625,-1.2873207650533538,4.599222322789634,1.500199480754573,-26.604282654716684,-16.61584201388889,1.2399248321123315,17.237178033606607,-0.6765995115995113,-15.407105654761905,27.70919819091263,35.52062179890376,39.16275795968491,1577398036.999,-27.688030811053835,-51.12148349517859,9.820285
97948,1577398037.21,1.348869857267054,-3.1520540783393667,6.807883223073074,1.2153201207602895,3.559769102515244,9.905454614853278,1.1482824742759146,11.202995124333077,18.53649320455412,-5.605744152534299,5.406821646341464,0.950696991711128,-6.139615686928353,4.1042420922256095,4.20379638671875,5.060335484946647,-10.323873380335366,-3.5352009098704267,-26.03621967988288,-17.16361702533578,1.3949154361263716,17.237178033606607,0.6765995115995117,-8.930445856227106,27.90088956779585,35.28100757779974,39.1148351154641,1577398036.999,-27.688030811053835,-51.12148349517859,9.820285
97949,1577398037.22,-0.079271433016149,0.6834569812309451,8.915977784840653,3.702895645662633,-0.2015217055902247,11.528723340439216,-8.919335506681117,-11.898656694514578,14.89970088277677,5.9756767459032005,-4.465614877096036,-0.3310412895388719,-5.895475061928353,12.13036513910061,-2.84576416015625,-13.982633265053352,-24.606099942835368,0.7372600276295732,-28.024440091801203,-16.889729519612334,1.7823919461614777,11.437753648467934,-3.382997557997557,-13.787940705128204,27.733159613023037,35.616467487345375,39.1148351154641,1577398036.999,-27.688030811053835,-51.12148349517859,9.820285
97950,1577398037.23,-0.7891522252524771,1.7632419299614133,9.6138875687762,-1.6960290979897106,-0.5582577529535062,9.946156043075934,0.0732859288657581,2.6928053233076867,11.651966330774815,1.5048515505907014,4.094565786966464,1.225355194836128,0.0096763052591466,-0.3665831030868907,1.18255615234375,-13.479093225990852,-45.32753548971037,0.6151897151295732,-27.36169995449509,-16.981025354853482,0.6199624160561659,9.90734999127856,-3.2984226190476185,-61.85690014737865,27.61335250247102,35.52062179890376,39.01898942702249,1577398036.999,-27.688030811053835,-51.12148349517859,9.820285
97951,1577398037.24,-0.9160449132407584,0.1375790027153197,11.708814021412918,-2.0743129602943977,-5.610023255883193,15.524645911239997,-4.755818819669398,1.5016899973799542,10.01552949605802,-10.3359687619093,-2.5582662442835367,-0.6972522270388719,4.083772984946647,4.4704530297256095,-0.09918212890625,-21.428922327553355,-58.81630502096037,8.702347918254572,-27.36169995449509,-16.981025354853482,0.6199624160561659,9.987897552183266,-3.21384768009768,-61.75570233802655,27.565429658250217,35.47269895468296,39.01898942702249,1577398036.999,-27.688030811053835,-51.12148349517859,9.820285
97952,1577398037.25,-0.8107000401938834,-3.944534827851085,6.953929524342605,-0.2930269251381478,-4.6020643569574124,8.86397689268531,2.793099014803258,-1.7161170338700455,12.424096366175208,-2.3708808712842986,14.256919302591465,2.171400116711128,5.182405797446647,-9.35400986089939,-1.65557861328125,-13.707975061928352,-59.76234994283536,7.145951433879573,-27.551054279439697,-17.16361702533578,1.3949154361263716,9.987897552183266,-3.21384768009768,-61.75570233802655,27.517506814029414,35.47269895468296,39.21068080390571,1577398036.999,-27.688030811053835,-51.12148349517859,9.820285
97953,1577398037.26,-1.2368679357016958,1.4017174792778195,10.126246724049636,0.9208333165610708,3.352670658911729,14.634002893661872,-1.277043807462367,4.7123144236494845,-0.3082680625357282,-2.8896796994092986,-5.548988900533536,0.5844860542111281,-3.896573694740853,5.4164979516006095,0.78582763671875,-5.4987465463033525,1.7763463462271325,10.960648699504572,-28.49782590416271,-17.711392036782662,1.5499060401404114,6.604899994185708,-3.382997557997557,-63.57726290636447,27.70919819091263,35.52062179890376,39.1148351154641,1577398036.999,-27.688030811053835,-51.12148349517859,9.820285
97954,1577398037.27,0.3301370508705697,-0.3233048168647579,10.245956807057448,2.4435455724204456,-1.2334226211175685,3.204084168075933,8.788179971834507,-10.883515190608328,6.948557169397865,-2.3861396603467995,-5.274330697408536,-0.1326770317263719,5.365511266196647,1.5102479516006098,-1.28936767578125,6.372591344321647,30.020364900914632,-3.5352009098704267,-28.119117254273505,-16.615842013888887,0.9299436240842488,2.4164268271411125,3.382997557997557,-66.41080156822345,27.68523676880223,35.424776110462155,39.1148351154641,1577398036.999,-27.688030811053835,-51.12148349517859,9.820285
97955,1577398037.28,0.0368473475014281,2.9914673816215696,8.143847749440262,0.0086424840415396,6.633924034155869,10.106567554306404,-1.942631868985804,-1.3641693898270768,2.5839275429330213,9.6225273318407,-2.1920553067835367,1.194837616711128,-6.780484827553353,-13.93164657964939,6.09588623046875,13.208528844321648,33.74350943216464,-6.281782941120427,-28.119117254273505,-15.520291990995116,1.2399248321123315,-2.738617070759928,-3.382997557997557,-14.597523179945052,27.75712103513344,35.28100757779974,39.01898942702249,1577398036.999,-27.688030811053835,-51.12148349517859,9.820285
97956,1577398037.29,0.755107845548304,0.8941467273246947,6.671413728444168,-2.6058257288490854,0.6819387070074314,16.159109351181403,-6.108542757657679,-1.3210737599442643,9.699494876917395,4.953337878715701,-1.2154928067835369,-0.7888049614138719,1.9475425161966464,5.5690858422256095,-3.45611572265625,4.022737828696647,22.787698885289632,-1.093794659870427,-28.49782590416271,-15.520291990995116,1.859887248168504,1.772046339903483,-3.382997557997557,-17.026270604395606,27.61335250247102,35.32893042202055,38.97106658280169,1577398036.999,-27.688030811053835,-51.12148349517859,9.820285
97957,1577398037.3,1.5092813684975228,-2.5319558483588978,6.6522601151629175,0.4587523961509146,-1.3136283767328027,5.892772632431402,-1.184867043546351,1.6716783152510477,17.194543174036536,0.9250175662157012,-13.849770150533535,-1.155015898913872,-1.5314613900533538,3.280267482850609,3.04412841796875,1.3066733755716462,-10.094991544397866,-2.360274152057928,-29.06588887899652,-17.16361702533578,1.7048966441544513,5.638329263329263,-2.3680982905982906,-16.014292510874544,27.61335250247102,35.52062179890376,39.21068080390571,1577398036.999,-27.688030811053835,-51.12148349517859,9.820285
97958,1577398037.31,-2.115539944979039,0.2764426990043827,12.2570862015887,2.1251167516196645,-3.641989491234756,11.638856616806404,-11.083693807462366,-5.314602129084889,18.069623880823645,0.3451835818407014,15.416587271341465,2.491834687023628,-1.1957680306783538,12.49657607660061,-2.72369384765625,-24.328092249428355,-27.230611661585368,-0.3613727848704268,-27.929762929328906,-16.2506586729243,0.7749530200702057,7.893660968660968,-0.6765995115995113,-12.978358230311354,27.80504387935424,35.28100757779974,39.21068080390571,1577398036.999,-27.688030811053835,-51.12148349517859,9.820285
97959,1577398037.32,0.1278270105873656,-3.1041700451362417,4.803936433522292,-1.291409017423304,-3.306801258812881,10.58780208799781,3.504176907869664,-4.742387932307546,10.803221842249426,-6.918000011909299,-4.725014291158536,2.018812226086128,2.924105016196646,1.5407655297256098,0.38909912109375,-13.616422327553352,-38.40004525533536,-5.915572003620427,-28.119117254273505,-15.155108650030527,0.9299436240842456,7.893660968660968,-0.6765995115995113,-12.978358230311354,27.70919819091263,35.616467487345375,39.16275795968491,1577398036.999,-27.688030811053835,-51.12148349517859,9.820285
97960,1577398037.33,-1.689372049471227,3.5564989734184445,14.0958330765887,-1.3249278406654914,4.017061619605087,7.884748413681402,11.479262637850134,28.309565986149487,-3.116666609899009,-1.3638007931592986,-10.187660775533535,1.408460663586128,2.588411656821646,-3.1894590796493905,0.60272216796875,6.006380406821647,-19.021383145960368,25.02925221512957,-28.119117254273505,-16.981025354853482,1.2399248321123315,7.893660968660968,-3.382997557997557,-11.359193280677657,27.61335250247102,35.32893042202055,39.16275795968491,1577398036.999,-27.688030811053835,-51.12148349517859,9.820285
97961,1577398037.34,0.783838265470179,0.9252713489067258,8.556847535817214,1.0142071813071647,1.926923570288681,1.7268617437595275,-13.645489583829551,-2.585212236506764,-3.980973409215416,9.3783867068407,-8.631264291158535,0.233533905773628,-5.987027796303353,6.4540956078506095,-1.65557861328125,-6.658414515053353,23.184427400914632,27.01289479325457,-27.07766846707819,-16.889729519612334,1.1624295301053118,3.060807314378742,-2.0297985347985343,-16.216688129578753,27.54146823613982,35.47269895468296,38.92314373858088,1577398036.999,-27.688030811053835,-51.12148349517859,9.820285
97962,1577398037.35,2.2035998499428358,2.859786290312976,10.413550923268389,2.2496152379477894,2.369850877417588,6.363233258652106,5.150190549227086,-6.9941345936845,7.975669681604896,4.678679675590701,-3.3212056974085367,-0.6056994926638719,0.9252036490091462,-1.388921970274391,0.26702880859375,3.824373570884146,25.18332876810213,-11.240889386432928,-27.929762929328906,-15.337700320512822,1.7048966441544513,3.785735362521076,-1.945223595848596,-16.520281557635073,27.70919819091263,35.49666037679336,39.16275795968491,1577398036.999,-27.688030811053835,-51.12148349517859,9.820285
97963,1577398037.36,3.826868575528773,-4.320424488495616,4.43522937785823,2.505794815584508,-0.8695039687738184,8.279791687607183,-3.2450775721108043,-2.4798673634598893,17.801473294886147,-4.171417980659299,-4.053627572408536,-0.3920764457888719,-3.881314905678354,8.07152724847561,3.47137451171875,8.722444859946647,12.289652010289634,0.1574260432545732,-27.929762929328906,-15.337700320512822,1.7048966441544513,4.349568288854003,-2.0297985347985343,-16.216688129578753,27.70919819091263,35.52062179890376,39.1148351154641,1577398036.999,-27.688030811053835,-51.12148349517859,9.820285
97964,1577398037.37,-4.045266483064976,0.5469874866020386,10.74395075236995,-3.922636641935023,-3.943658900414444,7.609415222763434,-7.11650165658346,-3.497403069026296,12.381000736292396,16.1838066287157,12.029136099466465,3.270032929211128,5.762239781821647,-3.2199766577743905,0.93841552734375,7.349153844321647,1.120218416539634,-9.211470441120428,-27.929762929328906,-15.337700320512822,1.7048966441544513,5.7994243851386695,-1.8606486568986569,-16.014292510874544,27.61335250247102,35.32893042202055,39.21068080390571,1577398036.999,-27.688030811053835,-51.12148349517859,9.820285
97965,1577398037.38,-0.6478943273032584,0.8187293750297733,12.059564564625807,-0.5994847376381478,1.5438513046636817,12.42654896299781,-6.151638387540491,-2.8366034108231704,10.56619587789396,-10.7021796994093,7.726157583841465,1.423719452648628,-5.620816858803353,-4.257574314024391,2.79998779296875,-2.416471155678354,-10.079732755335366,-5.061079816120427,-27.17234562955049,-15.520291990995116,1.2399248321123315,8.215851212279782,-3.382997557997557,-10.549610805860803,27.70919819091263,35.76023602000779,39.01898942702249,1577398036.999,-27.688030811053835,-51.12148349517859,9.820285
97966,1577398037.39,-0.7699986119712271,-0.3221077160346792,10.731979744069168,-0.9945280115639292,0.4425185409918054,14.575344952988043,2.580015067049352,10.898931513493237,13.280023459681068,-9.9392402462843,8.122886099466463,1.347425507336128,0.2080405630716463,1.2050721703506095,0.78582763671875,-0.1429115853658538,-8.141866544397866,8.656571551067072,-27.929762929328906,-17.16361702533578,0.464971812042126,11.35720608756323,0.2537248168498168,-14.293929751888736,27.852966723575044,35.544583221014165,39.23464222601611,1577398036.999,-27.688030811053835,-51.12148349517859,9.820285
97967,1577398037.4,1.5092813684975228,3.005832591582507,10.241168403737136,1.210531717439977,-0.4002404433831935,11.272543762802496,-4.851586886075648,-10.12215906267864,18.799855387171306,16.0007011599657,2.568686880716464,0.4929333198361281,-3.148893030678354,3.432855373475609,-0.09918212890625,-7.421353968178353,-18.716207364710368,1.591752215129573,-28.49782590416271,-16.981025354853482,1.5499060401404114,17.720463399034827,1.1840491452991448,-16.823874985691393,27.565429658250217,35.32893042202055,38.82729805013928,1577398036.999,-27.688030811053835,-51.12148349517859,9.820285
97968,1577398037.41,-1.880908182283727,-1.6748316540229604,10.248351008717606,-0.6617339808022102,-1.039492286644912,9.962915454697027,-0.0655777674233031,-1.491062077815358,14.226930216272864,-4.598664074409299,-5.793129525533536,-0.2700061332888719,2.344271031821646,-4.745855564024391,-0.34332275390625,-1.3483559213033538,-38.52211556783536,-12.080122784870428,-28.49782590416271,-16.981025354853482,1.5499060401404114,17.237178033606607,0.6765995115995117,-17.026270604395606,27.852966723575044,35.233084733578934,39.1148351154641,1577398036.999,-27.688030811053835,-51.12148349517859,9.820285
97969,1577398037.42,0.5994847376381478,-1.3180956066596796,6.410445747487136,3.2839103551352893,1.0434631576910247,8.969321765732184,-0.4522413355385384,1.6010493662764376,13.634365305384192,8.5086357302782,4.079306997903964,1.286390351086128,-3.255704554115854,4.7603700219131095,0.90789794921875,-14.089444788490852,-62.32582650533537,11.128495379192072,-28.687180229107312,-16.98102535485348,0.9299436240842488,7.813113407756264,-3.2984226190476185,-64.89283442794185,27.876928145685447,35.56854464312457,38.995028004912086,1577398036.999,-27.688030811053835,-51.12148349517859,9.820285
97970,1577398037.43,-0.1906018102134146,-0.2407048595893667,9.901191767994948,0.3270713048423209,0.3635098862066492,9.883906799911871,-0.429496419767054,-3.3274147511552017,-0.1478565513052595,4.098845691215701,-6.128822884908536,0.6455212104611281,-0.7380043588033537,-5.508795017149391,2.31170654296875,-18.865445765053355,-42.39784798971037,8.885453387004572,-27.929762929328906,-17.528800366300366,1.084934228098292,2.4164268271411125,-3.382997557997557,-65.6012190934066,27.94881241201665,35.424776110462155,39.21068080390571,1577398036.999,-27.688030811053835,-51.12148349517859,9.820285
97971,1577398037.44,-0.5736740758384147,0.9970973987114136,11.876408137623857,-4.150085799649867,-1.046674891625381,13.240577527450936,5.943868399568883,6.991594404118235,13.685840641077553,-1.9436347775342984,-2.5277486661585367,0.4013805854611281,3.015657750571646,-4.196539157774391,2.49481201171875,-4.979947718178353,-32.815328458460364,9.282181902629572,-26.604282654716684,-17.34620869581807,0.6199624160561659,2.0942365835222976,-1.353199023199023,-65.6012190934066,27.90088956779585,35.47269895468296,39.1148351154641,1577398036.999,-27.688030811053835,-51.12148349517859,9.820285
97972,1577398037.45,-1.7911256200278678,-0.5435713695991323,12.386373091237136,-1.9857274988686164,-0.0626580093011622,10.743425195907966,-6.290502083829554,-3.741611638362233,16.499027591761145,2.771331042778201,-0.2999654630335362,1.286390351086128,1.2456382193216462,-0.5649473608993902,-1.19781494140625,-8.062223108803353,-34.707418302210364,-5.274702862995427,-26.98299130460589,-16.98102535485348,0.7749530200702057,4.6717585324728175,2.706398046398046,-60.743724244505486,27.757121035133437,35.28100757779974,39.21068080390571,1577398036.999,-27.688030811053835,-51.12148349517859,9.820285
97973,1577398037.46,-0.5976160924399772,-0.1545135998237417,14.395108284108227,-1.1238149012123666,-1.550654341088272,14.317968274521249,3.2886987584556016,2.887932758610422,9.991587479456458,-6.979035168159299,-6.342445931783536,1.316907929211128,-0.4786049447408537,-5.905523532774391,2.31170654296875,-7.0551430306783525,-32.113424161585364,-1.1700886051829276,-27.551054279439697,-16.798433684371187,1.084934228098292,4.51066341066341,-0.3382997557997553,-62.36288919413919,27.75712103513344,35.32893042202055,39.1148351154641,1577398036.999,-27.688030811053835,-51.12148349517859,9.820285
97974,1577398037.47,-2.716484561678258,0.0202631213676635,14.244273579518389,-3.491680343106898,-1.4034109389886622,11.34676401426734,1.2368679357016958,-6.212427751643483,3.9725645058236463,-4.171417980659299,3.118003286966464,3.483655976086128,10.767122594321648,-9.41504501714939,-0.25177001953125,-6.383756311928353,-8.706441739710366,14.012406512004572,-28.87653455405192,-16.2506586729243,1.2399248321123315,4.349568288854003,2.0297985347985352,-62.36288919413919,27.90088956779585,35.28100757779974,39.1148351154641,1577398036.999,-27.688030811053835,-51.12148349517859,9.820285
97975,1577398037.48,-0.8992855016196646,-0.2383106579292104,6.6905673417254174,-0.1589516321693978,-1.5853702651605373,8.05234252989234,3.7962695104087274,15.538894330876044,-0.8685112510122908,3.610564441215701,2.568686880716464,1.408460663586128,3.900667516196646,2.791986232850609,1.42669677734375,3.778597203696646,14.364847322789634,8.763383074504572,-27.7404086043843,-17.34620869581807,0.9299436240842456,4.349568288854003,-3.382997557997557,-67.22038404304028,27.70919819091263,35.52062179890376,39.1148351154641,1577398036.999,-27.688030811053835,-51.12148349517859,9.820285
97976,1577398037.49,-0.5090306310141959,0.6415584521782108,8.953087910573075,4.054843289705602,-0.2948955703363185,6.680464978622809,1.710919864412633,2.437822846501048,4.836871305140052,6.4486992068407005,-12.812172494283535,1.255872772961128,1.6423667349466462,-3.7387754858993913,-1.65557861328125,5.518099156821647,26.938089510289632,13.981888933879572,-27.929762929328906,-16.2506586729243,1.7048966441544544,4.349568288854003,-3.0446978021978017,-16.62147936698718,27.829005301464647,35.47269895468296,39.21068080390571,1577398036.999,-27.688030811053835,-51.12148349517859,9.820285
97977,1577398037.5,2.6058257288490854,0.6307845447075072,10.013719246022292,-2.093466573575648,-0.1093449416742091,9.206347730087654,1.0285723912681015,-11.051109306819264,14.560921347864662,3.3053886599657014,-19.007240853658537,-1.490709258288872,5.731722203696647,-11.24609970464939,1.41143798828125,1.2914145865091462,21.94846548685213,-9.074141339557928,-27.36169995449509,-16.61584201388889,-0.3099812080280861,7.249280481423338,0.507449633699634,-17.026270604395606,27.61335250247102,35.47269895468296,39.01898942702249,1577398036.999,-27.688030811053835,-51.12148349517859,9.820285
97978,1577398037.51,0.486957259610804,1.001885802031726,10.403974116627762,-0.8580585169350228,-1.4560833755120997,9.83362856504859,-9.03186298470846,11.064131428044014,10.707453775843176,15.5429374880907,-4.511391244283536,3.788831757336128,10.431429234946648,0.3505799828506097,-0.34332275390625,5.640169469321647,-8.431783536585366,-10.065962628620428,-26.98299130460589,-16.981025354853482,1.5499060401404114,6.927090237804523,-3.382997557997557,-17.026270604395606,27.75712103513344,35.52062179890376,39.01898942702249,1577398036.999,-27.688030811053835,-51.12148349517859,9.820285
97979,1577398037.52,1.5068871668373665,0.877387315703601,10.210043782155106,2.7045135533774767,-2.583752357445693,12.723429968857184,0.7795754186118521,1.9470115061690167,15.14869785543302,-2.9507148556592986,-3.7179342130335367,-0.1174182426638719,4.663606969321647,-6.454839939024391,2.25067138671875,2.588411656821646,-7.272115567835366,0.5541545588795732,-27.17234562955049,-15.337700320512822,1.3949154361263716,7.571470725042153,-3.382997557997557,-15.407105654761905,27.852966723575044,35.13723904513733,38.92314373858088,1577398036.999,-27.688030811053835,-51.12148349517859,9.820285
97980,1577398037.53,-2.0353341893638053,-3.083819331024914,10.109487312428543,2.754791788240758,-5.52862039943788,18.32346765196265,0.5018480260337271,-2.4463485402177017,13.230942325647865,-4.0188300900343,20.207847036966463,3.010633515148628,9.363314000571648,-6.607427829649391,-1.77764892578125,-4.827359827553353,-22.683492520960368,-1.337935284870427,-27.551054279439697,-16.2506586729243,1.3949154361263716,2.4164268271411125,-2.3680982905982906,-68.02996651785715,27.637313924581424,35.52062179890376,38.97106658280169,1577398036.999,-27.688030811053835,-51.12148349517859,9.820285
97981,1577398037.54,-0.5545204625571646,-2.263805262421398,9.307429756276198,-2.687228585294398,-0.7294431716546779,9.577448987411872,7.464186453768103,11.425655878727609,4.518442484339271,-5.270050793159299,3.087485708841464,2.293470429211128,6.906648961509147,2.135858303163109,1.06048583984375,0.9557212271341466,-0.8329065834603657,16.423295183879574,-28.119117254273505,-16.61584201388889,1.5499060401404114,0.8054756090470376,-40.76512057387057,-16.216688129578756,27.852966723575044,35.52062179890376,39.0908736933537,1577398036.999,-27.688030811053835,-51.12148349517859,9.820285
97982,1577398037.55,-0.0661033238852896,5.833384752227039,12.721561323659012,0.9615347447837272,2.875027427710556,6.584696912216558,-1.6481450647865852,-25.23435994158489,19.558817313440837,9.4699394412157,-5.610024056783536,1.316907929211128,6.555696813071647,-3.4335997046493905,-1.22833251953125,7.684847203696647,4.721292635289634,-1.337935284870427,-27.36169995449509,-17.711392036782662,1.2399248321123315,7.571470725042153,-3.0446978021978017,-16.216688129578753,27.565429658250217,35.52062179890376,39.1148351154641,1577398036.999,-27.688030811053835,-51.12148349517859,9.820285
97983,1577398037.56,0.170922640470179,3.376933848906725,5.998643061940261,0.971111551424352,2.142401719702744,9.591814197372807,0.4300219762290396,23.011197712223705,7.585414810999428,29.7641288943407,-11.957680306783535,-0.6972522270388719,6.128450719321647,5.0197694359756095,-0.16021728515625,10.034700719321648,2.5850621665396343,-8.723189191120428,-26.414928329772085,-16.068067002442003,1.3949154361263716,6.927090237804523,-2.0297985347985343,-17.026270604395606,27.565429658250217,35.32893042202055,39.21068080390571,1577398036.999,-27.688030811053835,-51.12148349517859,9.820285
97984,1577398037.57,-0.3725611363852901,-0.8404523754585079,10.844507222096512,-5.336412722257289,-4.165122553978897,7.827287573837652,-4.401476973966273,-26.599054887873955,16.289534946497472,5.853606433403201,-2.9549947599085367,1.820447968273628,9.439607945884148,-11.85645126714939,2.66265869140625,-0.9668861947408538,3.4700719321646343,-5.091597394245425,-26.414928329772085,-16.068067002442003,1.3949154361263716,7.249280481423338,-2.706398046398045,-17.026270604395606,27.733159613023037,35.49666037679336,39.0669122712433,1577398036.999,-27.688030811053835,-51.12148349517859,9.820285
97985,1577398037.58,-0.6431059239829459,-0.2502816662299917,12.654523677174636,0.9447753331626334,4.129589097632431,17.377757996200934,-4.432601595548304,31.43160495099324,20.095118485315837,-3.3169257931592986,-5.243813119283536,-0.6972522270388719,0.6963218130716463,5.0197694359756095,0.48065185546875,1.9170249380716464,-19.357076505335368,-9.241988019245428,-27.551054279439697,-16.798433684371187,0.464971812042126,7.571470725042153,-3.382997557997557,-17.026270604395606,27.852966723575044,35.52062179890376,38.92314373858088,1577398036.999,-27.688030811053835,-51.12148349517859,9.820285
97986,1577398037.59,-1.7396502843345083,-1.3420376232612417,9.103922615162915,1.0644854161704458,4.0218500229254,12.323598291611091,-2.8667937098061165,-7.476566228205983,8.243820267542397,6.265593738090701,6.169761099466464,3.788831757336128,8.173128453696647,8.65136123285061,-3.70025634765625,4.724642125571647,-7.638326505335366,2.1410686213795733,-26.414928329772085,-17.16361702533578,1.3949154361263716,10.793373161230305,0.6765995115995117,-62.36288919413919,27.61335250247102,35.52062179890376,39.16275795968491,1577398036.999,-27.688030811053835,-51.12148349517859,9.820285
97987,1577398037.6,0.8197512903725228,-0.2143686413276485,13.087874177662917,2.436362967439977,-0.4505186782464747,10.307680493759529,3.2599683385337266,7.369878266422922,12.867023673304114,-1.150177746284299,-8.753334603658535,-0.6819934379763719,5.518099156821647,-0.8396055640243902,0.08392333984375,2.740999547446646,1.486429354039634,-2.8027790348704267,-28.024440091801203,-16.88972951961233,0.6974577180631858,9.182421943136228,-2.875547924297924,-61.75570233802655,27.900889567795847,35.52062179890376,39.01898942702249,1577398036.999,-27.688030811053835,-51.12148349517859,9.820285
97988,1577398037.61,-0.0613149205649771,0.2237702624809447,6.750422383229324,-0.6605368799721322,-0.2865158645257717,10.859543976425543,-3.176842824796351,-3.4052263051102813,14.352625803431067,17.3434745974657,10.930503286966465,2.537611054211128,6.021639195884147,-6.0428526343368905,1.01470947265625,6.494661656821646,7.544168611852134,12.364457293254572,-27.7404086043843,-17.711392036782662,0.9299436240842456,6.121614628757485,-3.2138476800976794,-62.36288919413919,27.70919819091263,35.472698954682954,38.92314373858088,1577398036.999,-27.688030811053835,-51.12148349517859,9.820285
97989,1577398037.62,-3.729231863924352,2.3330619250786007,13.9809113969012,-0.0416357508217406,3.8183428818121183,10.611744104599373,-0.0296647425209593,9.50311194562214,14.981103739222084,-3.8052070431592986,-5.091225228658536,0.3708630073361281,1.7949546255716462,5.7827088891006095,-1.93023681640625,16.382356969321645,-15.603414395960366,-3.1689899723704267,-28.119117254273505,-17.34620869581807,0.6199624160561659,-0.8054756090470375,-3.382997557997557,-67.22038404304028,27.565429658250217,35.424776110462155,39.01898942702249,1577398036.999,-27.688030811053835,-51.12148349517859,9.820285
97990,1577398037.63,-1.7396502843345083,0.5637468982231323,6.678596333424636,0.0134308873618521,2.875027427710556,10.791309229111093,0.1858134068931021,-3.0951771901200456,6.409861795862708,20.9140312380907,1.0122903963414631,2.537611054211128,-1.5314613900533538,10.97069717035061,0.66375732421875,-9.557584436928352,-21.249166349085368,2.1105510432545733,-26.03621967988288,-18.259167048229543,1.084934228098292,4.349568288854003,-3.0446978021978017,-65.19642785599817,27.852966723575044,35.28100757779974,39.21068080390571,1577398036.999,-27.688030811053835,-51.12148349517859,9.820285
97991,1577398037.64,-0.7831667211020865,-0.8153132580268673,11.58551263591487,1.708525662752477,-5.131182923851943,7.13296909239234,3.590368167635289,-13.42376315203411,16.084830704554115,-1.195954113471799,0.9665140291539636,2.247694062023628,15.558382359946648,-11.42920517339939,2.61688232421875,-2.111295374428354,-24.880758145960368,-7.349898175495427,-27.7404086043843,-18.25916704822955,1.5499060401404114,1.772046339903483,1.3531990231990234,-68.839548992674,27.733159613023037,35.52062179890376,39.1148351154641,1577398036.999,-27.688030811053835,-51.12148349517859,9.820285
97992,1577398037.65,-1.296722977205602,0.2022224475395385,8.50776640178401,-2.2335273706947887,-1.763738288842178,10.622518012070076,-0.8748179285561166,2.4450054514815163,6.70913700338224,1.0776054568407014,-0.6661764005335366,1.408460663586128,8.463045445884147,-7.4008848608993905,1.38092041015625,5.106111852134148,-6.387105802210366,1.912186785442073,-28.119117254273505,-18.07657537774725,1.5499060401404114,7.571470725042152,-17.253287545787543,-39.28978866185898,27.565429658250217,35.52062179890376,39.21068080390571,1577398036.999,-27.688030811053835,-51.12148349517859,9.820285
97993,1577398037.66,-0.1810250035727896,-1.6269476208198357,10.631423274342604,-2.524422872403773,-3.031468067894912,11.516752332138434,6.401160916658727,-15.011118852717704,8.380289762171302,6.540251941215701,-6.372963509908536,2.720716522961128,13.452669469321648,-10.26953720464939,2.12860107421875,-3.576139124428354,11.709818025914634,4.704545183879573,-26.414928329772085,-16.433250343406595,2.324859060210624,2.4164268271411125,-3.382997557997557,-16.216688129578753,27.75712103513344,35.32893042202055,39.1148351154641,1577398036.999,-27.688030811053835,-51.12148349517859,9.820285
97994,1577398037.67,-0.2552452550376334,3.072870238066882,12.520448384205888,2.965481534334508,3.729757420386337,13.482391895126716,-5.064670833829554,10.405725971501044,17.940336991175208,5.227996081840701,-13.697182259908535,2.201917694836128,4.053255406821647,-2.8232481421493905,0.17547607421875,3.564974156821646,-2.5113733803353657,-0.1782673161204268,-27.929762929328906,-16.433250343406595,0.1549906040140463,2.738617070759928,-2.0297985347985343,-17.026270604395606,27.70919819091263,35.32893042202055,39.1148351154641,1577398036.999,-27.688030811053835,-51.12148349517859,9.820285
97995,1577398037.68,0.0093140284096322,1.4579812182914915,6.697749946705886,-0.5480094019447885,1.8191844955816496,11.663995734238044,-0.9370671717201792,-5.653381663997,7.439368509729896,13.1320488162157,-5.182777963033537,2.446058319836128,3.061434117759146,-7.0499327124618905,0.61798095703125,2.3900473990091475,13.846048494664632,6.825516863567072,-27.551054279439697,-16.61584201388889,1.0849342280982888,2.255331705331705,-1.0148992673992672,-16.216688129578753,27.613352502471024,35.52062179890376,39.1148351154641,1577398036.999,-27.688030811053835,-51.12148349517859,9.820285
97996,1577398037.69,-0.5664914708579459,4.734446190215319,13.04717274944026,-2.8667937098061165,-0.146455067406631,8.219936646103278,-1.119026497892054,-4.007368022639577,3.26148661275724,7.760955066215701,-12.415443978658535,2.323988007336128,8.905550328696647,-6.119146579649391,0.08392333984375,10.950228063071648,24.374612947789632,-4.939009503620427,-27.17234562955049,-16.433250343406595,0.464971812042126,1.772046339903483,-2.706398046398046,-16.216688129578753,27.70919819091263,35.616467487345375,39.01898942702249,1577398036.999,-27.688030811053835,-51.12148349517859,9.820285
97997,1577398037.7,1.5619538050209605,-5.215855909394055,7.334607588307449,2.0485022984946646,-3.9149284804925686,3.228026184677496,-5.9433428431068975,6.00518332013386,1.2120499916634897,-22.4514472775343,-7.196938119283536,1.011732147961128,4.999300328696647,2.090081935975609,-0.77056884765625,20.929476109946645,44.60776724466464,2.6598674495045733,-29.06588887899652,-16.068067002442003,1.3949154361263716,3.060807314378742,-3.382997557997557,-14.597523179945052,27.565429658250217,35.80815886422859,38.97106658280169,1577398036.999,-27.688030811053835,-51.12148349517859,9.820285
97998,1577398037.71,0.6880701990639291,-1.873550391815929,5.931605415455887,0.2935524816001334,-2.2102568984613185,-0.9642209222560963,11.704317593904822,-2.046516862971608,4.08509198385099,4.861785144340701,0.0662454744664634,4.460218476086128,-1.5009438119283538,-3.8913633765243913,1.57928466796875,14.459749547446648,60.23276724466464,-5.671431378620427,-25.46815670504907,-17.711392036782662,0.9299436240842456,3.060807314378742,-3.382997557997557,-65.6012190934066,27.565429658250217,35.424776110462155,39.01898942702249,1577398036.999,-27.688030811053835,-51.12148349517859,9.820285
97999,1577398037.72,0.2499312952553353,6.646216215850085,10.591918946950027,-0.8305251978432259,6.809897856177353,11.393450946640389,-2.53280257821432,5.62091395367878,16.001033646448647,9.1800224490282,-19.78543909584604,-0.3157825004763719,-4.247525843178353,-3.6014463843368905,-0.93841552734375,15.329500524009148,18.74411978372713,-10.508467511432928,-27.07766846707819,-16.524546178647743,1.1624295301053085,2.5775219489505203,-41.103420329670335,-14.395127561240844,27.829005301464647,35.44873753257256,38.97106658280168,1577398036.999,-27.688030811053835,-51.12148349517859,9.820285
98000,1577398037.73,0.2642965052162728,-2.3906979504096797,6.822248433034011,3.166594473787633,-4.774446876488662,5.366048267197027,-5.830815365079554,-3.971454997737233,6.697165995081459,7.577849597465701,7.054770865091464,0.4624157417111281,1.5813315786966462,0.4726502953506097,0.63323974609375,-1.7145668588033538,8.902200838414634,12.150834246379572,-26.793636979661287,-17.16361702533578,1.7048966441544513,4.993948776091632,-41.272570207570205,-17.026270604395606,27.75712103513344,35.66439033156618,39.16275795968491,1577398036.999,-27.688030811053835,-51.12148349517859,9.820285
98001,1577398037.74,2.1102259851967413,-4.0187550793159295,7.0640628007097925,-3.0559356409584604,-3.603682264672256,-2.415107128310784,-2.095860775235804,-11.17081938982708,7.664423465784583,-7.650421886909299,-1.7648092130335369,2.629163788586128,0.5132163443216463,-18.69238876714939,3.16619873046875,-18.163541468178355,2.5240270102896343,-3.779341534870426,-28.119117254273505,-18.44175871871185,2.169868456196584,17.237178033606607,-2.706398046398046,-13.787940705128204,27.852966723575044,35.32893042202055,39.01898942702249,1577398036.999,-27.688030811053835,-51.12148349517859,9.820285
98002,1577398037.75,1.90671884408346,-0.7243335949409292,9.500162989918778,-2.1796578333412726,4.325913633765244,14.21980600645484,5.199271683260289,31.975088727848703,4.731526432093178,-9.4814765744093,2.736533560403964,1.088026093273628,-1.1042152963033538,-4.471197360899391,0.14495849609375,14.978548375571648,7.956155916539634,5.986283465129573,-26.698959817188985,-16.341954508165447,0.8524483220772257,17.237178033606607,0.0,-16.62147936698718,27.66127534669183,35.52062179890376,39.01898942702249,1577398036.999,-27.688030811053835,-51.12148349517859,9.820285
98003,1577398037.76,0.3433051600014291,6.3601091174614135,9.867672944752762,1.3577751195395862,1.1320486191168064,4.044448950790778,-2.99248929696432,-13.83915714007122,13.977933243616617,8.8595878787157,-5.976234994283536,1.011732147961128,-0.1581703744283537,1.006707912538109,0.25177001953125,-9.145597132240852,12.152322908727132,-2.375532941120428,-26.604282654716684,-18.07657537774725,0.3099812080280861,7.249280481423338,-0.3382997557997556,-10.549610805860803,27.70919819091263,35.52062179890376,39.0669122712433,1577398036.999,-27.688030811053835,-51.12148349517859,9.820285
98004,1577398037.77,-1.7803517125571646,2.172650413848132,11.816553096119948,-9.18509189095846,-0.577411366234756,7.255073377060309,-2.7111706018959603,6.572609113590891,9.182347318323648,0.6198417849657013,-8.081947884908537,-1.063463164538872,7.288118688071647,-12.03955673589939,1.33514404296875,2.069612828696646,-5.563131192835366,-10.859419659870428,-26.604282654716684,-18.07657537774725,0.3099812080280861,9.987897552183266,-0.1691498778998777,-10.347215187156593,27.75712103513344,35.424776110462155,39.1148351154641,1577398036.999,-27.688030811053835,-51.12148349517859,9.820285
98005,1577398037.78,1.2291597742592415,1.2556711780082883,4.538180049244948,-1.8540464075600227,0.0259274521246179,5.694053894638434,6.030059659334508,2.9310283884932358,4.360425174768959,11.5451347537157,-3.8705221036585367,-0.3005237114138719,-3.362516077553354,9.78051162347561,-1.56402587890625,-0.8905922494283537,-1.351705411585366,2.0800334651295733,-26.604282654716684,-18.07657537774725,0.3099812080280861,10.95446828303971,-0.5074496336996336,-58.92216367616759,27.75712103513344,35.32893042202055,39.1148351154641,1577398036.999,-27.688030811053835,-51.12148349517859,9.820285
98006,1577398037.79,-0.4336132787192745,-1.5311795544135862,9.10272551433284,3.6502232091391953,-5.293988636742568,4.79622827207984,-1.8109507776772105,-8.503678740413015,8.772938834436927,-9.7561347775343,8.550132193216465,2.018812226086128,-1.3483559213033538,-0.6870176733993902,-0.31280517578125,-2.630094202553354,11.191019197789634,1.530717058879573,-26.698959817188985,-16.88972951961233,0.5424671140491459,17.237178033606607,-2.0297985347985343,-59.124559294871794,27.68523676880223,35.424776110462155,38.77937520591847,1577398036.999,-27.688030811053835,-51.12148349517859,9.820285
98007,1577398037.8,2.0623419519936164,4.492631822539538,8.950693708912917,-1.9677709864174449,4.92206984714415,5.123036798691168,-1.1405743128334604,0.6744933237959694,3.93186307760099,-0.5093086056592987,-22.364174447408537,-2.680894805163872,-3.652433069740853,-8.25537704839939,1.31988525390625,-0.1276527963033538,29.883035799352136,3.0565959651295733,-29.444597528885723,-17.16361702533578,0.7749530200702057,11.115563404849118,-2.0297985347985343,-61.95809795673076,27.70919819091263,35.59250606523497,38.97106658280168,1577398036.999,-27.688030811053835,-51.12148349517859,9.820285
98008,1577398037.81,0.352881966642054,0.5541700915825073,10.51889579631526,2.7045135533774767,-4.276452931176162,8.284580090927497,5.759514871736852,4.168830646794016,12.086513932093178,11.1484062380907,-15.558754525533535,-1.246568633288872,-0.6464516244283537,-5.783453220274391,1.48773193359375,4.297396031821647,7.620462557164634,-10.065962628620428,-29.444597528885723,-17.16361702533578,0.7749530200702057,11.115563404849118,-2.0297985347985343,-61.95809795673076,27.565429658250217,35.32893042202055,38.97106658280169,1577398036.999,-27.688030811053835,-51.12148349517859,9.820285
98009,1577398037.82,1.9306608606850224,-0.2622526745307729,8.819012617604324,-1.5715306116615853,1.4025934067144628,8.198388831161871,0.5593088658774771,12.639516120426826,11.301215787561928,-5.331085949409299,-5.518471322408536,-0.1784533989138719,-4.003385218178353,-4.043951267149391,-1.80816650390625,0.7573569693216463,-4.495015958460366,0.4320842463795732,-29.444597528885723,-17.16361702533578,0.7749530200702057,4.349568288854003,-3.382997557997557,-59.124559294871794,27.61335250247102,35.52062179890376,39.1148351154641,1577398036.999,-27.688030811053835,-51.12148349517859,9.820285
98010,1577398037.83,0.5372354944740853,-1.1804290112006948,9.54924412395198,1.8976675939048204,-0.6420548110589752,9.943761841415778,-1.1022670862709605,-4.570005412776296,7.28973090597013,-8.4286201290968,12.914145865091465,1.545789765148628,-5.407193811928353,-3.387823337461891,-0.09918212890625,-2.569059046303354,20.43784536966464,1.973221941692073,-27.645731441912,-17.254912860576923,0.5424671140491459,-0.3221902436188151,-1.1840491452991453,-34.8370850503663,27.70919819091263,35.424776110462155,39.1148351154641,1577398036.999,-27.688030811053835,-51.12148349517859,9.820285
98011,1577398037.84,-0.8729492833579459,4.676985350371569,11.402356208912918,-2.069524556974085,0.9237530746832128,10.66441654112281,2.3286238927329457,-7.174896819026296,8.646046146448645,-8.7185371212843,-2.9549947599085367,0.8286266792111281,-4.461148890053353,-7.6450254858993905,0.87738037109375,-3.942350061928354,23.520120760289632,-11.713911847370428,-29.06588887899652,-16.433250343406595,0.7749530200702057,-1.1276658526658527,-2.3680982905982906,-7.311280906593407,27.61335250247102,35.616467487345375,39.1148351154641,1577398036.999,-27.688030811053835,-51.12148349517859,9.820285
98012,1577398037.85,0.1828936487709603,0.4631904284965698,8.083992707936355,1.2655983556235708,0.1193013168707117,4.408367603134527,10.935778860994663,18.771066572086983,8.507182450159583,-2.8286445431592986,-4.480873666158536,-0.8803576957888719,-6.627896936928353,8.46825576410061,-3.54766845703125,19.495149938071645,4.049905916539634,1.286576433879573,-26.414928329772085,-15.337700320512822,1.084934228098292,2.0942365835222976,-1.6914987789987788,-17.026270604395606,27.61335250247102,35.32893042202055,39.1148351154641,1577398036.999,-27.688030811053835,-51.12148349517859,9.820285
98013,1577398037.86,1.7630667444740853,-0.5926525036323355,6.204544404713699,2.4148151524985706,6.341831431616806,8.248667066025153,-11.122001034024866,-13.28968785906536,9.40979647603849,-8.9931953244093,-8.081947884908537,0.1267223823361281,-10.900357874428352,-5.417242282774391,2.83050537109375,-3.759244593178354,10.061868807164634,-0.5139606754954268,-26.414928329772085,-15.337700320512822,1.084934228098292,4.993948776091632,0.6765995115995117,-16.62147936698718,27.852966723575044,35.52062179890376,38.82729805013928,1577398036.999,-27.688030811053835,-51.12148349517859,9.820285
98014,1577398037.87,0.4797746546303353,0.5840976123344608,9.546849922291823,-0.0332560450111947,-3.9568270095453024,5.949036371445074,-1.7546870386635387,-1.8645575367997331,8.449721610315834,-0.0515449337842994,0.9665140291539636,-0.2852649223513719,-4.079679163490853,-7.034673923399391,-0.35858154296875,-10.534146936928352,4.889139314977134,1.1492473323170729,-28.97121171652422,-16.341954508165447,0.8524483220772257,7.007637798709227,-2.7909729853479845,-13.6867428957761,27.90088956779585,35.44873753257256,39.1148351154641,1577398036.999,-27.688030811053835,-51.12148349517859,9.820285
98015,1577398037.88,0.9705859949623664,-2.5080138317573355,6.132718354909011,0.6742305455649771,2.7936245712652434,11.521540735458746,0.2313032384360709,-10.177225700862236,16.72647674947599,-17.2939765744093,6.291831411966464,1.377943085461128,-11.968473108803352,-9.99487900152439,-0.64849853515625,-14.287809046303352,-7.089010099085366,-3.0164020817454267,-26.98299130460589,-16.61584201388889,-0.3099812080280861,6.927090237804523,-3.382997557997557,-10.549610805860803,27.565429658250217,35.233084733578934,39.1148351154641,1577398036.999,-27.688030811053835,-51.12148349517859,9.820285
98016,1577398037.89,-1.6965546544516958,3.783948131133288,18.98479286662776,-0.8867889368568977,3.23655187839415,17.19579867002906,-1.0831134729897105,11.100044452946356,5.931021463831459,-13.7539375119093,-0.5441060880335366,0.035169647961128,-6.414273890053353,0.7473084984756098,-1.31988525390625,-2.721646936928354,-9.683004239710366,3.3007365901295733,-27.36169995449509,-17.711392036782662,1.5499060401404114,6.927090237804523,-1.353199023199023,-17.026270604395606,27.61335250247102,35.47269895468296,39.21068080390571,1577398036.999,-27.688030811053835,-51.12148349517859,9.820285
98017,1577398037.9,-0.0613149205649771,1.0988509692680546,11.441860536305496,0.0972279454673209,-0.2087043105706935,11.31563939268531,-7.236211739591273,3.4984541819502666,6.735473221643959,-13.2961738400343,-4.999672494283535,-0.5751819145388719,-6.048062952553353,4.6230409203506095,-0.49591064453125,-5.803922327553353,14.120706697789634,9.831498308879572,-27.8350857668566,-17.072321190094627,1.1624295301053085,4.349568288854003,-2.0297985347985343,-15.00231441735348,27.66127534669183,35.28100757779974,39.21068080390571,1577398036.999,-27.688030811053835,-51.12148349517859,9.820285
98018,1577398037.91,0.2762675135170541,3.858168382598132,10.952246296803542,0.1379293736899771,-0.1500463698968654,12.268531653427496,3.361721909090367,-5.767106242854421,14.38973592916349,-3.1948554806592986,7.512534536966464,-1.551744414538872,-5.880216272865853,-8.22485947027439,-1.99127197265625,-8.291104944740852,1.8984166587271345,-6.861616925495428,-27.17234562955049,-17.528800366300366,0.1549906040140463,4.51066341066341,-2.5372481684981683,-14.597523179945052,27.70919819091263,35.424776110462155,39.0908736933537,1577398036.999,-27.688030811053835,-51.12148349517859,9.820285
98019,1577398037.92,1.4757625452553351,-6.702655140351085,7.317848176686355,3.5855797643149767,-0.9245706069574122,9.857570581650153,-6.570623678067835,14.102373334782294,8.976445975550208,-28.8296211056593,-0.6966939786585366,-0.7888049614138719,-5.803922327553353,-0.9921934546493902,-2.60162353515625,5.884310094321647,0.3267613852896341,8.244584246379572,-27.36169995449509,-16.981025354853482,0.6199624160561659,4.349568288854003,-2.0297985347985343,-16.62147936698718,27.421661125587804,35.76023602000779,39.01898942702249,1577398036.999,-27.688030811053835,-51.12148349517859,9.820285
98020,1577398037.93,-0.6047986974204459,-0.2838004894721792,7.571633552662917,-1.0974786829506478,1.4097760116949314,8.777785632919684,-6.206705025724085,-9.13335377703411,12.445644181116617,-0.4177558712842987,9.831870474466465,4.612806366711128,0.7573569693216463,-2.5791075171493905,2.15911865234375,-7.909635218178353,-10.049215177210366,1.744340105754573,-27.36169995449509,-17.34620869581807,2.4798496642246635,6.927090237804523,-3.382997557997557,-10.549610805860803,27.90088956779585,35.28100757779974,39.21068080390571,1577398036.999,-27.688030811053835,-51.12148349517859,9.820285
98021,1577398037.94,0.5779369226967416,2.7364849048149287,9.800635298268386,3.6885304357016953,-0.8407735488519434,10.417813770126717,3.6621942174399766,1.844060834782298,8.61731572652677,5.0754081912157005,-3.763710580221036,-1.261827422351372,-0.7380043588033537,3.341302639100609,-3.12042236328125,-7.634977015053353,-22.530904630335368,-3.5046833317454267,-26.793636979661287,-17.163617025335775,1.3949154361263747,7.571470725042153,-0.6765995115995113,-15.407105654761905,27.565429658250217,35.47269895468296,38.77937520591847,1577398036.999,-27.688030811053835,-51.12148349517859,9.820285
98022,1577398037.95,0.2044414637123665,-4.284511463593272,9.08955740520198,0.1618713902915395,2.594905833472275,14.84708684141578,3.838168039461461,4.017995942204172,11.818363346155676,-27.8835761837843,2.934897818216464,-0.7277698051638719,-5.697110804115853,-2.853765720274391,-1.97601318359375,-10.564664515053352,-26.971212247522868,2.8124553401295733,-28.87653455405192,-17.34620869581807,1.5499060401404114,17.720463399034827,0.676599511599512,-9.942423949748168,27.61335250247102,35.616467487345375,39.01898942702249,1577398036.999,-27.688030811053835,-51.12148349517859,9.820285
98023,1577398037.96,-2.481852798982945,0.5685353015434448,9.886826558034011,-1.5260407801186164,-3.2804650405511624,11.351552417587651,-7.291278377774867,-7.45980681658489,7.757797330530677,-2.5845039181592986,12.761557974466465,2.415540741711128,-3.240445765053354,4.1347596703506095,-1.35040283203125,-19.384244593178355,-33.944478849085364,1.164506121379573,-28.49782590416271,-17.34620869581807,0.6199624160561659,17.237178033606607,0.0,-61.553306719322336,27.75712103513344,35.52062179890376,39.1148351154641,1577398036.999,-27.688030811053835,-51.12148349517859,9.820285
98024,1577398037.97,-0.6024044957602896,-3.271764161347179,8.677754719655105,2.204125406404821,-3.0913231093988185,12.15121577207984,4.378060513826696,19.90352395734089,15.294744156702553,-22.5124824337843,10.472739615091465,0.6760387885861281,-4.918912561928353,-7.4008848608993905,-0.55694580078125,-6.292203577553353,-46.18202767721037,6.505082293254573,-27.36169995449509,-18.44175871871185,0.6199624160561659,17.237178033606607,0.0,-61.553306719322336,27.61335250247102,35.52062179890376,39.1148351154641,1577398036.999,-27.688030811053835,-51.12148349517859,9.820285
98025,1577398037.98,-2.000618265291539,1.6423347461235236,11.206031672780105,-1.1250120020424446,4.935237956275009,13.68350483457984,-0.3636558741127574,-13.05984449969036,12.402548551233805,-4.1714179806593,-8.234535775533535,1.088026093273628,-3.652433069740853,-7.1414854468368905,-0.31280517578125,-14.745572718178352,-29.427877286585364,4.490922137004572,-27.36169995449509,-18.44175871871185,0.6199624160561659,10.954468283039713,-3.0446978021978017,-67.82757089915293,27.637313924581424,35.47269895468296,39.0908736933537,1577398036.999,-27.688030811053835,-51.12148349517859,9.820285
98026,1577398037.99,0.9442497767006478,2.7807776355278198,13.214766865651198,0.6095871007407584,-2.255746730004287,9.493651929306404,-2.3304925379311165,5.262980805485422,10.67393495260099,8.6154472537157,-20.472084603658537,-1.063463164538872,4.694124547446647,0.0148866234756097,-0.92315673828125,-2.050260218178354,-23.873678067835368,-1.582075909870427,-28.687180229107312,-18.62435038919414,0.7749530200702057,1.9331414617128904,-2.1989484126984125,-60.9461198632097,27.75712103513344,35.28100757779974,38.92314373858088,1577398036.999,-27.688030811053835,-51.12148349517859,9.820285
98027,1577398038.0,-0.1762366002524771,-3.5925871838081167,8.708879341237136,-5.663221248868616,-1.2549704360589746,1.4395575445407776,3.078009012361852,13.968298041813544,6.8767311195931775,-4.049347668159299,-3.4432760099085367,1.591566132336128,-4.979947718178353,-8.86572861089939,3.41033935546875,-2.843717249428354,-26.101461270960368,5.986283465129573,-26.03621967988288,-17.528800366300366,0.7749530200702057,4.510663410663409,-0.8457493894993894,-61.35091110061813,27.61335250247102,35.233084733578934,39.01898942702249,1577398037.999,-27.68808655246209,-51.12140743448074,9.699407
98028,1577398038.01,0.8173570887123666,-1.7418693005073351,8.1965201859637,-0.1685284388100228,1.716233824194931,13.00115736143531,2.3956615392173206,1.5040841990401106,6.831241288050209,-5.788849621284299,10.503257193216465,2.385023163586128,-3.576139124428354,-6.698980564024391,-0.16021728515625,-5.132535608803353,-22.500387052210368,8.061478777629572,-28.49782590416271,-15.885475331959707,0.9299436240842456,4.349568288854003,-2.0297985347985343,-61.553306719322336,27.852966723575044,35.32893042202055,39.1148351154641,1577398037.999,-27.68808655246209,-51.12140743448074,9.699407
98029,1577398038.02,-0.233697440096227,-0.3352758251655391,8.80225320598323,2.536919437166539,-0.4397447707757716,7.586670306991949,2.0640646092856803,1.0467916819502674,9.840752774866615,0.1925956912157005,-6.357704720846036,1.286390351086128,-4.110196741615853,-1.9229795874618911,0.22125244140625,-9.923795374428352,-12.811055997522866,4.826615496379573,-28.49782590416271,-15.885475331959707,0.9299436240842456,4.430115849758706,0.9303243284493288,-61.85690014737865,27.685236768802227,35.472698954682954,39.0669122712433,1577398037.999,-27.68808655246209,-51.12140743448074,9.699407
98030,1577398038.03,-0.3198886998618521,3.671420653105944,8.80225320598323,-2.217965059903773,6.631529832495713,16.561335230087654,9.81529248404154,-10.782958720881766,15.79992070699552,-2.2488105587842986,-11.835609994283535,-0.3005237114138719,3.687044469321646,-14.75562118902439,0.29754638671875,-12.121060999428352,-27.352681974085368,-6.831099347370427,-27.36169995449509,-15.155108650030527,0.6199624160561659,1.9331414617128904,-2.875547924297924,-16.823874985691393,27.61335250247102,35.616467487345375,39.35444933656812,1577398037.999,-27.68808655246209,-51.12140743448074,9.699407
98031,1577398038.04,-1.0932158360923208,0.6738801745903198,12.654523677174636,-1.0112874231850228,-0.5726229629144435,15.093689612411872,2.6087454869712268,19.72395883282917,7.832017581995521,2.4203788943407014,-18.183266244283537,0.5844860542111281,3.778597203696646,2.212152248475609,-2.05230712890625,9.973665563071648,-12.826314786585366,-0.9412067692454268,-27.929762929328906,-16.433250343406595,2.014877852182544,2.899712192569335,-2.875547924297924,-15.204710036057692,27.565429658250217,35.616467487345375,39.01898942702249,1577398037.999,-27.68808655246209,-51.12140743448074,9.699407
98032,1577398038.05,-0.4491755895102896,-0.8368610729682735,13.20758426067073,0.5617030675376334,-3.500731593285537,3.6039158453220272,0.7053551671470084,-11.750216191584892,5.440210123499427,-4.7512519650343,-5.487953744283536,1.866224335461128,1.7949546255716462,-0.4428770483993902,2.00653076171875,-9.008268030678352,12.411722322789634,17.857621355754574,-27.551054279439697,-16.61584201388889,0.3099812080280829,2.899712192569335,-2.875547924297924,-15.204710036057692,27.685236768802227,35.424776110462155,39.1148351154641,1577398037.999,-27.68808655246209,-51.12140743448074,9.699407
98033,1577398038.06,1.224371370938929,-4.291694068573742,8.019349263112137,-0.9310816675697888,-1.0107618667230371,12.132062158798592,-1.0220613306557262,11.6124036082198,15.41086293722013,-14.2117011837843,-1.6732564786585369,-0.7888049614138719,4.236360875571647,-9.384527439024389,0.45013427734375,4.251619664634148,-8.431783536585366,-0.7428425114329276,-27.17234562955049,-16.433250343406595,-0.1549906040140398,8.054756090470375,-2.706398046398045,-14.799918798649268,27.852966723575044,35.688351753676585,39.1148351154641,1577398037.999,-27.68808655246209,-51.12140743448074,9.699407
98034,1577398038.07,1.2124003626381477,-2.6229355114448354,7.638671199147293,3.480234891268102,2.420129112280869,7.55434858457984,8.71635392202982,-24.41793717547161,17.365728592737707,10.2328788943407,-4.755531869283536,3.208997772961128,0.5132163443216463,4.5009706078506095,-1.59454345703125,-2.141812952553354,-14.321676114710366,5.589554949504573,-26.98299130460589,-16.61584201388889,-0.3099812080280861,3.705187801616373,-2.706398046398046,-15.407105654761905,27.75712103513344,35.13723904513733,39.21068080390571,1577398037.999,-27.68808655246209,-51.12140743448074,9.699407
98035,1577398038.08,0.209229867032679,6.4726365954887575,12.451016536061356,0.8490072667563834,5.561321690405869,14.53823482725562,-4.387111764005335,5.516766181461985,2.5935043495736463,11.3925468630907,-8.448158822408537,2.049329804211128,-0.7074867806783537,-12.58887314214939,4.90570068359375,-0.3717934213033537,4.171976229039634,-13.575484112995428,-26.604282654716684,-17.34620869581807,2.169868456196584,2.4164268271411125,-2.706398046398046,-65.6012190934066,27.75712103513344,35.28100757779974,39.01898942702249,1577398037.999,-27.68808655246209,-51.12140743448074,9.699407
98036,1577398038.09,2.7590546350990857,0.5074831592094607,6.901257087819168,-4.43499579720846,-0.194339100609756,9.158463696884528,5.84331192984232,11.866188984196356,4.089880387171303,15.0088798709032,-8.860146127096035,1.332166718273628,12.323519078696648,0.8388612328506098,-1.77764892578125,0.8489097036966463,12.869485994664634,5.650590105754573,-27.36169995449509,-16.798433684371183,0.7749530200702089,4.349568288854003,-2.706398046398046,-68.839548992674,27.829005301464647,35.52062179890376,39.1148351154641,1577398037.999,-27.68808655246209,-51.12140743448074,9.699407
98037,1577398038.1,0.3792181849037728,-5.002771961640148,7.226868513600418,2.8266178380454456,-5.362223384057021,5.624622046493903,-1.6122320398842418,9.56895249127644,8.666396860559974,-4.507111340034299,7.146323599466464,2.964857147961128,2.130647984946646,-6.0428526343368905,1.02996826171875,8.936067906821647,-3.3658655678353657,1.2713176448170729,-26.604282654716684,-17.34620869581807,1.859887248168504,3.060807314378742,-21.989484126984124,-15.204710036057692,27.94881241201665,35.544583221014165,38.995028004912086,1577398037.999,-27.68808655246209,-51.12140743448074,9.699407
98038,1577398038.11,0.1110675989662718,2.3019373034965693,8.996183540455887,-5.117343270352992,5.417669590796494,13.274096350693124,-0.9729801966225228,-18.79395747576458,7.010806412561927,3.5800468630907014,12.151206411966465,2.964857147961128,6.830355016196647,-12.58887314214939,4.05120849609375,8.386751500571647,7.010110994664634,0.0353557307545732,-27.7404086043843,-16.981025354853482,0.9299436240842456,7.571470725042153,-3.0446978021978017,-16.216688129578753,27.852966723575044,35.424776110462155,39.1148351154641,1577398037.999,-27.68808655246209,-51.12140743448074,9.699407
98039,1577398038.12,2.2227534632240853,1.7201463000786008,8.325807075612136,1.957522635408727,-2.519108912621475,9.563083777450936,-5.766171920255335,14.413619550602608,8.859130094202552,6.936980456840701,-9.607826791158535,1.530530976086128,11.743685094321648,6.6066834984756095,0.11444091796875,12.354036656821648,17.904886385289632,1.835892840129573,-26.604282654716684,-16.981025354853482,0.0,7.571470725042153,-3.382997557997557,-17.026270604395606,27.61335250247102,35.616467487345375,39.21068080390571,1577398037.999,-27.68808655246209,-51.12140743448074,9.699407
98040,1577398038.13,0.8915773401772102,0.9516075671684447,12.26187460490901,-2.5483648890053354,0.3359765671148523,7.040792328476324,-1.1298004053627575,-5.01412982073528,13.67985513692716,9.3936454959032,-10.431801400533535,1.286390351086128,7.837435094321647,-3.570928806211891,3.22723388671875,2.695223180259146,8.627542635289632,-0.6055134098704271,-27.267022792022797,-15.976771167200855,-0.5424671140491459,12.40432437932438,-3.382997557997557,-13.787940705128204,27.78108245724384,35.376853266241355,39.01898942702249,1577398037.999,-27.68808655246209,-51.12140743448074,9.699407
98041,1577398038.14,2.490904049161585,-0.9685421642768668,8.608322871510573,2.3573543126548206,-3.153572352562881,12.076995520614997,-1.5332233850990853,12.601208893864326,11.32515780416349,9.4394218630907,12.090171255716465,2.812269257336128,4.266878453696647,7.7358338891006095,0.45013427734375,17.084261266196645,-8.889547208460366,-4.664351300495427,-26.98299130460589,-16.61584201388889,-0.6199624160561659,17.237178033606607,0.0,-10.549610805860803,27.852966723575044,35.424776110462155,38.97106658280169,1577398037.999,-27.68808655246209,-51.12140743448074,9.699407
98042,1577398038.15,0.1924704554115853,-3.231062733124523,9.656983198659011,-3.166068917325648,3.440059019507431,6.55836069395484,-8.852297860196742,-2.5109919850419207,14.75365458150724,-3.6221015744092986,14.745200552591465,5.101087616711128,4.633089391196647,3.402337795350609,5.08880615234375,6.220003453696647,-0.2530725990853658,3.911088152629573,-26.604282654716684,-18.07657537774725,0.0,9.504612186755043,-0.6765995115995113,-62.36288919413919,27.70919819091263,35.32893042202055,39.01898942702249,1577398037.999,-27.68808655246209,-51.12140743448074,9.699407
98043,1577398038.16,1.856440609220179,4.739234593535632,13.442216023366042,0.8130942418540397,0.6723619003668064,14.231777014755622,5.548825125643101,11.21975453595417,11.21023612447599,8.2187187380907,0.3103860994664634,1.957777069836128,6.799837438071647,3.7685487328506095,2.31170654296875,2.924105016196646,-3.4269007240853657,0.0048381526295732,-27.36169995449509,-16.2506586729243,1.5499060401404114,7.571470725042153,0.6765995115995117,-59.93414176968864,27.70919819091263,35.47269895468296,39.21068080390571,1577398037.999,-27.68808655246209,-51.12140743448074,9.699407
98044,1577398038.17,1.265072799161585,-1.7107446789253042,8.415589637867996,-0.6952528040443978,-5.715368128930068,3.806225885605231,4.949077609773961,1.8189217173506549,4.852433615931068,9.1800224490282,2.690757193216463,2.308729218273628,12.033602086509145,-2.197637790586891,3.54766845703125,8.676668492759147,4.706033846227134,2.7819377620045733,-27.17234562955049,-16.798433684371187,1.2399248321123286,5.638329263329263,1.0148992673992672,-61.553306719322336,27.78108245724384,35.472698954682954,39.04295084913289,1577398037.999,-27.68808655246209,-51.12140743448074,9.699407
98045,1577398038.18,1.2267655725990854,1.126384288359851,8.814224214284012,-2.545970687345179,3.708209605444931,19.16862083799781,-3.539564376310023,0.9294758006026104,8.54070127340177,4.373503894340701,3.331626333841464,2.354505585461128,3.809114781821646,-1.3889219702743902,4.78363037109375,5.426546422446647,19.095071932164632,20.17695729325457,-27.17234562955049,-16.433250343406595,1.7048966441544513,1.9331414617128904,2.198948412698413,-62.16049357543498,27.90088956779585,35.424776110462155,38.97106658280169,1577398037.999,-27.68808655246209,-51.12140743448074,9.699407
98046,1577398038.19,-1.1770128941977895,4.226875438262194,10.018507649342604,-1.4805509485756478,-3.6683257094964743,7.604626819443121,5.991752432772008,-24.95184414568645,21.90513494039396,24.3625175662157,4.826987661966464,3.453138397961128,12.994905797446648,9.68895888910061,-0.52642822265625,6.616731969321647,-1.290670255335366,-10.401655987995428,-27.17234562955049,-16.433250343406595,1.7048966441544513,3.22190243618815,-3.21384768009768,-65.8036147121108,27.94881241201665,35.52062179890376,39.30652649234732,1577398037.999,-27.68808655246209,-51.12140743448074,9.699407
98047,1577398038.2,-1.3517896153891955,-1.3157014049995228,6.610361586110184,2.0676559117759146,2.2333813827886813,12.79046761534156,0.8801318883384146,25.94648894757527,0.5919517616830208,3.412200183403201,7.451499380716463,3.514173554211128,-2.050260218178354,9.78051162347561,2.22015380859375,21.082064000571645,10.733255525914634,-5.579878644245427,-26.509605492244383,-16.70713784913004,0.6974577180631858,-2.738617070759928,-3.382997557997557,-61.95809795673076,27.68523676880223,35.28100757779974,39.01898942702249,1577398037.999,-27.68808655246209,-51.12140743448074,9.699407
98048,1577398038.21,0.4175254114662728,3.046534019805163,5.962730037037918,-1.828907290128382,0.8243937057867278,12.6623778265232,-7.238605941251428,-9.059133525569266,12.031447293909585,8.3102714724657,3.484214224466464,2.110364960461128,5.853792516196647,-1.953497165586891,4.14276123046875,6.021639195884147,14.776834627477132,1.3781291682545724,-26.604282654716684,-16.2506586729243,-0.3099812080280861,-1.772046339903483,-19.621385836385837,-34.8370850503663,27.517506814029414,35.44873753257256,38.97106658280168,1577398037.999,-27.68808655246209,-51.12140743448074,9.699407
98049,1577398038.22,-0.6167697057212271,-3.68596104855421,11.378414192311356,0.4252335729087271,-3.369050501976944,8.236696057724371,9.535170889803256,29.434840766422923,8.708295389612708,-2.3708808712842986,-16.962563119283537,0.8591442573361281,6.006380406821647,8.43773818597561,3.25775146484375,11.896272984946648,-4.800191739710366,-1.337935284870427,-26.604282654716684,-16.2506586729243,-0.3099812080280861,2.5775219489505203,-3.21384768009768,-16.823874985691393,27.61335250247102,35.52062179890376,39.01898942702249,1577398037.999,-27.68808655246209,-51.12140743448074,9.699407
