,timestamp,acc_x_dashboard,acc_y_dashboard,acc_z_dashboard,acc_x_above_suspension,acc_y_above_suspension,acc_z_above_suspension,acc_x_below_suspension,acc_y_below_suspension,acc_z_below_suspension,gyro_x_dashboard,gyro_y_dashboard,gyro_z_dashboard,gyro_x_above_suspension,gyro_y_above_suspension,gyro_z_above_suspension,gyro_x_below_suspension,gyro_y_below_suspension,gyro_z_below_suspension,mag_x_dashboard,mag_y_dashboard,mag_z_dashboard,mag_x_above_suspension,mag_y_above_suspension,mag_z_above_suspension,temp_dashboard,temp_above_suspension,temp_below_suspension,timestamp_gps,latitude,longitude,speed
36135,1577310612.21,0.4753366222846792,0.6776174649866611,9.440395541158535,1.0658869000690734,0.0420445169588413,9.249209779320692,0.5556883658060205,0.0399422911108991,7.644335529904249,2.021045219607469,2.2449028201219514,4.311352241330031,1.52587890625,2.243228074980945,4.202865972751525,0.3507660656440547,38.96573694740854,12.301189143483231,-0.8423002730294448,-7.232164413252776,5.719806505223171,3.596708285284674,-12.605414377289376,218.74101419413924,25.45682451253482,34.61008775870848,32.45355976877228,1577310611.999,-27.69254970822301,-51.12121002091239,3.8435774
36136,1577310612.22,0.8895335094917105,0.7829623380335361,9.145908736959315,0.9988492535846984,0.4059631693025913,7.477500550805067,-0.3014358285299159,-4.961544976955507,4.450470515255812,1.9600100633574693,2.1533500857469514,4.219799506955031,2.8076171875,3.036685106230945,3.3178562071265243,1.0831879406440548,46.77823694740854,1.803142268483232,-0.5053801638176696,-7.929240501277138,4.993481869639277,2.761839882082937,0.8359669142585815,219.4902330633776,25.504747356755622,34.70593344715009,32.30979123610986,1577310611.999,-27.69254970822301,-51.12121002091239,3.8435774
36137,1577310612.23,1.1864145153510854,-0.2848516023961503,8.099642611471037,0.2111569073932921,-0.8892999288419389,6.052950563012099,-0.7659109506002284,3.2649319273413675,4.855090595822218,0.8308596727324695,4.014922351371951,4.311352241330031,3.143310546875,3.982730028105945,3.775619879001524,0.9000824718940548,54.25504358803354,2.7186696122332314,0.1684600546058876,-7.232164413252776,7.898780411974855,-2.8039494725953062,2.1717563593813582,219.4902330633776,25.45682451253482,34.61008775870848,32.6931739898763,1577310611.999,-27.69254970822301,-51.12121002091239,3.8435774
36138,1577310612.24,0.4394235973823355,-1.2628829805699784,7.793184798971036,0.0962352277057921,-1.3896880758145962,6.775999464379287,-3.2056024422994467,1.691941436618711,12.978616828732374,0.8003420946074695,5.510283679496951,4.524975288205031,-0.3662109375,5.600161668730945,5.270981207126525,-0.3816558093559452,49.37223108803354,8.669597346608231,-0.5896101911206133,-7.14502990224973,6.35534056135908,-2.8039494725953062,3.5075458045041388,246.46211235596,25.504747356755622,34.8017791355917,32.50148261299308,1577310611.999,-27.69254970822301,-51.12121002091239,3.8435774
36139,1577310612.25,0.1138121716010854,0.6393102384241611,9.282378231588224,0.6229595929401671,-0.97788539026772,8.06886836086366,-2.116240686928353,-2.196242059475037,16.375988984494093,0.7698245164824695,4.960967273246951,4.616528022580031,-2.655029296875,6.057925340605945,5.576156988376525,0.0455902843940547,29.444252572408537,4.275066096608232,-0.5053801638176696,-7.929240501277138,6.082968823015123,-0.8559231984579215,3.924980006105006,230.7285161019536,25.2172102914308,34.562164914487674,32.50148261299308,1577310611.999,-27.69254970822301,-51.12121002091239,3.8435774
36140,1577310612.26,-0.5110744616996947,-0.0526140413609941,9.734882345357756,0.6911943402546202,0.0492271219393106,9.67298347316835,1.9754499502786769,1.2083127012671488,9.37414622936714,-0.4508786085175305,3.923369616996952,4.189281928830031,1.129150390625,4.577822801543445,3.973984136814024,-1.602358934355945,17.923866830221037,4.3818776200457314,-0.5053801638176696,-7.929240501277138,6.082968823015123,-2.525660004861394,0.0845853513770182,248.70976896367523,25.504747356755622,34.753856291370894,32.47752119088268,1577310611.999,-27.69254970822301,-51.12121002091239,3.8435774
36141,1577310612.27,-0.6020541247856322,0.2682089810999424,7.814732613912442,-0.0258690569621755,-0.793531862435689,11.00655379787538,1.115931554282583,-0.5897327455101936,14.498934882931591,0.0679202196074695,4.259062976371951,3.975658881955032,-1.007080078125,2.121157762480945,3.5925144102515243,-1.8464995593559448,12.568031869283535,3.878337580983232,0.6738402184235436,-6.709357347234502,5.5382253463272,-5.308554682200516,-0.416335690544024,256.2019576560592,25.60059304519724,34.94554766825411,32.45355976877228,1577310611.999,-27.69254970822301,-51.12121002091239,3.8435774
36142,1577310612.28,-2.505444444609851,0.5794551969202548,8.188228072896818,-2.7193459246379565,1.904733408560404,11.585950599633192,-1.8026002694478844,0.4900522032202741,15.54759521008003,-0.0541500928925304,2.5500786013719514,4.006176460080031,-1.64794921875,-0.7169770031440549,4.050278082126525,-0.5952788562309452,-5.315268911966464,3.4205739091082314,-1.516140491452995,-9.323392677325868,7.172455776390961,7.492760833559443,-1.919098816307149,251.7066444406288,25.45682451253482,34.89762482403331,32.789019678317906,1577310611.999,-27.69254970822301,-51.12121002091239,3.8435774
36143,1577310612.29,-4.315460899687976,1.118150570455411,7.659109506002286,-4.251634987137956,2.1058463480135288,12.122251771508193,-0.6366240609517909,2.477239581149961,7.984312165646436,-0.5729489210175305,-0.3796088986280487,4.494457710080031,0.732421875,-5.019955518769055,4.447006597751525,-0.0459624499809452,-9.740317740091465,-2.011554997141769,-0.3369201092117819,-6.709357347234502,6.990874617494989,8.605918704495092,-1.2512040937457605,230.7285161019536,25.408901668314016,34.70593344715009,32.64525114565549,1577310611.999,-27.69254970822301,-51.12121002091239,3.8435774
36144,1577310612.3,-3.901264012480945,0.2083539395960361,7.187451778951504,-1.1319902239543629,-0.9635201803067828,9.672983473168348,3.933906908286489,3.2362015074194925,1.285335920529249,-0.9086422803925304,-5.262421398628049,4.952221381955031,0.48828125,-4.073910596894055,5.240463629001525,-2.365298387480945,3.9010396817835367,5.343181330983232,-0.3369201092117819,-4.269591039149229,7.354036935286932,8.884208172229004,-1.835611975986976,228.4808594942384,25.408901668314016,34.70593344715009,32.64525114565549,1577310611.999,-27.69254970822301,-51.12121002091239,3.8435774
36145,1577310612.31,-2.7999312488090693,0.0048467984827553,2.4158078702600982,-1.029039552567644,-0.5205928731778764,5.533408802758193,-0.2487633920064784,5.005516534274961,-2.9093053880645,1.9142336961699693,-3.2177436642530486,4.982738960080031,-0.67138671875,-6.057553175019055,3.989242925876524,-5.264468309355945,21.540199838033537,23.92838640910823,-1.8530606006647736,-6.883626369240593,8.080361570870831,5.823024027155972,-1.919098816307149,218.74101419413924,25.360978824093213,34.94554766825411,32.50148261299308,1577310611.999,-27.69254970822301,-51.12121002091239,3.8435774
36146,1577310612.32,-2.625154527617663,-0.5793384065953691,7.50348639809213,-1.928062275956316,0.6860847635408731,5.904510060082411,-0.1601779305806976,2.766937982028869,3.0833813673065924,-4.448681342892531,-13.41061475800305,5.928783881955031,-4.9591064453125,-9.475521925019056,6.918930425876525,-9.887881395293444,40.85782679115854,31.222087580983235,-1.516140491452995,-5.4894741931918665,7.172455776390961,6.379602962623795,-1.919098816307149,218.74101419413924,25.408901668314016,34.70593344715009,32.47752119088268,1577310611.999,-27.69254970822301,-51.12121002091239,3.8435774
36147,1577310612.33,-1.145537901641101,1.7717676236780675,11.303084432760098,1.444170762373761,-2.1725920186856897,10.08718036037538,-3.198419837318978,-9.623055609279726,8.127964265255812,-2.6481442335175305,-12.00680616425305,6.020336616330031,-8.7890625,-9.353451612519056,7.468246832126525,-7.522769090605945,52.14933069740854,13.674480159108231,-3.03228098290599,-5.663743215197955,7.717199253078884,5.823024027155972,-1.2512040937457605,122.84099893162396,25.504747356755622,34.753856291370894,32.597328301434686,1577310611.999,-27.69254970822301,-51.12121002091239,3.8435774
36148,1577310612.34,-0.2596832873832885,-0.1268342928258378,7.084501107564786,-1.3283147600871756,1.19844391881431,5.794376783715224,-0.4235401131978846,-1.2720802186547249,9.765598200802687,-3.7467770460175305,-10.93869092987805,5.226879585080031,2.38037109375,-9.353451612519056,3.684067144626524,-4.867739793730945,50.10465296303354,10.775310237233231,-3.03228098290599,-5.663743215197955,7.717199253078884,-11.987501907814408,-1.5851514550264547,128.83474988553127,25.60059304519724,34.94554766825411,32.64525114565549,1577310611.999,-27.69254970822301,-51.12121002091239,3.8435774
36149,1577310612.35,0.2000034313667104,-2.0110709993688065,7.276037240377286,0.7785827008503233,-1.6410792501310023,4.637977381859755,-1.915127747475228,2.608920672458555,8.621169807247998,-4.082470405392531,-8.22262647675305,4.891186225705031,2.197265625,-8.132748487519056,2.8906101133765243,-6.942935106230945,37.22623499428354,15.169841487233231,-3.03228098290599,-5.663743215197955,7.717199253078884,-11.987501907814408,-1.5851514550264547,77.88786677731991,25.408901668314016,34.70593344715009,32.357714080330666,1577310611.999,-27.69254970822301,-51.12121002091239,3.8435774
36150,1577310612.36,1.4449882946479604,-0.8163643709508379,6.083724813619473,-0.6124484637004568,1.3061829935213412,0.864715565453505,-3.301370508705697,4.87862384628668,8.91326240978706,-4.112987983517531,-6.757782726753049,4.616528022580031,-7.781982421875,-6.912045362519055,5.789780035251525,-2.578921434355945,31.153236947408537,19.77799578410823,-3.200741037511878,-5.838012237204048,8.261942729766806,5.823024027155972,-1.5851514550264547,50.91598748473756,25.408901668314016,34.46631922604607,32.64525114565549,1577310611.999,-27.69254970822301,-51.12121002091239,3.8435774
36151,1577310612.37,0.5734988903510855,2.5331237516077545,9.804314193502286,-2.2668418108684256,3.403503647818216,3.0530158828363176,-3.1481416024556967,-4.147516412502381,9.49505341320503,-5.944042671017531,-5.964325695503049,5.562572944455031,-10.894775390625,-6.179623487519055,5.911850347751525,-4.989810106230945,17.450844369283537,19.19816179973323,-1.6846005460588829,-5.315205171185776,8.80668620645473,-10.87434403687876,-0.917256732465066,50.91598748473756,25.504747356755622,34.61008775870848,32.50148261299308,1577310611.999,-27.69254970822301,-51.12121002091239,3.8435774
36152,1577310612.38,-0.2345441699516483,1.8004980435999425,7.660306606832364,-2.0250274431926445,-0.0776655660489701,9.52454297023866,-1.986953797279916,-15.733058245998476,11.451116169552686,-7.485180366330031,-4.728363781440549,4.875927436642531,-10.7421875,-4.653744581269055,6.491684332126525,-8.590884324980944,9.821449838033535,-5.9788401533917686,-3.0322809829059905,-5.838012237204048,8.261942729766806,-9.204607230475286,-1.5851514550264547,26.940983669108675,25.45682451253482,34.70593344715009,32.45355976877228,1577310611.999,-27.69254970822301,-51.12121002091239,3.8435774
36153,1577310612.39,0.8536204845893667,-0.2034487459508378,10.232876290670257,1.1784143780964171,0.4119486734529824,8.57404491115663,-3.188843030678353,0.4146348509253526,16.143751423458937,-5.730419624142531,-4.346894054878049,5.104809272580031,-2.349853515625,-2.1513031750190548,3.912948980564024,-10.513491746855944,-15.660727896341465,-26.83760480182927,-1.8530606006647703,-5.140936149179684,9.714592000934593,6.101313494889883,-1.7521251356668015,76.3894290388431,25.408901668314016,34.8017791355917,32.57336687932429,1577310611.999,-27.69254970822301,-51.12121002091239,3.8435774
36154,1577310612.4,0.5232206554878043,0.7231072965296298,8.602424960103848,-1.4240828264934255,-0.2979321187833451,6.139141822777724,-2.966182276283822,6.159521734470274,20.805262055783157,-6.249218452267531,-2.6379096798780486,4.341869819455031,-9.796142578125,-1.0221527843940548,5.362533941501525,-6.149478074980945,-50.48128453696646,-7.1995432783917686,-3.7061212013295406,-4.269591039149229,8.443523888662778,-7.534870424071813,-1.5851514550264547,38.92848557692305,25.504747356755622,34.70593344715009,32.45355976877228,1577310611.999,-27.69254970822301,-51.12121002091239,3.8435774
36155,1577310612.41,-0.6882453845512573,0.7494435147913486,11.322238046041347,-1.416900221512957,-0.0034453145841264,10.668971363793348,-1.6493713631978846,5.034246954196836,18.55231829357612,-7.500439155392531,-2.9125678830030486,3.975658881955032,-10.894775390625,-4.897885206269055,4.477524175876525,-5.417056199980945,-68.94441930259147,1.6505543778582317,-3.3692010921177653,-5.315205171185776,8.443523888662778,-9.204607230475286,-0.249362009903676,34.43317236149272,25.2172102914308,34.562164914487674,32.64525114565549,1577310611.999,-27.69254970822301,-51.12121002091239,3.8435774
36156,1577310612.42,0.463365613983898,-0.244150174173494,9.363781088033535,-0.882993251298113,0.9039571146150912,11.131052284203506,2.104736839927114,8.022210626071836,11.132687348751904,-6.829052436642531,-3.4618842892530486,4.128246772580031,-6.988525390625,-4.684262159394055,3.623031988376524,-7.553286668730945,-72.14876500571647,17.70280047160823,-3.7061212013295406,-4.618129083161412,7.354036935286932,-9.204607230475286,-1.919098816307149,26.940983669108675,25.408901668314016,34.89762482403331,32.45355976877228,1577310611.999,-27.69254970822301,-51.12121002091239,3.8435774
36157,1577310612.43,0.4418177990424917,0.5387537686975986,10.015003939596037,0.2829829571979796,0.8034006448885288,11.739179505883191,2.313032384360708,0.7414433775366803,6.329918818478468,-6.981640327267531,-5.231903820503049,4.433422553830031,-7.659912109375,-3.890805128144055,4.630112066501525,-9.262271043730944,-67.11336461509147,31.16105242473323,-3.7061212013295406,-4.618129083161412,7.354036935286932,-11.430922972346584,0.7524800739384067,26.940983669108675,25.504747356755622,34.562164914487674,32.45355976877228,1577310611.999,-27.69254970822301,-51.12121002091239,3.8435774
36158,1577310612.44,-0.6619091662895386,1.173217208639005,9.80191999184213,-1.637166774247332,2.2183738260408723,12.483776222191786,-0.3373488534322596,-7.738818902736757,10.268380549435498,-7.347851264767531,-6.788300304878049,4.555492866330031,-7.354736328125,-5.111508253144055,4.660629644626525,-10.086245653105944,-65.61800328696647,15.017253596608231,-4.211501365147203,-5.4894741931918665,7.898780411974855,-3.082238940329218,-1.919098816307149,26.940983669108675,25.504747356755622,34.61008775870848,32.50148261299308,1577310611.999,-27.69254970822301,-51.12121002091239,3.8435774
36159,1577310612.45,-0.624799040557117,0.7674000272425204,11.087606283346036,-0.4185181292278006,0.4706066141268101,11.506941944848036,0.8549635733255517,-0.0510373719750374,12.336970783810498,-8.065014350705031,-8.19210889862805,4.677563178830031,-7.75146484375,-5.935482862519055,4.782699957126525,-9.689517137480944,-68.39510289634147,8.120280940358231,-3.3692010921177653,-6.36081930322232,8.806686206454724,-11.987501907814408,-1.919098816307149,53.912862961691154,25.33701740198281,34.8017791355917,32.45355976877228,1577310611.999,-27.69254970822301,-51.12121002091239,3.8435774
36160,1577310612.46,0.0731107433784292,0.6057914151819735,10.747629647603848,0.7330928693073546,0.6812963602205601,13.683271253930068,1.4439371817239892,1.0574779966773054,7.878967292599562,-7.866650092892531,-10.20626905487805,4.921703803830031,-9.94873046875,-5.813412550019055,5.515121832126525,-10.849185106230944,-64.67195836509147,8.028728205983231,-4.7168815289648665,-5.315205171185776,8.443523888662778,-10.317765101410934,-1.919098816307149,77.88786677731991,25.408901668314016,34.753856291370894,32.50148261299308,1577310611.999,-27.69254970822301,-51.12121002091239,3.8435774
36161,1577310612.47,-0.1806746325981323,0.8930956144007236,11.015780233541347,0.3799481244343082,0.2311864481111855,11.208863838158583,1.4822444082864892,-3.7500789369164447,4.463638624386671,-6.920605171017531,-10.05368116425305,4.830151069455031,-8.5906982421875,-7.034115675019055,4.920029058689025,-9.506411668730944,-37.43501988852896,-7.0164378096417686,-4.379961419753091,-6.360819303222321,8.443523888662778,-11.987501907814408,-1.6686382953466286,58.40817617712148,25.408901668314016,34.63404918081888,32.47752119088268,1577310611.999,-27.69254970822301,-51.12121002091239,3.8435774
36162,1577310612.48,1.861579383515148,-0.6798948763219317,9.222523190084315,2.796894700362042,-1.5285517721036586,9.852548597680068,0.4431608877786768,5.716594427341367,9.720108369259718,-7.591991889767531,-9.19918897675305,4.708080756955031,-2.593994140625,-5.508236768769055,4.141830816501525,-5.661196824980945,-22.374595083841463,1.6200367997332317,-5.727641856600198,-5.315205171185776,8.443523888662778,-11.987501907814408,-1.5851514550264547,41.92536105387665,25.408901668314016,34.753856291370894,32.45355976877228,1577310611.999,-27.69254970822301,-51.12121002091239,3.8435774
36163,1577310612.49,2.417034168671398,-1.019871512064119,9.61038385902963,1.120953538252667,-1.1167490865567826,6.869373329125381,-0.3684734750142909,0.5092058165015241,9.121557954220656,-6.615429389767531,-7.795380383003049,4.952221381955031,-10.101318359375,-7.491879346894055,4.996323004001525,-8.255190965605944,-20.848716177591463,8.028728205983231,-5.8961019112060855,-6.1865502812162285,7.535618094182912,15.006576462375072,-0.4998225308641971,54.66208183092952,25.45682451253482,34.61008775870848,32.30979123610986,1577310611.999,-27.69254970822301,-51.12121002091239,3.8435774
36164,1577310612.5,0.7542611156928823,0.4393943998011142,10.55489641396127,1.654860508467511,-0.4320074117520951,9.86930800930116,1.020163487876333,-0.0749793885765999,6.825518562130812,-7.225780952267531,-5.842255383003049,4.647045600705031,-6.805419921875,-6.423764112519055,4.721664800876525,-8.316226121855944,-17.796958365091463,9.127361018483231,-5.811871883903142,-5.925146748207092,8.534314468110765,-11.430922972346584,0.7524800739384067,32.93473462301586,25.36097882409321,34.46631922604607,32.50148261299308,1577310611.999,-27.69254970822301,-51.12121002091239,3.8435774
36165,1577310612.51,1.9980488781440544,-1.2257728548375566,10.93198317543588,0.9916666486042296,-0.0010511129239706,9.510177760277724,-1.6158525399556969,-6.38370076308832,11.932350703244092,-7.347851264767531,-5.262421398628049,4.250317085080031,-7.476806640625,-4.470639112519055,4.279159918064025,-7.522769090605944,-19.917930044778963,-1.843708317454268,-6.569942129629636,-5.140936149179684,8.988267365350701,-10.735199303011802,0.794223494098494,31.810906319158317,25.31305597987241,34.681972025039684,32.45355976877228,1577310611.999,-27.69254970822301,-51.12121002091239,3.8435774
36166,1577310612.52,0.5040670422065542,0.1197684781702549,10.61834275795541,0.0579280011432921,-0.4511610250333451,9.584398011742566,-0.5839516244283534,-2.5266418885766,17.41746670666206,-6.432323921017531,-2.7599799923780486,4.280834663205031,-6.591796875,-3.2194184093940548,3.989242925876524,2.0902680187690548,-47.82625524009146,-20.07796124714177,-4.88534158357076,-5.140936149179684,7.898780411974855,-3.082238940329218,1.086427435219101,44.92223653083025,25.31305597987241,34.753856291370894,32.50148261299308,1577310611.999,-27.69254970822301,-51.12121002091239,3.8435774
36167,1577310612.53,-0.3841817737114135,0.2753915860804111,12.363715768209318,0.0986294293659484,-0.6307261495450639,9.756780531273815,-0.2822822152486659,0.0543075010718366,12.837358930783155,-8.721142280392531,-4.011200695503049,3.3653073194550305,-9.21630859375,-2.9447602062690548,4.508041754001525,-5.722231981230945,-50.14559117759146,-19.68123273151677,-8.086082621082625,-6.360819303222321,9.169848524246673,-0.8559231984579215,0.7524800739384067,26.940983669108675,25.74436157785965,34.70593344715009,32.597328301434686,1577310611.999,-27.69254970822301,-51.12121002091239,3.8435774
36168,1577310612.54,0.712362586640148,-0.8355179842320879,10.720096328512051,-0.2820486345988943,-0.4152480001310014,10.71924959865663,0.0361466055521143,-5.229695562893007,5.635600337033155,-6.813793647580031,-2.7599799923780486,4.174023139767531,-5.889892578125,-2.4869965343940548,3.928207769626524,-5.600161668730945,-44.74397984946646,-27.43269757526677,-7.412242402659071,-6.012281259210138,8.625105047558755,-3.082238940329218,1.4203747964997968,29.93785914606228,25.48078593464522,34.8017791355917,32.45355976877228,1577310611.999,-27.69254970822301,-51.12121002091239,3.8435774
36169,1577310612.55,0.769823426483898,-2.401325869974275,10.845791915670254,0.5894407696979795,-1.9140182393888148,10.053661537133191,0.5317463492044586,3.452876757663633,6.933257636837843,-6.829052436642531,-2.3327338986280486,3.945141303830032,-6.3323974609375,-1.5714691906440548,3.623031988376524,-3.936953660918445,-25.716269888528963,-23.90791730182927,-5.727641856600198,-7.057895391246685,7.717199253078884,-3.082238940329218,1.4203747964997968,28.43942140758548,25.45682451253482,34.70593344715009,32.45355976877228,1577310611.999,-27.69254970822301,-51.12121002091239,3.8435774
36170,1577310612.56,1.3037303966987417,-0.2728805940953691,10.601583346334316,-0.7752541765910818,-0.2883553121427201,8.961905580101941,-0.1458127206197596,3.0542421812476177,14.862853535275342,-6.371288764767531,-0.5016792111280487,3.823070991330032,-7.6904296875,-1.7850922375190548,3.958725347751524,-5.691714403105945,-28.295005240091463,-5.4295237471417686,-6.064561965811974,-6.360819303222321,6.627712299703045,7.492760833559443,0.7524800739384067,40.42692331539992,25.408901668314016,34.8017791355917,32.50148261299308,1577310611.999,-27.69254970822301,-51.12121002091239,3.8435774
36171,1577310612.57,-0.4344600085746947,-0.4308979036656816,11.815443588033537,-1.3426799700481131,-0.3338451436856889,10.50855985256288,-0.5193081796041347,5.450838043064024,14.14938144054878,-7.500439155392531,-1.9360053830030488,4.463940131955031,-7.26318359375,-0.9306000500190548,4.233383550876525,-7.095522996855945,-36.83992711509146,4.946452815358232,-5.727641856600198,-5.315205171185776,6.990874617494989,-2.8039494725953062,0.8359669142585815,27.69020253834717,25.31305597987241,34.70593344715009,32.789019678317906,1577310611.999,-27.69254970822301,-51.12121002091239,3.8435774
36172,1577310612.58,0.8392552746284297,-0.8606571016637286,11.822626193014004,0.7283044659870421,-0.9922506002286576,12.2204140395746,0.8789055899271143,6.987915508884336,11.692930537228468,-7.759838569455031,-2.2106635861280486,4.219799506955031,-8.1787109375,-0.5033539562690549,4.630112066501525,-8.285708543730944,-38.15218297446646,19.28971453410823,-5.727641856600198,-5.315205171185776,6.990874617494989,-10.596054569144847,3.674519485144485,29.188640276823904,25.408901668314016,34.70593344715009,32.789019678317906,1577310611.999,-27.69254970822301,-51.12121002091239,3.8435774
36173,1577310612.59,1.622159217499523,0.1796235196741611,11.202527963033535,0.813298624922589,-0.2979321187833451,11.558417280541397,0.6334999197610992,-1.6359988709984747,10.07564731579292,-6.096630561642531,0.0781547732469513,4.921703803830031,-7.5225830078125,0.5189849109184451,4.340195074314025,-8.850283739043444,-31.667197622903963,22.58561297160823,-7.243782348053194,-6.883626369240593,6.809293458599017,-11.709212440080496,3.674519485144485,41.17614218463841,25.408901668314016,34.65801060292928,32.7171354119867,1577310611.999,-27.69254970822301,-51.12121002091239,3.8435774
36174,1577310612.6,-0.1327905993950072,-0.3207646272984941,10.6901688077601,1.2502404279011048,-0.5205928731778764,11.880437403832412,4.180509679282583,6.374999883884336,8.14232947521675,-6.768017280392531,0.4138481326219513,4.433422553830031,-6.04248046875,0.4732085437309451,4.080795660251525,-9.109683153105944,-27.135337271341463,26.24772234660823,-6.906862238841405,-7.232164413252776,4.993481869639277,-9.482896698209196,3.5075458045041388,27.69020253834717,25.408901668314016,34.562164914487674,32.357714080330666,1577310611.999,-27.69254970822301,-51.12121002091239,3.8435774
36175,1577310612.61,0.8703798962104604,-1.5729320955602129,10.22329948402963,1.025185471846417,-0.5756595113614701,11.985782276879286,1.4487255850443015,-3.8530296083031614,7.922062922482374,-6.981640327267531,-0.1965034298780487,3.884106147580032,-5.9814453125,-0.8085297375190549,4.447006597751525,-9.658999559355944,-19.872153677591463,33.846599299733235,-8.254542675688512,-5.838012237204048,5.719806505223171,-3.082238940329218,3.424058964183964,40.42692331539992,25.45682451253482,34.61008775870848,32.64525114565549,1577310611.999,-27.69254970822301,-51.12121002091239,3.8435774
36176,1577310612.62,0.4478033031928828,-0.6571499605504477,10.78473977333627,-0.5633673296672537,-0.0070366170743612,9.887264521752334,0.8082766409525055,-4.746066827541444,7.923260023312452,-5.059032905392531,0.2460014529344513,5.471020210080031,-5.462646484375,-0.9611176281440548,5.194687261814025,-6.500430223418445,-6.947959341653965,12.026530940358231,-7.5807024572649615,-6.1865502812162285,6.082968823015123,1.648682011147288,4.008466846425179,30.687078015300763,25.408901668314016,34.58612633659808,32.52544403510348,1577310611.999,-27.69254970822301,-51.12121002091239,3.8435774
36177,1577310612.63,0.2287338512885854,-0.5530021883336503,12.133872408834318,-0.3035964495403006,-0.0130221212247514,10.429551197777725,1.8964412954935204,1.6320863951148052,6.463994111447218,-6.768017280392531,-0.9594428830030488,5.013256538205031,-6.317138671875,2.060122606230945,5.393051519626525,-6.302065965605945,4.694496713033536,11.111003596608231,-7.74916251187085,-6.0122812592101385,6.264549981911094,5.823024027155972,3.424058964183964,26.940983669108675,25.60059304519724,34.562164914487674,32.45355976877228,1577310611.999,-27.69254970822301,-51.12121002091239,3.8435774
36178,1577310612.64,1.497660731171398,0.3759480558069736,10.309490743795257,0.7905537091511046,0.0444387186189976,9.44792851711366,-1.0699745614400722,-8.138650579982851,11.496606001095657,-4.753857124142531,1.7871391482469514,5.409985053830031,-5.523681640625,2.395815965605945,5.667709722751525,-5.386538621855945,8.783852181783537,-3.262775700266769,-6.738402184235517,-7.057895391246685,5.5382253463272,2.483550414349024,3.758006325464657,47.919112007783966,25.2651331356516,34.61008775870848,32.64525114565549,1577310611.999,-27.69254970822301,-51.12121002091239,3.8435774
36179,1577310612.65,0.6872234692085073,-0.3411153414098227,10.94515128456674,0.7306986676471984,-0.4391900167325638,10.951487159691789,-0.4331169198385096,-1.1332165223656625,13.275497834591748,-5.364208686642531,1.7413627810594514,5.211620796017531,-3.5400390625,1.6633940906059452,5.270981207126525,-4.074282762480945,4.145180306783536,-10.495441715891769,-7.075322293447299,-6.186550281216229,5.901387664119147,2.483550414349024,3.758006325464657,35.93161009996946,25.504747356755622,34.562164914487674,32.64525114565549,1577310611.999,-27.69254970822301,-51.12121002091239,3.8435774
36180,1577310612.66,1.181626112030773,-0.4093500887242753,9.883322848287442,1.3388258893268858,-1.27835769861733,10.998174092064833,1.604348692954458,-2.3303173524437883,13.373660102658157,-5.394726264767531,2.4585258669969514,5.165844428830031,-5.2947998046875,1.831240770293445,5.042099371189025,-4.394717332793445,-5.300010122903964,-8.633869450266769,-7.412242402659081,-6.360819303222321,6.264549981911094,-0.2993442629900968,3.5910326448243106,34.433172361492666,25.45682451253482,34.72989486926049,32.62128972354509,1577310611.999,-27.69254970822301,-51.12121002091239,3.8435774
36181,1577310612.67,1.3085188000190542,-0.9743816805211504,9.84022721840463,0.8025247174518858,-0.8869057271817826,10.211678846703505,0.6777926504739893,2.9848103331030864,17.865182417111278,-5.974560249142531,0.9326469607469512,5.196362006955031,-7.171630859375,1.2971831531059452,4.569076910251525,-3.524966356230945,-20.207847036966463,-13.913410465891769,-7.0753222934473055,-7.057895391246685,4.448738392951354,-3.082238940329218,3.424058964183964,32.93473462301586,25.2651331356516,34.753856291370894,32.6931739898763,1577310611.999,-27.69254970822301,-51.12121002091239,3.8435774
36182,1577310612.68,-0.015474718047351,-0.7445383211461504,10.838609310689789,0.0148323712604796,-0.7576188375333451,11.901985218773817,0.7065230703958643,-5.469115728908632,15.353664875607372,-4.753857124142531,2.4890434451219514,4.738598335080031,-6.65283203125,0.8699370593559451,4.416489019626525,-3.982730028105945,-29.454673208841463,-15.988605778391769,-6.738402184235517,-8.103509523283229,6.627712299703045,-7.2565809563379,3.841493165784832,27.69020253834717,25.408901668314016,34.562164914487674,32.6931739898763,1577310611.999,-27.69254970822301,-51.12121002091239,3.8435774
36183,1577310612.69,-0.4404455127250858,-0.6463760530797441,12.06803186318002,0.4769132916706359,-1.159844716439595,14.255485450707411,2.621884398520864,-4.181035235744568,10.052902400021436,-5.760937202267531,-0.6237495236280486,4.280834663205031,-6.134033203125,1.2056304187309452,4.843735113376525,-3.006167528105945,-27.989829458841463,-24.19783429401677,-7.580702457264965,-8.10350952328323,4.993481869639281,-8.64802829500746,3.758006325464657,26.940983669108675,25.36097882409321,34.8017791355917,32.357714080330666,1577310611.999,-27.69254970822301,-51.12121002091239,3.8435774
36184,1577310612.7,0.2311280529487417,-1.055784536966463,11.492226363912442,0.0016642621296208,-0.973096986947408,12.146193788109755,1.623502306235708,2.933334997409727,8.93361312389839,-4.906445014767531,-0.7153022580030487,4.280834663205031,-3.8299560546875,-1.2052582531440548,3.943466558689024,-2.151675340605945,-15.935386099466465,-20.24580792682927,-7.0753222934473055,-7.406433435258866,4.811900710743305,-6.421712553136166,4.2589273673857,26.940983669108675,25.504747356755622,34.825740557702105,32.26186839188906,1577310611.999,-27.69254970822301,-51.12121002091239,3.8435774
36185,1577310612.71,-0.0130805163871947,-1.8267174715367755,10.352586373678069,-0.8973584612590505,-1.7560009298185024,11.12865808254335,0.225288536704458,8.477108941501523,12.538083723263624,-4.296093452267531,-0.8984077267530487,4.738598335080031,-4.547119140625,-0.2897309093940549,4.263901129001525,-3.677554246855945,-12.792075552591465,1.5284840653582317,-6.569942129629636,-7.232164413252776,6.082968823015123,-1.9690810693935703,3.758006325464657,-157.3668581635378,25.60059304519724,34.753856291370894,32.597328301434686,1577310611.999,-27.69254970822301,-51.12121002091239,3.8435774
36186,1577310612.72,-0.561352696562976,-1.4651930208531816,10.627919564596036,-0.040234266923113,-1.7129052999356895,9.016972218285536,1.163815587485708,10.368528253024962,13.060019685177686,-4.174023139767531,-0.5321967892530487,4.372387397580031,-5.767822265625,-0.1981781750190548,4.538559332126525,-5.081362840605945,-14.562095083841465,23.04337664348323,-7.243782348053194,-8.626316589301503,5.356644187431228,1.6486820111472866,6.680045736670735,32.1855157537775,25.504747356755622,34.8017791355917,32.45355976877228,1577310611.999,-27.69254970822301,-51.12121002091239,3.8435774
36187,1577310612.73,0.5507539745796011,-1.7967899507848222,10.214919778219082,0.2662235455768859,-2.263571681771628,10.5348960708246,1.2045170157083642,4.052624273532774,13.380842707638624,-3.960400092892531,-0.7610786251905488,4.433422553830031,-3.997802734375,-0.4728363781440549,4.721664800876525,-6.851382371855945,-23.778403677591463,44.00895281535824,-8.001852593779681,-7.667836968268004,4.902691290191291,-7.2565809563379,6.179124694749696,27.69020253834717,25.48078593464522,34.8017791355917,32.6931739898763,1577310611.999,-27.69254970822301,-51.12121002091239,3.8435774
36188,1577310612.74,-0.7217642077934447,-0.1220458895055253,11.530533590474942,0.3200930829304015,-0.7971231649259233,11.138234889183972,1.7707457083353173,-1.427703326564881,8.113599055294873,-2.6176266553925305,0.1086723513719513,4.402904975705031,-3.0059814453125,-0.2744721203315549,4.279159918064025,-7.690615770293445,-21.123374380716463,45.00077410442074,-8.4230027302944,-7.754971479271048,5.5382253463272,2.066116212748157,6.387841795550128,37.05543840382708,25.31305597987241,34.65801060292928,32.54940545721389,1577310611.999,-27.69254970822301,-51.12121002091239,3.8435774
36189,1577310612.75,0.7961596447456167,-0.6104630281774003,11.97824930092416,0.7498522809284484,-0.6403029561856889,10.798258253441784,0.9459432364114893,-1.0470252626000374,6.12401747570503,-3.9909176710175305,-2.8515327267530486,3.701000678830032,-3.7841796875,0.2901030749809451,4.080795660251525,-6.302065965605945,-2.446616568216464,38.75992937785824,-6.233022020417861,-6.883626369240593,5.356644187431228,15.84144486557681,6.262611535069867,28.43942140758553,25.2651331356516,34.562164914487674,32.357714080330666,1577310611.999,-27.69254970822301,-51.12121002091239,3.8435774
36190,1577310612.76,0.6165945202338979,-0.4141384920445878,9.85938083168588,-1.1918452654582692,0.3820211527010289,10.645029347191786,-1.1130701913228849,-5.852187994533632,9.631522907833936,-1.6410641553925305,1.909209460746952,4.402904975705031,-2.044677734375,-1.0526703625190548,3.623031988376524,-4.745669481230945,4.145180306783536,28.47550554973323,-7.0753222934473055,-7.406433435258866,4.448738392951354,16.11973433331072,6.680045736670735,27.69020253834717,25.45682451253482,34.70593344715009,32.50148261299308,1577310611.999,-27.69254970822301,-51.12121002091239,3.8435774
36191,1577310612.77,-1.463966722441882,0.6177624234827548,11.573629220357754,-0.6842745135051442,0.498139933218607,11.76671282497499,-0.6066965401998382,-7.692131970363709,14.64737538586128,-2.1598629835175305,1.2378227419969514,4.433422553830031,-2.0294189453125,1.5108061999809452,4.950546636814025,-2.945132371855945,-5.681479849466464,8.684856135670731,-6.906862238841405,-8.974854633313685,4.267157234055382,17.650326405847238,6.63830231651065,34.80778179611191,25.45682451253482,34.753856291370894,32.47752119088268,1577310611.999,-27.69254970822301,-51.12121002091239,3.8435774
36192,1577310612.78,0.2107773388374141,-1.076135251077791,10.759600655904627,-0.2054341814738943,-0.3482103536466264,12.160558998070693,-0.3158010384908534,-10.049223504787538,7.96276435070503,-1.3816647413300305,-0.1965034298780487,4.753857124142531,-0.42724609375,2.121157762480945,4.813217535251525,-0.2901030749809452,-8.458579458841463,-18.73518780964177,-6.5699421296296325,-8.10350952328323,4.811900710743306,10.832234446366389,6.429585215710214,29.93785914606228,25.62455446730764,34.8017791355917,32.50148261299308,1577310611.999,-27.69254970822301,-51.12121002091239,3.8435774
36193,1577310612.79,0.3532323376167104,-1.086909158548494,11.370122079244473,0.3931162335651672,-1.0640766500333452,11.681718666039442,0.9363664297708644,0.5642724546851179,7.747286201290968,-0.7560543897675305,1.2988578982469514,4.555492866330031,-0.732421875,3.250308153105945,4.965805425876525,3.646664503144055,-2.812827505716464,-30.97273663776677,-6.233022020417861,-7.580702457264959,4.993481869639277,6.936181898091619,7.765374660832994,29.93785914606228,25.45682451253482,34.70593344715009,32.50148261299308,1577310611.999,-27.69254970822301,-51.12121002091239,3.8435774
36194,1577310612.8,0.2167628429878042,-0.1459879061070878,11.018174435201503,1.8056952130573547,-1.6674154683927211,11.181330519066789,2.384858434165396,5.493933672946836,9.684195344357374,-0.2677731397675305,1.939727038871952,4.097729194455031,-1.77001953125,3.402896043730945,5.026840582126525,3.738217237519055,1.6427389005335369,-22.91609601276677,-6.233022020417861,-7.580702457264959,4.993481869639277,13.615129123705511,7.431427299552298,26.940983669108675,25.504747356755622,34.70593344715009,32.45355976877228,1577310611.999,-27.69254970822301,-51.12121002091239,3.8435774
36195,1577310612.81,-0.5721266040336791,-0.6655296663609941,10.565670321431972,-0.2664863238078793,-0.248850984750142,13.1397874770746,1.9646760428079737,5.926087072605039,15.053192567257764,0.2815432664824696,0.1697075076219513,4.357128608517531,1.5106201171875,0.0459624499809451,4.202865972751525,1.1442230968940548,-1.1191019197789636,-2.026813786204268,-6.738402184235527,-7.929240501277139,4.993481869639277,9.44078710769683,8.182808862433863,32.93473462301586,25.45682451253482,34.681972025039684,32.74109683409711,1577310611.999,-27.69254970822301,-51.12121002091239,3.8435774
36196,1577310612.82,-0.5110744616996947,0.7709913297327549,11.245623592916347,-0.0378400652629568,-0.6498797628263139,11.528489759789442,1.8317978506693016,5.065371575778867,9.86615467052925,0.4646487352324695,-0.9899604611280488,4.158764350705031,1.3427734375,-0.1066254406440548,4.111313238376525,-0.1375151843559452,-3.484214224466464,12.636882502858231,-5.559181801994311,-7.929240501277138,3.5408325984714875,-2.525660004861394,7.431427299552298,29.93785914606228,25.504747356755622,34.562164914487674,31.878485638122623,1577310611.999,-27.69254970822301,-51.12121002091239,3.8435774
36197,1577310612.83,0.1688788097846792,-0.1292284944859941,10.156261837545255,0.7953421124714171,-0.994644801888814,9.534119776879283,2.131073058188833,3.6671578062476176,3.3108305250214363,-0.0541500928925304,-0.9289253048780488,4.189281928830031,0.8544921875,-0.9306000500190548,4.050278082126525,-1.6939116687309452,8.448158822408537,23.71476336223323,-6.569942129629636,-9.323392677325868,3.9039949162634384,-0.2993442629900964,7.431427299552298,29.93785914606228,25.408901668314016,34.753856291370894,32.45355976877228,1577310611.999,-27.69254970822301,-51.12121002091239,3.8435774
36198,1577310612.84,-0.6451497546684447,-0.4237152986852128,8.841845126119473,-0.4400659441692068,-0.0609061544278764,10.283504896508193,2.157409276450552,-3.3095458314476933,7.048179316525343,1.3496585008574695,0.0476371951219513,4.494457710080031,-1.861572265625,-0.4728363781440549,5.087875738376525,-1.6023589343559452,18.488442025533537,23.62321062785823,-6.569942129629636,-9.323392677325868,3.9039949162634384,-0.2993442629900964,7.431427299552298,29.93785914606228,25.45682451253482,34.70593344715009,32.45355976877228,1577310611.999,-27.69254970822301,-51.12121002091239,3.8435774
36199,1577310612.85,-1.1802538257133666,0.4046784757288486,9.720517135396816,-0.950030897782488,1.5192669412752475,10.779104640160536,2.250783141196645,6.056571063083555,10.028960383419872,0.2815432664824695,-3.0498969845655486,4.738598335080031,-0.54931640625,-3.5856293468940548,4.569076910251525,-1.7549468249809452,22.547279916158537,28.20084734660823,-7.412242402659074,-8.103509523283229,3.7224137573674634,8.32762923676118,6.847019417311081,32.1855157537775,25.360978824093213,34.8017791355917,32.45355976877228,1577310611.999,-27.69254970822301,-51.12121002091239,3.8435774
36200,1577310612.86,0.6788437633979605,0.9625274625452548,9.24646520668588,0.0315917828815739,0.2718878763338418,8.036546638451552,0.2695812674173491,-7.994998480373476,6.765663520626905,-0.1457028272675304,-3.9806831173780486,4.830151069455031,-0.152587890625,-2.151303175019055,5.179428472751525,-0.1680327624809452,30.19193323647104,14.727336604420731,-5.8961019112060855,-9.671930721338049,3.177670280679544,9.997366043164654,6.095637854429521,29.188640276823904,25.504747356755622,34.634049180818884,32.50148261299308,1577310611.999,-27.69254970822301,-51.12121002091239,3.8435774
36201,1577310612.87,0.5998351086128042,0.0431540250452549,9.593624447408535,0.3021365704792296,0.1833024149080601,7.884514833031631,1.144661974204458,-6.831416473537538,5.652359748654249,-1.1222653272675305,-4.194306164253049,4.860668647580031,-0.640869140625,-2.1818207531440548,5.209946050876525,1.1137055187690548,42.04801233803354,-2.255695622141769,-6.064561965811974,-7.754971479271048,3.7224137573674594,10.275655510898565,6.262611535069867,26.940983669108675,25.504747356755622,34.61008775870848,32.45355976877228,1577310611.999,-27.69254970822301,-51.12121002091239,3.8435774
36202,1577310612.88,0.3460497326362417,-0.3854080721227128,8.489897482076504,-0.116848720048113,-0.7073406026700639,6.75445164943788,-0.1745431405416346,-1.590509039455506,6.114440669064406,-0.3593258741425305,-1.8749702267530488,5.074291694455031,0.244140625,-3.921322706269055,4.477524175876525,1.0526703625190548,45.64908655678354,-7.809894840891768,-6.064561965811974,-7.754971479271048,3.7224137573674594,11.388813381834217,7.765374660832994,26.940983669108675,25.408901668314016,34.8017791355917,32.357714080330666,1577310611.999,-27.69254970822301,-51.12121002091239,3.8435774
36203,1577310612.89,0.3149251110542105,-0.1819009310094321,8.645520589986662,-0.246135609696551,0.2706907755037632,5.774026069603896,-0.072789569984994,0.747428881687071,7.519837043576124,-1.1375241163300305,-1.1425483517530486,5.165844428830031,-0.396728515625,-1.5867279797065548,5.179428472751525,-0.9157134265434452,45.96952112709604,-9.732502262766769,-5.98033193850903,-7.14502990224973,3.994785495711424,10.971379180233347,7.139223358431691,27.31559310372792,25.360978824093213,34.753856291370894,32.47752119088268,1577310611.999,-27.69254970822301,-51.12121002091239,3.8435774
36204,1577310612.9,0.702785779999523,-0.0238836214391191,9.48827957436166,2.0163849591511047,-1.1167490865567826,8.916415748558974,-1.5631801034322594,0.9210085020483992,13.60589766369331,-1.2443356397675305,-2.7599799923780486,5.593090522580031,-3.662109375,2.029605028105945,5.911850347751525,1.8461273937690548,33.65567835365854,-8.939045231516769,-6.401482075023749,-7.406433435258866,3.3592514395755155,10.275655510898565,6.095637854429521,-200.821552579365,25.31305597987241,34.70593344715009,32.789019678317906,1577310611.999,-27.69254970822301,-51.12121002091239,3.8435774
36205,1577310612.91,1.614976612519054,0.2179307462366611,8.762836471334317,1.7290807599323543,-0.4391900167325638,7.302723829613662,0.4216130728372705,-1.6719118959008186,10.02417198009956,-0.9391598585175304,0.2917778201219513,4.860668647580031,-2.5634765625,0.1680327624809451,4.965805425876525,0.0761078625190547,27.948891244283537,-8.725422184641769,-6.401482075023749,-7.754971479271048,5.5382253463272,5.823024027155972,4.592874728666395,-224.79655639499376,25.60059304519724,34.70593344715009,31.73471710546021,1577310611.999,-27.69254970822301,-51.12121002091239,3.8435774
36206,1577310612.92,1.184020313690929,-0.4476573152867753,9.435607137838224,0.5894407696979796,-0.8294448873380327,8.485459449730849,0.5939955923685205,4.433302337497618,14.11107421398628,-1.6715817335175305,-0.3490913205030487,4.769115913205031,-0.54931640625,-0.5338715343940549,4.569076910251525,-0.5037261218559452,21.936928353658537,-5.7652171065167686,-6.401482075023749,-7.754971479271048,5.5382253463272,5.823024027155972,4.592874728666395,-236.78405830280823,25.74436157785965,34.70593344715009,32.597328301434686,1577310611.999,-27.69254970822301,-51.12121002091239,3.8435774
36207,1577310612.93,0.6680698559272573,-0.7996049593297442,9.113587014547209,0.4625480817096984,-0.3290567403653768,9.55806179348085,1.7372268850931298,-1.5905090394555073,11.163811970333937,-1.0154538038300305,0.0323784060594513,5.028515327267531,-1.739501953125,0.9462310046684452,5.286239996189025,-1.571841356230945,8.036171517721037,4.214030940358232,-6.1487919931149175,-7.842105990274094,4.539528972399344,1.7878267450142449,3.382315544023877,-246.1492941682883,25.48078593464522,34.72989486926049,32.50148261299308,1577310611.999,-27.69254970822301,-51.12121002091239,3.8435774
36208,1577310612.94,0.7626408215034292,0.1173742765100986,8.683827816549162,0.6756320294636046,0.2335806497713413,9.854942799340224,0.2276827383646143,-0.7046544251976936,8.59483358898628,-0.2372555616425304,-0.0439155392530487,5.104809272580031,-0.54931640625,-0.5949066906440549,5.179428472751525,0.5338715343940548,11.988197884908535,-3.934162419016769,-6.906862238841405,-8.974854633313685,4.630319551847333,-3.082238940329218,2.088269519061185,-236.78405830280823,25.45682451253482,34.8017791355917,32.45355976877228,1577310611.999,-27.69254970822301,-51.12121002091239,3.8435774
36209,1577310612.95,0.1353599865424917,-0.0574024446813066,8.846633529439787,0.6852088361042296,-0.3003263204435014,9.368919862328504,1.1614213858255518,5.49153947128668,9.712925764279248,-0.3288082960175305,0.7190239138719513,5.226879585080031,0.701904296875,-0.1371430187690548,5.179428472751525,0.2592133312690547,12.629067025533535,0.6129567216082317,-5.8961019112060855,-8.277778545289321,4.630319551847333,-10.87434403687876,3.424058964183964,-212.8090544871794,25.45682451253482,34.8017791355917,32.64525114565549,1577310611.999,-27.69254970822301,-51.12121002091239,3.8435774
36210,1577310612.96,-0.0298399280082885,-1.2604887789098222,7.813535513082364,0.2279163190143859,-0.9395781637052202,8.655447767601943,3.6849099356302393,2.721448150485899,9.059308711056593,0.2052493211699695,-0.7763374142530486,5.181103217892531,0.091552734375,-1.6935395031440548,4.996323004001525,-0.9309722156059452,7.441078744283536,10.439616877858231,-5.8961019112060855,-8.277778545289321,4.630319551847333,-11.430922972346584,3.424058964183964,-185.8371751945969,25.38494024620361,34.562164914487674,32.789019678317906,1577310611.999,-27.69254970822301,-51.12121002091239,3.8435774
36211,1577310612.97,-0.7217642077934447,0.0814612516077549,7.783607992330411,-0.0964980059367854,-0.5565058980802207,10.728826405297257,1.4966096182474269,3.5618129332007427,8.191410609249953,1.7158694383574695,-1.6918647580030486,5.348949897580031,-0.48828125,-2.9447602062690548,5.530380621189025,-0.7326079577934452,14.780556283346035,16.71097918254573,-6.569942129629636,-7.580702457264959,4.267157234055382,-9.343751964342244,3.5492892246642245,-180.21803367530896,25.45682451253482,34.753856291370894,32.47752119088268,1577310611.999,-27.69254970822301,-51.12121002091239,3.8435774
36212,1577310612.98,-1.6219840320121943,0.5986088102015048,7.06295329262338,-0.1192429217082693,0.4131457742830601,11.487788331566788,2.052064403403677,-0.4173502259789436,9.308305683712844,1.8074221727324693,-3.7975776486280486,5.532055366330031,1.3427734375,-4.043393018769055,4.904770269626525,-0.7478667468559452,16.138588509908537,22.09733172160823,-5.727641856600198,-8.800585611307595,4.448738392951354,-9.482896698209196,4.843335249626915,-174.59889215602104,25.45682451253482,34.94554766825411,32.45355976877228,1577310611.999,-27.69254970822301,-51.12121002091239,3.8435774
36213,1577310612.99,-1.6124072253715696,-0.454839920267244,8.32709176918588,-0.068964686844988,-0.6498797628263139,11.77269832912538,1.0919895376810205,-5.193782537990663,8.726514680294875,1.3496585008574695,-6.635712414253049,4.860668647580031,2.01416015625,-6.301693800019055,5.209946050876525,1.2968109875190548,18.732582650533537,8.303386409108231,-7.74916251187085,-8.452047567295411,2.632926803991621,-9.482896698209196,3.5075458045041388,-176.09732989449776,25.2651331356516,34.61008775870848,32.64525114565549,1577310611.999,-27.69254970822301,-51.12121002091239,3.8435774
36214,1577310613.0,-1.0425872302543822,-2.3067549043981037,6.936060604635099,-0.8518686297160818,-1.15026790979897,11.17175371242616,-0.3181952401510096,-1.5091061830101935,9.133528962521437,4.370898735232469,-7.0934760861280495,5.043774116330031,3.631591796875,-9.383969190644056,5.484604254001525,3.4025238781440548,23.157631478658537,-1.0349924971417683,-7.74916251187085,-8.452047567295411,2.632926803991621,-2.247370537127482,1.50386163681997,-116.15982035542574,25.33701740198281,34.70593344715009,32.64525114565549,1577310612.999,-27.69251273304432,-51.1212068109245,3.7312117
36215,1577310613.01,-1.5262159656059446,-2.501882339700838,8.125978829732755,-1.1236105181438163,-0.6774130819181108,11.160979804955458,0.8968621023782861,-3.4843225526390995,13.292257246212843,6.262988578982469,-9.62643507050305,6.172924506955031,5.0201416015625,-9.048275831269056,6.293320074314025,5.752377393769055,18.122231088033537,-7.794636051829267,-6.064561965811974,-7.754971479271048,3.3592514395755155,-0.0210547952561843,2.589190560982228,-112.4137260092337,25.45682451253482,34.72989486926049,32.57336687932428,1577310612.999,-27.69251273304432,-51.1212068109245,3.7312117
36216,1577310613.02,0.6381423351753042,-1.1395815950719317,7.441237154928067,0.8815333722370421,-1.178998329720845,8.064079957543349,-0.8592848153463222,3.315210162204649,13.51731220226753,7.575244438357469,-11.24386671112805,6.539135444455031,8.087158203125,-11.489682081269056,7.041000738376525,8.346371534394056,1.4596334317835369,-11.777179997141769,-5.559181801994311,-9.323392677325868,1.725021009511747,8.049339769027267,3.758006325464657,-134.8902920863858,25.31305597987241,34.70593344715009,32.357714080330666,1577310612.999,-27.69251273304432,-51.1212068109245,3.7312117
36217,1577310613.03,2.3954863537299915,-0.9384686556188068,10.706928219381192,1.053915891768292,-2.787901845345846,4.898945362816786,-1.893579932533822,-2.236943487697693,10.795104914669874,5.652637016482469,-12.73922803925305,6.294994819455031,9.58251953125,-8.804135206269056,6.522201910251525,8.010678175019056,-8.000815786966463,-9.213703434641769,-5.727641856600198,-6.709357347234502,3.7224137573674594,5.823024027155972,4.091953686745352,-140.884043040293,25.504747356755622,34.8017791355917,32.597328301434686,1577310612.999,-27.69251273304432,-51.1212068109245,3.7312117
36218,1577310613.04,2.4697066051948355,0.0479424283655678,9.515812893453456,1.5267707196491516,-0.906059340463033,6.145127326928114,-1.644582959877572,5.333522161716368,7.805944141964796,9.009570610232467,-3.3398139767530486,5.867748725705031,6.1492919921875,-3.4788178234565548,6.217026129001525,9.475521925019056,-8.733237661966463,-2.301471989329268,-6.233022020417861,-8.277778545289321,2.451345645095649,6.797037164224663,1.7960655779405783,-179.4688148060706,25.45682451253482,34.70593344715009,32.47752119088268,1577310612.999,-27.69251273304432,-51.1212068109245,3.7312117
36219,1577310613.05,1.3875274548042105,-1.7213725984899004,8.082883199849942,0.7785827008503233,-0.3170857320645951,10.005777503930068,0.9363664297708644,3.911366375583555,8.092051240353468,10.138721000857467,-0.9594428830030488,5.562572944455031,7.537841796875,-1.0221527843940548,6.278061285251525,7.522396925019055,-3.8809427400914633,17.06193133098323,-6.233022020417861,-8.974854633313685,3.177670280679544,6.379602962623795,3.59103264482431,-181.34186197916657,25.45682451253482,34.70593344715009,32.50148261299308,1577310612.999,-27.69251273304432,-51.1212068109245,3.7312117
36220,1577310613.06,-0.781619249297351,0.0479424283655674,10.836215109029627,0.4505770734089172,0.6669311502596226,12.016906898461318,3.1773391836771143,1.2538025328101177,7.376184943966749,8.795947563357469,-2.3632514767530486,5.654125678830031,12.603759765625,-1.7240570812690548,4.385971441501525,6.820492628144055,0.8187642911585366,20.14420672160823,-5.8961019112060855,-7.929240501277138,3.9039949162634384,-3.082238940329218,3.758006325464657,-184.33873745612016,25.31305597987241,34.8017791355917,32.50148261299308,1577310612.999,-27.69251273304432,-51.1212068109245,3.7312117
36221,1577310613.07,0.453788807343273,-0.3710428621617753,10.156261837545255,2.3826978131550107,-2.289907900033346,11.07598564601991,2.5668177603372704,1.691941436618711,8.451181489376905,8.033008110232469,-3.7975776486280486,5.593090522580031,9.735107421875,-0.7474945812690549,5.759262457126525,5.660824659394055,4.541908822408536,28.07877703410823,-3.7061212013295406,-9.497661699331958,4.448738392951354,-7.2565809563379,4.175440527065527,-170.10357894059058,25.60059304519724,34.94554766825411,32.45355976877228,1577310612.999,-27.69251273304432,-51.1212068109245,3.7312117
36222,1577310613.08,0.8380581737983511,-0.3949848787633379,9.487082473531585,0.8827304730671204,-1.1610418172696737,9.427577803002333,-1.146589014565072,-5.554109887844178,12.34894179211128,7.636279594607469,-2.6836860470655486,5.303173530392531,6.6375732421875,-3.0210541515815548,5.927109136814025,6.027035596894055,1.4901510099085362,17.94694109660823,-6.064561965811974,-8.103509523283229,3.3592514395755155,-1.9690810693935696,3.424058964183964,-59.96840516254575,25.60059304519724,34.8257405577021,32.47752119088268,1577310612.999,-27.69251273304432,-51.1212068109245,3.7312117
36223,1577310613.09,-0.8510510974418822,0.9433738492640048,9.72530553871713,0.1704554791706359,2.1130289529939974,10.9562755630121,-1.4745946420064782,-2.703812811428162,16.189241255001903,8.338183891482469,0.2917778201219513,5.135326850705031,7.50732421875,-3.4330414562690548,5.270981207126525,7.217221143769055,-16.026938833841463,5.007487971608232,-6.401482075023749,-8.800585611307595,2.632926803991621,-0.8559231984579215,4.759848409306741,-149.87466947115377,25.504747356755622,34.94554766825411,32.50148261299308,1577310612.999,-27.69251273304432,-51.1212068109245,3.7312117
36224,1577310613.1,-0.0753297595512572,2.4708745084436923,8.707769833150724,-0.6411788836223318,1.0787338358064975,10.92275673976991,0.8860881949075831,-5.306310016018007,11.558855244259718,8.521289360232469,-2.5768745236280486,5.074291694455031,8.453369140625,-4.409603956269055,5.332016363376525,8.254818800019056,-23.900473990091463,-12.875812809641769,-6.064561965811974,-8.103509523283229,3.3592514395755155,-3.082238940329218,4.759848409306741,-152.87154494810736,25.31305597987241,34.70593344715009,32.45355976877228,1577310612.999,-27.69251273304432,-51.1212068109245,3.7312117
36225,1577310613.11,0.9853015758979604,-0.1447908052770102,9.713334530416349,1.8679444562214167,-1.4782735372403772,7.939581471215224,1.776731212485708,0.4325913633765241,6.191055122189406,6.339282524294969,-4.056977062690549,5.013256538205031,10.650634765625,-3.0057953625190548,4.233383550876525,8.132748487519056,-20.482505240091463,-17.48396710651677,-6.654172156932583,-8.364913056292366,3.6316231779194768,-3.082238940329218,4.759848409306741,-152.87154494810736,25.408901668314016,34.70593344715009,32.357714080330666,1577310612.999,-27.69251273304432,-51.1212068109245,3.7312117
36226,1577310613.12,0.4801250256049917,-3.531389053568025,8.054152779928067,1.444170762373761,-1.9499312642911584,10.153020906029678,3.5807621634134423,2.807639410251524,6.401744868283156,5.072803032107469,-4.835175304878049,4.921703803830031,5.2032470703125,-4.379086378144055,5.133652105564025,6.393246534394055,-13.188804068216465,-0.9281809737042684,-7.243782348053194,-8.277778545289321,3.9039949162634384,3.040129349816848,3.424058964183964,-164.85904685592186,25.504747356755622,34.70593344715009,32.64525114565549,1577310612.999,-27.69251273304432,-51.1212068109245,3.7312117
36227,1577310613.13,-0.4057295886528198,0.8691535977991611,9.89768805824838,-0.3490862810832693,0.7076325784822788,9.491024146996471,1.652232726157583,5.841092913669493,6.768057722287062,7.025928032107469,-3.7060249142530486,5.257397163205031,3.96728515625,-6.545834425019055,4.813217535251525,5.142025831269055,0.0863424161585365,10.866862971608231,-6.401482075023749,-7.754971479271048,2.2697644861996773,5.823024027155972,3.758006325464657,-187.33561293307372,25.45682451253482,34.61008775870848,32.6931739898763,1577310612.999,-27.69251273304432,-51.1212068109245,3.7312117
36228,1577310613.14,-0.6523323596489135,1.8388052701624424,9.799525790181974,0.6181711896198546,1.073945432486185,9.4622937270746,0.6155434073099268,-4.243284478908631,9.274786860470655,5.805224907107469,-5.659149914253049,5.196362006955031,4.364013671875,-5.691342237519055,4.996323004001525,2.7006195812690548,3.8400045255335367,16.57365008098323,-6.064561965811974,-8.452047567295411,3.7224137573674594,-0.8559231984579215,3.424058964183964,-188.8340506715505,25.408901668314016,34.8017791355917,32.45355976877228,1577310612.999,-27.69251273304432,-51.1212068109245,3.7312117
36229,1577310613.15,0.9948783825385854,0.5591044828089272,9.7815692777308,1.3460084943073547,0.3700501444002476,10.683336573754286,-0.952658680092416,-1.9185146668969124,13.886019257931592,3.287524711794969,-6.452606945503049,4.433422553830031,5.4931640625,-7.034115675019055,4.538559332126525,4.012875440644055,-3.6368021150914633,10.256511409108231,-6.3172520477208085,-7.842105990274093,4.357947813503368,-1.9690810693935703,3.758006325464657,-178.34498650221298,25.528708778866022,34.70593344715009,32.789019678317906,1577310612.999,-27.69251273304432,-51.1212068109245,3.7312117
36230,1577310613.16,1.5479389660346792,0.4477741056116611,10.149079232564786,0.267420646406964,-0.4080653951505331,7.952749580346083,0.2085291250833643,1.213101104587462,9.633917109494092,4.157275688357469,-3.9196479611280486,4.769115913205031,2.777099609375,-4.730038526581555,5.301498785251525,2.2123383312690548,-10.793174185403965,14.925700862233231,-7.243782348053194,-7.929240501277138,4.993481869639277,-0.8559231984579215,3.924980006105004,-164.85904685592186,25.504747356755622,34.681972025039684,32.64525114565549,1577310612.999,-27.69251273304432,-51.1212068109245,3.7312117
36231,1577310613.17,1.5144201427924917,-1.1611294100133378,10.16583864418588,0.7953421124714171,-1.7081168966153772,9.021760621605848,2.5380873404153954,2.268944036716368,7.431251582150343,2.814502250857469,-3.6755073361280486,4.372387397580031,0.79345703125,-3.2804535656440548,4.904770269626525,0.5338715343940548,-9.831870474466465,23.47062273723323,-7.243782348053194,-7.929240501277138,4.993481869639277,-1.9690810693935703,3.59103264482431,-158.86529590201468,25.504747356755622,34.70593344715009,32.30979123610986,1577310612.999,-27.69251273304432,-51.1212068109245,3.7312117
36232,1577310613.18,1.0930406506049917,-1.314358316263338,8.57608874184213,0.2781945538776672,0.2551284647127476,8.973876588402723,1.546887853110708,2.845946636814024,5.599687312130812,2.509326469607469,-3.3092963986280486,4.586010444455031,1.40380859375,-2.9142426281440548,4.843735113376525,-0.0154448718559452,-0.6460794588414634,29.39103289348323,-6.569942129629636,-9.323392677325868,2.088183327303706,-3.082238940329218,4.091953686745352,38.92848557692305,25.45682451253482,34.753856291370894,32.50148261299308,1577310612.999,-27.69251273304432,-51.1212068109245,3.7312117
36233,1577310613.19,0.1928208263862422,2.926969924703457,9.95514889809213,-0.1383965349895193,2.280623069204935,8.882896925316787,-0.9035775460592128,-7.461091510158631,7.6203935133026866,2.829761039919969,-2.4242866330030486,4.524975288205031,3.2196044921875,-2.3954438000190548,4.019760504001525,2.0597504406440548,8.661781869283535,8.715373713795731,-5.980331938509027,-7.667836968268004,2.5421362245436314,-1.6907916016596571,4.92682208994709,34.43317236149272,25.38494024620361,34.58612633659808,32.30979123610986,1577310612.999,-27.69251273304432,-51.1212068109245,3.7312117
36234,1577310613.2,0.2622526745307729,1.3886953580530674,9.41166512123666,0.1393308575886046,-0.0944249776700638,8.703331800805067,-1.3836149789205408,3.92094318222418,16.49091066418159,1.2275881883574695,-1.7528999142530486,3.670483100705032,1.800537109375,-3.0973480968940548,4.202865972751525,1.6935395031440548,-0.4934915682164634,0.2467457841082316,-6.738402184235517,-7.754971479271048,1.9066021684077188,-1.9690810693935703,6.262611535069867,40.42692331539992,25.45682451253482,34.70593344715009,32.50148261299308,1577310612.999,-27.69251273304432,-51.1212068109245,3.7312117
36235,1577310613.21,0.7195451916206167,-0.0286720247594316,10.64467897621713,-0.1431849383098318,-0.6259377462247514,11.394414466820692,-3.1241995858541345,-7.157027899318788,17.33606385021675,0.5562014696074695,-2.8515327267530486,3.914623725705032,0.396728515625,-0.9611176281440548,5.209946050876525,0.8085297375190548,-20.360434927591463,-6.3145335127667686,-6.738402184235517,-7.754971479271048,1.9066021684077188,-3.082238940329218,6.095637854429521,26.940983669108675,25.31305597987241,34.8017791355917,32.597328301434686,1577310612.999,-27.69251273304432,-51.1212068109245,3.7312117
36236,1577310613.22,1.382739051483898,-1.0414193270055254,9.773189571920256,0.6349306012409484,-1.205334547982564,9.759174732933973,-1.5224786752096031,-3.807539776760193,15.157340339474562,2.082080375857469,-1.9360053830030488,4.158764350705031,1.068115234375,-1.5714691906440548,4.569076910251525,2.4564789562690548,-35.80232945884146,-17.36189679401677,-6.738402184235517,-8.452047567295411,3.7224137573674594,-1.6907916016596571,6.179124694749696,27.69020253834717,25.408901668314016,34.70593344715009,32.50148261299308,1577310612.999,-27.69251273304432,-51.1212068109245,3.7312117
36237,1577310613.23,0.8476349804389761,-0.5194833650914629,11.285127920308929,1.1855969830768858,-0.8593724080899858,10.736009010277725,2.084386125815786,4.951646996921445,9.12514925671089,0.6782717821074695,-2.1496284298780486,3.899364936642531,2.0904541015625,-2.2733734875190548,3.378891363376524,1.6782807140815548,-38.57942906821646,-5.0938303877667686,-5.222261692782536,-7.580702457264957,3.3592514395755124,-2.3865152709944377,6.2208681149097815,30.31246858068152,25.38494024620361,34.70593344715009,32.54940545721388,1577310612.999,-27.69251273304432,-51.1212068109245,3.7312117
36238,1577310613.24,0.645324940155773,-0.0669792513219316,11.137884518209315,0.1369366559284484,0.0635923319002476,10.472646827660537,2.454290282309927,6.0876956846655865,4.34273144054878,0.2815432664824695,-1.8444526486280488,3.5484127882050305,-0.457763671875,-1.8156098156440548,3.1042331602515243,-0.9614897937309452,-22.130454458841463,13.643962580983231,-6.064561965811974,-8.452047567295411,3.3592514395755155,5.823024027155972,7.431427299552298,38.92848557692305,25.2651331356516,34.753856291370894,32.789019678317906,1577310612.999,-27.69251273304432,-51.1212068109245,3.7312117
36239,1577310613.25,0.0707165417182729,0.6656464566858799,10.831426705709315,0.9701188336628234,1.06436862584556,10.455887416039443,2.255571544516958,5.367040984958555,9.095221735958935,0.4951663133574695,-3.0346381955030486,3.701000678830032,-2.197265625,-0.8390473156440549,3.775619879001524,-2.487368699980945,-14.684165396341465,24.66080828410823,-6.064561965811974,-8.452047567295411,3.3592514395755155,5.823024027155972,7.431427299552298,38.92848557692305,25.504747356755622,34.562164914487674,32.45355976877228,1577310612.999,-27.69251273304432,-51.1212068109245,3.7312117
36240,1577310613.26,0.0324093151557734,3.363911727681973,10.297519735494474,0.4314234601276672,2.7929822244783726,11.23639715725038,-0.7108443124166347,-3.6950122987328498,9.835030048947218,-0.2067379835175304,-2.1038520626905486,3.411083686642531,-1.800537109375,-1.9681977062690548,3.4094089415015243,-2.151675340605945,-10.869468130716465,16.26847429973323,-5.98033193850903,-8.190644034286276,3.4500420190235013,10.275655510898565,7.431427299552298,32.93473462301586,25.43286309042442,34.70593344715009,32.50148261299308,1577310612.999,-27.69251273304432,-51.1212068109245,3.7312117
36241,1577310613.27,1.191202918671398,0.7422609098108798,10.474690658346036,0.3440350995319645,1.5886987894197788,8.86733461452577,-1.33932224820765,-4.228919268947694,12.988193635373,-2.4650387647675305,-4.957245617378049,3.762035835080032,0.0457763671875,-2.6243256359565548,3.7451023008765247,-2.197451707793445,-15.889609732278965,2.962810237233231,-6.233022020417861,-9.323392677325868,2.8145079628875926,8.049339769027268,7.514914139872473,26.940983669108675,25.2651331356516,34.8257405577021,32.47752119088268,1577310612.999,-27.69251273304432,-51.1212068109245,3.7312117
36242,1577310613.28,1.7203214855659292,-1.2114076448766191,8.59524235512338,0.6708436261432921,-0.3051147237638139,8.940357765160535,-1.7451394296041345,-3.1778647401391,12.78229229259956,-0.4813961866425305,-1.0204780392530486,3.945141303830032,-0.67138671875,-1.6019867687690548,3.958725347751524,-0.9920073718559452,-31.651938833841463,-10.007160465891769,-5.390721747388423,-7.754971479271048,2.2697644861996773,1.370392543413376,6.262611535069867,32.93473462301586,25.504747356755622,34.70593344715009,32.45355976877228,1577310612.999,-27.69251273304432,-51.1212068109245,3.7312117
36243,1577310613.29,0.4011163708198355,-1.3933669710484942,10.915223763814788,-0.365845692704363,-0.7360710225919389,8.540526087914444,0.426401476157583,0.8779128721655866,8.223732331662061,-0.8781247022675305,-0.6542671017530487,4.799633491330031,-3.204345703125,0.0764800281059451,4.843735113376525,1.5714691906440548,-34.58162633384146,-8.298176090891769,-5.390721747388423,-7.754971479271048,2.2697644861996773,1.9269714788812,6.095637854429521,32.93473462301586,25.45682451253482,34.70593344715009,32.50148261299308,1577310612.999,-27.69251273304432,-51.1212068109245,3.7312117
36244,1577310613.3,0.7542611156928823,-0.7421441194859941,10.8050904874476,1.2669998395221984,-0.4607378316739701,11.645805641137098,1.4463313833841456,0.4541391783179303,8.405691657833936,-0.6492428663300305,-0.7000434689405487,4.494457710080031,-2.50244140625,-0.6559418468940549,5.026840582126525,-0.5037261218559452,-30.950034536966463,-2.499836247141769,-5.053801638176644,-8.626316589301503,2.8145079628875926,1.6486820111472866,6.179124694749696,27.69020253834717,25.36097882409321,34.70593344715009,32.45355976877228,1577310612.999,-27.69251273304432,-51.1212068109245,3.7312117
36245,1577310613.31,-0.6331787463676635,1.5299532560022862,11.73643493324838,0.2494641339557926,0.7938238382479038,12.939871638451551,2.5656206595071924,2.1025470213355084,11.661805915646436,0.5562014696074695,-1.3866889767530486,4.769115913205031,-0.640869140625,-1.8613861828315548,4.385971441501525,-0.5342436999809452,-23.946250357278963,-0.6687815596417683,-5.727641856600198,-8.800585611307595,3.3592514395755155,0.6746688740785951,6.638302316510649,31.810906319158317,25.504747356755622,34.61008775870848,32.47752119088268,1577310612.999,-27.69251273304432,-51.1212068109245,3.7312117
36246,1577310613.32,-0.3746049670707885,1.4748866178186923,12.071623165670257,0.534374131514386,-0.3003263204435014,12.395190760766004,1.767154405845083,-2.6678997865258185,12.265144734005812,-2.0988278272675305,-3.7975776486280486,4.250317085080031,-1.007080078125,-4.104428175019055,3.4094089415015243,-1.3887358874809452,-25.701011099466463,-2.805012028391769,-6.064561965811974,-8.800585611307595,2.632926803991621,-0.2993442629900964,6.76353257699091,29.93785914606228,25.504747356755622,34.46631922604607,32.64525114565549,1577310612.999,-27.69251273304432,-51.1212068109245,3.7312117
36247,1577310613.33,-0.0561761462700072,-0.5506079866734941,9.416453524556973,-1.2924017351848318,-0.6546681661466264,10.724038001976943,-0.1194765023580409,-2.9767518006859746,9.954740131955033,-0.6034664991425305,-3.0651557736280486,4.524975288205031,-0.9765625,-4.928402784394055,4.385971441501525,-0.8699370593559452,-24.449790396341463,-9.091633122141769,-6.064561965811974,-8.800585611307595,2.632926803991621,-2.525660004861394,7.264453618911951,-128.8965411324786,25.408901668314016,34.753856291370894,32.50148261299308,1577310612.999,-27.69251273304432,-51.1212068109245,3.7312117
36248,1577310613.34,-0.7672540393364133,-0.9791700838414628,10.371739986959318,-1.1176250139934254,-0.1614626241544388,9.98662389064882,-0.3756560799947596,0.7653853941382428,9.308305683712844,-1.5189938428925305,-3.8128364376905486,4.982738960080031,-3.387451171875,-4.653744581269055,5.393051519626525,-0.2901030749809452,-18.926108755716463,-8.481281559641769,-5.727641856600198,-8.800585611307593,3.359251439575516,6.936181898091619,6.596558896350564,-140.884043040293,25.2651331356516,34.61008775870848,31.878485638122623,1577310612.999,-27.69251273304432,-51.1212068109245,3.7312117
36249,1577310613.35,-0.9180887439262572,-0.4476573152867753,10.438777633443692,-1.4420393389445976,0.7303774942537632,11.783472236596085,-0.9466731759420252,3.4863955809058207,12.609909773068312,0.2815432664824695,-3.0956733517530486,5.898266303830031,-2.716064453125,-3.2194184093940548,5.850815191501525,-0.6868315906059452,-20.833457388528963,4.5344655106707314,-5.222261692782536,-9.323392677325868,3.5408325984714875,15.145721196242029,6.972249677791343,-76.07661085117132,25.45682451253482,34.58612633659808,32.7171354119867,1577310612.999,-27.69251273304432,-51.1212068109245,3.7312117
36250,1577310613.36,-1.8590099963676636,1.2306780484827549,11.255200399556973,-0.7848309832317067,0.5711630838533727,12.905155714379289,-0.0955344857564784,-0.0582199769555061,10.910026594357374,-0.6950192335175305,-4.713104992378049,5.715160835080031,-0.091552734375,-4.012875440644055,6.003403082126525,-2.639956590605945,-26.982749380716463,14.681560237233231,-6.401482075023749,-8.103509523283229,1.9066021684077188,8.049339769027267,7.431427299552298,-206.81530353327216,25.45682451253482,34.70593344715009,32.50148261299308,1577310612.999,-27.69251273304432,-51.1212068109245,3.7312117
36251,1577310613.37,0.0180441051948354,-0.1914777376500566,12.114718795553069,0.9533594220417296,-0.1518858175138139,10.8413538833246,1.0273460928568017,-5.61755623183832,4.785658747677687,-1.8852047803925305,-5.537079601753049,5.165844428830031,0.79345703125,-4.623227003144055,5.087875738376525,-1.2666655749809452,-16.942466177591463,5.495769221608232,-6.401482075023749,-8.103509523283229,1.9066021684077188,9.162497639962917,7.431427299552298,26.940983669108675,25.45682451253482,34.70593344715009,32.50148261299308,1577310612.999,-27.69251273304432,-51.1212068109245,3.7312117
36252,1577310613.38,0.9577682568061636,-1.1168366793004472,9.864169235006193,0.8192841290729795,-1.678189375863424,7.439193324242567,3.425139055503286,2.971642223972227,6.623208521847609,-0.6034664991425305,-4.407929211128049,5.303173530392531,-2.960205078125,-3.1889008312690548,5.301498785251525,-2.258486864043445,-5.101645865091464,12.118083674733231,-6.064561965811974,-7.580702457264957,2.26976448619967,7.771050301293355,5.17728261090761,-107.91841279380338,25.45682451253482,34.70593344715009,32.47752119088268,1577310612.999,-27.69251273304432,-51.1212068109245,3.7312117
36253,1577310613.39,0.7003915783393667,-0.4835703401891191,11.82502039467416,0.2829829571979796,-1.1359026998380326,8.691360792504286,-0.4618473397603846,-3.0413952455101936,10.730461469845656,-2.7702145460175305,-2.4853217892530486,4.189281928830031,-3.875732421875,-4.989437940644055,4.904770269626525,-3.738589403105945,-4.888022818216464,12.697917659108231,-5.727641856600198,-8.103509523283229,2.996089121783565,-0.8559231984579215,3.924980006105006,-254.76531116452983,25.2651331356516,34.70593344715009,32.45355976877228,1577310612.999,-27.69251273304432,-51.1212068109245,3.7312117
36254,1577310613.4,-0.2046166491996947,-0.3159762239781816,9.607989657369474,-2.2668418108684256,0.0731691385408726,9.021760621605848,0.9267896231302392,-2.8594359193383183,7.979523762326124,-1.2138180616425305,-2.8820503048780486,5.532055366330031,-1.922607421875,-6.088070753144055,4.141830816501525,-3.372378465605945,-2.263511099466464,7.540446955983231,-6.569942129629636,-8.626316589301503,3.177670280679544,-6.421712553136165,3.424058964183964,31.43629688453913,25.31305597987241,34.753856291370894,32.64525114565549,1577310612.999,-27.69251273304432,-51.1212068109245,3.7312117
36255,1577310613.41,-1.3059494128715696,0.9792868741663489,10.117954610982755,-2.300360634110613,0.4897602274080601,10.206890443383193,1.5804066763528954,-3.8650006166039432,8.195001911740187,-2.5871090772675305,-4.804657726753049,4.860668647580031,-2.227783203125,-3.1583832531440548,4.843735113376525,-3.463931199980945,4.450356088033536,2.6271168778582314,-5.8961019112060855,-9.671930721338049,3.9039949162634384,-10.87434403687876,3.424058964183964,34.43317236149272,25.36097882409321,34.70593344715009,32.64525114565549,1577310612.999,-27.69251273304432,-51.1212068109245,3.7312117
36256,1577310613.42,0.0922643566596792,1.4772808194788487,11.022962838521815,-0.2269819964153006,0.2240038431307168,10.685730775414443,-0.8604819161764002,0.6995448484839464,14.826940510373,-3.8688473585175305,-5.811737804878049,4.891186225705031,-4.5928955078125,-4.318051221894055,5.209946050876525,-2.609439012480945,-7.771933951028965,-3.171222965891769,-5.8961019112060855,-7.929240501277138,3.177670280679544,-10.317765101410934,4.843335249626915,-90.68637880132012,25.504747356755622,34.58612633659808,32.52544403510348,1577310612.999,-27.69251273304432,-51.1212068109245,3.7312117
36257,1577310613.43,-0.0465993396293822,-1.5011060457555254,12.124295602193692,0.7259102643268859,-2.0840065572599085,11.763121522484756,-0.5193081796041347,-4.724519012600037,16.28740352306831,-3.2584957960175305,-5.903290539253049,4.921703803830031,-2.9296875,-3.0363129406440548,5.393051519626525,-1.7549468249809452,-22.710288443216463,-5.8872874190167686,-4.88534158357076,-7.929240501277138,2.8145079628875926,-8.926317762741373,3.5075458045041388,-209.06296014098743,25.2172102914308,34.753856291370894,32.50148261299308,1577310612.999,-27.69251273304432,-51.1212068109245,3.7312117
36258,1577310613.44,0.7841886364448355,-3.0070588899938064,9.509827389303068,1.465718577315167,-0.0202047262052201,12.553208070336318,1.5061864248880517,-2.490728863674256,15.032841853146437,-2.6786618116425305,-4.041718273628049,4.463940131955031,-5.035400390625,-3.0363129406440548,5.240463629001525,-1.4497710437309452,-31.896079458841463,-10.556476872141769,-6.738402184235517,-8.452047567295411,1.9066021684077188,-8.64802829500746,3.758006325464657,26.940983669108675,25.31305597987241,34.61008775870848,32.45355976877228,1577310612.999,-27.69251273304432,-51.1212068109245,3.7312117
36259,1577310613.45,0.2826033886421011,0.0132265042933022,11.341391659322598,0.6469016095417296,0.5855282938143102,11.22921455226991,2.832574144614614,4.833134014743711,7.898120905880812,-2.3582272413300305,-3.7365424923780486,5.394726264767531,0.457763671875,-4.501156690644055,4.904770269626525,-1.6328765124809452,-30.858481802591463,-5.7652171065167686,-5.727641856600198,-6.709357347234502,3.3592514395755155,-8.64802829500746,3.758006325464657,26.940983669108675,25.36097882409321,34.70593344715009,32.64525114565549,1577310612.999,-27.69251273304432,-51.1212068109245,3.7312117
36260,1577310613.46,-0.446431016875476,-0.4045616854039628,12.45708963295541,-0.265289222977801,-0.555308797250142,12.259918366967176,5.078335301841177,3.366685497898008,3.8363577894257337,-2.4650387647675305,-5.201386242378049,5.013256538205031,-3.0059814453125,-5.386166456269055,4.828476324314025,-3.143496629668445,-9.725058951028965,8.379680354420731,-5.559181801994311,-8.974854633313685,3.177670280679544,-6.282567819269207,5.052052350427349,-49.10473155858892,25.408901668314016,34.753856291370894,32.57336687932429,1577310612.999,-27.69251273304432,-51.1212068109245,3.7312117
36261,1577310613.47,-0.6595149646293823,-0.4141384920445878,9.694180917135098,-0.662726698563738,-0.4200364034513139,10.439128004418349,0.9411548330911768,9.798708257907771,10.064873408322216,-2.0683102491425305,-5.720185070503049,5.165844428830031,-3.997802734375,-3.677182081269055,5.393051519626525,-4.989810106230945,12.506996713033535,28.32291765910823,-6.064561965811974,-9.149123655319777,2.632926803991621,5.823024027155972,4.92682208994709,29.93785914606228,25.45682451253482,34.753856291370894,32.45355976877228,1577310612.999,-27.69251273304432,-51.1212068109245,3.7312117
36262,1577310613.48,-0.7073989978325073,0.0192120084436924,8.382158407369474,0.1225714459675109,-0.1040017843106888,11.418356483422254,0.234865343345083,5.771661065524961,10.749615083126905,-1.6715817335175305,-4.926728039253049,5.165844428830031,-3.47900390625,-4.806332471894055,5.148910894626525,-6.332583543730945,15.070473275533535,46.72501726848324,-4.88534158357076,-7.929240501277138,2.088183327303706,14.72828699464116,3.424058964183964,26.940983669108675,25.60059304519724,34.70593344715009,32.50148261299308,1577310612.999,-27.69251273304432,-51.1212068109245,3.7312117
36263,1577310613.49,-0.0190660205375858,1.2055389310511142,9.344627474752286,0.3595974103229796,1.9789536600252475,9.328218434105848,-0.8257659921041347,-7.099567059475038,5.918116132931593,-0.8933834913300305,-4.697846203315549,5.104809272580031,-1.220703125,-4.592709425019055,4.904770269626525,-3.128237840605945,20.533119759908537,35.097820002858235,-6.569942129629636,-8.277778545289321,2.8145079628875926,10.275655510898565,3.424058964183964,26.940983669108675,25.31305597987241,34.89762482403331,32.789019678317906,1577310612.999,-27.69251273304432,-51.1212068109245,3.7312117
36264,1577310613.5,1.0427624157417104,-0.4285037020055253,9.02859285561166,0.833649339033917,1.5468002603670443,8.195761048851942,0.2528218557962549,-8.6941053651391,5.192673029904249,0.0374026414824695,-4.041718273628049,5.715160835080031,-0.3509521484375,-1.9987152843940548,5.423569097751525,1.2052582531440548,34.83060511147104,4.2292897294207314,-5.053801638176648,-8.103509523283229,2.996089121783565,10.275655510898568,3.424058964183964,34.43317236149272,25.45682451253482,34.7778177134813,32.47752119088268,1577310612.999,-27.69251273304432,-51.1212068109245,3.7312117
36265,1577310613.51,1.3157014049995228,-0.3901964754430253,10.287942928853848,1.168837571455792,-0.0633003560880326,8.770369447289443,1.7623660025247705,-4.908872540432069,9.097615937619093,-0.0541500928925304,-3.0956733517530486,5.806713569455031,-2.044677734375,-2.3954438000190548,5.881332769626525,1.6935395031440548,38.81314905678354,-11.380451481516769,-5.727641856600198,-9.497661699331958,2.632926803991621,-2.247370537127482,3.5075458045041388,27.69020253834717,25.2651331356516,34.753856291370894,32.45355976877228,1577310612.999,-27.69251273304432,-51.1212068109245,3.7312117
36266,1577310613.52,2.7187035778510853,-1.2736568880406816,9.119572518697598,2.057086387373761,-1.13111429651772,10.992188587914445,-0.7299979256978847,-2.940838775783631,19.1388977003144,0.4951663133574695,-2.9125678830030486,5.440502631955031,-0.823974609375,-1.1442230968940548,6.613754644626525,2.0902680187690548,21.173988900533537,-22.67195538776677,-5.390721747388423,-8.800585611307595,1.9066021684077188,-10.596054569144847,4.008466846425181,-185.08795632535868,25.408901668314016,34.70593344715009,32.50148261299308,1577310612.999,-27.69251273304432,-51.1212068109245,3.7312117
36267,1577310613.53,1.631736024140148,-1.5310335665074783,10.278366122213225,1.6596489117878237,-1.4507402181485805,10.003383302269912,-0.3876270882955413,1.8739007627905864,15.676882099728468,1.7006106492949695,-1.4172065548780486,5.516796577267531,2.0904541015625,-3.860287550019055,5.560898199314025,7.491879346894056,-0.9817728182164632,-29.12642316120427,-6.064561965811974,-8.103509523283229,2.2697644861996773,-10.596054569144847,4.008466846425181,-185.08795632535868,25.48078593464522,34.753856291370894,32.64525114565549,1577310612.999,-27.69251273304432,-51.1212068109245,3.7312117
36268,1577310613.54,0.8392552746284292,0.7063478849085361,11.331814852681973,0.4362118634479797,-0.8246564840177202,10.35533094631288,1.6833573477396142,8.489079949802305,10.620328193478468,2.722949516482469,-1.2035835080030486,5.013256538205031,3.35693359375,-1.5104340343940548,4.813217535251525,3.799252393769055,-6.291831411966464,-17.33137921589177,-5.222261692782536,-9.323392677325868,3.177670280679544,-6.700002020870077,5.344256291547958,-188.08483180231227,25.504747356755622,34.94554766825411,32.50148261299308,1577310612.999,-27.69251273304432,-51.1212068109245,3.7312117
36269,1577310613.55,0.5854698986518667,0.6249450284632236,10.939165780416348,0.6205653912800109,0.4538472025057163,10.668971363793348,0.9172128164896144,12.171362103122618,8.934810224728468,2.661914360232469,-0.7763374142530487,5.013256538205031,1.800537109375,-1.3578461437690548,4.721664800876525,2.6701020031440548,-6.566489615091464,6.563884455983232,-5.222261692782536,-8.974854633313685,2.451345645095649,6.379602962623795,6.095637854429521,-149.87466947115377,25.504747356755622,34.562164914487674,32.45355976877228,1577310612.999,-27.69251273304432,-51.1212068109245,3.7312117
36270,1577310613.56,1.7310953930366322,-1.2808394930211504,10.243650198140958,-0.231770399735613,-0.3170857320645951,9.58918641506288,1.8413746573099268,5.086919390720274,4.292453205685499,1.8684573289824693,-2.5005805783155486,5.532055366330031,1.190185546875,-1.7545746593940548,5.911850347751525,0.8695648937690548,1.8868795255335369,21.48698015910823,-5.39072174738842,-7.580702457264957,3.359251439575516,8.605918704495092,5.594716812508479,-164.85904685592186,25.408901668314016,34.70593344715009,31.926408482343422,1577310612.999,-27.69251273304432,-51.1212068109245,3.7312117
36271,1577310613.57,1.210356531952648,-0.2656979891149003,9.021410250631192,1.3041099652546202,0.1773169107576699,9.39765028225038,0.4060507620462554,1.3208401792944926,7.626379017453077,3.485888969607469,1.817656726371952,6.081371772580031,1.068115234375,-0.3812836437690548,6.247543707126525,1.2052582531440548,13.819252572408535,28.50602312785823,-4.548421474358978,-7.232164413252776,3.177670280679544,6.518747696490751,4.467644468186135,-74.57817311269454,25.504747356755622,34.8017791355917,32.64525114565549,1577310612.999,-27.69251273304432,-51.1212068109245,3.7312117
36272,1577310613.58,-0.178280430937976,1.2641968717249423,9.524192599264005,0.4793074933307921,1.706014670767435,11.866072193871474,3.2539536368021142,0.2841508604468366,8.293164179806594,3.455371391482469,-1.2341010861280486,6.417065131955031,2.13623046875,-1.3273285656440548,6.003403082126525,1.0221527843940548,17.633949838033537,28.23136492473323,-4.548421474358978,-7.232164413252776,3.177670280679544,-0.2993442629900964,3.424058964183964,26.940983669108675,25.504747356755622,34.46631922604607,32.64525114565549,1577310612.999,-27.69251273304432,-51.1212068109245,3.7312117
36273,1577310613.59,0.6788437633979605,2.310462997213224,12.284707113424162,1.855973447920636,0.7531224100252475,10.463070021019911,0.991433067954458,-1.6312104676781622,11.020159870724562,1.4106936571074695,-3.5229194455030486,5.226879585080031,4.669189453125,-1.6325043468940548,5.393051519626525,0.0761078625190547,18.274818978658537,27.55997820598323,-5.559181801994311,-7.929240501277138,2.451345645095649,-0.2993442629900964,4.425901048026049,26.940983669108675,25.31305597987241,34.8017791355917,31.878485638122623,1577310612.999,-27.69251273304432,-51.1212068109245,3.7312117
36274,1577310613.6,1.4581564037788195,-0.7840426485387285,9.160273946920254,0.9820898419636046,0.1354183817049351,8.19097264553163,0.7065230703958643,-4.784374054103943,10.026566181759716,3.089160453982469,-2.2716987423780486,5.471020210080031,3.7841796875,-2.6701020031440548,5.148910894626525,2.0597504406440548,18.122231088033537,15.352946955983231,-5.727641856600199,-8.10350952328323,1.180277532823828,-3.082238940329218,4.091953686745352,26.940983669108675,25.38494024620361,34.70593344715009,32.45355976877228,1577310612.999,-27.69251273304432,-51.1212068109245,3.7312117
36275,1577310613.61,1.0499450207221792,-0.1819009310094315,8.935218990865566,1.2119332013386046,-0.4571465291837358,8.845786799584365,-1.2172179635396814,-4.809513171535585,10.230073322873,3.9436526414824695,-0.6847846798780487,5.867748725705031,3.0059814453125,-0.7169770031440548,6.552719488376525,4.806332471894055,15.451943002096035,-5.5973704268292686,-6.401482075023749,-8.452047567295411,2.632926803991621,-2.525660004861394,3.59103264482431,-172.35123554830568,25.504747356755622,34.72989486926049,32.669212567765896,1577310612.999,-27.69251273304432,-51.1212068109245,3.7312117
36276,1577310613.62,0.8464378796088979,-1.5705378939000565,9.306320248189786,-0.0929067034465505,-1.3250446309903774,9.737626917992566,0.8765113882669581,2.9321378965796487,10.900449787716749,4.615039360232469,-0.9594428830030488,6.203442085080031,5.67626953125,-4.562191846894055,5.423569097751525,4.714779737519055,10.553871713033535,-6.8028147627667686,-6.401482075023749,-8.452047567295411,2.632926803991621,-1.6907916016596571,3.5075458045041388,-152.122326078869,25.31305597987241,34.46631922604607,32.50148261299308,1577310612.999,-27.69251273304432,-51.1212068109245,3.7312117
36277,1577310613.63,0.2191570446479604,-2.825099563821932,9.876140243306974,-0.6387846819621755,-1.55967639368569,8.827830287133192,-0.5312791879049159,2.1444455503882427,10.938757014279249,4.615039360232469,-1.8444526486280488,6.447582710080031,4.5166015625,-1.5409516125190548,6.796860113376525,5.233578565644055,8.081947884908537,-2.957599919016769,-6.906862238841405,-8.277778545289321,2.451345645095649,0.2572346724777273,6.429585215710214,26.940983669108675,25.408901668314016,34.753856291370894,32.30979123610986,1577310612.999,-27.69251273304432,-51.1212068109245,3.7312117
36278,1577310613.64,0.693208973358898,0.3663712491663491,10.277169021383145,1.015608665205792,0.0492271219393101,8.255616090355849,-0.828160193764291,-0.9225267762719124,13.586744050412062,5.606860649294969,-1.0509956173780486,6.783276069455031,3.143310546875,0.3816558093559451,7.346176519626525,4.806332471894055,3.8094869474085367,-3.262775700266769,-5.811871883903142,-7.842105990274094,2.723717383439607,0.2572346724777273,6.429585215710214,26.940983669108675,25.55267020097643,34.753856291370894,32.45355976877228,1577310612.999,-27.69251273304432,-51.1212068109245,3.7312117
36279,1577310613.65,2.1105763561713977,0.7733855313929111,10.857762923971036,2.277352940108136,-0.363772664437642,10.027325318871474,3.2695159475931304,3.0805783995093363,5.69665247936714,4.462451469607469,-0.2270210080030487,6.325512397580031,4.4097900390625,0.8699370593559452,6.537460699314025,5.096249464081555,8.127724252096035,1.5437428544207317,-5.727641856600198,-7.057895391246685,2.632926803991621,-1.4125021339257453,6.34609837539004,-62.21606177026098,25.504747356755622,34.7778177134813,32.45355976877228,1577310612.999,-27.69251273304432,-51.1212068109245,3.7312117
36280,1577310613.66,2.026779298065929,-0.397379080423494,10.194569064107757,3.326013267256573,-1.2604011861661586,11.02570741115663,2.308243981040396,3.1380392393530863,12.269933137326124,4.615039360232469,-0.2575385861280487,6.233959663205031,4.486083984375,-0.6864594250190549,5.576156988376525,3.799252393769055,18.000160775533537,10.683757502858231,-5.727641856600198,-7.057895391246685,2.632926803991621,-1.9690810693935703,6.095637854429521,-151.37310720963063,25.12136460298919,34.94554766825411,32.357714080330666,1577310612.999,-27.69251273304432,-51.1212068109245,3.7312117
36281,1577310613.67,1.6652548473823354,0.1676525113733799,9.165062350240568,1.3579795026081358,-1.550099587045065,7.989859706078505,1.7839138174661768,-2.979146002346131,10.756797688107374,3.516406547732469,-0.8373725705030487,5.409985053830031,3.11279296875,-0.7474945812690549,5.454086675876525,1.9071625500190548,14.978920541158535,16.42106219035823,-5.053801638176648,-8.103509523283229,2.996089121783565,-6.97829148860399,7.765374660832994,-94.4324731475122,25.504747356755622,34.70593344715009,32.50148261299308,1577310612.999,-27.69251273304432,-51.1212068109245,3.7312117
36282,1577310613.68,0.4035105724799917,1.078646243062833,9.745656252828455,0.5714842572468077,0.9434614420076692,8.105978486596083,0.7496187002786768,-2.1100507997094136,6.4568115064667495,2.753467094607469,0.7800590701219513,5.516796577267531,2.3040771484375,0.8394194812309452,5.301498785251525,1.9681977062690548,13.819252572408535,11.706096370045731,-5.8961019112060855,-7.580702457264957,3.722413757367463,1.370392543413377,6.76353257699091,-24.75511830834092,25.408901668314016,34.8497019798125,32.50148261299308,1577310612.999,-27.69251273304432,-51.1212068109245,3.7312117
36283,1577310613.69,1.624553419159679,1.4198199796350988,10.043734359517911,0.8551971539753234,-0.0728771627286576,5.995489723168349,-1.251933887611947,0.3296406919898053,6.830306965451125,1.3496585008574695,-0.9899604611280488,4.830151069455031,3.631591796875,0.8089019031059451,5.454086675876525,1.9681977062690548,21.265541634908537,8.242351252858231,-4.88534158357076,-8.626316589301503,3.177670280679544,5.823024027155972,6.095637854429521,29.93785914606228,25.504747356755622,34.562164914487674,32.45355976877228,1577310612.999,-27.69251273304432,-51.1212068109245,3.7312117
36284,1577310613.7,2.237469044159679,0.1628641080530674,7.656715304342129,1.7195039532917296,-0.5205928731778764,7.0034486220941305,-1.8576669076314785,1.92896740097418,7.960370149044874,3.272265922732469,3.3435356326219514,4.891186225705031,4.82177734375,4.043765184355945,4.935287847751525,2.4564789562690548,22.882973275533537,10.622722346608231,-4.88534158357076,-8.626316589301503,3.177670280679544,5.823024027155972,6.76353257699091,26.940983669108675,25.31305597987241,34.562164914487674,32.64525114565549,1577310612.999,-27.69251273304432,-51.1212068109245,3.7312117
36285,1577310613.71,0.8440436779487417,-0.3590718538609941,9.078871090474944,1.7841473981159484,-0.5876305196622513,8.394479786644911,1.0057982779153956,2.9848103331030864,8.973117451290967,3.363818657107469,5.327178210746951,5.043774116330031,2.777099609375,4.043765184355945,4.111313238376525,2.2733734875190548,20.075356088033537,16.02433367473323,-5.053801638176648,-7.057895391246685,3.3592514395755155,8.049339769027267,7.431427299552298,26.940983669108675,25.408901668314016,34.61008775870848,32.30979123610986,1577310612.999,-27.69251273304432,-51.1212068109245,3.7312117
36286,1577310613.72,0.9493885509956168,-0.4165326937047446,9.174639156881192,2.498816593672589,-0.5122131673673296,11.480605726586315,1.873696379722036,-4.243284478908631,13.48499047985542,1.5632815477324693,2.7331840701219514,4.372387397580031,1.9989013671875,2.899356004668445,4.858993902439025,1.1442230968940548,15.375649056783535,6.7622487137957314,-4.9695716108737,-7.14502990224973,2.723717383439607,3.874997753018585,7.013993097951431,27.69020253834717,25.36097882409321,34.873663401922904,32.47752119088268,1577310612.999,-27.69251273304432,-51.1212068109245,3.7312117
36287,1577310613.73,2.2326806408393667,0.1484988980921299,9.74445915199838,2.6676078107136045,-0.803108669076314,11.825370765648817,-0.3062242318502284,-5.833034381252382,20.27853769054878,1.9600100633574693,0.1086723513719513,4.463940131955031,1.983642578125,0.5952788562309451,4.233383550876525,0.7169770031440548,-5.528891958841464,-3.110187809641769,-6.233022020417861,-8.626316589301503,4.267157234055382,1.370392543413376,6.429585215710214,-134.8902920863858,25.408901668314016,34.8017791355917,32.6931739898763,1577310612.999,-27.69251273304432,-51.1212068109245,3.7312117
36288,1577310613.74,0.0659281383979604,1.778950228658536,10.105983602681974,1.8128778180378236,0.7986122415682163,10.877266908226945,-1.7164090096822595,-6.046118329006288,19.24903097668159,2.692431938357469,3.0078422732469514,4.128246772580031,2.38037109375,0.5342436999809451,3.0431980040015243,4.348568800019055,-23.473227896341463,-19.37605695026677,-6.233022020417861,-8.626316589301503,4.267157234055382,-0.8559231984579215,6.095637854429521,-125.899665655525,25.64851588941804,34.61008775870848,32.64525114565549,1577310612.999,-27.69251273304432,-51.1212068109245,3.7312117
36289,1577310613.75,-0.9300597522270384,0.5387537686975991,10.47229645668588,-0.6268136736613943,1.282240976919779,14.18605360256288,1.5420994497903957,2.884253863376524,11.841371040158156,1.2581057664824695,-0.7305610470655486,3.762035835080032,1.03759765625,-2.8837250500190548,3.897690191501524,4.348568800019055,-31.835044302591463,-25.78474835651677,-4.295731392450147,-8.539182078298456,2.360555065647656,-0.8559231984579215,6.095637854429521,-125.899665655525,25.504747356755622,34.562164914487674,32.50148261299308,1577310612.999,-27.69251273304432,-51.1212068109245,3.7312117
36290,1577310613.76,-1.1982103381645384,-0.6966542879430254,10.761994857564783,-1.111639509843035,-0.0716800618985799,11.101124763451551,2.6458264151224267,9.198960742038636,4.874244209103468,0.4646487352324695,-2.7599799923780486,4.524975288205031,1.6632080078125,-3.4940766125190548,4.355453863376525,1.3578461437690548,-17.125571646341463,-2.866047184641769,-5.8961019112060855,-7.580702457264959,3.5408325984714875,-0.5776337307240089,6.095637854429521,-127.3981033940018,25.45682451253482,34.681972025039684,32.50148261299308,1577310612.999,-27.69251273304432,-51.1212068109245,3.7312117
36291,1577310613.77,-0.274048497344226,-2.6144098177281814,8.410888827291348,-1.237335097001238,-0.7719840474942826,9.227661964379283,1.1566329825052393,10.696533880466369,5.003531098751906,0.6782717821074695,-3.8280952267530486,4.799633491330031,-1.0986328125,-3.2194184093940548,5.942367925876525,-1.7549468249809452,4.541908822408536,35.036784846608235,-5.390721747388423,-8.452047567295411,1.5434398506157752,-0.0210547952561845,6.847019417311081,-137.1379486941009,25.45682451253482,34.753856291370894,32.45355976877228,1577310612.999,-27.69251273304432,-51.1212068109245,3.7312117
36292,1577310613.78,0.702785779999523,0.4046784757288486,9.318291256490568,1.4585359723346984,1.3851916483064974,7.056121058617568,-0.2415807870260096,-3.659099273830506,4.426528498654249,2.539844047732469,-2.8515327267530486,5.043774116330031,0.823974609375,-1.0831879406440548,5.362533941501525,-1.8464995593559448,14.643227181783535,35.982829768483235,-5.390721747388423,-8.452047567295411,1.5434398506157752,8.32762923676118,6.5130720560303885,-140.1348241710545,25.2172102914308,34.8017791355917,32.6931739898763,1577310612.999,-27.69251273304432,-51.1212068109245,3.7312117
36293,1577310613.79,2.389500849579601,2.075831234517911,9.098024703756192,1.8679444562214167,2.036414499868997,5.830289808617568,1.1590271841653954,-4.061325152736756,6.569338984494093,1.3954348680449693,-1.6003120236280486,4.418163764767531,4.669189453125,-0.1981781750190548,3.775619879001524,-0.5342436999809452,17.328774056783537,23.83683367473323,-5.643411829297254,-7.842105990274094,2.178973906751684,15.006576462375072,6.5130720560303885,-164.10982798668337,25.576631623086836,34.94554766825411,32.50148261299308,1577310612.999,-27.69251273304432,-51.1212068109245,3.7312117
36294,1577310613.8,2.0483271130073355,0.2873625943811924,10.479479061666348,1.4214258466022764,-0.3446190511563926,7.15069202419374,-0.971812293373666,-3.4771399476586318,11.36612201061714,0.9529299852324696,0.9326469607469512,4.189281928830031,1.190185546875,0.6868315906059452,4.843735113376525,1.8156098156440548,9.302651009908535,11.873943049733231,-4.7168815289648665,-7.754971479271048,1.9066021684077188,12.919405454370732,5.135539190747522,-194.45319219083865,25.504747356755622,34.8017791355917,32.54940545721388,1577310612.999,-27.69251273304432,-51.1212068109245,3.7312117
36295,1577310613.81,2.0722691296088978,-0.5146949617711504,8.928036385885099,1.3891041241901672,-0.2644132955411576,9.005001209984755,0.4383724844583643,-3.237719781643006,11.566037849240187,1.6243167039824695,2.3669731326219514,4.250317085080031,1.46484375,1.4802886218559452,4.233383550876525,1.2968109875190548,4.023109994283536,-1.1265452315167683,-4.043041310541316,-7.406433435258866,1.9066021684077188,8.884208172229004,5.177282610907612,30.687078015300763,25.31305597987241,34.70593344715009,32.357714080330666,1577310612.999,-27.69251273304432,-51.1212068109245,3.7312117
36296,1577310613.82,0.377174354218273,-1.333511929544588,8.638337985006192,0.7163334576862608,-0.6403029561856889,12.304211097680067,1.4104183584818015,0.4804753965796491,11.14226415539253,2.234668266482469,1.6040336794969514,4.921703803830031,2.50244140625,0.4426909656059451,4.447006597751525,0.8085297375190548,-7.695640005716464,-1.4622385908917683,-4.043041310541316,-7.406433435258866,2.996089121783565,8.605918704495092,5.093795770587437,-221.79968091804017,25.45682451253482,34.61008775870848,32.45355976877228,1577310612.999,-27.69251273304432,-51.1212068109245,3.7312117
36297,1577310613.83,-0.1986311450493041,0.4765045255335366,10.948742587056971,0.391919132735089,0.4706066141268101,10.070420948754286,0.3581667288431305,-2.6307896607933965,12.047272382931592,1.7311282274199693,0.7495414919969512,4.540234077267531,3.1585693359375,0.4579497546684451,4.340195074314025,2.6090668468940548,-7.955039419778963,-10.144489567454269,-4.379961419753091,-7.406433435258866,2.996089121783565,-0.0210547952561845,4.091953686745352,-224.79655639499376,25.31305597987241,34.63404918081888,32.47752119088268,1577310612.999,-27.69251273304432,-51.1212068109245,3.7312117
36298,1577310613.84,0.8703798962104604,0.6273392301233799,10.90564695717416,1.4609301739948546,-1.7488183248380336,10.27871649318788,-1.2184150643697595,3.336757977146055,7.783199226193312,-0.1457028272675304,-1.5697944455030486,4.219799506955031,0.213623046875,2.700991746855945,4.660629644626525,2.9752777843940548,-4.552329458841464,-16.69051007526677,-5.559181801994311,-8.277778545289321,2.8145079628875926,-8.64802829500746,4.592874728666395,-212.8090544871794,25.2651331356516,34.70593344715009,32.64525114565549,1577310612.999,-27.69251273304432,-51.1212068109245,3.7312117
36299,1577310613.85,0.434635194062023,-0.1340168978063066,11.568840817037442,0.5152205182331359,-0.5373522847989701,9.62031103664491,1.4846386099466455,7.471544244235899,1.8048776807831552,1.5327639696074695,3.2519828982469514,4.067211616330031,0.6103515625,3.769106981230945,4.416489019626525,1.1137055187690548,10.859047494283535,-0.9129221846417684,-6.569942129629636,-7.929240501277138,2.451345645095649,-7.2565809563379,3.674519485144485,-188.08483180231227,25.504747356755622,34.8017791355917,32.45355976877228,1577310612.999,-27.69251273304432,-51.1212068109245,3.7312117
36300,1577310613.86,1.0283972057807729,0.3328524259241611,8.604819161764004,0.4290292584675109,0.2359748514314976,9.534119776879283,-0.1506011239400721,3.0566363829077736,7.110428559689406,1.7158694383574695,4.198027820121951,4.677563178830031,-0.396728515625,2.548403856230945,4.782699957126525,0.2286957531440547,20.990883431783537,7.357341487233231,-4.88534158357076,-8.626316589301503,1.725021009511747,-7.2565809563379,3.674519485144485,-188.08483180231227,25.073441758768386,34.70593344715009,32.64525114565549,1577310612.999,-27.69251273304432,-51.1212068109245,3.7312117
36301,1577310613.87,2.004034382294445,0.2358872586878335,9.72530553871713,2.267776133467511,0.0731691385408731,9.931557252465224,1.680963146079458,3.9843895262183207,13.616671571164014,0.9224124071074696,2.6721489138719514,4.555492866330031,1.6326904296875,2.227969285918445,4.355453863376525,-2.014346239043445,9.851967416158535,25.72892351848323,-5.474951774691367,-8.539182078298456,2.360555065647656,-7.395725690204856,3.966723426265092,-182.4656902830242,25.36097882409321,34.753856291370894,32.597328301434686,1577310612.999,-27.69251273304432,-51.1212068109245,3.7312117
36302,1577310613.88,0.4585772106635855,1.0654781339319737,10.5369399015101,1.2693940411823548,0.2072444315096226,9.265969190941783,3.9841851431497695,-4.590443719631288,7.072121333126906,0.4341311571074695,2.8857719607469514,4.036694038205031,0.457763671875,1.9990874499809448,3.623031988376524,-1.2666655749809452,9.363686166158535,23.01285906535823,-5.222261692782536,-8.626316589301503,2.8145079628875926,-3.082238940329218,3.758006325464657,-115.41060148618736,25.45682451253482,34.8017791355917,32.789019678317906,1577310612.999,-27.69251273304432,-51.1212068109245,3.7312117
36303,1577310613.89,0.9829073742378042,0.1269510831507236,7.582495052877286,1.4226229474323546,0.5735572855135289,10.091968763695691,2.4710496939310205,-5.1147738832055065,7.057756123165968,0.2205081102324695,0.7495414919969513,3.884106147580032,-0.946044921875,1.6633940906059452,3.958725347751524,0.0150727062690547,13.971840463033535,8.791667659108231,-5.222261692782536,-6.883626369240593,2.451345645095649,-0.0210547952561845,3.841493165784832,-114.66138261694888,25.408901668314016,34.753856291370894,32.64525114565549,1577310612.999,-27.69251273304432,-51.1212068109245,3.7312117
36304,1577310613.9,0.3604149425971797,1.0918143521936925,9.50863028847299,0.2973481671589171,1.1290120706697788,9.239632972680068,0.0050219839700831,-4.418061200100037,11.446327766232374,-0.6339840772675305,0.9784233279344514,3.578930366330031,1.678466796875,0.5952788562309451,3.3788913633765243,-0.5952788562309452,10.370766244283535,-0.5772288252667683,-3.5376611467236527,-7.232164413252776,2.8145079628875926,-0.0210547952561845,3.841493165784832,-114.66138261694888,25.408901668314016,34.46631922604607,32.45355976877228,1577310612.999,-27.69251273304432,-51.1212068109245,3.7312117
36305,1577310613.91,-0.7409178210746947,-1.201830838235994,10.28076032387338,-0.5873093462688161,-0.3278596395352982,10.340965736351942,-0.588740027748666,-5.238075268703553,14.534847907833935,-2.0072750928925305,-0.5932319455030487,3.3347897413300305,-0.274658203125,0.6410552234184451,4.080795660251525,0.6101654797065548,-3.758872427591464,-19.11665753620427,-4.88534158357076,-7.929240501277138,2.8145079628875926,8.605918704495092,3.758006325464658,-133.391854347909,25.504747356755622,34.8017791355917,32.50148261299308,1577310612.999,-27.69251273304432,-51.1212068109245,3.7312117
36306,1577310613.92,-1.0545582385551635,-0.1675357210484941,10.010215536275725,-1.8047608904582693,0.1282357767244663,12.567573280297257,0.2516247549661768,4.531464605564024,12.181347675900344,-0.2982907178925305,0.3833305544969513,4.250317085080031,-1.0986328125,-0.8695648937690549,4.477524175876525,2.2123383312690548,-14.501059927591465,-23.40437726276677,-5.8961019112060855,-7.929240501277138,2.8145079628875926,11.110523914100302,3.841493165784832,-161.11295250972978,25.74436157785965,34.8017791355917,32.357714080330666,1577310612.999,-27.69251273304432,-51.1212068109245,3.7312117
36307,1577310613.93,-0.6738801745903198,-0.3590718538609941,9.41166512123666,-0.0665704851848318,-1.176604128060689,11.277098585473036,2.155015074790396,7.936019366306211,12.396825825314403,-0.0236325147675304,-2.0580756955030486,4.433422553830031,-0.518798828125,-0.6559418468940549,5.240463629001525,0.5338715343940548,-15.477622427591465,-8.786457340891769,-5.559181801994311,-6.535088325228411,2.088183327303706,6.379602962623795,4.92682208994709,-185.8371751945969,25.408901668314016,34.70593344715009,32.45355976877228,1577310612.999,-27.69251273304432,-51.1212068109245,3.7312117
36308,1577310613.94,-0.0561761462700077,-0.6691209688512285,10.301111037984708,0.1776380841511046,-2.493415041146627,11.605104212914442,1.0608649160989894,2.9943871397437114,10.56765575695503,-0.1762204053925304,-2.5921333126905486,4.051952827267531,0.48828125,-2.5785492687690548,3.653549566501524,-0.6563140124809452,-19.139731802591463,6.411296565358232,-5.053801638176648,-7.754971479271048,2.632926803991621,6.379602962623795,4.92682208994709,-185.8371751945969,25.48078593464522,34.753856291370894,32.50148261299308,1577310612.999,-27.69251273304432,-51.1212068109245,3.7312117
36309,1577310613.95,-0.0465993396293822,1.2929272916468175,10.000638729635098,0.1046149335163395,-0.220120564828268,10.443916407738662,1.8760905813821924,2.859114745944883,6.490330329708937,-0.2982907178925305,-2.0580756955030486,3.0906491163300305,-1.434326171875,-2.5938080578315548,3.638290777439024,-1.754946824980945,-9.404624380716465,17.53495379192073,-5.053801638176648,-7.754971479271048,2.632926803991621,-0.2993442629900977,4.342414207705874,-176.09732989449776,25.45682451253482,34.72989486926049,32.38167550244107,1577310612.999,-27.69251273304432,-51.1212068109245,3.7312117
36310,1577310613.96,0.7770060314643668,1.2641968717249423,9.49546217934213,0.3979046368854796,1.10267585240806,9.093586671410536,-0.3732618783346034,-1.5162887879906624,7.804747041134718,-0.2372555616425304,-3.0956733517530486,2.9685788038300305,-0.9765625,-2.7311371593940548,3.2263034727515243,-2.029605028105945,-0.4324564119664634,16.39054461223323,-5.559181801994311,-7.929240501277138,1.725021009511747,-2.8039494725953062,4.843335249626915,27.69020253834717,25.504747356755622,34.94554766825411,32.6931739898763,1577310612.999,-27.69251273304432,-51.1212068109245,3.7312117
36311,1577310613.97,0.5543452770698355,0.8954898160608799,10.26639511391244,0.0818700177448546,0.7411514017244663,8.377720375023818,-0.8880152352681971,-0.3886198060570686,9.751232990841748,0.3120608446074695,0.3833305544969513,3.1822018507050305,0.91552734375,-1.6325043468940548,3.0431980040015243,-1.7549468249809452,1.8258443692835369,13.613445002858231,-5.053801638176648,-8.452047567295411,2.632926803991621,-2.8039494725953062,4.843335249626915,27.69020253834717,25.45682451253482,34.562164914487674,32.50148261299308,1577310612.999,-27.69251273304432,-51.1212068109245,3.7312117
36312,1577310613.98,0.597440906952648,-0.6032804231969321,9.455957851949552,-0.4999209856731131,-0.2979321187833451,8.971482386742567,-1.682890186440072,0.3990725401343366,10.991429450802686,-0.5119137647675305,-0.0591743283155487,3.3653073194550305,-0.335693359375,-0.8085297375190549,3.867172613376524,-1.0225249499809452,-1.7141946932164631,9.768230159108231,-4.295731392450151,-7.667836968268004,3.0868797012315508,-2.8039494725953062,4.843335249626915,27.69020253834717,25.504747356755622,34.46631922604607,32.597328301434686,1577310612.999,-27.69251273304432,-51.1212068109245,3.7312117
36313,1577310613.99,-0.3841817737114135,0.1796235196741611,10.443566036764004,-1.0912887957317068,-0.7540275350431108,9.840577589379286,0.7508158011087549,-2.763667852932069,9.618354798703075,0.1899905321074695,1.5429985232469514,3.731518256955032,-1.9683837890625,0.5952788562309451,3.912948980564024,-1.770205614043445,-5.254233755716464,8.593303401295731,-4.88534158357076,-7.580702457264959,4.267157234055382,3.735853019151629,4.13369710690544,28.814030842204723,25.45682451253482,34.8257405577021,32.52544403510348,1577310612.999,-27.69251273304432,-51.1212068109245,3.7312117
36314,1577310614.0,-0.6140251330864135,-0.0957096712438066,9.940783688131193,-0.4137297259074881,0.3269545145174351,11.597921607933976,0.3713348379739893,-3.187441546779725,12.250779524044876,-1.4579586866425305,-1.9665229611280488,3.609447944455032,-3.082275390625,-1.1747406750190548,4.385971441501525,-1.5718413562309452,-8.305991568216463,-0.1499827315167683,-5.222261692782536,-7.929240501277138,3.5408325984714875,5.823024027155972,4.759848409306741,32.93473462301586,25.45682451253482,34.8017791355917,32.357714080330666,1577310613.999,-27.6924771676381,-51.12120781759777,4.0468082
36315,1577310614.01,-0.6044483264457885,0.2299017545374423,10.685380404439783,0.2662235455768859,1.00690778600181,12.246750257836318,0.5054101309427393,-4.1738526307641,11.951504316525345,-0.6645016553925305,-2.2411811642530486,3.639965522580032,-1.28173828125,-0.9000824718940549,3.653549566501524,1.2052582531440548,-8.428061880716463,-12.814777653391769,-4.211501365147203,-8.626316589301503,1.725021009511747,6.657892430357706,3.841493165784832,200.0105424631792,25.45682451253482,34.8017791355917,32.45355976877228,1577310613.999,-27.6924771676381,-51.12120781759777,4.0468082
36316,1577310614.02,-0.8702047107231322,1.069069436422208,10.389696499410489,-0.6040687578899099,0.4730008157869663,12.627428321801162,1.7731399099954737,1.7242631590308208,11.275142347531204,0.0374026414824695,-3.4313667111280486,3.8993649366425314,1.2664794921875,-4.180722120331555,3.989242925876524,1.4341400890815548,-6.810630240091464,-15.073078434641769,-5.643411829297252,-7.319298924255822,3.4500420190235013,2.483550414349025,4.1754405270655255,-184.33873745612024,25.2651331356516,34.681972025039684,32.50148261299308,1577310613.999,-27.6924771676381,-51.12120781759777,4.0468082
36317,1577310614.03,-0.5637468982231323,-1.920091336282869,10.105983602681974,-0.9667903094035816,-1.7033284932950647,9.062462049828504,-0.2056677621236659,3.185923272556211,5.475188825802687,-1.6105465772675305,-5.964325695503049,4.036694038205031,0.8544921875,-4.379086378144055,3.653549566501524,-0.3206206531059452,-0.4324564119664634,-2.164142887766769,-4.7168815289648665,-7.057895391246685,4.08557607515941,-3.082238940329218,3.758006325464657,-169.3543600713521,25.31305597987241,34.94554766825411,32.45355976877228,1577310613.999,-27.6924771676381,-51.12120781759777,4.0468082
36318,1577310614.04,-0.1064543811332885,-3.284786282571932,9.00943924233041,-0.5573818255168631,-1.3154678243497524,7.685796095238661,0.225288536704458,6.90890685409918,7.33069511242378,-0.1762204053925304,-4.499481945503049,4.677563178830031,-1.64794921875,-5.172543409394055,4.660629644626525,-1.2971831531059452,7.776772103658536,12.240153987233231,-4.211501365147203,-7.232164413252776,2.451345645095649,1.370392543413376,4.759848409306741,-152.87154494810736,25.408901668314016,34.753856291370894,32.64525114565549,1577310613.999,-27.6924771676381,-51.12120781759777,4.0468082
36319,1577310614.05,1.085858045624523,-0.2010545442906816,9.229705795064786,1.1425013531940733,-0.1830104390958451,9.847760194359756,-0.2822822152486659,0.4589275816382429,9.408862153439406,-0.4203610303925305,-6.147431164253049,4.677563178830031,-3.692626953125,-2.7921723156440548,5.393051519626525,-2.517886278105945,5.243813119283536,23.28751726848323,-4.7168815289648665,-8.452047567295411,1.5434398506157752,1.370392543413376,6.095637854429521,-158.86529590201468,25.45682451253482,34.70593344715009,32.45355976877228,1577310613.999,-27.6924771676381,-51.12120781759777,4.0468082
36320,1577310614.06,0.3580207409370234,2.2434253507288484,10.966699099508146,-0.1168487200481135,2.579898276724466,9.83219788356874,0.2492305533060211,-4.127165698391053,14.158958247189403,-1.4579586866425305,-3.3550727658155486,4.586010444455031,-1.4190673828125,-4.424862745331555,4.553818121189025,-2.823062059355945,-0.2035745760289633,13.491374690358231,-4.885341583570757,-7.580702457264957,2.814507962887589,-0.2993442629900972,7.431427299552298,-68.20981272416816,25.38494024620361,34.63404918081888,32.40563692455147,1577310613.999,-27.6924771676381,-51.12120781759777,4.0468082
36321,1577310614.07,0.2742236828315542,1.3695417447718174,9.983879318014004,1.1951737897175108,0.5783456888338414,10.589962709008192,-0.6988733041158535,-2.675082391506287,14.661740595822218,-2.2819332960175305,-5.292938976753049,4.494457710080031,-1.251220703125,-2.0292328625190548,4.965805425876525,-1.2361479968559452,-14.256919302591465,-6.6197092940167686,-4.7168815289648665,-7.057895391246685,1.9066021684077188,-2.525660004861394,7.431427299552298,26.940983669108675,25.504747356755622,34.562164914487674,32.597328301434686,1577310613.999,-27.6924771676381,-51.12120781759777,4.0468082
36322,1577310614.08,1.3061245983588978,-0.1411995027867753,10.910435360494471,1.386709922530011,-2.004997902474752,8.5429202895746,-2.056385645424447,0.8874896788062115,12.39922002697456,-1.9767575147675305,-5.353974133003049,4.341869819455031,-1.373291015625,-3.5551117687690548,4.538559332126525,-0.6257964343559452,-22.679770865091463,-7.718342106516768,-4.548421474358978,-7.929240501277138,4.267157234055382,-2.525660004861394,7.431427299552298,26.940983669108675,25.408901668314016,34.8017791355917,32.45355976877228,1577310613.999,-27.6924771676381,-51.12120781759777,4.0468082
36323,1577310614.09,1.3061245983588978,-2.312740408548494,9.914447469869474,0.3141075787800109,-2.80466125696694,8.135906007348037,1.3242270987161768,0.9712867369116804,11.345771296505813,-1.0154538038300305,-2.4090278439405486,4.036694038205031,-1.739501953125,-2.8226898937690548,4.141830816501525,-0.9309722156059452,-28.508628286966463,-3.934162419016769,-4.9695716108737,-8.190644034286274,3.813204336815449,-2.525660004861394,7.431427299552298,26.940983669108675,25.528708778866022,34.61008775870848,32.789019678317906,1577310613.999,-27.6924771676381,-51.12120781759777,4.0468082
36324,1577310614.1,0.0635339367378042,-0.9097382356969316,9.847409823385098,0.8180870282429015,-0.6450913595060024,10.082391957055068,0.7005375662454737,-0.9117528688012098,6.4388549940155775,0.3425784227324695,0.0476371951219513,4.494457710080031,-0.7476806640625,-0.2744721203315548,4.263901129001525,-0.3969145984184452,-21.245444693216463,1.1775319169207314,-5.727641856600198,-7.057895391246685,2.996089121783565,-2.2473705371274817,7.431427299552298,26.940983669108675,25.60059304519724,34.753856291370894,32.50148261299308,1577310613.999,-27.6924771676381,-51.12120781759777,4.0468082
36325,1577310614.11,1.6461012341010854,0.8380289762171298,11.171403341451503,0.3643858136432921,0.3652617410799351,8.815859278832411,-0.0668040658346034,4.373447295993711,5.834319074826124,-0.6645016553925305,-1.8444526486280488,4.738598335080031,-0.42724609375,-1.1137055187690548,4.965805425876525,-0.5647612781059452,-5.345786490091464,5.251628596608232,-5.727641856600198,-7.057895391246685,2.996089121783565,-0.8559231984579215,7.431427299552298,32.93473462301586,25.45682451253482,34.562164914487674,32.50148261299308,1577310613.999,-27.6924771676381,-51.12120781759777,4.0468082
36326,1577310614.12,1.2893651867378042,0.3974958707483798,11.157038131490568,0.9102637921589172,-0.7049464010099077,10.491800440941786,1.230853233970083,3.659975201267149,4.7688993360565926,-0.4203610303925305,0.2307426638719513,5.257397163205031,-0.42724609375,0.2290679187309451,4.660629644626525,-1.7244292468559452,5.823647103658536,13.949138362233231,-5.727641856600198,-7.057895391246685,2.996089121783565,6.379602962623795,7.598400980192648,38.92848557692305,25.504747356755622,34.70593344715009,32.64525114565549,1577310613.999,-27.6924771676381,-51.12120781759777,4.0468082
36327,1577310614.13,0.6225800243842886,-0.0813444612828696,10.169429946676114,0.2686177472370422,-0.5541116964200639,9.330612635766004,0.9507316397318016,-1.0087180360375374,9.24605644054878,-0.3898434522675304,0.0934135623094513,5.318432319455031,-1.8310546875,-0.9000824718940549,5.515121832126525,-2.456851121855945,14.063393197408535,19.62540789348323,-4.716881528964869,-6.883626369240593,3.540832598471491,10.275655510898565,8.266295702754036,26.940983669108675,25.2651331356516,34.8017791355917,32.45355976877228,1577310613.999,-27.6924771676381,-51.12120781759777,4.0468082
36328,1577310614.14,1.2151449352729604,1.0511129239710362,9.799525790181974,0.929417405440167,1.0140903909822787,9.074433058129287,0.5125927359232081,-1.8574625245629284,10.505406513790968,-1.2443356397675305,0.2612602419969513,5.226879585080031,-0.3814697265625,0.5647612781059451,5.179428472751525,-1.4955474109184452,15.268837533346035,8.440715510670731,-4.211501365147203,-8.277778545289321,3.177670280679544,10.553944978632476,7.097479938271604,30.6870780153007,25.45682451253482,34.72989486926049,32.54940545721389,1577310613.999,-27.6924771676381,-51.12120781759777,4.0468082
36329,1577310614.15,0.7913712414253042,0.1508930997522861,9.574470834127286,0.5463451398151672,1.2199917337557162,9.981835487328503,-0.4139633065572596,0.2147190123023053,15.68167050304878,-1.4884762647675305,-0.1659858517530487,4.708080756955031,-0.885009765625,1.2056304187309452,5.179428472751525,-1.7549468249809452,4.938637338033536,5.770427424733232,-4.379961419753091,-7.754971479271048,1.5434398506157752,1.370392543413376,6.429585215710214,26.940983669108675,25.45682451253482,34.70593344715009,32.50148261299308,1577310613.999,-27.6924771676381,-51.12120781759777,4.0468082
36330,1577310614.16,1.0236088024604604,0.2346901578577549,10.252029903951504,1.3555853009479797,0.5256732523104038,11.004159596215224,-1.6613423714986657,-7.183364117580507,13.95784530773628,-0.4813961866425305,0.1697075076219513,5.043774116330031,-0.152587890625,0.4121733874809451,5.301498785251525,-0.1985503406059452,-5.467856802591464,-7.748859684641768,-4.379961419753091,-7.754971479271048,1.5434398506157752,1.370392543413376,6.095637854429521,29.93785914606228,25.31305597987241,34.8017791355917,32.45355976877228,1577310613.999,-27.6924771676381,-51.12120781759777,4.0468082
36331,1577310614.17,0.7913712414253042,-1.036630923685213,9.926418478170255,1.051521690108136,-0.8521898031095171,11.030495814476945,0.578433281577505,2.21627160019293,8.63314081554878,0.4799075242949695,0.9021293826219514,5.837231147580031,0.274658203125,1.2819243640434452,5.789780035251525,1.7850922375190548,-3.697837271341464,-11.914509098704269,-4.632651501661925,-8.016375012280186,2.905298542335583,7.214471365825531,-3.254888261429928,-49.47934099320816,25.45682451253482,34.7778177134813,32.54940545721389,1577310613.999,-27.6924771676381,-51.12120781759777,4.0468082
36332,1577310614.18,1.0068493908393668,-0.7876339510289628,9.938389486471037,1.820060423018292,-1.119143288216939,9.297093812523816,0.6993404654153955,3.4468912535132423,10.151064668087844,0.4341311571074695,1.5429985232469514,5.654125678830031,0.335693359375,0.8699370593559451,5.667709722751525,0.2286957531440547,-1.0428079744664631,1.0402028153582317,-5.222261692782536,-7.580702457264959,2.8145079628875926,8.32762923676118,7.514914139872473,-125.15044678628652,25.45682451253482,34.70593344715009,32.597328301434686,1577310613.999,-27.6924771676381,-51.12120781759777,4.0468082
36333,1577310614.19,1.413863673065929,-1.8482652864781817,10.539334103170257,0.8360435406940733,-1.5189749654630336,9.871702210961317,0.6299086172708643,3.956856207126524,9.229297028927686,-0.2372555616425304,0.4138481326219513,5.959301460080031,-0.396728515625,0.8394194812309451,6.278061285251525,-0.1069976062309452,0.5441060880335366,12.057048518483231,-3.874581255935428,-9.323392677325868,2.8145079628875926,9.71907657543074,7.431427299552298,-125.899665655525,25.45682451253482,34.8017791355917,32.45355976877228,1577310613.999,-27.6924771676381,-51.12120781759777,4.0468082
36334,1577310614.2,1.313307203339367,-0.8977672273961503,11.207316366353847,1.2502404279011048,-0.2117408590177201,10.166189015160535,0.550899962485708,0.8372114439429303,14.362465388302686,0.6477542039824695,2.0312797732469514,5.989819038205031,-1.556396484375,1.3277007312309452,6.278061285251525,-1.1140776843559452,-2.812827505716464,18.31315203410823,-3.874581255935428,-9.323392677325868,2.8145079628875926,9.71907657543074,7.431427299552298,-125.899665655525,25.504747356755622,34.70593344715009,32.45355976877228,1577310613.999,-27.6924771676381,-51.12120781759777,4.0468082
36335,1577310614.21,1.2378898510444447,1.1396983853968174,11.47426985146127,1.1520781598346983,1.1756990030428256,10.582780104027725,1.0848069327005518,0.2685885496558214,11.345771296505813,0.2205081102324695,2.4737846560594514,5.638866889767531,-0.0152587890625,1.938052293730945,5.530380621189025,-1.0530425281059452,-9.786094107278965,17.07719012004573,-4.464191447056038,-8.016375012280186,2.178973906751692,11.249668647967258,6.805275997150996,-162.98599968282582,25.45682451253482,34.65801060292928,32.54940545721389,1577310613.999,-27.6924771676381,-51.12120781759777,4.0468082
36336,1577310614.22,0.2502816662299917,0.0072410001429111,8.71016403481088,0.4864900983112609,0.6645369485994663,8.770369447289443,1.759971800864614,-2.423691217189881,4.967618073849562,1.7769045946074695,2.3669731326219514,6.386547553830031,2.197265625,2.151675340605945,6.155990972751525,0.3202484875190547,-0.0357278963414634,7.143718440358232,-4.043041310541316,-7.754971479271048,3.7224137573674594,14.72828699464116,6.095637854429521,-188.8340506715505,25.64851588941804,34.46631922604607,32.45355976877228,1577310613.999,-27.6924771676381,-51.12120781759777,4.0468082
36337,1577310614.23,0.6668727550971792,0.5196001554163486,9.873746041646816,1.7266865582721984,-1.0975954732755326,7.850996009789442,-1.0412441415181972,1.1221214415015242,10.926786005978467,-0.1151852491425304,1.5429985232469514,5.379467475705031,1.495361328125,2.548403856230945,5.789780035251525,1.2968109875190548,2.1920553067835367,5.587321955983232,-4.211501365147203,-7.929240501277138,1.725021009511747,9.71907657543074,6.095637854429521,26.940983669108675,25.45682451253482,34.94554766825411,32.357714080330666,1577310613.999,-27.6924771676381,-51.12120781759777,4.0468082
36338,1577310614.24,0.1377541882026484,-1.162326510843416,10.116757510152675,-0.7752541765910818,-1.6123488302091271,8.890079530297253,0.6275144156107081,-2.7852156678734747,10.06247920666206,0.5867190477324695,2.2143852419969514,5.577831733517531,0.335693359375,1.6023589343559452,4.721664800876525,-0.4121733874809452,1.2460103849085369,8.059245784108231,-4.12727133784426,-7.493567946261912,2.360555065647656,1.092103075679463,4.843335249626915,27.69020253834717,25.408901668314016,34.8017791355917,32.50148261299308,1577310613.999,-27.6924771676381,-51.12120781759777,4.0468082
