,timestamp,acc_x_dashboard,acc_y_dashboard,acc_z_dashboard,acc_x_above_suspension,acc_y_above_suspension,acc_z_above_suspension,acc_x_below_suspension,acc_y_below_suspension,acc_z_below_suspension,gyro_x_dashboard,gyro_y_dashboard,gyro_z_dashboard,gyro_x_above_suspension,gyro_y_above_suspension,gyro_z_above_suspension,gyro_x_below_suspension,gyro_y_below_suspension,gyro_z_below_suspension,mag_x_dashboard,mag_y_dashboard,mag_z_dashboard,mag_x_above_suspension,mag_y_above_suspension,mag_z_above_suspension,temp_dashboard,temp_above_suspension,temp_below_suspension,timestamp_gps,latitude,longitude,speed
86469,1577399870.09,2.731664384155273,0.1095347259521484,6.952641911010741,4.933690484470274,-3.861438511694931,3.946403473049257,2.375447080485025,4.407668251546223,6.534517392985026,-1.4110565185546875,-2.068328857421875,-2.103424072265625,-9.309163907679116,-5.30205703363186,-0.2359529820884147,6.176539829799108,6.200154622395833,-2.8733753022693453,-27.92816891379949,-13.917510344593676,-0.5692018340455787,-107.714475647809,-60.95018315018314,9.403404754673788,29.36253631653038,30.728337376823312,30.05741755773205,1577399869.0,-27.71390220328431,-51.102858667257685,22.811401
86470,1577399870.1,1.2580332623291015,0.0808043060302734,7.518870603637694,-1.9029523561058967,1.0574487990960846,5.850990893703554,-0.3778848286946611,-4.242582346598307,10.082724253336588,-0.7244110107421875,-1.091766357421875,-2.149200439453125,1.738199373570884,-1.1211488305068595,-1.9907137242759148,-0.2626691545758928,-2.878824869791667,0.4988170805431549,-28.56084587948427,-14.387696504884,-0.9757745726495664,-107.9828848791812,-49.31741961741962,1.784045170847198,29.338574894419985,30.728337376823312,29.79384191451763,1577399869.0,-27.71390220328431,-51.102858667257685,22.811401
86471,1577399870.11,0.9922768780517576,0.3154360687255859,8.249102109985351,5.41492501816168,-3.514279270972275,14.49046758437738,6.500656540934244,-4.671144443766275,6.156233530680338,-0.3582000732421875,-1.488494873046875,-2.393341064453125,-7.783285001429116,3.792181247618141,-0.8768221227134148,-0.4457746233258928,0.6764729817708333,-1.2254260835193451,-29.2839052688383,-14.763845433116265,-2.2768073361823347,-104.49356487134264,-44.806756206756205,7.024677860210852,29.146883517536764,30.92002875370653,30.249108934615272,1577399869.0,-27.71390220328431,-51.102858667257685,22.811401
86472,1577399870.12,1.5668852764892578,-0.6637924102783203,8.924266978149413,-0.5083298890648812,-1.512726683081649,12.017257269435976,1.4848040629069004,-0.2682075907389322,13.774583213297523,-0.4802703857421875,-1.244354248046875,-2.271270751953125,-3.785482267054116,-12.19902968988186,-1.0294100133384148,-0.3237043108258928,-7.105509440104167,-1.2864612397693451,-29.10314042149979,-13.823473112535613,-1.4636618589743595,-100.73583563213192,-57.62653642653642,8.139706091990352,29.146883517536764,30.728337376823312,30.15326324617366,1577399869.0,-27.71390220328431,-51.102858667257685,22.811401
86473,1577399870.13,0.1399410870361328,-0.9917980377197264,11.232277378540038,-3.745290533596131,2.772894288598037,6.682975970607851,-2.2693041402180985,-3.675156553141276,10.082724253336588,-0.6328582763671875,-0.5729675292968749,-2.057647705078125,5.522379061070884,-11.06987929925686,-2.0670076695884148,-3.070286342075893,-11.286417643229166,0.6056286039806548,-29.10314042149979,-13.823473112535613,-1.4636618589743595,-109.32493103604212,-42.43272283272283,-6.429996136595121,29.19480636175757,30.680414532602512,30.15326324617366,1577399869.0,-27.71390220328431,-51.102858667257685,22.811401
86474,1577399870.14,-0.2634818927001943,-0.3896563201904297,11.691964097290038,2.9560799131812114,-2.02388873752501,12.707984448391052,-0.1109313435872396,5.390488033040364,16.27412974650065,0.1453399658203125,-3.792572021484375,-1.401519775390625,-6.577840665491616,-5.66826797113186,-3.0435701695884148,3.582545689174108,-1.5055338541666663,-3.2701038178943453,-28.741610726822778,-13.447324184303348,-0.813145477207972,-105.03038333408702,-46.23117623117623,-5.314967904815623,29.09896067331596,30.632491688381705,29.86572618084883,1577399869.0,-27.71390220328431,-51.102858667257685,22.811401
86475,1577399870.15,0.1088164654541015,-0.2328361114501953,10.691187803344723,-2.8666185243187874,4.207021083031631,2.126810211330507,3.46480883585612,-2.4349600931803383,10.233558957926432,-0.8159637451171875,-4.418182373046875,-1.172637939453125,-1.4356287514291155,-4.90532851800686,-0.5411287633384148,-0.8730207170758928,-4.694620768229167,-1.1949085053943451,-29.46467011617681,-12.695026327838823,-2.439436431623926,-100.73583563213192,-50.029629629629625,7.545024368374619,29.146883517536764,30.728337376823312,29.96157186929044,1577399869.0,-27.71390220328431,-51.102858667257685,22.811401
86476,1577399870.16,1.7440561993408203,-0.8385691314697266,7.078337498168945,1.6608168150366802,-1.472025254858993,6.058089337307069,2.255736997477213,-5.667132334391276,3.4364204447428377,-3.3794403076171875,-6.005096435546875,-2.027130126953125,1.2499181235708845,3.639593356993141,-1.4871736852134148,-1.7885480608258928,-10.584513346354166,1.9789196196056549,-28.922375574161286,-15.51614328958079,-0.6505163817663776,-109.32493103604212,-59.52576312576312,7.247683506566751,29.43442058286159,30.77626022104412,30.05741755773205,1577399869.0,-27.71390220328431,-51.102858667257685,22.811401
86477,1577399870.17,1.1790246075439452,0.1885433807373046,7.901942869262695,1.6237066893042582,0.0458985976800689,10.944654925685974,3.693455094401041,-2.33200942179362,10.212011142985023,-0.1750946044921875,-5.577850341796875,-1.538848876953125,-3.709188321741616,-3.74566054925686,-1.4566561070884148,0.3019060407366072,-16.550699869791668,-3.239586239769345,-28.56084587948427,-14.011547576651742,-1.951549145299146,-104.49356487134264,-53.35327635327634,-4.274274888488087,29.338574894419985,30.752298798933715,29.98553329140084,1577399869.0,-27.71390220328431,-51.102858667257685,22.811401
86478,1577399870.18,1.732085191040039,0.3190273712158203,8.877580045776366,-0.4963588807640999,-1.1919036606207116,9.491374517971131,-1.2086728047688795,-3.830779661051432,8.943084263102214,-0.1140594482421875,-4.921722412109375,-1.599884033203125,0.2123204673208842,-7.4993226586318595,-0.0528475133384147,-0.0185285295758927,-1.9785563151041667,0.8192516508556548,-28.38008103214576,-14.011547576651742,-1.301032763532762,-108.78811257329774,-38.15946275946276,7.768030014730519,29.12292209542636,30.5366459999401,29.96157186929044,1577399869.0,-27.71390220328431,-51.102858667257685,22.811401
86479,1577399870.19,1.7871518292236328,-0.9989806427001952,9.874765037231445,2.8435524351538675,0.3260201919183497,10.446660980373474,-2.2501505269368485,-0.2035641459147134,10.422700889078776,0.4657745361328124,-3.868865966796875,-1.569366455078125,2.9894200766958843,-9.91021133050686,-2.6773592320884148,-0.3237043108258928,1.2563069661458333,-3.0564807710193453,-28.380081032145764,-14.199622040767872,-0.4878872863247798,-108.78811257329774,-41.95791615791616,7.173348291114784,29.43442058286159,31.01587444214814,30.009494713511245,1577399869.0,-27.71390220328431,-51.102858667257685,22.811401
86480,1577399870.2,2.33781821105957,-0.2855085479736328,10.530776292114258,2.726236553806211,-2.5350507919683687,15.34519757705316,-2.9205269917805987,-2.037522617594401,14.98365505167643,-0.9685516357421876,-2.587127685546875,-1.874542236328125,-3.999105313929116,0.9540464819931402,0.4659513147865852,-2.185276576450893,10.472615559895834,2.1620250883556547,-28.19931618480725,-14.387696504884,-0.6505163817663776,-100.73583563213192,-60.47537647537647,8.139706091990352,29.338574894419985,30.680414532602512,29.96157186929044,1577399869.0,-27.71390220328431,-51.102858667257685,22.811401
86481,1577399870.21,2.328241404418945,-0.3812766143798828,10.20875616882324,2.291688952487852,1.6440282058343656,10.1880872010766,0.0279323527018227,-1.1959607340494796,12.32249990641276,-0.6175994873046875,-0.740814208984375,-2.149200439453125,-1.4814051186166155,3.2733824194931405,-1.0294100133384148,-3.4364972795758923,10.640462239583334,-2.751304989769345,-28.922375574161286,-13.635398648419478,-1.3010327635327552,-103.95674640859824,-50.029629629629625,-7.322018722018729,29.09896067331596,30.77626022104412,29.91364902506964,1577399869.0,-27.71390220328431,-51.102858667257685,22.811401
86482,1577399870.22,2.498229722290039,-0.2160766998291015,10.24826049621582,2.8914364683569924,-1.4504774399175866,16.764959161525816,1.9277313700358063,2.7484865010579416,9.74993022257487,-1.6704559326171875,-0.4203796386718749,-2.484893798828125,1.8907872641958845,7.30170273199314,-1.7618318883384148,-1.0256086077008928,11.845906575520834,-3.819420224144345,-29.64543496351532,-13.635398648419478,-0.6505163817663776,-107.1776571850646,-48.13040293040292,-6.132655274787254,28.955192140653548,30.728337376823312,29.86572618084883,1577399869.0,-27.71390220328431,-51.102858667257685,22.811401
86483,1577399870.23,2.2564153546142576,-1.006163247680664,10.027993943481444,1.2418315245093363,-1.9460771835699304,11.799384918361756,-1.3714785176595046,3.315912294514973,13.992455564371744,-2.4944305419921875,0.7698059082031251,-2.545928955078125,-2.137533048304116,-3.71514297113186,-3.714956888338415,-1.1476789202008928,17.461140950520832,-3.941490536644345,-28.380081032145764,-12.318877399606563,-0.4878872863247798,-109.32493103604212,-0.6497354497354497,7.842365230182486,29.09896067331596,30.728337376823312,30.05741755773205,1577399869.0,-27.71390220328431,-51.102858667257685,22.811401
86484,1577399870.24,1.9738995587158203,-0.4004302276611328,9.113408909301755,1.5315299253882426,1.6811383315667872,9.74755409560785,0.1009555033365878,-1.1756100199381507,4.3126982523600255,-0.8159637451171875,1.776885986328125,-1.966094970703125,-0.2149256264291157,2.4799253882431405,-1.3651033727134148,2.178737095424107,10.045369466145834,-3.5752795991443453,-28.56084587948427,-12.130802935490433,-1.3010327635327552,-109.32493103604212,-4.448188848188844,7.99103566108642,29.09896067331596,30.392877467277685,30.009494713511245,1577399869.0,-27.71390220328431,-51.102858667257685,22.811401
86485,1577399870.25,2.4264036724853515,0.4303577484130859,8.644145383911132,1.6871530332983988,-0.878263243140243,9.8050149354516,-2.3507069966634107,0.442870302327473,1.729354661051432,-0.4802703857421875,1.898956298828125,-2.729034423828125,0.9142247641958844,9.62103866949314,-1.3040682164634148,0.1340593610491072,-3.3823649088541665,-6.047203427269345,-28.19931618480725,-13.635398648419478,-1.951549145299146,-108.2512941105534,-4.448188848188844,6.9503426447588845,29.00311498487435,30.680414532602512,30.249108934615272,1577399869.0,-27.71390220328431,-51.102858667257685,22.811401
86486,1577399870.26,0.2656366741943364,0.5009866973876953,9.410289915161131,1.3184459776343365,1.349541401635147,11.581512567287536,0.4924074747721347,-4.993164567057292,10.512483451334637,0.0232696533203124,3.195953369140625,-2.744293212890625,-4.411092618616616,8.58344101324314,-1.5176912633384148,-3.863743373325892,2.232869466145833,-0.5235217866443452,-28.19931618480725,-13.635398648419478,-1.951549145299146,-106.37242949094798,-49.79222629222629,-6.095487667061272,29.170844939647168,30.728337376823312,29.86572618084883,1577399869.0,-27.71390220328431,-51.102858667257685,22.811401
86487,1577399870.27,0.8055291485595703,-1.264737026977539,11.521975779418945,2.0989557188452737,-1.742570042456649,12.062747100978942,1.3172099466959628,2.5713155782063795,14.035551194254555,-1.2126922607421875,1.074981689453125,-2.881622314453125,-6.989827970179116,-2.2197816430068595,-2.5552889195884148,-3.131321498325893,25.365193684895832,-1.896812802269345,-29.46467011617681,-16.080366681929178,-2.114178240740737,-109.32493103604212,-46.23117623117623,8.139706091990352,29.19480636175757,30.728337376823312,30.15326324617366,1577399869.0,-27.71390220328431,-51.102858667257685,22.811401
86488,1577399870.28,0.6810306622314453,-0.8601169464111328,11.16763393371582,2.2186658018530863,-1.4145644150152428,10.741147784572693,0.2350307963053378,3.7061671651204415,14.1097714457194,-3.0742645263671875,-0.8171081542968749,-3.217315673828125,-1.1914881264291155,1.5338804663681402,-0.9683748570884148,-3.405979701450893,31.529744466145832,-1.2559436616443451,-29.2839052688383,-13.259249720187215,-1.3010327635327552,-99.12538024389876,-64.74863654863654,9.403404754673788,29.43442058286159,30.92002875370653,29.86572618084883,1577399869.0,-27.71390220328431,-51.102858667257685,22.811401
86489,1577399870.29,1.0676942303466797,-1.055244381713867,11.78653506286621,2.17796437363043,-1.6396193710699305,9.737977288967226,-1.4720349873860672,4.898479591878254,11.059558530680338,-0.2666473388671875,0.1289367675781251,-2.347564697265625,4.881509920445884,0.2826597632431402,-1.4871736852134148,-7.678440638950892,30.431111653645832,-3.3921741303943453,-27.47625679545322,-14.387696504884,-1.6262909544159505,-99.66219870664315,-65.22344322344321,8.734387815606086,29.07499925120556,30.728337376823312,29.86572618084883,1577399869.0,-27.71390220328431,-51.102858667257685,22.811401
86490,1577399870.3,2.488652915649414,0.1526303558349609,11.150874522094725,2.683140923923399,0.3679187209710848,11.512080719143006,0.9856130167643222,2.2480983540852857,9.8959765238444,0.9235382080078124,0.9223937988281252,-2.698516845703125,-5.296102384241616,-1.2432191430068598,-3.165640482088415,1.8735613141741072,22.252400716145832,-6.001427060081845,-27.47625679545322,-14.387696504884,-1.6262909544159505,-104.49356487134264,-57.15172975172975,1.3008662704094158,28.907269296432744,30.77626022104412,30.009494713511245,1577399869.0,-27.71390220328431,-51.102858667257685,22.811401
86491,1577399870.31,2.5772383770751954,-1.7459715606689452,8.610626560668944,1.4836458921851177,-1.155990635718368,6.714100592189882,0.0985613016764316,-0.8739406107584633,10.22877055460612,-1.3957977294921875,1.288604736328125,-2.759552001953125,3.0504552329458843,-12.47368789300686,-3.1656404820884148,2.422877720424107,18.834431966145832,-2.7818225678943453,-28.380081032145764,-13.823473112535613,-1.4636618589743595,-109.32493103604212,-49.08001628001628,-6.132655274787254,29.00311498487435,30.728337376823312,30.05741755773205,1577399869.0,-27.71390220328431,-51.102858667257685,22.811401
86492,1577399870.32,2.057696616821289,-1.3102268585205077,9.664075291137694,0.4732927915991803,-0.0785998886480554,10.3413161073266,3.033852537027995,-2.0447052225748696,8.358899058024088,-0.5413055419921875,1.990509033203125,-2.576446533203125,0.7311192954458843,6.2641050757431405,-2.0364900914634148,1.3242449079241072,3.148396809895833,-0.0352405366443452,-28.018551337468743,-13.44732418430335,-0.162629095441591,-103.95674640859824,-63.32421652421653,6.9503426447588845,29.19480636175757,30.728337376823312,29.96157186929044,1577399869.0,-27.71390220328431,-51.102858667257685,22.811401
86493,1577399870.33,2.4443601849365235,-0.1993172882080078,9.89032734802246,2.108532525485899,-0.0654317795171961,8.932328430324647,-0.472455794270833,-2.196737027994791,11.161312101236978,0.7251739501953125,3.882598876953125,-2.301788330078125,0.334390779820884,-0.7854554711318598,-2.3569246617759148,0.6528581891741072,0.096638997395833,-1.4695667085193451,-29.46467011617681,-14.575770969000132,-1.4636618589743595,-103.41992794585386,-48.60520960520961,-6.058320059335285,29.12292209542636,30.728337376823312,30.12930182406326,1577399869.0,-27.71390220328431,-51.102858667257685,22.811401
86494,1577399870.34,2.2827515728759766,-1.2671312286376952,9.369588486938476,3.3990072203101174,-1.558216514624618,9.309415191799255,2.918930857340494,-1.4772794291178384,15.409822947184244,0.2216339111328124,4.645538330078125,-2.362823486328125,-4.762044767054116,7.2711851538681405,-2.3721834508384148,1.0190691266741072,14.439900716145834,-3.758385067894345,-29.46467011617681,-14.575770969000132,-1.4636618589743595,-103.95674640859824,-48.13040293040292,-7.322018722018729,29.146883517536764,30.92002875370653,29.86572618084883,1577399869.0,-27.71390220328431,-51.102858667257685,22.811401
86495,1577399870.35,2.024177793579101,-1.0277110626220702,11.2562193951416,1.6081443785132423,0.9461184218988185,10.614255096584412,-1.05544389851888,-0.3400336405436197,12.476925913492838,3.0902862548828125,6.018829345703125,-1.874542236328125,-0.3369959389291157,-0.5718324242568598,-2.4332186070884148,0.8664812360491072,23.747762044270832,-4.002525692894345,-30.00696465819233,-14.763845433116265,-0.3252581908831888,-109.32493103604212,-40.53349613349613,9.329069539221818,29.09896067331596,30.5366459999401,30.009494713511245,1577399869.0,-27.71390220328431,-51.102858667257685,22.811401
86496,1577399870.36,1.5716736798095703,0.3585316986083984,12.33600434387207,-0.8794311463890999,0.0770232192620997,8.801844439846132,-1.7425797749837233,-4.32398520304362,10.71958189493815,3.2428741455078125,5.744171142578125,-1.660919189453125,-0.4590662514291157,4.4940855444931405,-2.4027010289634148,-0.3237043108258928,23.595174153645832,-0.0962756928943452,-29.2839052688383,-15.139994361348526,-1.3010327635327552,-109.32493103604212,-42.43272283272283,9.329069539221818,29.19480636175757,30.728337376823312,29.96157186929044,1577399869.0,-27.71390220328431,-51.102858667257685,22.811401
86497,1577399870.37,1.1502941876220705,-0.6841431243896484,11.669219181518551,2.113320928806212,1.4417181655511622,10.81297383437738,1.0574390665690097,0.4727978230794268,5.8689293314615885,2.0221710205078125,5.713653564453125,-1.676177978515625,3.5692540610708843,7.59161972418064,-1.9144197789634148,2.819606236049107,-1.9022623697916663,-4.872276669456845,-28.19931618480725,-14.387696504884,-0.3252581908831888,-109.05652180466991,-34.598412698412695,0.5946817236157291,29.07499925120556,30.92002875370653,30.05741755773205,1577399869.0,-27.71390220328431,-51.102858667257685,22.811401
86498,1577399870.38,1.0664971295166017,0.6099228729248046,8.435849839477537,-0.0486431703148811,-0.6220836655035242,4.413272796779726,2.50712817179362,-3.031116306559244,10.9685788675944,-0.4497528076171875,4.645538330078125,-2.057647705078125,0.5785314048208843,-2.5859925805068595,-1.3345857945884148,2.972194126674107,-6.281534830729167,1.1244274321056549,-28.19931618480725,-14.387696504884,-0.3252581908831888,-100.73583563213192,-46.23117623117623,-4.94329182755579,29.146883517536764,30.680414532602512,29.86572618084883,1577399869.0,-27.71390220328431,-51.102858667257685,22.811401
86499,1577399870.39,0.6379350323486328,-1.860893240356445,8.797374290161132,-0.3431299745140999,-1.270912315405868,10.79382022109613,1.939702378336588,-2.552275974527994,12.8456329691569,0.2216339111328124,4.279327392578125,-1.325225830078125,-4.578939298304116,8.24774765386814,-3.898062357088415,0.9275163922991072,2.812703450520833,0.3309704008556547,-29.64543496351532,-13.635398648419478,-1.6262909544159505,-100.73583563213192,-46.23117623117623,-4.94329182755579,29.146883517536764,30.728337376823312,30.05741755773205,1577399869.0,-27.71390220328431,-51.102858667257685,22.811401
86500,1577399870.4,0.4799177227783202,0.4495113616943359,12.090598673706053,1.620115386814024,1.2214516128167872,12.065141302639098,1.3219983500162753,-4.572982175699869,8.45945552775065,4.0363311767578125,5.088043212890625,-1.279449462890625,-0.9168299233041156,1.96112656011814,-2.3111482945884148,1.4768327985491072,-3.5654703776041665,-0.0352405366443452,-29.2839052688383,-12.883100791954956,-1.138403668091164,-100.19901716938752,-60.95018315018314,7.173348291114784,29.12292209542636,30.728337376823312,29.86572618084883,1577399869.0,-27.71390220328431,-51.102858667257685,22.811401
86501,1577399870.41,0.2835931866455078,-0.4339490509033203,10.279385117797853,0.590608672946837,-0.0594462753668054,9.761919305568789,-0.2198675191243491,-0.8607725016276043,11.322920713297526,2.9987335205078125,7.270050048828125,-1.477813720703125,2.7452794516958843,-2.4791810570693604,-0.8920809117759148,1.2479509626116072,-7.090250651041666,-1.9883655366443451,-29.826199810853826,-14.575770969000132,-0.8131454772079686,-107.1776571850646,-57.62653642653642,7.693694799278552,29.09896067331596,30.728337376823315,30.009494713511245,1577399869.0,-27.71390220328431,-51.102858667257685,22.811401
86502,1577399870.42,-0.2838326068115224,-1.753154165649414,10.729495029907223,1.593779168552305,-1.0195211410894618,10.611860894924256,1.6404271708170566,-7.232940220133464,18.06020418497721,-2.9521942138671875,-3.533172607421875,-0.531768798828125,2.9589024985708843,5.8978941382431405,-1.3956209508384148,-0.2931867327008928,17.094930013020832,0.8802868071056548,-29.826199810853826,-14.575770969000132,-0.8131454772079686,-108.2512941105534,-56.67692307692308,7.545024368374619,29.338574894419985,30.872105909485725,30.15326324617366,1577399869.0,-27.71390220328431,-51.102858667257685,22.811401
86503,1577399870.43,1.2125434307861327,-1.4706383697509764,12.192352244262697,-0.0725851869164436,-0.9788197128668056,10.082742328029724,0.9006188578287754,-3.3495451273600256,19.35546728312174,3.0292510986328125,2.600860595703125,-0.226593017578125,5.217203279820884,-0.7244203148818598,-1.2735506383384148,-1.2697492327008928,33.36079915364584,1.7347789946056549,-29.2839052688383,-14.011547576651742,-1.6262909544159505,-107.1776571850646,-42.43272283272283,8.734387815606086,29.09896067331596,30.728337376823312,30.009494713511245,1577399869.0,-27.71390220328431,-51.102858667257685,22.811401
86504,1577399870.44,2.1007922467041014,-0.6183025787353515,11.770972752075194,4.55301242050543,-1.5869469345464928,11.914306598049256,1.7745024637858064,3.876155482991536,10.1641271097819,2.6020050048828125,3.211212158203125,0.048065185546875,-2.290120938929116,11.45209335699314,-2.0059725133384148,0.4697527204241072,42.18037923177084,-2.4461292085193453,-28.19931618480725,-14.763845433116265,-1.3010327635327552,-109.32493103604212,-42.43272283272283,9.329069539221818,29.29065205019917,30.728337376823312,30.009494713511245,1577399869.0,-27.71390220328431,-51.102858667257685,22.811401
86505,1577399870.45,3.0405163983154297,-0.4674678741455078,10.88751233947754,4.55301242050543,-0.8615038315191492,13.865580951076598,0.3068568461100254,-1.7047285868326822,9.955831565348308,3.1055450439453125,4.706573486328125,-0.882720947265625,-2.076497892054116,18.71527695074314,-2.2195955602134148,2.697535923549107,20.207722981770832,-2.9954456147693453,-28.651228303153523,-14.105584808709809,-1.3823473112535574,-107.714475647809,-34.36100936100936,-6.058320059335285,29.170844939647168,30.728337376823312,30.009494713511245,1577399869.0,-27.71390220328431,-51.102858667257685,22.811401
86506,1577399870.46,2.000235776977539,-0.9917980377197264,10.753437046508788,1.4692806822241806,-0.8004516891851648,11.054788202053162,0.4253698282877602,1.601663905843098,10.860839792887369,2.6020050048828125,5.805206298828125,-1.294708251953125,13.151773592320886,-4.82903457269436,-1.1667391149009148,3.368922642299107,7.878621419270834,-5.085899716331845,-29.826199810853826,-12.318877399606563,-2.114178240740737,-103.68833717722607,-40.29609279609279,-4.162772065310137,29.29065205019917,30.82418306526492,29.98553329140084,1577399869.0,-27.71390220328431,-51.102858667257685,22.811401
86507,1577399870.47,2.0792444317626955,-0.1801636749267578,9.968138901977538,1.809257317966368,-0.3036548447027429,10.60228408828363,-0.0067835713704423,-7.345467698160807,7.652609568277994,3.609085083007813,6.476593017578125,-1.172637939453125,3.1725255454458843,12.33710312261814,-3.3182283727134148,2.789088657924107,-3.3518473307291665,1.4601207914806549,-29.826199810853826,-12.318877399606563,-2.114178240740737,-39.53853087927163,-4.448188848188844,7.545024368374619,29.09896067331596,30.680414532602512,30.15326324617366,1577399869.0,-27.71390220328431,-51.102858667257685,22.811401
86508,1577399870.48,0.5708973858642578,0.1358709442138671,11.407054099731443,2.072619500583555,0.127301454125381,10.568765265041444,-0.1336762593587236,3.162683388264973,6.6757752909342445,3.2123565673828125,6.598663330078125,-1.111602783203125,1.9213048423208845,7.6373960913681405,-0.6631990758384148,3.368922642299107,-17.512003580729168,-0.0962756928943452,-28.018551337468743,-12.695026327838823,-1.4636618589743595,-99.66219870664315,-65.22344322344321,6.9503426447588845,29.146883517536764,30.872105909485725,29.96157186929044,1577399869.0,-27.71390220328431,-51.102858667257685,22.811401
86509,1577399870.49,0.5720944866943358,0.4207809417724609,8.560348325805663,-0.4748110658226936,-0.8184082016363368,6.055695135646913,0.1368685282389316,-2.066253037516276,6.733236130777994,2.6477813720703125,5.500030517578125,-1.248931884765625,3.1420079673208843,-2.7385804711318595,-1.1514803258384148,2.850123814174107,-30.573527018229168,-4.307701474144345,-28.651228303153523,-13.165212488129152,-1.3823473112535574,-99.66219870664315,-53.82808302808303,7.0990130756628185,29.027076406984754,30.680414532602512,30.34495462305688,1577399869.0,-27.71390220328431,-51.102858667257685,22.811401
86510,1577399870.5,0.0010773907470703,-1.0588356842041016,8.859623533325195,-0.0797677918969129,-0.1611998459234465,10.21442341933832,-0.1695892842610678,-0.8009174601236984,7.46346763712565,2.6020050048828125,5.194854736328125,-0.684356689453125,3.3708898032583843,6.4319517554306405,-1.1057039586509148,4.543849400111608,-33.518473307291664,0.1326061430431547,-28.741610726822778,-14.199622040767872,-1.7889200498575484,-102.88310948310948,-44.33194953194953,-0.483178900437788,29.146883517536764,30.704375954712912,30.05741755773205,1577399869.0,-27.71390220328431,-51.102858667257685,22.811401
86511,1577399870.51,0.2740163800048828,0.0257376678466796,8.8045568951416,1.2681677427710552,-1.270912315405868,8.31821570449457,-0.3730964253743486,-1.2115230448404946,6.266366807047525,2.7545928955078125,4.767608642578125,-1.111602783203125,-1.0999353920541155,6.9354917944931405,-2.3111482945884148,3.033229282924107,-39.36258951822917,-0.1267932710193452,-28.741610726822778,-14.199622040767872,-1.7889200498575484,-98.58856178115435,-47.18078958078958,8.139706091990352,29.09896067331596,30.680414532602512,30.009494713511245,1577399869.0,-27.71390220328431,-51.102858667257685,22.811401
86512,1577399870.52,0.5996278057861327,0.1693897674560547,10.990463010864255,1.0670548033179303,0.290107167016006,9.182522503810976,1.3626997782389316,-1.2378592631022134,6.7164767191569,3.0597686767578125,3.668975830078125,-1.386260986328125,-2.198568204554116,7.3322203101181405,-0.8768221227134148,3.674098423549107,-46.77836100260416,2.9554821196056547,-28.922375574161286,-12.506951863722694,-0.3252581908831888,-106.6408387223202,-63.7990231990232,8.808723031058054,29.338574894419985,30.5845688441609,30.05741755773205,1577399869.0,-27.71390220328431,-51.102858667257685,22.811401
86513,1577399870.53,0.898903013305664,0.5524620330810547,9.696397013549804,0.7091216551245709,0.2290550246820221,7.043303320461367,2.16834863688151,0.7337658040364579,14.755008793131507,1.0761260986328125,3.577423095703125,-1.660919189453125,0.013956209508384,2.3883726538681405,-2.1433016149009148,2.621241978236607,-28.864542643229168,0.4530407133556548,-30.368494352869348,-13.071175256071088,-1.3010327635327583,-105.83561102820362,-57.38913308913308,1.1150282317794984,29.07499925120556,30.728337376823312,29.841764758738428,1577399869.0,-27.71390220328431,-51.102858667257685,22.811401
86514,1577399870.54,1.8829198956298827,-0.9343371978759764,8.818922105102539,2.2497904234351176,-2.326755247534774,11.488138702541445,0.0578598734537753,0.9073454243977854,17.985983933512365,-0.9075164794921876,2.631378173828125,-1.844024658203125,-2.015462735804116,6.4166929663681405,-0.8463045445884148,-0.0185285295758927,12.852986653645834,-0.4624866303943452,-29.10314042149979,-13.823473112535613,-0.4878872863247798,-108.78811257329774,-62.84940984940984,7.173348291114784,29.19480636175757,30.728337376823312,29.86572618084883,1577399869.0,-27.71390220328431,-51.102858667257685,22.811401
86515,1577399870.55,2.792716526489258,-0.2663549346923828,8.483733872680663,1.8260167295874612,2.20307429348085,8.825786456447695,3.036246738688151,-0.1077960795084634,10.11384887491862,1.3813018798828125,4.309844970703125,-1.264190673828125,-0.9168299233041156,-3.89824843988186,-1.8228670445884148,-1.8495832170758928,26.860555013020832,-3.3616565522693453,-29.10314042149979,-13.823473112535613,-0.4878872863247798,-100.19901716938752,-60.95018315018314,8.66005260015412,29.19480636175757,30.680414532602512,30.009494713511245,1577399869.0,-27.71390220328431,-51.102858667257685,22.811401
86516,1577399870.56,2.057696616821289,0.6434416961669921,10.523593687133788,1.3495705992163676,0.8742923720941309,7.087596051174257,3.053006150309245,-0.2131409525553384,7.621484946695963,0.3437042236328124,4.767608642578125,-1.996612548828125,-2.473226407679116,15.66351913824314,-0.8157869664634148,-2.826145717075893,22.618611653645832,-4.887535458519345,-29.46467011617681,-12.695026327838823,-1.138403668091164,-100.19901716938752,-60.95018315018314,8.66005260015412,29.09896067331596,30.728337376823312,30.249108934615272,1577399869.0,-27.71390220328431,-51.102858667257685,22.811401
86517,1577399870.57,1.636317124633789,0.7942764007568359,9.120591514282223,0.4050580442847276,-0.5897619430914153,11.929868908840271,-0.3024674763997392,-0.962526072184245,6.05328285929362,-1.8383026123046875,5.118560791015625,-2.393341064453125,-1.252523282679116,5.5316832007431405,-1.9754549352134148,-2.6735578264508923,3.300984700520833,-2.980186825706845,-29.55505253984606,-13.541361416361417,-1.544976406695155,-104.76197410271482,-51.69145299145299,0.8176873699716323,29.29065205019917,30.752298798933715,30.03345613562165,1577399869.0,-27.71390220328431,-51.102858667257685,22.811401
86518,1577399870.58,0.726520493774414,-0.345363589477539,9.522817393188475,0.5977912779273054,1.1687791762933497,7.944720245510195,0.0458888651529941,0.4452645039876293,7.140250413004557,-2.6470184326171875,6.262969970703125,-2.332305908203125,0.3343907798208843,6.6303160132431405,-2.0059725133384148,-2.093723842075893,-4.145304361979167,-0.9202503022693452,-28.56084587948427,-14.011547576651742,-1.3010327635327552,-102.34629102036511,-56.2021164021164,8.511382169250187,29.29065205019917,30.728337376823312,29.86572618084883,1577399869.0,-27.71390220328431,-51.102858667257685,22.811401
86519,1577399870.59,1.0090362896728515,-0.680551821899414,7.715195139770507,2.1228977354468364,-1.539062901343368,8.232024444728944,0.1943293680826816,-3.0239337015787755,6.805062180582682,-2.2808074951171875,6.446075439453125,-2.545928955078125,0.5480138266958843,0.4962828101181402,-1.1819979039634148,-1.5749250139508928,-9.974161783854166,-1.6221545991443451,-28.56084587948427,-14.011547576651742,-1.3010327635327552,-103.95674640859824,-56.67692307692308,11.707796433684758,28.955192140653548,30.77626022104412,30.05741755773205,1577399869.0,-27.71390220328431,-51.102858667257685,22.811401
86520,1577399870.6,1.5561113690185546,0.6159083770751953,7.970177616577147,1.2585909361304302,-0.8136197983160243,9.544046954494569,1.8511169169108064,-2.35116303507487,6.728447727457682,-1.8840789794921875,6.354522705078125,-2.698516845703125,-8.851400235804116,12.24555038824314,-1.3956209508384148,-2.856663295200893,-18.397013346354168,0.1478649321056547,-27.92816891379949,-13.541361416361417,-1.2197182158119628,-103.95674640859824,-56.67692307692308,11.707796433684758,29.12292209542636,30.872105909485725,30.05741755773205,1577399869.0,-27.71390220328431,-51.102858667257685,22.811401
86521,1577399870.61,0.6834248638916015,-1.0875661041259763,8.610626560668944,1.390272027439024,-0.3204142563238367,8.338566418605897,1.117294108072916,1.1335974812825516,6.925969364420572,-1.8230438232421875,6.476593017578125,-2.515411376953125,-2.595296720179116,5.3485777319931405,-1.2888094274009148,-3.634861537388392,-31.397501627604164,-0.7524036225818451,-29.64543496351532,-14.763845433116265,-1.6262909544159505,-103.95674640859824,-56.67692307692308,8.139706091990352,29.09896067331596,30.728337376823312,29.93761044718004,1577399869.0,-27.71390220328431,-51.102858667257685,22.811401
86522,1577399870.62,0.132758482055664,-0.6829460235595702,9.17565815246582,0.3440059019507429,-1.0003675278082118,9.328568805080506,3.0601887552897136,-0.0694888529459634,8.354110654703776,-3.5320281982421875,4.370880126953125,-2.820587158203125,-6.898275235804116,2.5104429663681405,-1.8228670445884148,-1.9106183733258928,-32.068888346354164,-0.8897327241443452,-28.741610726822778,-14.575770969000132,-0.8131454772079686,-109.32493103604212,-61.42498982498982,6.9503426447588845,29.146883517536764,30.872105909485725,29.86572618084883,1577399869.0,-27.71390220328431,-51.102858667257685,22.811401
86523,1577399870.63,-0.5040991595458975,-0.575206948852539,10.159675034790038,0.1117683409155866,-1.136837022437118,8.188928814846133,2.4760035502115887,-1.3934823710123696,9.733170810953776,-1.8840789794921875,2.906036376953125,-2.393341064453125,1.0057774985708845,-1.2127015648818598,-0.0833650914634147,-0.3542218889508928,-26.606241861979168,-1.866295224144345,-28.741610726822778,-14.575770969000132,-0.8131454772079686,-109.32493103604212,-59.52576312576312,9.626410401029688,28.955192140653548,30.680414532602512,30.009494713511245,1577399869.0,-27.71390220328431,-51.102858667257685,22.811401
86524,1577399870.64,0.4212597821044926,-0.364517202758789,7.536827116088866,-0.8602775331078498,0.6779678359613185,5.907254632717225,3.651556565348307,-1.3934823710123696,8.481003342692057,-3.669357299804688,0.678253173828125,-2.515411376953125,-1.7408045326791155,-0.5107972680068598,-1.2430330602134148,-0.7204328264508928,-24.256388346354168,-1.2254260835193451,-29.555052539846063,-13.917510344593676,-0.8944600249287742,-107.714475647809,-64.74863654863654,9.849416047385589,29.290652050199174,30.728337376823312,30.009494713511245,1577399869.0,-27.71390220328431,-51.102858667257685,22.811401
86525,1577399870.65,1.4854824200439454,0.9427169036865234,6.721601450805664,1.0730403074683208,-0.8950226547613371,7.508975543361757,0.2458047037760415,-0.6249436381022135,9.236373966471351,-3.2878875732421875,0.7698059082031251,-2.423858642578125,-5.708089688929116,1.1981871069931402,-1.1667391149009148,-2.154758998325893,-15.970865885416668,-1.2406848725818451,-28.922375574161286,-14.763845433116265,-1.951549145299146,-102.34629102036509,-53.82808302808302,-0.0371676077259857,29.09896067331596,30.752298798933715,29.91364902506964,1577399869.0,-27.71390220328431,-51.102858667257685,22.811401
86526,1577399870.66,1.4016853619384766,0.4016273284912109,8.311351353149414,0.5259652281226178,1.2453936294183496,8.825786456447695,0.1919351664225253,1.3406959248860677,11.41629457804362,-2.7080535888671875,1.502227783203125,-2.515411376953125,-4.548421720179116,-0.8159730492568598,-0.9378572789634148,-3.070286342075893,5.101521809895833,-0.8286975678943452,-29.826199810853826,-13.071175256071088,-2.114178240740737,-105.03038333408703,-48.13040293040292,-7.322018722018729,29.29065205019917,30.728337376823312,30.05741755773205,1577399869.0,-27.71390220328431,-51.102858667257685,22.811401
86527,1577399870.67,1.3538013287353516,-0.7835024932861328,9.237907395629884,0.6863767393530866,-1.1057124008550867,7.777126129299257,0.8120333964029941,-0.0623062479654947,9.517692661539714,-2.8911590576171875,2.997589111328125,-2.210235595703125,-5.982747892054116,7.3932554663681405,-2.2501131383384148,-5.237034388950892,4.460652669270833,-2.3240588960193453,-29.826199810853826,-13.071175256071088,-2.114178240740737,-105.03038333408703,-55.72730972730972,7.693694799278552,29.146883517536764,30.77626022104412,30.009494713511245,1577399869.0,-27.71390220328431,-51.102858667257685,22.811401
86528,1577399870.68,1.243668052368164,0.2148795989990234,10.68280809753418,1.4609009764136334,0.084205824242569,9.864869976955504,1.6464126749674473,0.4823746297200521,7.234821378580729,-2.8453826904296875,3.302764892578125,-2.256011962890625,-4.701009610804116,1.1524107398056402,-0.5106111852134148,-7.312229701450892,-5.808512369791666,-1.9578479585193451,-28.38008103214576,-14.01154757665174,-1.4636618589743529,-107.17765718506458,-34.83581603581603,7.693694799278552,29.146883517536764,30.728337376823315,29.98553329140084,1577399869.0,-27.71390220328431,-51.102858667257685,22.811401
86529,1577399870.69,0.3195062115478515,0.0137666595458984,9.52042319152832,-1.6336046693383186,-0.0187448471441492,9.175339898830506,2.1096906962076813,-0.1245554911295571,11.643743735758465,-5.088424682617188,2.845001220703125,-2.576446533203125,-2.137533048304116,5.1044371069931405,-1.2735506383384148,-3.070286342075893,-9.241739908854166,-2.6902698335193453,-30.00696465819233,-13.635398648419478,-1.3010327635327552,-102.88310948310946,-49.08001628001628,6.9503426447588845,29.146883517536764,30.728337376823312,30.009494713511245,1577399869.0,-27.71390220328431,-51.102858667257685,22.811401
86530,1577399870.7,0.563714780883789,-1.2192471954345705,8.744701853637695,3.30802755722418,0.0482927993402247,9.424336871486757,1.3794591898600252,-2.4756615214029942,13.135331370035807,-6.034469604492188,1.105499267578125,-2.667999267578125,-5.555501798304116,0.4962828101181402,-1.4261385289634148,-1.5749250139508928,0.9511311848958331,-1.1033557710193451,-29.10314042149979,-13.823473112535613,-1.7889200498575484,-109.32493103604212,-63.32421652421653,9.329069539221818,29.09896067331596,30.728337376823312,29.96157186929044,1577399869.0,-27.71390220328431,-51.102858667257685,22.811401
86531,1577399870.71,0.362601841430664,-1.1929109771728514,10.11418520324707,2.625680084079649,-1.7186280258550866,11.62939660049066,3.582124717203776,-0.6680392679850259,11.322920713297526,-2.8301239013671875,1.471710205078125,-2.118682861328125,-7.172933438929116,1.6864683569931402,-0.3580232945884147,-2.063206263950893,8.031209309895834,-0.3709338960193452,-29.10314042149979,-13.823473112535613,-1.7889200498575484,-109.32493103604212,-63.32421652421653,9.329069539221818,29.338574894419985,30.5845688441609,30.15326324617366,1577399869.0,-27.71390220328431,-51.102858667257685,22.811401
86532,1577399870.72,0.6104017132568359,-0.6590040069580078,10.069892472534178,-1.7604973573265998,0.3595390151605372,7.461091510158631,0.4122017191569004,1.1395829854329422,9.690075181070965,-2.0977020263671875,1.105499267578125,-2.011871337890625,1.2194005454458845,3.761663669493141,-1.6855379430259148,-2.841404506138393,17.705281575520832,-2.1562122163318453,-29.19352284516905,-13.729435880477546,-1.219718215811963,-103.68833717722605,-60.23797313797314,8.399879346072236,29.24272920597837,30.728337376823312,29.889687602959235,1577399869.0,-27.71390220328431,-51.102858667257685,22.811401
86533,1577399870.73,0.257256968383789,-0.5153519073486328,8.569925132446288,1.8930543760718364,0.0913884292230372,9.0388704042016,2.1503921244303377,0.1100762715657543,9.031669724527996,-2.5249481201171875,-0.2372741699218749,-2.088165283203125,-7.935872892054116,-1.1821839867568598,0.1302579554115852,-1.4528547014508928,22.649129231770832,-4.460289364769345,-28.922375574161286,-12.883100791954956,-0.9757745726495664,-105.03038333408703,-53.82808302808303,-6.429996136595121,29.09896067331596,30.680414532602512,29.86572618084883,1577399869.0,-27.71390220328431,-51.102858667257685,22.811401
86534,1577399870.74,0.094451255493164,-0.259172329711914,11.138903513793943,-2.241731891018006,-1.3499209701910242,6.726071600490664,0.4720567606608066,-0.6632508646647134,8.483397544352213,-1.9756317138671875,-0.2983093261718749,-1.996612548828125,-0.9473475014291156,-12.41265273675686,-1.5176912633384148,-2.551487513950893,20.024617513020832,-4.673912411644345,-30.549259200207857,-14.575770969000132,-0.8131454772079686,-100.73583563213192,-48.13040293040292,7.545024368374619,29.19480636175757,30.5845688441609,30.009494713511245,1577399869.0,-27.71390220328431,-51.102858667257685,22.811401
86535,1577399870.75,0.448793101196289,-0.8601169464111328,10.188405454711914,-2.136387017971131,0.9149938003167872,13.020427765041443,-0.6867368428548174,-1.7957082499186197,8.540858384195964,-1.3042449951171875,-0.0236511230468748,-2.027130126953125,-4.578939298304116,-2.6470277367568595,-1.8839022008384148,-2.459934779575893,14.165242513020834,-1.5916370210193451,-30.00696465819233,-14.387696504884,-0.3252581908831888,-100.73583563213192,-48.13040293040292,7.545024368374619,29.00311498487435,30.92002875370653,30.009494713511245,1577399869.0,-27.71390220328431,-51.102858667257685,22.811401
86536,1577399870.76,0.9719261639404296,-0.8325836273193359,11.099399186401364,2.0845905088843364,-1.4768136581793054,12.480535290676208,0.0614511759440102,0.0538125325520824,7.433540116373697,-0.5107879638671875,0.5561828613281251,-1.782989501953125,-0.1233728920541159,5.1807310523056405,-0.8768221227134148,-3.146580287388393,-4.587809244791666,-0.3404163178943452,-30.00696465819233,-14.387696504884,-0.3252581908831888,-105.56720179683144,-57.15172975172975,8.808723031058054,29.12292209542636,30.80022164315452,29.98553329140084,1577399869.0,-27.71390220328431,-51.102858667257685,22.811401
86537,1577399870.77,1.0664971295166017,-1.0803834991455077,9.616191257934569,1.802074712985899,1.2645472426995996,9.151397882228943,1.6787343973795563,-1.2522244730631509,12.529598350016276,-0.6938934326171875,-0.0846862792968748,-2.271270751953125,3.0809728110708843,0.5878355444931402,-1.0599275914634148,-0.4457746233258928,-8.356730143229166,0.1173473539806547,-29.64543496351532,-13.259249720187215,-2.9273237179487124,-100.73583563213192,-48.13040293040292,-6.578666567499058,29.19480636175757,30.48872315571929,30.009494713511245,1577399869.0,-27.71390220328431,-51.102858667257685,22.811401
86538,1577399870.78,1.1431115826416014,-1.6741455108642578,10.162069236450192,0.4708985899390241,-1.9963554184332115,10.25751904922113,-0.9644642354329424,-1.453337412516276,16.432147056070963,0.6183624267578125,0.0679016113281251,-1.874542236328125,-2.412191251429116,9.68207382574314,-1.6397615758384148,-0.9950910295758928,8.855183919270834,-0.9507678803943452,-29.64543496351532,-14.011547576651742,-0.6505163817663776,-105.03038333408703,-65.22344322344321,9.329069539221818,29.29065205019917,30.728337376823312,30.249108934615272,1577399869.0,-27.71390220328431,-51.102858667257685,22.811401
86539,1577399870.79,0.448793101196289,0.2053027923583984,13.12130248840332,-0.4748110658226936,1.075405311547256,11.84726895156488,-0.7561686909993486,1.599269704182943,12.881545994059245,3.4564971923828125,0.3730773925781251,-1.569366455078125,-4.365316251429116,-4.02031875238186,-1.8533846227134148,0.2866472516741072,21.458943684895832,-4.185631161644345,-29.2839052688383,-12.506951863722694,0.0,-105.03038333408703,-65.22344322344321,9.329069539221818,29.19480636175757,30.872105909485725,29.86572618084883,1577399869.0,-27.71390220328431,-51.102858667257685,22.811401
86540,1577399870.8,0.7097610821533202,0.0664390960693359,9.957364994506834,1.5219531187476176,-0.4628692551031336,8.842545868068788,1.7673198588053378,0.5613832845052084,6.447129032389323,-0.2513885498046875,0.1899719238281251,-1.889801025390625,4.103311678258384,-0.3887269555068597,-2.1280428258384148,-0.4610334123883928,7.619222005208334,-4.612877255394345,-29.2839052688383,-12.506951863722694,0.0,-108.78811257329777,-60.95018315018314,3.159246656708584,29.19480636175757,30.704375954712912,30.009494713511245,1577399869.0,-27.71390220328431,-51.102858667257685,22.811401
86541,1577399870.81,0.3697844464111328,-1.1186907257080076,7.827722617797851,-0.6304341737328499,0.251799940453506,7.877682599025819,-1.5510436421712237,-0.6800102762858071,10.99491508585612,-1.2737274169921875,-0.4814147949218749,-2.118682861328125,-4.701009610804116,-3.3794496117568595,-2.2501131383384148,-0.1711164202008928,3.178914388020833,0.4225231352306547,-29.46467011617681,-14.575770969000132,-0.8131454772079686,-109.32493103604212,-57.62653642653642,-6.727336998402988,29.09896067331596,30.48872315571929,30.009494713511245,1577399869.0,-27.71390220328431,-51.102858667257685,22.811401
86542,1577399870.82,0.7241262921142577,-0.661398208618164,9.336069663696287,-0.2545445130883186,1.0107618667230371,9.266319561916443,0.7426015482584629,1.7932000386555988,12.172862302652996,1.3813018798828125,0.1594543457031251,-2.179718017578125,1.5245763266958845,1.6559507788681402,-1.4566561070884148,-1.3918195452008928,14.531453450520834,0.6361461821056548,-29.64543496351532,-13.259249720187215,-1.3010327635327552,-109.32493103604212,-57.62653642653642,-6.132655274787254,29.146883517536764,30.92002875370653,29.96157186929044,1577399869.0,-27.71390220328431,-51.102858667257685,22.811401
86543,1577399870.83,0.544561167602539,-0.7451952667236328,10.389518394165036,-0.4676284608422248,-0.9381182846441491,9.71642947402582,1.645215574137369,-0.6943754862467446,14.466507493082682,2.9987335205078125,1.654815673828125,-1.294708251953125,1.4940587485708845,-7.2856996117568595,-2.7689119664634148,1.9345964704241072,32.59785970052084,-2.7513049897693453,-29.64543496351532,-13.635398648419478,-0.9757745726495664,-109.32493103604212,-50.029629629629625,7.396353937470683,29.00311498487435,30.680414532602512,30.05741755773205,1577399869.0,-27.71390220328431,-51.102858667257685,22.811401
86544,1577399870.84,0.9731232647705078,-1.054047280883789,12.76217223937988,2.5107584043921487,-0.4125910202398528,12.171683276516053,0.0853931925455727,1.942837642415364,10.704019584147137,2.4951934814453125,1.074981689453125,-1.859283447265625,-0.2454432045541157,9.40741562261814,-1.8076082555259148,1.9498552594866072,28.889973958333336,-4.460289364769345,-28.741610726822778,-13.823473112535613,-1.4636618589743595,-107.17765718506458,-55.72730972730972,1.152195839505482,29.146883517536764,30.728337376823312,30.153263246173665,1577399869.0,-27.71390220328431,-51.102858667257685,22.811401
86545,1577399870.85,1.483088218383789,-0.0460883819580078,11.05271225402832,0.5427246397437115,0.4984027114495997,10.83212744765863,0.5390944071451816,-1.472491025797526,8.205670151774088,0.6183624267578125,0.8918762207031251,-1.996612548828125,2.8368321860708843,-4.53911758050686,-2.0364900914634148,0.6833757672991072,12.639363606770834,-4.826500302269345,-28.56084587948427,-13.259249720187215,-1.3010327635327552,-99.12538024389876,-48.60520960520961,-6.653001782951026,29.146883517536764,30.680414532602512,30.009494713511245,1577399869.0,-27.71390220328431,-51.102858667257685,22.811401
86546,1577399870.86,0.7217320904541015,-0.5823895538330078,11.009616624145506,0.3056986753882428,0.4984027114495997,8.12667957168207,0.7569667582194004,-0.5483291849772134,5.505010679117838,0.3131866455078124,0.7698059082031251,-2.088165283203125,4.149088045445884,1.6559507788681402,-3.4402986852134148,3.307887486049107,-0.7273356119791667,-3.636314755394345,-28.56084587948427,-13.635398648419478,-1.951549145299146,-98.05174331840998,-45.75636955636956,-4.274274888488087,29.146883517536764,30.728337376823312,30.009494713511245,1577399869.0,-27.71390220328431,-51.102858667257685,22.811401
86547,1577399870.87,0.9707290631103516,-0.6350619903564453,9.012852439575196,0.3320348936499616,-0.916570469702743,10.942260724025818,0.7641493631998691,-2.3248268168131507,4.355793882242838,1.7780303955078125,1.197052001953125,-1.691436767578125,2.2875157798208843,-2.2808167992568595,-2.5552889195884148,3.155299595424107,-16.535441080729168,-2.2935413178943453,-28.19931618480725,-14.763845433116265,-0.9757745726495664,-100.19901716938752,-43.85714285714285,-4.274274888488087,29.338574894419985,30.728337376823312,29.86572618084883,1577399869.0,-27.71390220328431,-51.102858667257685,22.811401
86548,1577399870.88,0.1291671795654301,-0.0915782135009765,7.867226945190429,-1.0290687501488656,-1.1260631149664146,5.896480725246523,0.7102798258463535,-0.3903118754069014,5.562471518961589,2.2052764892578125,0.739288330078125,-1.630401611328125,0.5785314048208844,-0.1293275414443599,-1.8076082555259148,2.010890415736607,-32.67923990885417,0.3004528227306547,-28.380081032145764,-14.199622040767872,-1.138403668091164,-104.76197410271482,-60.237973137973135,8.251208915168302,29.31461347230958,30.704375954712912,30.03345613562165,1577399869.0,-27.71390220328431,-51.102858667257685,22.811401
86549,1577399870.89,0.4847061260986328,0.1717839691162109,8.079113792114256,1.5363183287085551,3.268494032250381,10.499333416896912,0.6588044901529941,-1.178004221598307,8.22961216837565,1.9306182861328125,-0.3288269042968749,-1.569366455078125,-3.968587735804116,1.5949156226181402,-2.0364900914634148,0.4392351422991072,-34.632364908854164,0.4835582914806547,-28.922375574161286,-13.635398648419478,-0.3252581908831888,-109.32493103604212,-64.27382987382987,-7.322018722018729,29.09896067331596,30.728337376823312,30.009494713511245,1577399869.0,-27.71390220328431,-51.102858667257685,22.811401
86550,1577399870.9,0.046567222290039,0.5907692596435546,10.468527048950197,0.4373797666968366,-1.92692357028868,7.525734954982851,1.3507287699381505,1.448434999593099,10.626208030192055,2.3273468017578125,-0.2372741699218749,-1.477813720703125,0.5174962485708843,4.1889097632431405,-2.2195955602134148,3.826686314174107,-31.977335611979168,-1.1643909272693451,-28.380081032145764,-13.823473112535613,-0.4878872863247798,-101.8094725576207,-50.029629629629625,7.842365230182486,29.29065205019917,30.680414532602512,30.009494713511245,1577399869.0,-27.71390220328431,-51.102858667257685,22.811401
86551,1577399870.91,-0.1401805072021479,-0.4662707733154296,9.515634788208008,-1.2002541688500374,-0.9117820663824304,6.0916081605492565,1.4201606180826816,-2.1261080790201823,11.74190600382487,1.4118194580078125,-1.396942138671875,-1.294708251953125,1.0362950766958845,-10.36797500238186,-1.2735506383384148,0.0425066266741072,-29.017130533854168,-2.2935413178943453,-29.555052539846063,-13.917510344593676,-0.8944600249287675,-103.41992794585386,-47.65559625559625,7.842365230182486,29.12292209542636,30.680414532602512,30.009494713511245,1577399869.0,-27.71390220328431,-51.102858667257685,22.811401
86552,1577399870.92,0.0226252056884765,-0.2950853546142578,10.288961924438476,1.1843706846655864,-1.4049876083746178,9.484191912990662,1.084972385660807,-0.2682075907389327,11.036813614908851,1.4423370361328125,-2.648162841796875,-1.294708251953125,0.7158605063833843,-2.41814590081936,-1.7160555211509148,0.8207048688616072,-24.698893229166668,0.2089000883556547,-29.64543496351532,-14.387696504884,-0.9757745726495664,-106.1040202595758,-51.454049654049655,0.4831789004377835,29.09896067331596,30.704375954712912,29.91364902506964,1577399869.0,-27.71390220328431,-51.102858667257685,22.811401
86553,1577399870.93,0.602022007446289,0.4088099334716796,9.077495884399411,-0.1013156068383186,1.7529643813714746,10.3030088807641,0.2182713846842441,1.259293068440755,12.706769272867838,1.5033721923828125,-2.404022216796875,-1.233673095703125,-0.4895838295541157,-5.30205703363186,-1.0599275914634148,7.610866001674108,-8.051554361979166,-0.8286975678943452,-29.46467011617681,-11.942728471374304,-3.089952813390304,-109.32493103604212,-48.13040293040292,-7.322018722018729,29.146883517536764,30.680414532602512,30.009494713511245,1577399869.0,-27.71390220328431,-51.102858667257685,22.811401
86554,1577399870.94,0.7696161236572265,-0.2424129180908203,10.58584293029785,-0.5370603089867562,-1.1990862656011805,6.3142689149437885,2.066595066324869,-0.5291755716959634,9.120255185953775,0.3437042236328124,-3.350067138671875,-1.111602783203125,6.956705232945884,-12.16851211175686,-0.9988924352134148,0.1645769391741072,-6.891886393229167,-1.0118030366443451,-28.741610726822778,-14.199622040767872,-1.138403668091164,-104.49356487134264,-43.85714285714285,-4.868956612103822,29.29065205019917,30.77626022104412,30.009494713511245,1577399869.0,-27.71390220328431,-51.102858667257685,22.811401
86555,1577399870.95,0.4823119244384765,0.4435258575439453,9.33487256286621,0.5044174131812116,-0.4353359360113367,8.964650152736757,1.6212735575358066,-1.4868562357584634,3.220942295328776,0.1453399658203125,-2.968597412109375,-0.806427001953125,-3.999105313929116,4.6771910132431405,-0.3580232945884147,-2.368382045200893,-19.282023111979168,-1.3474963960193451,-27.92816891379949,-12.789063559896888,-1.544976406695152,-100.73583563213192,-47.18078958078958,9.329069539221818,29.19480636175757,30.728337376823312,29.86572618084883,1577399869.0,-27.71390220328431,-51.102858667257685,22.811401
86556,1577399870.96,0.1950077252197265,0.3226186737060547,7.54760102355957,-0.2449677064476936,0.2960926711663966,7.49461033340082,2.098916788736979,-0.931401450602214,6.417201511637369,-2.1892547607421875,-3.960418701171875,-0.959014892578125,5.644449373570884,-6.46172500238186,0.1912931116615852,-2.353123256138393,-35.57840983072916,-0.5540393647693451,-28.018551337468743,-12.695026327838823,-2.439436431623926,-106.10402025957582,-65.22344322344321,7.545024368374619,29.00311498487435,30.728337376823312,30.03345613562165,1577399869.0,-27.71390220328431,-51.102858667257685,22.811401
86557,1577399870.97,-0.5064933612060537,0.3393780853271484,7.274662034301757,1.29689816269293,-1.570187522925399,7.956691253810976,0.6061320536295566,0.6080702168782544,9.745141819254558,-0.7549285888671875,-4.540252685546875,-0.623321533203125,-0.8252771889291157,-0.9685609398818598,-0.5716463414634148,-1.8190656389508928,-32.251993815104164,0.4225231352306547,-28.380081032145764,-14.199622040767872,-1.138403668091164,-107.1776571850646,-65.22344322344321,6.9503426447588845,29.19480636175757,30.728337376823312,29.72195764818641,1577399869.0,-27.71390220328431,-51.102858667257685,22.811401
86558,1577399870.98,-0.5424063861083974,-0.0556651885986328,10.269808311157226,0.8563650572241803,-1.206268870581649,8.255966461330507,2.1025080912272127,-1.4820678324381509,12.266236167399088,-0.9685516357421876,-4.814910888671875,-0.623321533203125,-7.142415860804116,-1.1821839867568598,-0.0833650914634147,1.4463152204241072,-20.014444986979168,-0.8592151460193452,-28.922375574161286,-13.259249720187215,-2.2768073361823347,-102.88310948310946,-65.22344322344321,6.9503426447588845,29.29065205019917,30.728337376823312,29.96157186929044,1577399869.0,-27.71390220328431,-51.102858667257685,22.811401
86559,1577399870.99,0.1124077679443364,-0.5117606048583984,9.726324534301757,-0.0869503968773816,-0.5382866073980556,10.216817620998476,1.4010070048014318,-0.0048454081217451,13.530374643961588,-1.1211395263671875,-5.562591552734375,-0.363922119140625,3.0657140220083843,-9.81865859613186,0.3591397913490852,1.0648454938616072,0.9053548177083331,0.8192516508556548,-29.73581738718457,-13.917510344593676,-1.3823473112535574,-106.9092479536924,-57.38913308913308,7.136180683388801,29.122922095426365,30.752298798933715,29.91364902506964,1577399869.0,-27.71390220328431,-51.102858667257685,22.811401
86560,1577399871.0,1.662653342895508,-0.2950853546142578,10.473315452270509,2.395836724704649,-0.2821070297613367,12.86241045547113,0.8718884379069004,0.5290615620930981,15.005202866617838,-1.2737274169921875,-5.242156982421875,-0.165557861328125,-1.6797693764291155,-6.61431289300686,0.6185392054115852,1.7209734235491072,19.505818684895832,0.7887340727306548,-30.187729505530843,-13.823473112535613,-1.7889200498575484,-108.2512941105534,-50.029629629629625,-6.727336998402988,29.00311498487435,30.872105909485725,30.05741755773205,1577399871.0,-27.71420165547408,-51.10254377897425,22.707092
86561,1577399871.01,1.3633781353759766,0.2843114471435546,9.642527476196287,0.901854888767149,1.4752369887933496,10.513698626857847,1.5494475077311192,0.2656993794759105,15.251805637613932,-0.1140594482421875,-4.082489013671875,-0.287628173828125,-3.663411954554116,-2.8911683617568595,0.8931974085365852,-1.5138898577008928,36.07686360677084,-0.7981799897693452,-30.00696465819233,-12.130802935490433,-1.3010327635327552,-107.1776571850646,-48.13040293040292,-7.322018722018729,29.09896067331596,30.680414532602512,30.249108934615272,1577399871.0,-27.71420165547408,-51.10254377897425,22.707092
86562,1577399871.02,1.5381548565673828,-0.9127893829345702,10.980886204223632,0.0902205259741803,-0.5454692123785242,9.692487457424257,1.4680446512858063,1.017478700764973,13.980484556070962,0.0995635986328124,-3.563690185546875,-0.501251220703125,2.0128575766958843,-2.0061585961318595,-0.8463045445884148,-0.5068097795758928,56.79829915364584,-3.0259631928943453,-29.64543496351532,-14.011547576651742,-2.602065527065524,-109.32493103604212,-50.029629629629625,-4.94329182755579,29.09896067331596,30.728337376823312,30.009494713511245,1577399871.0,-27.71420165547408,-51.10254377897425,22.707092
86563,1577399871.03,0.965940659790039,-0.5955576629638671,9.364800083618164,2.12050353378668,-0.1839447616949309,9.026899395900818,-0.1001574361165366,1.2892205891927078,5.894068448893229,-1.1363983154296875,-2.953338623046875,-1.004791259765625,-1.7102869545541155,-6.46172500238186,-0.6479402867759148,-1.7885480608258928,52.40376790364584,-5.238487606956845,-29.374287692507554,-13.353286952245284,-2.032863693019934,-102.88310948310948,-57.62653642653642,7.545024368374618,29.194806361757568,30.704375954712912,29.91364902506964,1577399871.0,-27.71420165547408,-51.10254377897425,22.707092
86564,1577399871.04,0.573291587524414,0.5979518646240234,10.317692344360353,-0.3096111512719124,-0.0235332504644617,9.098725445705506,0.0506772684733066,-0.8212681742350258,0.7118189554850258,0.0385284423828124,-2.068328857421875,-0.897979736328125,5.308756014195884,-7.4688050805068595,-1.1514803258384148,0.4697527204241072,8.916219075520834,-3.3921741303943453,-28.19931618480725,-11.754654007258171,-2.2768073361823347,-100.73583563213192,-64.27382987382987,-3.7539283803243206,29.09896067331596,30.5366459999401,29.96157186929044,1577399871.0,-27.71420165547408,-51.10254377897425,22.707092
86565,1577399871.05,-0.2814384051513662,0.2316390106201172,8.993698826293944,2.0869847105444927,0.4361534682855372,9.759525103908633,0.8120333964029941,-1.6113547220865885,5.696546811930339,-1.7009735107421875,-2.465057373046875,-1.081085205078125,-4.151693204554116,1.0455992163681402,-0.8157869664634148,-1.2392316545758928,-25.171915690104168,-0.7981799897693452,-28.19931618480725,-11.754654007258171,-2.2768073361823347,-109.32493103604212,-55.72730972730972,-7.322018722018729,29.146883517536764,30.872105909485725,30.05741755773205,1577399871.0,-27.71420165547408,-51.10254377897425,22.707092
86566,1577399871.06,-0.6357802508544912,-0.5704185455322265,7.561966233520507,-1.6551524842797247,-1.5294860947027429,8.229630243068788,1.3100273417154942,-0.9314014506022134,6.153839329020182,-1.3042449951171875,-4.204559326171875,-1.203155517578125,1.8297521079458845,-7.19414687738186,0.5880216272865852,-0.5678449358258928,-31.122843424479168,0.3920055571056547,-30.00696465819233,-13.635398648419478,-0.9757745726495664,-108.2512941105534,-40.53349613349613,7.0990130756628185,29.146883517536764,30.5366459999401,30.009494713511245,1577399871.0,-27.71420165547408,-51.10254377897425,22.707092
86567,1577399871.07,0.281198984985352,-0.2507926239013672,8.517252695922851,-0.4999501832543348,0.3463709060296783,8.963453051906678,0.4481147440592446,-0.4214364969889327,12.839647465006507,-0.1445770263671875,-4.601287841796875,-0.623321533203125,0.9600011313833844,-4.08135390863186,-0.4037996617759147,-1.6817365373883928,-12.720743815104168,2.1467662992931547,-28.922375574161286,-13.447324184303348,-1.4636618589743529,-108.51970334192558,-48.84261294261294,7.507856760648635,29.12292209542636,30.728337376823312,29.91364902506964,1577399871.0,-27.71420165547408,-51.10254377897425,22.707092
86568,1577399871.08,1.2077550274658202,-0.7643488800048828,10.3751531842041,3.624062176364805,-1.127260215796493,11.10027803359613,0.4433263407389316,2.568921376546223,12.211169529215494,0.0385284423828124,-3.655242919921875,-1.142120361328125,-7.264486173304116,1.3202574194931402,-0.5716463414634148,-1.5138898577008928,2.965291341145833,-0.6150745210193452,-29.64543496351532,-13.635398648419478,-1.951549145299146,-109.32493103604212,-46.23117623117623,-7.024677860210856,29.338574894419985,30.872105909485725,29.96157186929044,1577399871.0,-27.71420165547408,-51.10254377897425,22.707092
86569,1577399871.09,1.2700042706298829,-0.1969230865478515,12.403041990356444,1.265773541110899,-0.102541905249618,9.663757037502382,1.4848040629069004,1.2976002950032552,15.062663706461588,0.3742218017578124,-3.380584716796875,-1.416778564453125,5.583414217320884,-17.81426406488186,-0.2969881383384147,-2.398899623325893,10.625203450520834,-2.9649280366443453,-29.64543496351532,-13.635398648419478,-1.951549145299146,-109.32493103604212,-46.23117623117623,-7.024677860210856,29.29065205019917,30.728337376823312,29.86572618084883,1577399871.0,-27.71420165547408,-51.10254377897425,22.707092
86570,1577399871.1,0.8175001568603515,-1.1139023223876952,12.989621397094725,1.1125446348608992,0.1967333022699122,10.664533331447693,1.1639810404459627,0.0238850118001293,14.461719089762369,1.0456085205078125,-3.014373779296875,-1.142120361328125,-1.3745935951791155,6.5387632788681405,0.7100919397865852,-1.5444074358258928,23.930867513020832,-3.5752795991443453,-28.741610726822778,-13.823473112535613,-2.439436431623926,-108.78811257329774,-45.75636955636956,-6.653001782951026,29.19480636175757,30.680414532602512,29.86572618084883,1577399871.0,-27.71420165547408,-51.10254377897425,22.707092
86571,1577399871.11,1.358589732055664,-0.6494272003173828,9.708368021850584,2.262958532565977,-0.0654317795171966,10.671715936428162,0.2709438212076821,-0.4896712443033857,6.783514365641276,-0.6786346435546875,-2.388763427734375,-1.752471923828125,-0.2454432045541155,-4.18816543206936,-2.1127840367759148,-2.276829310825893,16.209920247395832,-3.4837268647693453,-29.374287692507554,-13.541361416361417,-1.707605502136746,-106.64083872232018,-0.6497354497354497,7.6193595838265855,29.170844939647168,30.80022164315452,29.937610447180035,1577399871.0,-27.71420165547408,-51.10254377897425,22.707092
86572,1577399871.12,1.032978306274414,0.9522937103271484,5.622662888793944,-1.1547643373070686,-1.5534281113043054,7.978239068752382,1.5183228861490878,0.031067616780598,3.4364204447428377,-0.4497528076171875,-1.702117919921875,-1.264190673828125,4.027017732945884,0.4352476538681402,-1.2430330602134148,1.6294206891741072,-17.664591471354168,-3.4532092866443453,-30.368494352869348,-12.130802935490433,-0.3252581908831888,-105.03038333408703,-50.029629629629625,-7.024677860210856,29.43442058286159,30.5366459999401,29.96157186929044,1577399871.0,-27.71420165547408,-51.10254377897425,22.707092
86573,1577399871.13,0.0393846173095703,1.292270346069336,6.597102964477538,-0.7501442567406624,-1.713839622534774,7.307862603908632,1.1089144022623691,-3.153220591227213,8.066806455485025,0.2216339111328124,-2.617645263671875,-1.416778564453125,-1.5882166420541155,-0.6328675805068598,-2.1890779820884148,-0.1711164202008928,-21.906534830729168,0.4835582914806547,-30.368494352869348,-12.130802935490433,-0.3252581908831888,-105.03038333408703,-50.029629629629625,-7.024677860210856,29.09896067331596,30.77626022104412,29.86572618084883,1577399871.0,-27.71420165547408,-51.10254377897425,22.707092
86574,1577399871.14,0.1758541119384765,-0.7882908966064452,8.756672861938476,0.911431695407774,0.4852346023187403,9.611084600978945,1.2836911234537756,-1.4198185892740889,16.299268863932287,0.4352569580078124,-2.434539794921875,-0.714874267578125,-3.449788907679116,0.4199888648056403,-0.3885408727134147,0.2713884626116072,5.360921223958332,1.8568493071056549,-28.56084587948427,-13.635398648419478,-0.3252581908831888,-109.32493103604212,-45.28156288156288,7.396353937470685,29.146883517536764,30.680414532602512,30.009494713511245,1577399871.0,-27.71420165547408,-51.10254377897425,22.707092
86575,1577399871.15,-0.395162984008788,-0.2388216156005859,13.140456101684569,1.9098137876929304,-1.4576600448980552,12.97733213515863,1.2094708719889316,2.798764735921223,14.193568503824867,2.2357940673828125,-3.105926513671875,-0.623321533203125,-2.198568204554116,-5.85137343988186,-1.8839022008384148,5.566188267299108,33.23872884114584,-0.2183460053943452,-29.73581738718457,-14.293659272825936,-1.0570891203703618,-102.88310948310946,-65.22344322344321,7.247683506566751,29.05103782909516,30.92002875370653,29.86572618084883,1577399871.0,-27.71420165547408,-51.10254377897425,22.707092
86576,1577399871.16,0.2716221783447266,-0.556053335571289,12.426984006958008,-2.0908971864281622,1.5518514419183496,10.362863922268003,1.214259275309244,4.201766908772785,11.737117600504556,-0.8464813232421875,-2.037811279296875,-1.020050048828125,0.1512853110708842,-9.23882461175686,0.1302579554115852,1.6599382672991072,36.25996907552084,-4.857017880394345,-29.2839052688383,-14.011547576651742,-0.3252581908831888,-101.8094725576207,-65.22344322344321,10.815773848261154,29.09896067331596,30.728337376823312,29.96157186929044,1577399871.0,-27.71420165547408,-51.10254377897425,22.707092
86577,1577399871.17,0.525407554321289,-0.7116764434814453,11.031164439086911,2.513152606052305,0.6348722060785059,13.03479297500238,1.7074648173014315,-1.242647666422526,11.86161608683268,-0.8769989013671875,-5.272674560546875,-0.989532470703125,-3.632894376429116,-3.5320375023818595,-0.9073397008384148,-6.854466029575892,31.560262044270832,-5.345299130394345,-29.2839052688383,-14.011547576651742,-0.3252581908831888,-102.88310948310946,-65.22344322344321,8.437046953798218,29.19480636175757,30.48872315571929,30.05741755773205,1577399871.0,-27.71420165547408,-51.10254377897425,22.707092
86578,1577399871.18,2.382110941772461,-1.014542953491211,10.044753355102538,2.4939989927710555,-0.6017329513921962,12.354839703518005,-0.2569776448567705,-0.7685957377115885,10.33172122599284,-0.1750946044921875,-3.472137451171875,-1.401519775390625,0.486978670445884,-4.14238906488186,-1.1819979039634148,-0.2321515764508928,23.320515950520832,-2.0036243257068453,-29.01275799783054,-14.293659272825938,-1.8702345975783472,-100.46742640075972,-23.2030525030525,-5.649476374349471,29.12292209542636,30.80022164315452,30.34495462305688,1577399871.0,-27.71420165547408,-51.10254377897425,22.707092
86579,1577399871.19,1.5046360333251954,-1.2407950103759764,9.089466892700194,0.6265216978491803,0.270953553734756,12.469761383205505,-0.3874616353352861,-1.4988272440592447,4.353399680582681,2.2357940673828125,-0.7255554199218749,-1.203155517578125,5.705484529820884,-1.3652894555068598,-2.9520174352134148,4.040309361049108,4.704793294270833,-0.1267932710193452,-28.741610726822778,-12.695026327838823,-0.8131454772079686,-96.44128793017684,-57.62653642653642,6.9503426447588845,29.338574894419985,30.728337376823312,30.009494713511245,1577399871.0,-27.71420165547408,-51.10254377897425,22.707092
86580,1577399871.2,0.8797494000244139,0.9618705169677734,7.652945896606444,0.4685043882788678,-0.2126751816168054,8.069218731838319,1.001175327555338,1.7740464253743489,5.363752781168619,4.1584014892578125,-1.274871826171875,-0.775909423828125,1.0668126548208845,2.3883726538681405,-2.9520174352134148,3.918239048549107,-14.460245768229166,-2.2019885835193453,-30.00696465819233,-13.635398648419478,-1.3010327635327552,-105.03038333408703,-57.62653642653642,7.0990130756628185,29.09896067331596,30.5845688441609,29.96157186929044,1577399871.0,-27.71420165547408,-51.10254377897425,22.707092
86581,1577399871.21,-0.1545457171630849,1.0839748016357422,9.216359580688476,-0.7501442567406624,-0.7226401352300867,8.112314361721133,0.2350307963053378,-1.8052850565592449,13.492067417399088,2.9987335205078125,-0.8171081542968749,-0.379180908203125,-1.0389002358041155,1.96112656011814,-0.0223299352134147,1.4463152204241072,-12.079874674479166,-0.2488635835193452,-30.00696465819233,-13.635398648419478,-1.3010327635327552,-105.03038333408703,-40.53349613349613,-7.024677860210856,29.19480636175757,30.680414532602512,29.86572618084883,1577399871.0,-27.71420165547408,-51.10254377897425,22.707092
86582,1577399871.22,0.003471592407227,-0.661398208618164,11.201152756958006,0.786933209079649,0.108147840844131,12.237523822170347,0.4074133158365879,0.4644181172688793,12.965343052164712,2.2052764892578125,-2.205657958984375,-0.547027587890625,1.5856114829458845,-5.39360976800686,-1.4566561070884148,2.117701939174107,-1.6733805338541667,-0.4319690522693452,-29.46467011617681,-13.071175256071086,-1.95154914529914,-109.32493103604212,-40.53349613349613,-6.132655274787254,29.338574894419985,30.5366459999401,30.15326324617366,1577399871.0,-27.71420165547408,-51.10254377897425,22.707092
86583,1577399871.23,-0.1569399188232411,-0.4435258575439453,11.91462485168457,0.8479853514136338,-1.2074659714117273,11.97535874038324,0.8144275980631503,0.8618555928548174,12.030407303873698,2.6935577392578125,-2.281951904296875,-0.531768798828125,2.6842442954458843,-3.73040176019436,-1.1057039586509148,3.231593540736607,-2.1616617838541665,-0.7981799897693453,-27.65702164279173,-13.071175256071088,-2.439436431623926,-103.95674640859828,-55.72730972730973,8.139706091990352,29.146883517536764,30.89606733159613,29.93761044718004,1577399871.0,-27.71420165547408,-51.10254377897425,22.707092
86584,1577399871.24,0.0585382305908203,-0.7188590484619141,12.321639133911132,0.193171197360899,0.3810868301019435,13.408288433986757,-1.4672465840657547,3.435622377522785,16.405810837809245,3.1513214111328125,-3.655242919921875,-0.409698486328125,2.1654454673208843,0.4352476538681402,-1.8839022008384148,7.580348423549108,15.874226888020834,0.7887340727306548,-29.10314042149979,-11.942728471374304,-0.8131454772079686,-108.2512941105534,-46.23117623117623,-7.322018722018729,29.09896067331596,30.728337376823312,30.009494713511245,1577399871.0,-27.71420165547408,-51.10254377897425,22.707092
86585,1577399871.25,1.0066420880126952,-0.3501519927978515,11.162845530395506,2.0750137022437114,0.8383793471917872,13.96853162246332,0.3738944925944004,1.4125219746907551,17.03309167277018,3.2428741455078125,-3.166961669921875,-0.318145751953125,4.240640779820884,-3.1353089867568595,-1.2430330602134148,1.9956316266741072,30.217488606770832,-3.0564807710193453,-29.10314042149979,-11.942728471374304,-0.8131454772079686,-108.2512941105534,-50.029629629629625,-7.322018722018729,29.09896067331596,30.680414532602512,30.05741755773205,1577399871.0,-27.71420165547408,-51.10254377897425,22.707092
86586,1577399871.26,2.068470524291992,-0.1119289276123046,11.214320866088864,4.749336956638243,0.7617648940667872,11.368428619533631,0.2063003763834628,-1.996821189371745,12.06033482462565,2.8308868408203125,-2.220916748046875,-0.699615478515625,4.850992342320884,-3.2573792992568595,-1.9754549352134148,2.483912876674107,41.26485188802084,-2.5376819428943453,-28.922375574161286,-12.88310079195496,-1.6262909544159474,-107.1776571850646,-50.029629629629625,-4.497280534843986,29.31461347230958,30.680414532602512,29.86572618084883,1577399871.0,-27.71420165547408,-51.10254377897425,22.707092
86587,1577399871.27,2.2061371197509767,0.0831985076904296,9.52042319152832,0.6660260252417589,-0.3682982895269622,9.510528131252382,0.4289611307779941,0.6894730733235677,1.0829202128092448,2.4494171142578125,-0.7865905761718749,-0.775909423828125,4.439005037633384,1.2134458960556396,-1.5787264195884148,1.3700212751116072,12.425740559895832,-3.361656552269345,-28.018551337468743,-14.199622040767872,-2.7646946225071147,-106.10402025957582,-50.029629629629625,1.3752014858613824,29.146883517536764,30.80022164315452,29.93761044718004,1577399871.0,-27.71420165547408,-51.10254377897425,22.707092
86588,1577399871.28,1.423233176879883,1.2228384979248046,8.816527903442381,1.1364866514624616,0.4074230483636622,8.3876475526391,-0.1001574361165361,-0.5674827982584634,0.6304160990397133,1.8390655517578125,-0.2067565917968749,-0.959014892578125,2.5621739829458843,1.5338804663681402,-1.7923494664634148,3.918239048549107,-36.12772623697917,-0.7371448335193452,-30.368494352869348,-13.259249720187215,-2.2768073361823347,-100.73583563213192,-50.029629629629625,6.9503426447588845,29.09896067331596,31.01587444214814,30.05741755773205,1577399871.0,-27.71420165547408,-51.10254377897425,22.707092
86589,1577399871.29,-0.3197456317138661,0.9355342987060546,6.814975315551757,1.8667181578101175,-0.1552143417730554,5.459538922268007,1.6476097757975252,-1.855563291422526,8.576771409098306,1.0150909423828125,-0.3288269042968749,-0.714874267578125,-1.2830408608041155,-0.7854554711318598,-0.9073397008384148,3.155299595424107,-47.05301920572917,1.8263317289806549,-30.368494352869348,-13.259249720187215,-2.2768073361823347,-108.78811257329774,-41.95791615791616,-7.099013075662825,29.146883517536764,30.728337376823312,29.86572618084883,1577399871.0,-27.71420165547408,-51.10254377897425,22.707092
86590,1577399871.3,-0.9242815509033192,-0.450708462524414,10.321283646850585,-0.861474633937928,-1.1045153000250083,8.804238641506286,0.7581638590494785,-0.966117374674479,16.78888310343424,1.8085479736328125,-3.121185302734375,-0.257110595703125,-0.4590662514291158,-0.67864394769436,-1.1819979039634148,1.5226091657366072,-25.47709147135416,3.0470348539806547,-29.735817387184568,-12.789063559896888,-2.0328636930199417,-103.95674640859824,-49.55482295482295,7.470689152922651,29.146883517536764,30.704375954712912,30.009494713511245,1577399871.0,-27.71420165547408,-51.10254377897425,22.707092
86591,1577399871.31,0.3362656231689452,-0.9798270294189452,12.833998289184567,1.462098077243711,-1.6515903793707116,17.34914436660394,1.0897607889811192,2.157118690999349,18.469612668863927,2.8461456298828125,-3.136444091796875,-0.165557861328125,-0.9473475014291156,-0.1140687523818597,-0.8463045445884148,1.8430437360491072,13.005574544270834,1.3075329008556549,-28.922375574161286,-12.130802935490433,-1.951549145299146,-108.78811257329774,-49.55482295482295,7.173348291114784,29.09896067331596,30.5845688441609,29.86572618084883,1577399871.0,-27.71420165547408,-51.10254377897425,22.707092
86592,1577399871.32,1.703354771118164,0.6027402679443359,14.184328025512697,0.221901617282774,1.997172950707412,9.043658807521911,0.0123700419108066,3.758839601643879,14.768176902262368,2.5409698486328125,-2.007293701171875,-0.226593017578125,1.7381993735708845,-6.46172500238186,0.3438810022865852,0.8664812360491072,22.160847981770832,-2.8123401460193453,-27.47625679545322,-12.506951863722694,-0.9757745726495664,-104.49356487134264,-47.65559625559625,7.173348291114784,29.146883517536764,30.77626022104412,30.15326324617366,1577399871.0,-27.71420165547408,-51.10254377897425,22.707092
86593,1577399871.33,2.277963169555664,-0.3190273712158203,10.5666893170166,4.349505279392149,-0.9692429062261804,12.608625079494567,-0.1839544942220048,-0.9050652323404946,13.434606577555336,-0.1445770263671875,-1.244354248046875,-0.440216064453125,6.224283357945884,1.3812925757431402,-0.9988924352134148,1.8125261579241072,30.980428059895832,-4.460289364769345,-29.2839052688383,-14.763845433116265,-1.3010327635327552,-108.78811257329774,-57.15172975172975,7.024677860210852,29.09896067331596,30.680414532602512,30.05741755773205,1577399871.0,-27.71420165547408,-51.10254377897425,22.707092
86594,1577399871.34,2.0744560284423827,-0.2256535064697265,9.314521848754882,1.2885184568823838,-0.0678259811773528,11.476167694240662,0.5067726847330722,-0.5231900675455734,7.303056125895182,0.2521514892578124,-0.9086608886718748,-0.745391845703125,0.8989659751333844,-3.76091933831936,-1.2582918492759148,3.124782017299107,19.85677083333333,-3.834679013206845,-30.368494352869348,-11.754654007258171,-2.602065527065524,-102.88310948310948,-55.72730972730972,1.8955479940251492,29.19480636175757,30.752298798933715,29.86572618084883,1577399871.0,-27.71420165547408,-51.10254377897425,22.707092
86595,1577399871.35,2.2408530438232424,0.393247622680664,8.780614878540039,1.4812516905249613,-0.667573497046493,11.607848785549256,-0.8136295308430986,-1.4820678324381509,4.638309678141275,1.0150909423828125,1.273345947265625,-0.775909423828125,0.7616368735708843,9.92621445074314,-1.7313143102134148,1.1106218610491072,2.782185872395833,2.9859996977306547,-29.826199810853826,-13.82347311253561,-2.276807336182335,-100.73583563213192,-63.32421652421653,7.247683506566751,29.21876778386797,30.728337376823312,29.86572618084883,1577399871.0,-27.71420165547408,-51.10254377897425,22.707092
86596,1577399871.36,1.665047544555664,0.1286883392333984,8.4214846295166,2.15881076034918,0.2494057387933497,10.587918878322691,0.1847525614420566,3.909674306233723,6.72365932413737,0.8319854736328125,2.082061767578125,-1.325225830078125,2.5926915610708843,0.6183531226181402,1.0763028772865852,-0.3237043108258928,-7.715861002604167,0.1173473539806547,-29.46467011617681,-13.071175256071088,-2.114178240740737,-100.73583563213192,-55.72730972730972,7.247683506566751,29.19480636175757,30.728337376823312,30.009494713511245,1577399871.0,-27.71420165547408,-51.10254377897425,22.707092
86597,1577399871.37,1.7871518292236328,1.483806478881836,10.909060154418944,0.3727363218726178,-0.0378984604253992,6.477074627834413,0.5223349955240879,-1.4317895975748698,12.857603977457682,1.5949249267578125,2.845001220703125,-0.897979736328125,-0.6116541420541157,0.7709410132431402,-1.3651033727134148,0.2561296735491072,-4.603068033854167,-2.3850940522693453,-29.46467011617681,-13.071175256071088,-1.138403668091164,-108.2512941105534,-57.62653642653642,6.9503426447588845,29.09896067331596,30.5845688441609,29.86572618084883,1577399871.0,-27.71420165547408,-51.10254377897425,22.707092
86598,1577399871.38,0.8617928875732421,-0.1430535491943359,11.389097587280272,2.137262945407774,-1.140428324927352,12.401526635891052,0.303265543619791,0.0274763142903641,9.6936664835612,0.9693145751953124,4.187774658203125,-0.653839111328125,-0.1386316811166159,8.09515976324314,-0.5106111852134148,-0.2321515764508928,-2.421061197916667,-1.240684872581845,-28.741610726822778,-14.199622040767872,-0.8131454772079686,-105.8356110282036,-52.641066341066335,8.32554413062027,29.170844939647168,30.632491688381705,29.93761044718004,1577399871.0,-27.71420165547408,-51.10254377897425,22.707092
86599,1577399871.39,0.5852625958251952,-0.9271545928955076,11.301709226684569,0.6983477476538679,-0.0307158554449304,11.842480548244568,2.581348423258464,-1.149273801676432,7.348545957438151,-0.2056121826171875,2.997589111328125,-0.501251220703125,1.3109532798208845,-8.10967422113186,0.3438810022865852,1.3547624860491072,-15.406290690104166,-2.7207874116443453,-28.56084587948427,-13.635398648419478,-2.2768073361823347,-102.88310948310946,-55.72730972730972,8.585717384702155,29.09896067331596,30.872105909485725,29.86572618084883,1577399871.0,-27.71420165547408,-51.10254377897425,22.707092
86600,1577399871.4,0.017836802368164,-0.2567781280517578,9.836457810668945,-0.3215821595726936,-1.6061005478277428,6.625515130764101,2.883017832438151,-0.3017264139811197,9.95343736368815,-1.5178680419921875,2.661895751953125,-0.470733642578125,-1.7408045326791155,-0.1751039086318597,-2.1890779820884148,1.2021745954241072,-21.326700846354168,1.1854625883556549,-30.187729505530843,-12.318877399606563,-0.4878872863247798,-100.73583563213192,-50.029629629629625,7.545024368374619,29.4823434270824,30.728337376823312,29.96157186929044,1577399871.0,-27.71420165547408,-51.10254377897425,22.707092
86601,1577399871.41,0.975517466430664,-0.0245405670166015,8.2299484967041,1.4357618589819927,1.985201942406631,11.313361981350036,1.1903172587076816,-0.4453785135904947,11.70359877726237,0.3437042236328124,2.387237548828125,-0.867462158203125,-3.114095548304116,2.9682066382431405,-1.0904451695884148,1.3547624860491072,-14.979044596354166,1.6737438383556549,-29.46467011617681,-14.575770969000132,-3.089952813390304,-98.05174331840998,-57.15172975172975,7.024677860210852,28.907269296432744,30.728337376823312,30.009494713511245,1577399871.0,-27.71420165547408,-51.10254377897425,22.707092
86602,1577399871.42,1.1083956585693358,-0.2603694305419922,10.225515580444334,0.1333161558569928,-0.0259274521246179,9.37166443496332,-0.5191427266438798,2.109234657796224,10.3173560160319,0.3894805908203124,2.371978759765625,-0.897979736328125,3.5997716391958843,-0.9380433617568598,-0.1444002477134147,0.7444109235491072,-7.776896158854167,2.5892711821056547,-28.56084587948427,-12.883100791954956,-0.9757745726495664,-98.58856178115435,-60.47537647537647,6.9503426447588845,29.146883517536764,30.77626022104412,29.96157186929044,1577399871.0,-27.71420165547408,-51.10254377897425,22.707092
86603,1577399871.43,1.3657723370361328,0.3226186737060547,7.971374717407226,1.1939474913062114,-0.4233649277105559,7.908807220607851,1.9911777140299471,-1.27856069132487,7.273128605143229,-2.0061492919921875,2.509307861328125,-0.959014892578125,1.570352693883384,1.6254332007431405,-0.3427645055259147,4.391261509486608,-13.697306315104168,-1.9273303803943451,-29.2839052688383,-13.635398648419478,-0.6505163817663776,-108.25129411055336,-61.8997964997965,8.139706091990352,28.955192140653548,30.608530266271305,30.05741755773205,1577399871.0,-27.71420165547408,-51.10254377897425,22.707092
86604,1577399871.44,1.004247886352539,0.5189432098388671,7.2124127911376945,-0.9297093812523812,-0.1839447616949304,6.012599505764101,2.133632712809244,-2.3583456400553384,9.278272495524089,-2.7385711669921875,1.258087158203125,-0.714874267578125,-2.930990079554116,10.41449570074314,0.1607755335365852,1.9956316266741072,-15.162150065104166,-0.9812854585193452,-27.83778649013024,-12.883100791954956,-0.9757745726495664,-108.78811257329774,-55.25250305250305,7.024677860210852,29.146883517536764,30.680414532602512,29.86572618084883,1577399871.0,-27.71420165547408,-51.10254377897425,22.707092
86605,1577399871.45,0.420062681274414,1.218050094604492,6.786244895629882,1.6943356382788677,0.0626580093011622,7.765155120998475,0.8886478495279941,-1.9321777445475257,12.314120200602211,-0.9685516357421876,1.136016845703125,-0.592803955078125,-2.900472501429116,-1.0906312523818598,-0.4800936070884147,-8.319309779575892,-5.518595377604167,-0.7981799897693452,-30.368494352869348,-14.763845433116265,-2.2768073361823347,-105.03038333408703,-33.88620268620268,-7.1733482911147926,29.146883517536764,30.92002875370653,30.15326324617366,1577399871.0,-27.71420165547408,-51.10254377897425,22.707092
86606,1577399871.46,-0.4011484881591787,-0.172981069946289,11.101793388061523,-0.1228634217797249,0.3236259902581935,9.845716363674256,-0.2653573506673173,0.2465457661946605,10.379605259195962,0.0690460205078124,1.685333251953125,-0.287628173828125,-4.823079923304116,-3.68462539300686,0.5880216272865852,-4.352024623325892,-0.3000895182291667,-0.0047229585193452,-29.2839052688383,-13.259249720187215,-1.951549145299146,-99.66219870664315,-46.23117623117623,8.139706091990352,29.12292209542636,30.872105909485725,30.15326324617366,1577399871.0,-27.71420165547408,-51.10254377897425,22.707092
86607,1577399871.47,1.0162188946533202,-0.9223661895751952,11.969691489868165,0.2961218687476183,-0.0869795944586028,10.871631775051208,-0.3228181905110678,1.5549769734700518,10.557973282877605,-2.0366668701171875,1.105499267578125,-0.409698486328125,-3.678670743616616,0.7099058569931403,0.0234464319740852,-2.5514875139508923,-2.405802408854167,1.3533092680431549,-28.56084587948427,-15.139994361348526,-1.951549145299146,-99.66219870664315,-50.029629629629625,7.545024368374618,29.146883517536764,30.77626022104412,29.93761044718004,1577399871.0,-27.71420165547408,-51.10254377897425,22.707092
86608,1577399871.48,1.2077550274658202,0.3896563201904297,12.292908713989256,2.1516281553687118,0.1632144790277247,11.15773887343988,0.4050191141764316,-1.2354650614420573,11.58867709757487,-1.5483856201171875,1.288604736328125,-0.257110595703125,1.2499181235708845,-2.9216859398818595,0.3133634241615852,-1.3613019670758928,-3.779093424479168,0.6056286039806548,-28.56084587948427,-14.387696504884,-1.6262909544159505,-100.73583563213192,-56.67692307692308,7.842365230182486,29.146883517536764,30.48872315571929,30.009494713511245,1577399871.0,-27.71420165547408,-51.10254377897425,22.707092
86609,1577399871.49,1.739267796020508,-0.402824429321289,11.05271225402832,3.8610881407202737,0.8886575820550684,11.576724163967224,1.1639810404459627,1.4173103780110676,13.659661533610024,-2.5554656982421875,2.204132080078125,-0.379180908203125,-0.6116541420541157,7.24066757574314,0.7406095179115852,-0.1711164202008928,6.108601888020833,0.4225231352306547,-29.2839052688383,-12.130802935490433,-0.9757745726495664,-106.10402025957582,-50.029629629629625,7.247683506566751,29.19480636175757,30.728337376823312,29.86572618084883,1577399871.0,-27.71420165547408,-51.10254377897425,22.707092
86610,1577399871.5,1.665047544555664,-0.3681085052490234,10.039964951782226,1.3507677000464458,-0.6663763962164153,8.390041754299256,1.175952048746744,0.6236325276692708,7.623879148356119,-0.8769989013671875,2.600860595703125,-0.562286376953125,0.0139562095083844,5.2875425757431405,-0.5716463414634148,0.1035417829241072,-3.4586588541666665,-1.7442249116443451,-29.64543496351532,-12.506951863722694,-1.6262909544159505,-107.17765718506458,-62.374603174603166,8.808723031058054,29.146883517536764,30.680414532602505,29.86572618084883,1577399871.0,-27.71420165547408,-51.10254377897425,22.707092
86611,1577399871.51,0.161488901977539,-0.527322915649414,8.704000425415039,-0.0941330018578499,0.0722348159417872,6.45313261123285,0.0458888651529941,-0.9840738871256508,5.950332187906901,-1.4263153076171875,3.913116455078125,-0.653839111328125,2.1654454673208843,2.0526792944931405,0.8931974085365852,-1.7275129045758928,-20.014444986979168,0.1173473539806547,-30.187729505530843,-13.823473112535613,-1.138403668091164,-109.32493103604212,-59.52576312576312,9.775080831933622,29.29065205019917,30.872105909485725,30.009494713511245,1577399871.0,-27.71420165547408,-51.10254377897425,22.707092
86612,1577399871.52,-0.2359485736083974,-0.7092822418212891,7.011299851684569,-1.0278716493187874,-1.7258106308355554,4.805921869045351,1.901395151774088,1.228168446858724,5.406848411051432,-1.2126922607421875,1.654815673828125,-0.623321533203125,0.8837071860708843,-4.17290664300686,-0.3275057164634147,0.6223406110491072,-26.728312174479168,-0.6150745210193452,-28.018551337468743,-13.071175256071088,-1.7889200498575484,-109.32493103604212,-64.27382987382987,7.247683506566751,29.19480636175757,30.92002875370653,29.817803336628028,1577399871.0,-27.71420165547408,-51.10254377897425,22.707092
86613,1577399871.53,-0.941040962524413,0.287902749633789,9.446202940063475,1.3471763975562114,0.7066982558831935,8.243995453029726,2.535858591715495,-1.1444853983561196,8.624655442301432,0.4962921142578125,0.4493713378906251,-0.440216064453125,-2.503743985804116,4.5856382788681405,0.0997403772865852,-1.8190656389508928,-33.777872721354164,0.4530407133556547,-30.368494352869348,-13.635398648419478,-1.6262909544159507,-107.714475647809,-57.15172975172975,-6.801672213854957,29.146883517536764,30.5845688441609,29.86572618084883,1577399871.0,-27.71420165547408,-51.10254377897425,22.707092
86614,1577399871.54,-1.7395072161865233,-0.1131260284423828,11.344804856567382,-1.1152600099144905,-0.5478634140386804,8.328989611965273,0.9975840250651036,0.2273921529134105,12.464954905192055,3.2428741455078125,5.988311767578125,-0.623321533203125,-1.679769376429116,0.1453306616806401,-0.5106111852134148,0.2103533063616072,-22.806803385416668,2.4366832914806547,-30.368494352869348,-14.011547576651742,-1.951549145299146,-106.10402025957582,-57.15172975172975,7.396353937470683,29.09896067331596,30.680414532602512,29.91364902506964,1577399871.0,-27.71420165547408,-51.10254377897425,22.707092
86615,1577399871.55,-0.4825513446044912,-1.255160220336914,10.320086546020509,1.141275054782774,-0.2581650131597742,15.603771356350036,-0.5287195332845048,0.9264990376790354,16.137660251871743,-2.7080535888671875,-5.486297607421875,0.414276123046875,-4.365316251429116,7.48480820074314,0.9542325647865852,-3.009251185825893,6.993611653645833,1.6432262602306549,-29.46467011617681,-14.575770969000132,-2.439436431623926,-105.03038333408703,-57.62653642653642,7.396353937470683,28.955192140653548,30.5845688441609,30.15326324617366,1577399871.0,-27.71420165547408,-51.10254377897425,22.707092
86616,1577399871.56,1.3466187237548828,-0.2184709014892578,12.204323252563476,1.3184459776343365,-1.6420135727300866,10.4562377870141,0.1320801249186191,4.182613295491535,11.90710591837565,-0.1750946044921875,-1.274871826171875,0.170135498046875,-5.586019376429116,10.71967148199314,-1.1514803258384148,1.0190691266741072,8.550008138020834,-1.2254260835193451,-28.922375574161286,-12.130802935490433,-2.2768073361823347,-108.2512941105534,-50.029629629629625,6.9503426447588845,29.09896067331596,30.728337376823312,29.72195764818641,1577399871.0,-27.71420165547408,-51.10254377897425,22.707092
86617,1577399871.57,1.9272126263427731,-0.0855927093505859,9.874765037231445,2.5442772276343364,3.08414050441835,11.287025763088318,1.3698823832194005,-0.0527294413248697,12.02202759806315,-1.0753631591796875,-0.878143310546875,-0.455474853515625,0.7921544516958843,-9.69658828363186,0.2828458460365852,3.857203892299107,11.998494466145834,-3.4532092866443453,-28.289698608476503,-13.165212488129152,-1.3823473112535574,-99.66219870664315,-50.029629629629625,6.9503426447588845,29.24272920597837,30.5845688441609,30.009494713511245,1577399871.0,-27.71420165547408,-51.10254377897425,22.707092
86618,1577399871.58,1.0473435162353515,-0.3621230010986327,11.081442673950194,0.715107159274962,-0.6986981186285243,9.74037149062738,1.441708433024088,-1.41862148844401,11.94541314493815,1.1066436767578125,0.5867004394531251,-0.562286376953125,2.8978673423208843,2.8766539038681405,-0.4343172399009147,-0.1253400530133928,19.88728841145833,0.6361461821056549,-28.018551337468743,-12.318877399606563,-0.8131454772079686,-105.8356110282036,-61.187586487586486,9.589242793303704,28.907269296432744,30.728337376823312,30.009494713511245,1577399871.0,-27.71420165547408,-51.10254377897425,22.707092
86619,1577399871.59,0.8175001568603515,0.0927753143310546,10.82286889465332,2.788485796970274,1.978019337426162,10.595101483303162,0.2446076029459628,1.9631883565266923,9.472202829996746,1.9001007080078125,0.5256652832031251,-0.592803955078125,-0.1844080483041157,-2.2197816430068595,0.2523282679115852,0.1645769391741072,21.642049153645832,-2.0494006928943453,-29.46467011617681,-13.44732418430335,-1.4636618589743595,-102.88310948310946,-61.42498982498982,9.477739970125754,29.19480636175757,30.5845688441609,30.05741755773205,1577399871.0,-27.71420165547408,-51.10254377897425,22.707092
86620,1577399871.6,0.9539696514892576,-0.4076128326416015,10.614573350219723,-0.8530949281273811,-2.087335081519149,8.610308307033632,-0.2605689473470048,0.1196530782063793,4.832240012613932,-0.2666473388671875,0.2204895019531251,-1.325225830078125,0.7921544516958843,-0.4192445336318597,-0.9683748570884148,-0.4762922014508928,4.521687825520833,-2.9649280366443453,-29.46467011617681,-13.071175256071088,-1.138403668091164,-109.32493103604212,-65.22344322344321,-5.983984843883323,29.338574894419985,30.728337376823312,30.009494713511245,1577399871.0,-27.71420165547408,-51.10254377897425,22.707092
86621,1577399871.61,0.5301959576416015,0.0329202728271484,9.051159666137696,-0.3646777894555061,1.6380427016839747,8.864093683010195,1.2765085184733065,-2.741417905680338,2.722948350016275,-0.6938934326171875,1.105499267578125,-0.989532470703125,-1.0694178139291155,-1.5789125023818598,-1.6092439977134148,-1.5749250139508928,-17.664591471354168,-3.5752795991443453,-27.83778649013024,-14.011547576651742,-1.951549145299146,-109.32493103604212,-65.22344322344321,-7.322018722018729,29.146883517536764,30.680414532602512,29.96157186929044,1577399871.0,-27.71420165547408,-51.10254377897425,22.707092
86622,1577399871.62,-0.3496731524658193,-0.1933317840576171,7.822934214477538,-1.0398426576195683,-0.6663763962164153,7.415601678615663,-0.4090094502766924,-1.2151143473307295,7.575995115152994,-0.6328582763671875,0.1747131347656251,-0.531768798828125,0.3649083579458844,-3.48626113519436,-0.0375887242759147,2.499171665736607,-22.089640299479168,-0.0352405366443453,-29.19352284516905,-13.353286952245284,-1.8702345975783403,-104.76197410271485,-65.22344322344321,-7.322018722018729,29.170844939647168,30.632491688381705,30.15326324617366,1577399871.0,-27.71420165547408,-51.10254377897425,22.707092
86623,1577399871.63,-0.5208585711669912,-1.1522095489501951,10.15249242980957,0.8300288389624616,-1.5845527328863365,8.888035699611757,1.2836911234537751,1.266475673421224,10.116243076578776,2.3578643798828125,-0.0541687011718748,-0.043487548828125,-0.7642420326791157,2.6019957007431405,-0.3580232945884147,1.1106218610491072,-20.594278971354168,2.3146129789806547,-28.380081032145764,-11.942728471374304,-2.439436431623926,-104.49356487134264,-60.95018315018314,8.511382169250187,29.146883517536764,30.680414532602512,29.96157186929044,1577399871.0,-27.71420165547408,-51.10254377897425,22.707092
86624,1577399871.64,-0.8201337786865225,-0.000598550415039,12.34079274719238,0.0638843077124616,-0.6220836655035242,9.737977288967226,0.8790710428873691,-1.3743287577311196,13.896687497965496,2.3883819580078125,-1.732635498046875,-0.470733642578125,0.3954259360708843,-2.4334046898818595,0.0081876429115852,3.429957798549107,-10.126749674479166,3.4742809477306547,-28.380081032145764,-11.942728471374304,-2.439436431623926,-104.49356487134264,-48.60520960520961,-7.247683506566755,29.29065205019917,30.872105909485725,30.05741755773205,1577399871.0,-27.71420165547408,-51.10254377897425,22.707092
86625,1577399871.65,0.4056974713134765,-0.2136824981689453,10.894694944458006,1.1640199705542582,0.8754894729242091,11.965781933742615,0.164401847330729,1.235351051839192,13.921826615397135,1.9916534423828125,0.5256652832031251,-1.142120361328125,0.8684483970083844,-5.42412734613186,-1.2430330602134148,2.728053501674107,3.178914388020834,-0.5082629975818452,-28.19931618480725,-13.259249720187215,-1.3010327635327552,-102.6147002517373,-41.720512820512816,1.0406930163275296,29.146883517536764,30.704375954712912,30.009494713511245,1577399871.0,-27.71420165547408,-51.10254377897425,22.707092
86626,1577399871.66,1.4316128826904295,-0.2328361114501953,10.112988102416992,1.2585909361304302,0.2661651504144435,12.438636761623474,-0.3419718037923174,-1.3025027079264322,12.36679263712565,-1.5026092529296875,-2.220916748046875,-1.294708251953125,-4.945150235804116,6.4777281226181405,-1.0599275914634148,0.3171648297991072,16.911824544270832,-2.0494006928943453,-29.01275799783054,-14.293659272825936,-0.7318309294871764,-96.97810639292122,-44.806756206756205,9.403404754673788,29.194806361757568,30.680414532602512,30.009494713511245,1577399871.0,-27.71420165547408,-51.10254377897425,22.707092
86627,1577399871.67,2.2827515728759766,-0.7428010650634765,7.676887913208007,0.7390491758765241,-0.1432433334722742,9.149003680568788,0.6635928934733066,1.6734899556477865,6.951108481852213,-0.4497528076171875,-1.396942138671875,-1.508331298828125,4.393228670445884,-7.4382875023818595,-0.7547518102134148,-0.7204328264508928,12.181599934895834,-3.819420224144345,-28.380081032145764,-14.199622040767872,-1.138403668091164,-96.97810639292122,-44.806756206756205,9.403404754673788,29.19480636175757,30.728337376823312,30.009494713511245,1577399871.0,-27.71420165547408,-51.10254377897425,22.707092
86628,1577399871.68,1.7943344342041017,0.4782417816162109,7.538024216918944,0.5283594297827741,-0.1288781235113367,9.673333844143007,0.1344743265787754,-1.0822361551920572,4.480292368570963,1.4728546142578125,0.8003234863281251,-1.477813720703125,2.9283849204458843,1.2897398413681402,-1.0599275914634148,2.087184361049107,0.4323323567708333,-5.955650692894345,-28.380081032145764,-14.199622040767872,-1.138403668091164,-105.03038333408703,-57.62653642653642,-5.389303120267588,29.19480636175757,30.728337376823312,30.009494713511245,1577399871.0,-27.71420165547408,-51.10254377897425,22.707092
86629,1577399871.69,0.5804741925048827,1.004966146850586,8.27543832824707,0.1967624998511339,-0.3443562729253992,8.829377758937929,1.349531669108072,-0.5136132609049483,7.319815537516276,1.3507843017578125,0.4341125488281251,-1.386260986328125,-0.0775965248666155,-1.6399476586318598,-1.2888094274009148,-0.2016339983258928,-7.776896158854166,-0.9049915132068452,-28.018551337468743,-13.823473112535613,-1.138403668091164,-102.61470025173728,-57.38913308913308,7.582191976100603,29.146883517536764,30.752298798933715,30.08137897984245,1577399871.0,-27.71420165547408,-51.10254377897425,22.707092
86630,1577399871.7,-0.0946906756591791,-0.3681085052490234,10.498454569702147,-0.2736981263695686,-0.3467504745855554,10.56397686172113,-2.1926896870930985,-1.2689838846842447,9.740353415934246,1.3050079345703125,-0.0389099121093748,-1.020050048828125,0.1512853110708842,-2.2197816430068595,-1.9144197789634148,0.5002702985491072,-7.227579752604167,-0.4014514741443452,-29.103140421499795,-13.823473112535613,-2.114178240740737,-100.19901716938752,-49.55482295482295,8.065370876538386,29.170844939647168,30.680414532602512,30.009494713511245,1577399871.0,-27.71420165547408,-51.10254377897425,22.707092
86631,1577399871.71,0.5900509991455077,-0.1705868682861328,11.251430991821287,1.1508518614233991,0.3020781753167872,10.796214422756286,1.1615868387858066,-1.1468796000162758,10.84168617960612,0.8930206298828125,0.1594543457031251,-1.477813720703125,-4.426351407679116,2.6325132788681405,-1.0294100133384148,-0.8119855608258928,-7.868448893229167,1.9178844633556549,-29.46467011617681,-13.823473112535613,-2.114178240740737,-107.1776571850646,-57.62653642653642,8.139706091990352,29.146883517536764,30.680414532602512,30.05741755773205,1577399871.0,-27.71420165547408,-51.10254377897425,22.707092
86632,1577399871.72,0.3123236065673828,0.3705027069091797,12.254601487426756,1.2011300962866802,-0.4999793808355554,10.542429046779723,1.0801839823404942,3.624764308675129,12.90309380900065,0.7709503173828125,-0.9696960449218748,-1.416778564453125,4.789957186070884,-3.1658265648818595,-1.6092439977134148,2.392360142299107,-2.0090738932291665,0.4225231352306547,-29.46467011617681,-13.823473112535613,-2.114178240740737,-105.03038333408703,-56.67692307692308,7.0990130756628185,29.29065205019917,30.680414532602512,30.05741755773205,1577399871.0,-27.71420165547408,-51.10254377897425,22.707092
86633,1577399871.73,1.4651317059326172,-0.7906850982666015,9.88314474304199,0.695953545993712,0.2242666213617096,9.74755409560785,1.588951835123697,1.119232271321614,13.627339811197915,-0.6175994873046875,-0.939178466796875,-1.432037353515625,-0.0165613686166157,2.3425962866806405,-1.2735506383384148,-0.0185285295758927,10.304768880208334,-1.6374133882068451,-28.651228303153523,-12.789063559896888,-1.2197182158119595,-109.32493103604212,-49.08001628001628,-7.1733482911147926,29.05103782909516,30.704375954712912,30.009494713511245,1577399871.0,-27.71420165547408,-51.10254377897425,22.707092
86634,1577399871.74,1.1335347760009764,-1.456273159790039,9.324098655395506,2.707082940524961,-0.3347794662847742,10.475391400295347,0.4672683573404941,-1.2450418680826822,8.770701743570964,-0.6328582763671875,0.2204895019531251,-1.844024658203125,-2.168050626429116,1.4118101538681402,-2.8299471227134148,1.1411394391741072,22.008260091145832,-4.551842099144345,-28.922375574161286,-13.259249720187215,-1.6262909544159505,-109.32493103604212,-49.08001628001628,-7.322018722018729,29.43442058286159,30.680414532602512,30.009494713511245,1577399871.0,-27.71420165547408,-51.10254377897425,22.707092
86635,1577399871.75,1.6315287213134766,0.5285200164794922,8.660904795532225,2.02473546738043,-0.5670170273199304,10.178510394435976,2.389812290445963,-2.0518878275553383,10.042022825113932,2.0526885986328125,-0.0846862792968748,-1.264190673828125,4.759439607945884,0.3131773413681402,-0.5106111852134148,-2.246311732700893,22.160847981770832,-3.849937802269345,-30.368494352869348,-12.883100791954956,-1.3010327635327552,-108.2512941105534,-57.62653642653642,6.9503426447588845,29.146883517536764,30.872105909485725,30.009494713511245,1577399871.0,-27.71420165547408,-51.10254377897425,22.707092
86636,1577399871.76,1.813488047485352,0.8565256439208984,10.063906968383789,0.1333161558569928,-1.5989179428472742,8.593548895412537,0.7210537333170566,-0.5579059916178384,8.904777036539715,1.5033721923828125,0.8613586425781251,-0.989532470703125,0.3343907798208843,-8.10967422113186,-1.3651033727134148,-0.4762922014508928,26.097615559895832,-1.0118030366443451,-30.368494352869348,-12.883100791954956,-1.3010327635327552,-109.32493103604212,-50.029629629629625,-7.024677860210856,29.19480636175757,30.680414532602512,29.86572618084883,1577399871.0,-27.71420165547408,-51.10254377897425,22.707092
86637,1577399871.77,1.4411896893310547,-0.0221463653564453,9.210374076538084,1.401045934909727,0.7713417007074121,10.603481189113708,0.2170742838541665,-0.6883899820963545,10.414321183268228,0.1453399658203124,1.929473876953125,-1.721954345703125,-1.5882166420541155,3.22760605230564,-1.1514803258384148,-1.1324201311383928,30.522664388020832,-2.6292346772693453,-29.555052539846063,-14.105584808709809,-2.0328636930199417,-109.32493103604212,-50.029629629629625,-6.429996136595121,29.05103782909516,30.632491688381705,29.96157186929044,1577399871.0,-27.71420165547408,-51.10254377897425,22.707092
86638,1577399871.78,1.0856507427978517,-0.3022679595947265,10.482892258911132,1.8188341246069928,-1.079376182593368,8.672557550197695,0.4576915506998691,-1.6592387552897134,7.904000742594401,0.2521514892578124,2.631378173828125,-1.538848876953125,-0.3369959389291157,10.71967148199314,-1.0904451695884148,-2.276829310825893,24.907430013020832,-0.9812854585193452,-28.56084587948427,-14.011547576651742,-0.3252581908831888,-105.03038333408703,-42.43272283272283,8.437046953798218,29.146883517536764,30.728337376823312,29.96157186929044,1577399871.0,-27.71420165547408,-51.10254377897425,22.707092
86639,1577399871.79,1.818276450805664,0.0688332977294921,10.5666893170166,2.498787396091368,-0.0259274521246179,10.597495684963318,1.262143308512369,2.7173618794759107,8.61986703898112,0.6488800048828125,3.882598876953125,-1.477813720703125,0.1818028891958842,1.0150816382431402,-0.6937166539634148,0.4697527204241072,16.362508138020832,-1.0423206147693451,-29.2839052688383,-13.259249720187215,-1.3010327635327552,-105.03038333408703,-42.43272283272283,8.437046953798218,28.955192140653548,30.728337376823312,30.05741755773205,1577399871.0,-27.71420165547408,-51.10254377897425,22.707092
86640,1577399871.8,1.1838130108642575,-0.4914098907470703,11.481274351196287,2.0367064756812114,0.8431677505120997,8.435531585842226,0.5845842386881503,1.3837915547688802,7.748377634684244,1.7475128173828125,4.431915283203125,-1.233673095703125,3.5692540610708843,-5.02739883050686,-1.4261385289634148,1.8125261579241072,3.6671956380208335,-3.3006213960193453,-29.2839052688383,-13.259249720187215,-1.3010327635327552,-108.78811257329774,-45.75636955636956,-7.099013075662825,29.146883517536764,30.680414532602512,30.009494713511245,1577399871.0,-27.71420165547408,-51.10254377897425,22.707092
86641,1577399871.81,0.1028309613037114,0.3238157745361328,10.678019694213866,1.323234380954649,-0.5526518173589929,9.28786737685785,0.0147642435709628,0.3423138326009106,6.177781345621745,0.7862091064453125,3.562164306640625,-1.584625244140625,2.0738927329458843,0.1605894507431402,-1.7313143102134148,0.1340593610491072,-12.903849283854166,-2.8733753022693453,-28.741610726822778,-14.575770969000134,-0.9757745726495664,-99.66219870664315,-42.43272283272283,-5.389303120267588,29.386497738640788,30.728337376823312,30.009494713511245,1577399871.0,-27.71420165547408,-51.10254377897425,22.707092
86642,1577399871.82,0.525407554321289,-1.188122573852539,8.732730845336913,-0.5179066957055066,0.127301454125381,7.541297265773866,1.1208854105631505,-2.385878959147135,6.375302982584636,-1.6704559326171875,1.471710205078125,-1.630401611328125,-0.4743250404916157,1.5643980444931405,-1.2430330602134148,4.452296665736608,-32.114664713541664,-0.3098987397693451,-29.64543496351532,-13.635398648419478,-1.3010327635327552,-100.19901716938752,-42.43272283272283,-5.760979197527421,29.09896067331596,30.80022164315452,30.05741755773205,1577399871.0,-27.71420165547408,-51.10254377897425,22.707092
86643,1577399871.83,0.6331466290283202,-0.230441909790039,8.057565977172851,1.3783010191382428,-1.483996263159774,8.830574859768006,2.167151536051432,0.8953744160970042,10.580718198649087,-0.7244110107421875,0.5867004394531251,-1.020050048828125,-2.717367032679116,10.93329452886814,-1.7923494664634148,0.8054460797991072,-28.498331705729168,2.4366832914806547,-29.64543496351532,-15.139994361348526,-0.6505163817663776,-100.73583563213192,-57.62653642653642,7.247683506566751,29.09896067331596,30.77626022104412,30.009494713511245,1577399871.0,-27.71420165547408,-51.10254377897425,22.707092
86644,1577399871.84,0.8007407452392578,0.3537432952880859,8.378388999633788,0.2338726255835553,-0.1097245102300867,8.6557981385766,0.4720567606608066,0.5386383687337231,14.97886664835612,1.2897491455078125,0.8613586425781251,-0.806427001953125,2.3790685141958843,-9.20830703363186,-0.1444002477134147,-0.5373273577008928,-10.981241861979166,0.1173473539806547,-29.64543496351532,-15.139994361348526,-0.6505163817663776,-109.32493103604212,-56.67692307692308,7.247683506566751,29.19480636175757,30.680414532602512,30.05741755773205,1577399871.0,-27.71420165547408,-51.10254377897425,22.707092
86645,1577399871.85,1.1335347760009764,0.1011550201416015,8.982924918823242,-1.1248368165551157,0.3930578384027253,10.10429014297113,0.4169901224772133,0.0047313985188798,14.33362930094401,1.6407012939453125,1.090240478515625,-0.882720947265625,-0.0470789467416155,2.5257017554306405,-1.2277742711509148,-0.1863752092633928,22.069295247395832,-0.9355090913318452,-28.651228303153523,-12.789063559896888,-0.7318309294871731,-107.714475647809,-53.35327635327636,7.32201872201872,29.09896067331596,30.80022164315452,30.009494713511245,1577399871.0,-27.71420165547408,-51.10254377897425,22.707092
86646,1577399871.86,0.3793612530517578,-0.623090982055664,12.18277543762207,3.82517511581793,-0.7944661850347743,11.078730218654725,1.5566301127115878,-0.7326827128092446,7.992586204020182,0.9235382080078124,1.563262939453125,-0.867462158203125,0.3649083579458843,3.4870054663681405,-0.3275057164634147,-2.337864467075893,29.362996419270832,-3.697349911644345,-28.018551337468743,-14.575770969000132,-1.7889200498575484,-107.714475647809,-45.75636955636956,7.619359583826587,29.09896067331596,30.680414532602512,29.86572618084883,1577399871.0,-27.71420165547408,-51.10254377897425,22.707092
86647,1577399871.87,1.03537250793457,-0.6087257720947266,11.928990061645507,0.8731244688452741,-1.177538450659774,10.36765232558832,-0.0355139912923173,-1.2929259012858072,5.72767143351237,-0.4192352294921875,2.356719970703125,-0.684356689453125,-1.6797693764291155,0.4962828101181402,0.4049161585365852,-2.368382045200893,5.650838216145833,-3.4837268647693453,-28.018551337468743,-13.071175256071088,-1.4636618589743595,-109.32493103604212,-46.23117623117623,8.734387815606086,29.19480636175757,30.5366459999401,30.05741755773205,1577399871.0,-27.71420165547408,-51.10254377897425,22.707092
86648,1577399871.88,1.0892420452880858,0.3752911102294922,9.942999784545895,-2.193847857814881,2.8399319350824124,9.850504766994568,1.2980563334147128,-2.1452616923014323,8.25594838663737,-0.9532928466796876,2.234649658203125,-0.897979736328125,-1.0083826576791155,0.2216246069931402,-1.1209627477134148,-0.5068097795758928,-12.049357096354166,-0.8897327241443452,-28.651228303153523,-13.541361416361417,-1.2197182158119628,-109.32493103604212,-50.029629629629625,-7.322018722018729,29.21876778386797,30.77626022104412,29.86572618084883,1577399871.0,-27.71420165547408,-51.10254377897425,22.707092
86649,1577399871.89,1.423233176879883,-0.1227028350830078,8.4214846295166,2.1408542478980084,-1.2625326095953209,12.561938147121522,0.0961671000162758,1.3359075215657543,11.653320542399088,-0.5413055419921875,2.509307861328125,-0.897979736328125,-0.5353601967416157,1.7932798804306405,-0.6021639195884148,-1.5291486467633928,-4.480997721354166,2.2688366117931547,-29.2839052688383,-12.506951863722694,-1.951549145299146,-106.10402025957582,-50.029629629629625,-6.132655274787254,29.29065205019917,30.728337376823312,29.93761044718004,1577399871.0,-27.71420165547408,-51.10254377897425,22.707092
86650,1577399871.9,1.6004040997314453,-0.5201403106689453,9.951379490356445,2.0510716856421487,2.634030592308975,5.390107074123476,0.0626482767740878,-0.5507233866373696,8.088354270426432,-0.1750946044921875,3.180694580078125,-0.806427001953125,-0.7947596108041157,6.3251402319931405,-0.2969881383384147,-1.1476789202008928,-2.4668375651041665,1.1549450102306549,-29.2839052688383,-12.883100791954956,-2.2768073361823347,-99.12538024389876,-41.95791615791616,8.214041307442319,29.09896067331596,30.728337376823312,29.817803336628028,1577399871.0,-27.71420165547408,-51.10254377897425,22.707092
86651,1577399871.91,1.1263521710205078,-0.3860650177001953,8.265861521606444,1.4597038755835552,0.2853187636956935,11.986132647853944,1.855905320231119,0.6870788716634105,7.293479319254557,-2.1282196044921875,3.821563720703125,-0.836944580078125,-0.5201014076791157,3.670110935118141,-0.3275057164634147,-0.9645734514508928,-4.633585611979167,-1.4085315522693451,-29.2839052688383,-14.011547576651742,-1.6262909544159505,-108.2512941105534,-56.67692307692308,7.545024368374619,29.09896067331596,30.728337376823312,30.05741755773205,1577399871.0,-27.71420165547408,-51.10254377897425,22.707092
86652,1577399871.92,0.7552509136962889,-0.2615665313720703,8.452609251098632,0.5523014463843366,-1.6731381943121175,8.928737127834413,1.6404271708170566,0.8020005513509104,9.33573333536784,0.1605987548828124,3.241729736328125,-0.531768798828125,-4.090658048304116,2.2052671851181405,0.5575040491615852,-0.8730207170758928,-6.281534830729167,-3.697349911644345,-27.295491948114712,-13.44732418430335,-0.4878872863247798,-109.32493103604212,-61.42498982498982,6.9503426447588845,29.146883517536764,30.680414532602512,30.201186090394465,1577399871.0,-27.71420165547408,-51.10254377897425,22.707092
86653,1577399871.93,-0.4921281512451162,-0.0065840545654296,10.679216795043944,0.547513043064024,1.3579211074456934,9.540455652004333,0.7497841532389317,-2.0219603068033853,10.161732908121744,0.5268096923828125,2.127838134765625,-0.272369384765625,-1.1762293373666155,5.4706480444931405,-0.1444002477134147,0.6070818219866072,1.0579427083333333,-1.0728381928943451,-28.018551337468743,-13.635398648419482,-1.138403668091164,-108.78811257329774,-49.55482295482295,7.173348291114784,29.09896067331596,30.704375954712912,30.009494713511245,1577399871.0,-27.71420165547408,-51.10254377897425,22.707092
86654,1577399871.94,0.7624335186767578,-1.2431892120361328,10.710341416625976,1.2585909361304302,-2.027480040015243,9.761919305568789,1.460862046305338,-2.5259397562662755,11.445024997965492,-0.4497528076171875,1.959991455078125,-0.745391845703125,2.5011388266958843,-0.2361390648818597,-0.6631990758384148,-3.436497279575893,5.681355794270833,1.5211559477306549,-28.922375574161286,-12.883100791954956,-1.6262909544159505,-108.78811257329774,-49.55482295482295,7.173348291114784,29.29065205019917,30.728337376823312,29.72195764818641,1577399871.0,-27.71420165547408,-51.10254377897425,22.707092
86655,1577399871.95,1.2388796490478515,-0.508169302368164,12.065459556274414,0.4900522032202741,-2.3387262558355557,12.668480120998474,0.1440511332194003,3.270422462972004,10.978155674235026,0.1911163330078124,2.387237548828125,-0.409698486328125,2.1959630454458843,4.0973570288681405,-0.7852693883384148,-1.6359601702008928,5.864461263020833,1.8873668852306549,-28.741610726822778,-14.199622040767872,-2.439436431623926,-109.32493103604212,-56.67692307692308,6.9503426447588845,29.29065205019917,30.728337376823312,30.5845688441609,1577399871.0,-27.71420165547408,-51.10254377897425,22.707092
86656,1577399871.96,1.6865953594970704,-0.0221463653564453,11.000039817504884,2.341967187351133,0.6181127944574127,10.31617698989496,1.899000950113932,1.3778060506184893,12.741485196940104,1.1981964111328125,2.906036376953125,-0.653839111328125,-0.7947596108041157,2.9376890601181405,-0.2817293492759147,0.0272478376116072,10.335286458333334,-0.7218860444568452,-29.2839052688383,-13.635398648419478,-0.6505163817663776,-104.49356487134266,-60.47537647537647,7.024677860210852,29.19480636175757,30.704375954712912,30.03345613562165,1577399871.0,-27.71420165547408,-51.10254377897425,22.707092
86657,1577399871.97,1.5501258648681642,-0.4818330841064452,9.567110123901369,0.3009102720679303,-0.1815505600347742,13.360404400783631,-0.2988761739095049,-0.6632508646647134,6.917589658610026,-0.1445770263671875,3.638458251953125,-0.943756103515625,-2.076497892054116,0.7709410132431402,-0.4190584508384147,2.636500767299107,8.946736653645834,-3.5142444428943453,-28.922375574161286,-12.883100791954956,-0.4878872863247832,-100.73583563213192,-64.74863654863654,7.024677860210852,29.146883517536764,30.92002875370653,30.009494713511245,1577399871.0,-27.71420165547408,-51.10254377897425,22.707092
86658,1577399871.98,1.1574767926025389,1.1246762298583983,10.492469065551758,1.4549154722632427,1.0969531264886625,9.086754437404725,-1.3858437276204425,-1.6400851420084634,3.9392027933756495,1.7169952392578125,4.157257080078125,-0.592803955078125,2.8063146079458843,8.18671249761814,-1.3040682164634148,-0.8119855608258928,-7.227579752604167,0.2394176664806547,-28.922375574161286,-14.011547576651742,-1.3010327635327552,-109.32493103604212,-55.72730972730972,9.329069539221818,29.146883517536764,30.872105909485725,30.009494713511245,1577399871.0,-27.71420165547408,-51.10254377897425,22.707092
86659,1577399871.99,-0.1569399188232411,0.526125814819336,10.9880688092041,0.8300288389624616,0.8503503554925684,6.292721100002382,1.681128599039713,0.3399196309407543,8.586348215738932,0.4657745361328124,4.584503173828125,-0.653839111328125,-0.2759607826791157,5.9284117163681405,0.8321622522865852,1.0190691266741072,-11.683146158854166,-0.1573108491443452,-28.380081032145764,-12.318877399606563,-0.4878872863247798,-109.32493103604212,-55.72730972730972,9.329069539221818,29.09896067331596,30.872105909485725,29.86572618084883,1577399871.0,-27.71420165547408,-51.10254377897425,22.707092
86660,1577399872.0,-0.1114500872802724,-1.4107833282470703,8.838075718383788,-0.5107240907250374,-2.010720628394149,8.730018390041444,1.9373081766764315,0.9384700459798168,12.160891294352211,-1.0295867919921875,3.211212158203125,-0.867462158203125,-2.351156095179116,9.65155624761814,-0.5716463414634148,0.6528581891741072,-5.182902018229167,0.9413219633556548,-30.00696465819233,-14.387696504884,-0.9757745726495664,-108.78811257329774,-41.95791615791616,-6.653001782951026,29.19480636175757,30.728337376823312,30.009494713511245,1577399872.0,-27.71435779243584,-51.10239318216187,22.80508
86661,1577399872.01,0.0980425579833989,0.1430535491943359,9.516831889038086,0.5642724546851182,0.7737359023675685,8.860502380519959,-0.3742935262044267,1.3742147481282552,10.33650962931315,1.7322540283203125,2.860260009765625,-0.836944580078125,-0.2607019936166156,4.4177915991806405,-1.1514803258384148,1.3547624860491072,-1.2308756510416663,-1.0575794038318451,-30.00696465819233,-14.387696504884,-0.9757745726495664,-108.78811257329774,-49.55482295482295,7.024677860210852,29.19480636175757,30.65645311049211,30.009494713511245,1577399872.0,-27.71435779243584,-51.10239318216187,22.80508
86662,1577399872.02,1.0736797344970703,0.0137666595458984,10.748648643188476,0.7558085874976178,-0.7370053451910242,7.609532013088319,2.440090525309244,-2.1308964823404946,9.048429136149087,0.9845733642578124,3.730010986328125,-1.508331298828125,-0.5811365639291157,0.0385191382431402,-1.8839022008384148,2.026149204799107,-10.248819986979166,-1.7137073335193451,-29.46467011617681,-13.44732418430335,-0.4878872863247798,-109.32493103604212,-34.83581603581603,8.139706091990352,29.09896067331596,30.680414532602512,30.15326324617366,1577399872.0,-27.71435779243584,-51.10239318216187,22.80508
86663,1577399872.03,0.975517466430664,-1.0516530792236327,9.427049326782226,1.7996805113257426,-0.2414056015386804,9.953455438381289,2.466426743570964,-0.0168164164225259,10.7770427347819,-1.2126922607421875,3.638458251953125,-0.989532470703125,-2.808919767054116,8.79706406011814,-0.0528475133384147,-1.6054425920758928,-10.767618815104166,-0.0962756928943452,-29.64543496351532,-14.011547576651742,-1.951549145299146,-105.03038333408703,-34.83581603581603,7.247683506566751,29.19480636175757,30.48872315571929,29.86572618084883,1577399872.0,-27.71435779243584,-51.10239318216187,22.80508
86664,1577399872.04,0.6702567547607421,0.2005143890380859,10.38712419250488,-0.2186314881859749,1.7194455581292871,10.475391400295347,0.9987811258951816,-2.569035386149088,13.944571531168618,1.3507843017578125,3.272247314453125,-0.791168212890625,-2.778402188929116,4.6161558569931405,-0.2359529820884147,-3.161839076450893,1.5614827473958333,0.3920055571056547,-29.64543496351532,-12.506951863722694,-1.6262909544159505,-105.03038333408703,-52.87846967846967,7.247683506566751,29.05103782909516,31.111720130589752,29.86572618084883,1577399872.0,-27.71435779243584,-51.10239318216187,22.80508
86665,1577399872.05,0.7983465435791015,-1.1330559356689451,10.322480747680665,0.776159301608946,-0.9381182846441491,11.37441412368402,1.634441666666666,0.4213224873860677,8.980194388834635,1.2287139892578125,3.516387939453125,-0.836944580078125,0.2428380454458842,6.1725523413681405,-1.3193270055259148,1.5836443219866072,8.153279622395834,-1.0880969819568451,-29.64543496351532,-12.506951863722694,-1.6262909544159505,-105.03038333408703,-60.47537647537647,8.139706091990352,29.00311498487435,30.728337376823312,29.96157186929044,1577399872.0,-27.71435779243584,-51.10239318216187,22.80508
86666,1577399872.06,0.8629899884033202,-0.0556651885986328,9.963350498657226,1.885871771091368,0.5103737197503809,7.961479657131288,1.2836911234537751,-1.8316212748209637,5.239254294840495,-0.0225067138671875,3.943634033203125,-1.142120361328125,1.8602696860708845,8.33930038824314,-0.5411287633384148,1.3547624860491072,-7.105509440104167,-1.4390491303943451,-28.380081032145764,-13.071175256071088,-1.4636618589743595,-109.32493103604212,-61.42498982498982,9.923751262837555,29.29065205019917,31.01587444214814,29.72195764818641,1577399872.0,-27.71435779243584,-51.10239318216187,22.80508
86667,1577399872.07,0.4631583111572265,0.6602011077880859,9.154110337524411,1.9744572325171488,0.4361534682855372,5.184205731350038,-0.8998207906087236,0.2297863545735668,7.748377634684244,-0.4497528076171875,3.272247314453125,-1.477813720703125,-1.7713221108041155,2.2052671851181405,-1.7007967320884148,0.5918230329241072,-13.941446940104166,-2.3240588960193453,-31.091553742223383,-14.387696504884,-2.2768073361823347,-109.32493103604212,-61.42498982498982,9.923751262837555,29.19480636175757,30.5366459999401,30.009494713511245,1577399872.0,-27.71435779243584,-51.10239318216187,22.80508
86668,1577399872.08,-0.1329979022216786,0.3716998077392578,9.640133274536131,-1.5689612245140998,1.3770747207269434,10.166539386135192,0.9580796976725252,-1.5036156473795572,9.395588376871746,0.2979278564453125,2.066802978515625,-1.050567626953125,0.4564610923208843,-0.3582093773818597,-0.6326814977134148,2.483912876674107,-16.962687174479168,-2.1409534272693453,-29.01275799783054,-14.481733736942068,-0.8944600249287742,-109.32493103604212,-48.13040293040292,-7.1733482911147926,29.338574894419985,30.680414532602512,29.86572618084883,1577399872.0,-27.71435779243584,-51.10239318216187,22.80508
