,timestamp,acc_x_dashboard,acc_y_dashboard,acc_z_dashboard,acc_x_above_suspension,acc_y_above_suspension,acc_z_above_suspension,acc_x_below_suspension,acc_y_below_suspension,acc_z_below_suspension,gyro_x_dashboard,gyro_y_dashboard,gyro_z_dashboard,gyro_x_above_suspension,gyro_y_above_suspension,gyro_z_above_suspension,gyro_x_below_suspension,gyro_y_below_suspension,gyro_z_below_suspension,mag_x_dashboard,mag_y_dashboard,mag_z_dashboard,mag_x_above_suspension,mag_y_above_suspension,mag_z_above_suspension,temp_dashboard,temp_above_suspension,temp_below_suspension,timestamp_gps,latitude,longitude,speed
7021,1577395500.63,0.3169689417397103,0.9539433736661576,9.5380906479254,0.0211974439667488,0.8476641780201972,12.909360166075173,1.1637571923232657,2.077933460365853,9.89418434850181,0.2134369640815548,1.3234208269817074,-0.5055869497903963,0.5643891125190549,0.9962872761051828,-2.0450498999618905,-0.3624892816310974,0.8944999880907012,-0.8410942263719513,25.48037311311001,-10.407725217490844,4.251170852956559,-15.357418854293858,8.689269136036378,-26.185071499013805,36.67077006020308,37.0062299697487,34.46631922604607,1577395500.0,-27.717306381958696,-51.09952466658306,7.9732866
7022,1577395500.64,-0.5138190343345084,2.541299074349752,11.309799876441025,-0.9676078416777814,2.753448699504573,10.27334413824314,2.801391127870141,2.0300494271627283,9.714619223990091,-0.1222563952934451,0.8961747332317074,-0.7497275747903963,3.4330414562690548,-3.672902177019817,-1.0379698218368902,0.3088974371189026,0.7113945193407012,0.3796088986280487,25.48037311311001,-10.407725217490844,4.251170852956559,-16.975510022385023,5.640402772514843,-26.185071499013805,36.57492437176146,36.86246143708629,34.370473537604454,1577395500.0,-27.717306381958696,-51.09952466658306,7.9732866
7023,1577395500.65,0.3073921350990848,1.5105952596524868,8.986227165259384,0.5347537000702645,2.036385302287776,8.519591422178687,0.5113372399306879,2.136591401039681,9.906155356802593,-0.305361864043445,0.2247880144817073,-0.7039512076028962,-2.853579637480945,2.659495283917683,-0.5344297827743902,-0.6524062738185973,-0.9518134884717988,-0.9479057498094514,23.99607953370554,-9.859950206043957,3.8969066152101774,-16.570987230362235,8.231939181508148,-23.46454459002536,36.479078683319855,37.03019139185911,34.39443495971486,1577395500.0,-27.717306381958696,-51.09952466658306,7.9732866
7024,1577395500.66,-0.2408800450766959,1.760789333138815,11.063197105444932,-0.3163849901152814,1.1469393855397283,12.550229917051734,1.044047109315453,0.5049429696431971,8.19669537145103,-1.3124419421684452,1.2013505144817074,-0.9633506216653964,0.8695648937690549,3.102000166730183,-2.2281553687118905,0.4920029058689026,2.7865898318407014,-1.6955864138719514,23.666236516060103,-10.225133547008545,3.7197744963369854,-17.206665903540905,10.823475590501452,-19.38375422654269,36.86246143708629,37.24584419085272,34.46631922604607,1577395500.0,-27.717306381958696,-51.09952466658306,7.9732866
7025,1577395500.67,0.218806673673304,1.52136916712319,9.97862375339415,-0.7186108690215314,3.790138018352229,8.257426340391577,2.1669276879287342,1.8002060677877283,6.997200339712748,-5.066104051543445,-3.193180735518293,-1.1159385122903962,2.5785492687690548,-3.917042802019817,0.6099793969131098,1.7127060308689026,6.509734363090701,-0.0476371951219513,24.98560858664185,-10.590316887973138,3.7197744963369854,-15.415207824582827,10.366145635973224,-62.57211890673429,36.67077006020308,37.19792134663192,34.562164914487674,1577395500.0,-27.717306381958696,-51.09952466658306,7.9732866
7026,1577395500.68,0.4606210413490853,2.1127369771817834,9.842154258765245,0.4545479444550301,2.636132818156917,6.943009628965796,-1.659006565000952,0.5983168343892908,10.253314597525248,0.7322357922065549,0.4078934832317073,-1.0854209341653962,-2.090640184355945,0.8742169636051829,-1.0990049780868902,1.7737411871189026,4.678679675590701,-1.2988578982469514,24.98560858664185,-10.590316887973138,3.7197744963369854,-15.357418854293858,12.043022135910068,-68.35323858833475,36.52700152754066,36.910384281307095,34.27462784916285,1577395500.0,-27.717306381958696,-51.09952466658306,7.9732866
7027,1577395500.69,-0.0062482823813838,0.8330361898282674,8.946722837866806,0.0271829481171399,0.3365021235768384,12.280882230284154,1.0260905968642815,3.010475006996713,12.102835379995952,-0.900454637480945,1.3234208269817072,-0.7802451529153963,-1.419253465605945,4.719431807355183,-1.4652159155868905,1.6058945074314028,-1.5621650509717988,-3.6639702029344514,23.336393498414665,-10.042541876526249,4.605435090702939,-16.831037596662597,10.442367295061262,-61.0418225204283,36.62284721598228,36.9822685476383,34.370473537604454,1577395500.0,-27.717306381958696,-51.09952466658306,7.9732866
7028,1577395500.7,0.1397980188881468,1.9283834493497525,11.463028782691024,-0.0195039842559063,2.530787945110041,8.942168015196264,2.765478102967797,0.2032735604635096,8.795245786490092,0.3049896984565549,-0.0193526105182926,-0.9023154654153964,3.4025238781440548,-2.177540848894817,-0.7938291968368902,-4.695985375381097,-3.8357246212842986,1.1730659298780486,23.171471989591947,-10.042541876526249,4.605435090702943,-16.859932081807084,10.5185889541493,-69.03337031558186,36.81453859286549,37.24584419085272,34.27462784916285,1577395500.0,-27.717306381958696,-51.09952466658306,7.9732866
7029,1577395500.71,0.4438616297279915,1.873316811166159,10.13903526462462,1.1321070142792489,2.4805097102467606,8.468116086485328,-0.1243233008407958,3.861613697182259,10.715395517935404,-3.021426317168445,-1.9724776105182928,-1.4821494497903962,-3.463931199980945,0.5385236042301829,0.0301454125381097,-0.3014541253810974,-1.1196601681592988,-0.2612602419969513,23.501315007237384,-8.946991853632479,3.8969066152101823,-17.322243844118844,12.957682044966528,-63.59231649760496,36.52700152754066,37.05415281396951,34.46631922604607,1577395500.0,-27.717306381958696,-51.09952466658306,7.9732866
7030,1577395500.72,-0.3689698338950557,1.2508243795255332,9.587171781958602,0.1648495435761238,0.5531773738209785,11.276514633848608,-0.3014942236923583,3.990900586830697,10.971575095572122,1.8308686047065548,2.940852467606708,-0.7497275747903963,-4.135317918730945,6.977732588605183,-1.9534971655868905,2.902891577743903,-1.7300117306592988,0.5321967892530487,23.253932744003308,-9.40347102983822,3.276944199154016,-20.09611441798942,7.7746092269799165,-26.185071499013805,36.71869290442388,36.910384281307095,34.41839638182526,1577395500.0,-27.717306381958696,-51.09952466658306,7.9732866
7031,1577395500.73,-0.3462249181235709,1.5644647970060024,9.662589134253526,0.0223945447968274,2.0435679072682444,10.3248194739365,1.1577716881728748,-0.5485057608255524,9.373445487417824,-4.944033739043445,-0.6602217511432926,-1.1159385122903962,2.3344086437690548,0.3554181354801828,-1.2363340796493905,-1.9799209222560967,-0.6008613400342988,-1.0547172732469514,23.666236516060103,-10.590316887973138,3.3655102585906094,-17.322243844118844,10.213702317797145,-22.784412862778247,36.71869290442388,36.91038428130709,34.46631922604607,1577395500.0,-27.717306381958696,-51.09952466658306,7.9732866
7032,1577395500.74,0.2259892786537728,1.380111269173971,8.17818410495665,0.5766522291229988,1.5922608943287908,6.492899716856421,0.4311314843154532,3.176872022377572,10.346688462271342,2.2275971203315548,0.7435868426067074,-0.8107627310403963,-3.341860887480945,0.1417950886051829,-0.7327940405868902,2.353575171493903,1.1691581912157012,-1.2378227419969514,22.84162897194652,-10.042541876526249,3.542642377463798,-17.091087962962966,6.555062681571303,-23.46454459002536,36.71869290442388,36.81453859286549,34.370473537604454,1577395500.0,-27.717306381958696,-51.09952466658306,7.9732866
7033,1577395500.75,-0.0325845006431021,1.4064474874356898,7.962705955542588,-0.4767965013457501,-1.015024713581364,11.26933202886814,0.0480592186904531,0.8736500253072597,10.315563840689313,3.0820893078315548,2.238948170731707,-0.9328330435403964,-3.647036668730945,5.604441572980183,-1.1905577124618902,-0.7897353753810974,-1.4858711056592988,-2.8857719607469514,25.15053009546457,-10.042541876526249,4.251170852956559,-17.091087962962966,5.335516136162689,-25.504939771766697,36.57492437176146,37.0062299697487,34.46631922604607,1577395500.0,-27.717306381958696,-51.09952466658306,7.9732866
7034,1577395500.76,-0.4922712193931021,1.7452270223477993,10.58435677341368,-0.3331444017363751,1.5731072810475408,13.91253066168064,0.1222794701552969,1.0603977547994472,9.113674607290871,-1.373477098418445,1.0335038347942074,-1.0701621451028962,2.7921723156440548,0.9962872761051828,-1.7703916968368902,-0.2404189691310974,-2.2793281369092986,-2.2754203982469514,24.490844060173696,-9.129583524114771,4.074038734083371,-17.091087962962966,5.335516136162689,-25.504939771766697,36.550962949651066,37.0062299697487,34.27462784916285,1577395500.0,-27.717306381958696,-51.09952466658306,7.9732866
7035,1577395500.77,0.0392415491615843,1.246035976205221,8.613928807105088,-0.4073646532012189,2.2542576533619942,7.47093109503025,0.176149007508813,3.010475006996713,10.030653843130716,-4.303164598418445,-0.1719405011432926,-1.2685264029153962,0.198178175019055,-2.497975419207317,-0.6870176733993902,-2.132508812881097,-2.5539863400342986,0.9899604611280486,25.48037311311001,-9.312175194597067,2.8341139019710444,-16.975510022385023,8.384382499684225,-6.461251408847564,36.81453859286549,36.98226854763831,34.34651211549405,1577395500.0,-27.717306381958696,-51.09952466658306,7.9732866
7036,1577395500.78,-0.1475061803306021,1.3370156392911583,8.968270652808213,-0.6946688524199689,0.5316295588795723,11.982804123594702,-1.2879053076767333,1.4386816171041346,10.11205669957603,2.1970795422065548,0.9572098894817074,-0.5666221060403963,-3.372378465605945,4.627879072980183,-1.3431456030868902,-4.848573266006097,-1.7300117306592988,0.3185737423780487,24.32592255135097,-10.590316887973138,3.7197744963369854,-15.93530855718356,7.164835954275611,-70.39363377007608,36.57492437176146,37.0062299697487,34.46631922604607,1577395500.0,-27.717306381958696,-51.09952466658306,7.9732866
7037,1577395500.79,-0.6143755040610709,2.232447060189596,10.684913243140244,-0.6707268358184064,0.5268411555592598,14.81275048589939,2.301002980897484,0.4714241464010096,9.776868467154154,1.9834564953315548,0.0722001238567073,-1.1159385122903962,3.738217237519055,2.979929854230183,-2.1976377905868905,0.4614853277439026,1.3217460818407012,0.1354682736280487,23.00655048076923,-9.494766865079365,4.074038734083371,-16.859932081807084,5.335516136162689,-22.784412862778247,36.57492437176146,37.19792134663192,34.370473537604454,1577395500.0,-27.717306381958696,-51.09952466658306,7.9732866
7038,1577395500.8,-0.1642655919516959,1.346592445931783,9.599142790259384,-0.667135533328172,3.070680419475276,7.925829410459936,-1.4351487097763431,1.8600611092916344,9.305210740103371,-1.327700731230945,-0.0193526105182928,-1.2074912466653962,0.5033539562690552,-2.879445145769817,-0.2750303687118902,-0.2251601800685974,4.114104480278201,-1.2073051638719514,24.0785402881169,-9.220879359355925,4.516869031266349,-16.715459656084658,7.241057613363649,-15.472996794871795,36.52700152754066,37.0062299697487,34.39443495971486,1577395500.0,-27.717306381958696,-51.09952466658306,7.9732866
7039,1577395500.81,0.209229867032679,1.178998329720845,8.352960826148056,-0.1487908739043438,-1.062908746784489,10.98202782964939,-1.994194797422827,1.577545313393197,9.343517966665871,2.0750092297065548,2.147395436356707,-0.6276572622903963,-4.409976121855945,7.130320479230183,-0.7633116187118902,0.8276962652439026,1.8710624880907007,-1.939727038871952,24.82068707781913,-8.946991853632479,3.188378139717421,-17.206665903540905,5.335516136162689,-17.0032931811778,36.71869290442388,37.19792134663192,34.46631922604607,1577395500.0,-27.717306381958696,-51.09952466658306,7.9732866
7040,1577395500.82,0.1781052454506478,1.4184184957364712,9.439928379858994,-0.2062517137480938,0.9027308162037908,13.534246799375952,-2.413180087950171,0.0332852425924159,9.74095544225181,2.1970795422065548,0.3773759051067073,-0.7497275747903963,1.6935395031440548,4.475291182355183,-1.8619444312118905,-0.7287002191310974,3.0612480349657014,-0.9021293826219512,23.501315007237384,-10.772908558455434,4.959699328449328,-17.322243844118844,5.335516136162689,-20.0638859537898,36.81453859286549,37.05415281396951,34.370473537604454,1577395500.0,-27.717306381958696,-51.09952466658306,7.9732866
7041,1577395500.83,-0.6047986974204459,2.100765968881002,10.663365428198835,-1.458419182009813,3.299326678020198,8.420232053282202,3.155732973573265,1.493748255287728,9.053819565786966,1.3425873547065548,-0.0193526105182926,-1.2074912466653962,3.5245941906440548,-5.198781083269817,-0.3360655249618902,-0.3624892816310974,1.1081230349657012,-0.4748832888719513,24.490844060173693,-9.312175194597067,4.251170852956559,-15.357418854293858,10.213702317797145,-23.46454459002536,36.52700152754066,37.05415281396951,34.370473537604454,1577395500.0,-27.717306381958696,-51.09952466658306,7.9732866
7042,1577395500.84,-0.0050511815513052,1.570450301156393,8.897641703833603,0.2893480299042488,3.471709197551448,7.409878952696265,2.59070138177639,3.1481416024556967,8.385837302603374,-0.0001860827934452,1.3386796160442076,-1.0701621451028962,-1.2666655749809452,-1.0483904582698171,-0.3055479468368902,1.5601181402439026,0.4977714724657012,0.1354682736280487,24.490844060173693,-9.312175194597067,4.251170852956559,-17.322243844118844,5.640402772514843,-26.185071499013805,36.57492437176147,37.10207565819032,34.562164914487674,1577395500.0,-27.717306381958696,-51.09952466658306,7.9732866
7043,1577395500.85,0.1733168421303353,1.5070039571622524,8.597169395483993,-1.3411033006621564,2.2291185359303536,4.749920908262672,-2.1354526953720456,1.182502039467416,8.041072263540872,-1.1903716296684452,-0.8433272198932926,-0.9633506216653964,-1.0225249499809452,-1.9028826457698167,0.1522157250381097,0.1563095464939026,2.0541679568407014,-0.6274711794969513,24.490844060173693,-9.312175194597067,4.251170852956559,-16.166464438339442,10.823475590501452,-20.74401768103691,36.52700152754066,37.05415281396951,34.370473537604454,1577395500.0,-27.717306381958696,-51.09952466658306,7.9732866
7044,1577395500.86,0.0296647425209593,1.3777170675138148,7.730468394507431,-0.193083604617235,1.172078502971369,7.808513529112281,-0.8437808997177495,2.4358666085592127,9.298028135122903,1.7393158703315548,1.0792802019817074,-0.4750693716653963,-3.616519090605945,4.200632979230183,-0.8243467749618902,1.8958114996189028,3.0917656130907014,-1.5735161013719514,23.99607953370554,-10.590316887973138,4.074038734083371,-15.472996794871795,10.823475590501452,-20.74401768103691,36.52700152754066,37.0062299697487,34.41839638182526,1577395500.0,-27.717306381958696,-51.09952466658306,7.9732866
7045,1577395500.87,-0.4300219762290396,2.189351430306784,10.490982908667588,-0.3427212083770001,-0.4452047184641767,13.084136887266578,1.3265629052138903,-0.1845871084818018,9.451257041372903,2.2581146984565548,0.9266923113567074,-0.5361045279153963,3.5856293468940548,-0.7737322551448171,-1.1905577124618902,-0.3319717035060974,2.3593437380907014,-2.3059379763719514,23.336393498414665,-8.399216842185593,4.074038734083371,-15.472996794871795,10.823475590501452,-20.74401768103691,36.71869290442388,37.0062299697487,34.562164914487674,1577395500.0,-27.717306381958696,-51.09952466658306,7.9732866
7046,1577395500.88,0.2547196985756478,1.157450514779439,10.505348118628524,-0.5246805345488751,3.770984405070979,10.682752622129858,0.7519545067763906,1.472200440346322,8.76412116490806,-3.143496629668445,-2.491276438643293,-1.4821494497903962,4.043393018769055,-5.259816239519817,-0.2139952124618902,1.4990829839939026,2.5729667849657014,-1.5124809451219514,23.171471989591947,-9.312175194597067,3.8969066152101823,-15.472996794871795,10.213702317797145,-18.023490772048465,36.57492437176146,37.10207565819032,34.370473537604454,1577395500.0,-27.717306381958696,-51.09952466658306,7.9732866
7047,1577395500.89,0.2978153284584598,1.57883000696694,9.077206828345323,-1.2620946458770002,3.464526592570979,6.993287863829077,2.660133229920922,2.401150684486947,10.164729136099467,0.1829193859565547,1.2318680926067074,-0.7344687857278963,-1.5108061999809452,-0.5295916301448171,-0.6107237280868902,1.0413193121189026,0.8639824099657012,-0.8410942263719513,23.171471989591947,-9.67735853556166,3.188378139717421,-16.39762031949532,11.433248863205758,-66.99297513384053,36.69473148231347,37.0062299697487,34.27462784916285,1577395500.0,-27.717306381958696,-51.09952466658306,7.9732866
7048,1577395500.9,-0.0134308873618521,1.8948646261075648,10.057632408179304,0.6676318922089369,0.0180733027760571,11.877459250547828,-0.9934185034775144,1.836119092690072,10.218598673452982,2.4717377453315548,1.6896317644817074,-0.6276572622903963,-2.197451707793445,5.741770674542684,-1.0532286108993902,0.3394150152439026,2.5577079959032014,-0.6427299685594514,23.171471989591947,-9.67735853556166,3.188378139717421,-18.333550824175823,10.89969724958949,-61.38188838405185,36.81453859286549,37.0062299697487,34.250666427052444,1577395500.0,-27.717306381958696,-51.09952466658306,7.9732866
7049,1577395500.91,-0.3629843297446646,1.6530502584317837,10.864478367651962,-1.6978393480254377,3.3112976863209798,11.228630600645484,1.032076101014672,0.6605660775533534,10.313169639029155,-0.3663970202934451,0.4994462176067073,-1.2380088247903962,4.806332471894055,-6.297413895769817,-1.1295225562118902,0.2173447027439026,1.4743339724657012,-0.1697075076219513,25.31545160428729,-10.955500228937728,4.428302971829755,-19.34485780423281,8.536825817860302,-25.84500563539025,36.57492437176146,37.0062299697487,34.27462784916285,1577395500.0,-27.717306381958696,-51.09952466658306,7.9732866
7050,1577395500.92,-0.4108683629477896,1.8374037862638148,9.7296267807379,-1.348285905642625,4.060682805949885,6.464169296934546,1.9634205468154529,1.0723687631002283,8.977205112661967,-1.4650298327934452,2.818782155106707,-0.7497275747903963,2.5175141125190548,-3.459279130144817,0.1522157250381097,-1.1559463128810974,0.3451835818407012,-1.2378227419969514,22.6767074631238,-9.494766865079365,4.074038734083371,-19.402646774521777,7.7746092269799165,-26.185071499013805,36.52700152754066,36.910384281307095,34.370473537604454,1577395500.0,-27.717306381958696,-51.09952466658306,7.9732866
7051,1577395500.93,0.1828936487709598,1.5740416036466267,8.799479435767196,0.2175219800995613,1.6329623225514471,7.203977609922828,-1.2256560645126708,2.391573877846322,8.912561667837746,1.1137055187690548,2.132136647294207,-0.9786094107278964,-4.593081590605945,5.757029463605183,-1.1905577124618902,2.811338843368903,1.1996757693407012,-1.6345512576219514,24.65576556899641,-10.225133547008545,4.428302971829755,-16.859932081807084,5.335516136162689,-25.504939771766697,36.52700152754066,37.19792134663192,34.370473537604454,1577395500.0,-27.717306381958696,-51.09952466658306,7.9732866
7052,1577395500.94,-0.0876511388266959,0.9898563985685014,10.684913243140244,0.8005100843476082,0.0731399409596509,12.496360379698215,-0.6079520361923588,0.3134068368306976,9.023892045035014,-0.1222563952934451,-0.2940108136432927,-1.2380088247903962,0.640683057831555,3.758128096417683,-1.0990049780868902,-1.3848281488185974,0.5588066287157012,-1.7413627810594514,24.65576556899641,-10.225133547008545,4.428302971829755,-17.206665903540905,7.774609226979917,-25.504939771766693,36.57492437176146,36.910384281307095,34.370473537604454,1577395500.0,-27.717306381958696,-51.09952466658306,7.9732866
7053,1577395500.95,-0.5593088658774771,1.3729286641935023,10.21564971774962,-1.3339206956816876,3.8332336482350415,8.662046420957983,3.292202468202172,3.2606690804830407,9.221413681997904,-3.235049364043445,-0.3855635480182927,-1.0549033560403962,3.2499359875190548,-5.198781083269817,-0.3665831030868902,1.3464950933689026,-1.6079414181592988,0.4711616330030487,24.32592255135097,-10.225133547008545,4.428302971829755,-17.148876933251934,10.366145635973224,-24.484742180896028,36.81453859286549,37.10207565819032,34.370473537604454,1577395500.0,-27.717306381958696,-51.09952466658306,7.9732866
7054,1577395500.96,0.2786617151772103,2.2108992452481897,8.81743594821837,0.0307742506073738,4.094201629192073,6.964557443907203,-0.1626305274032958,2.353266651283822,9.051425364126809,-1.0377837390434452,0.6215165301067074,-0.6886924185403963,-2.456851121855945,0.9962872761051828,-0.4276182593368902,0.2478622808689026,-1.5774238400342988,1.5392768673780486,23.666236516060103,-9.859950206043958,3.7197744963369854,-16.975510022385023,5.335516136162689,-19.38375422654269,36.57492437176146,37.10207565819032,34.562164914487674,1577395500.0,-27.717306381958696,-51.09952466658306,7.9732866
7055,1577395500.97,-0.2660191625083365,2.1821688253263147,9.35972262424376,0.5251768934296395,0.5005049372975411,11.509949295713843,-0.8330069922470458,1.2399628793111657,9.927703171743998,1.4646576672065548,0.8503983660442074,-0.7497275747903964,-2.105898973418445,5.833323408917684,-0.7633116187118902,-0.2251601800685974,2.2067558474657014,-0.2917778201219513,24.325922551350978,-9.859950206043957,4.428302971829751,-17.033298992673995,5.487959454338766,-19.04368836291913,36.62284721598228,36.98226854763831,34.49028064815647,1577395500.0,-27.717306381958696,-51.09952466658306,7.9732866
7056,1577395500.98,-0.5066364293540396,1.147873708138814,9.07361552585509,-2.7800184984160623,2.8372457576100416,10.766549680235329,3.926665908143578,3.01885471280726,10.789615769400248,0.5796479015815549,0.6215165301067074,-0.9023154654153964,5.630307081269055,-6.419484208269817,-0.4886534155868902,-0.0573135003810973,2.3898613162157014,-0.6579887576219513,23.501315007237384,-10.042541876526249,4.251170852956559,-17.264454873829877,6.402619363395226,-12.242371090448014,36.57492437176146,36.910384281307095,34.562164914487674,1577395500.0,-27.717306381958696,-51.09952466658306,7.9732866
7057,1577395500.99,-0.3677727330649771,1.772760341439596,10.141429466284777,-0.1918865037871563,3.691975750285823,7.012441477110327,1.3720527367568591,1.8193596810689785,10.511888376822125,0.7322357922065549,0.7741044207317074,-0.2919639029153963,-0.5647612781059451,-0.6821795207698171,-0.3055479468368902,1.4380478277439026,0.4062187380907012,-0.5359184451219513,24.82068707781913,-10.407725217490844,5.668227803942081,-15.704152676027675,6.25017604521915,-17.343359044801353,36.57492437176146,37.0062299697487,34.562164914487674,1577395500.0,-27.717306381958696,-51.09952466658306,7.9732866
7058,1577395501.0,0.170922640470179,1.6410792501310023,9.7296267807379,-0.3092023851348126,1.4246667781178537,7.524800632383765,-2.578380002500953,4.115399073158822,10.37302468053306,0.1524018078315548,-2.552311594893293,-0.3529990591653963,-4.226870653105945,4.475291182355183,-0.3360655249618902,3.299620093368903,0.9250175662157012,-1.2073051638719514,24.490844060173693,-9.312175194597067,4.605435090702943,-17.322243844118844,8.689269136036378,-18.023490772048465,36.57492437176146,37.0062299697487,34.27462784916285,1577395501.0,-27.71724858993157,-51.09959076052154,9.153489
7059,1577395501.01,0.0440299524818973,1.681780678353658,9.605128294409775,0.4018755079315931,0.0539863276784009,12.528682102110327,-0.5038042639755619,-0.1881784109720366,8.721025535025248,1.4799164562690548,3.093440358231707,-0.5208457388528963,1.067929151581555,5.085642744855184,-0.8701231421493902,0.4004501714939026,3.7173759646532014,-0.9784233279344514,23.831158024882814,-9.129583524114777,3.8969066152101854,-16.10867546805047,8.5368258178603,-26.185071499013805,36.62284721598228,37.07811423607991,34.41839638182526,1577395501.0,-27.71724858993157,-51.09959076052154,9.153489
7060,1577395501.02,-0.0661033238852896,1.5022155538419395,8.977847459448839,-1.185480192752,3.70634096024676,8.504029111387672,2.698440456483422,2.961393872963509,9.834329306997905,-0.4274321765434451,1.933772389481708,-0.5361045279153963,4.318051221894055,-6.572072098894817,-0.4886534155868902,3.208067358993903,2.6645195193407014,-0.0476371951219513,23.336393498414665,-8.399216842185593,3.0112460208442324,-15.93530855718356,10.213702317797145,-25.504939771766697,36.57492437176146,37.05415281396951,34.22670500494204,1577395501.0,-27.71724858993157,-51.09959076052154,9.153489
7061,1577395501.03,-0.1427177770102896,2.11513117884194,9.447110984839464,-0.9580310350371564,3.076665923625667,5.5040944312118905,2.0041219750381094,1.6110641366353844,9.630822165884622,0.4270600109565549,2.818782155106707,-0.9633506216653964,-0.9920073718559452,-2.116505692644817,-0.3055479468368902,0.4004501714939026,-0.2346504025342987,-0.6579887576219513,24.65576556899641,-9.859950206043958,4.074038734083371,-15.241840913715915,10.213702317797145,-22.784412862778247,36.71869290442388,36.86246143708629,34.27462784916285,1577395501.0,-27.71724858993157,-51.09959076052154,9.153489
7062,1577395501.04,0.1781052454506478,1.4974271505216272,8.81743594821837,0.3492030714081551,0.3879774592701973,8.085043820860328,-1.1370706030868896,1.0460325448385095,9.791233677115091,-0.8851958484184451,-0.4160811261432927,-0.5971396841653963,-4.959292528105945,6.123240401105183,0.3048036156631097,1.0718368902439026,0.4062187380907012,-1.7261039919969514,25.31545160428729,-9.494766865079365,3.7197744963369854,-15.010685032560032,10.213702317797145,-69.71350204282896,36.86246143708629,37.24584419085272,34.41839638182526,1577395501.0,-27.71724858993157,-51.09959076052154,9.153489
7063,1577395501.05,-0.3665756322348995,1.8026878621915488,9.38007333835509,-0.4600370897246568,0.3688238459889478,12.56579222784275,0.1234765709853755,0.6485950692525722,9.63920187169517,2.4259613781440548,2.727229420731708,-0.4598105826028963,0.396542432831555,3.8344220417301833,-0.9006407202743902,-0.3777480706935973,2.0389091677782014,-1.2073051638719514,24.738226323407773,-10.681612723214284,4.162604793519964,-16.137569953194955,11.05214056776557,-69.54346911101719,36.69473148231347,37.03019139185911,34.39443495971486,1577395501.0,-27.71724858993157,-51.09959076052154,9.153489
7064,1577395501.06,-0.3510133214438834,0.9922506002286576,9.547667454566026,-1.7122045579863752,3.5076222224537914,8.326858188536109,1.522887441346703,3.3636197518697597,10.025865439810405,-3.479189989043445,-0.7517744855182926,-1.3905967154153962,1.9376801281440548,-6.572072098894817,-0.4886534155868902,1.5296005621189026,-0.7534492306592988,-0.6579887576219513,23.83115802488282,-10.042541876526249,4.251170852956559,-17.033298992673995,11.890578817733992,-69.37343617920541,36.81453859286549,37.0062299697487,34.46631922604607,1577395501.0,-27.71724858993157,-51.09959076052154,9.153489
7065,1577395501.07,-0.1906018102134146,1.6817806783536586,10.20846711276915,-1.7265697679473129,2.253060552531916,6.962163242247046,-1.678160178282202,1.338125147377572,10.004317624868998,-1.3429595202934452,1.3234208269817074,-0.8107627310403963,-2.945132371855945,1.0268048542301829,-0.4276182593368902,-0.6371474847560974,0.0094902224657012,-0.1086723513719513,23.83115802488282,-10.042541876526249,4.251170852956559,-16.166464438339442,10.213702317797145,-69.03337031558186,36.71869290442388,37.0062299697487,34.61008775870848,1577395501.0,-27.71724858993157,-51.09959076052154,9.153489
7066,1577395501.08,0.1266299097572884,1.7595922323087367,9.988200560034777,2.111335493283155,0.6537338435475409,10.299680356504858,-2.9327218482040776,0.9047746468892908,10.18867115270103,1.3273285656440548,-0.4160811261432927,-0.4292930044778963,-4.898257371855945,9.937937666730184,-0.8548643530868902,8.792784155868903,-0.2041328244092987,-0.5054008669969513,24.57330481458505,-8.855696018391331,2.7455478425344464,-16.166464438339442,11.738135499557911,-69.03337031558186,36.62284721598228,37.0062299697487,34.370473537604454,1577395501.0,-27.71724858993157,-51.09959076052154,9.153489
7067,1577395501.09,-0.5425494542563833,1.8326153829435023,10.33057139743712,-0.9436658250762188,1.2750291743580875,13.17152524786228,-0.7384360266708745,1.328548340736947,9.963616196646342,2.1055268078315548,3.215510670731707,-0.9328330435403964,3.0668305187690548,-3.4592791301448167,-0.8243467749618902,-0.3472304925685974,-1.0891425900342988,-0.5969536013719512,22.84162897194652,-11.138091899420024,4.251170852956559,-18.24686736874237,9.299042408740684,-47.26915504367428,36.57492437176146,36.910384281307095,34.27462784916285,1577395501.0,-27.71724858993157,-51.09959076052154,9.153489
7068,1577395501.1,-0.3055234899009146,1.7200879049161586,9.849336863745712,-1.9779609422637188,3.3017208796803543,6.428256272032202,2.600278188417016,2.408333289467416,9.556601914419778,-3.448672410918445,0.9266923113567074,-1.0243857779153962,2.9142426281440548,-4.252736161394817,-0.5191709937118902,-1.2780166253810974,-2.5539863400342986,-0.1697075076219513,23.666236516060103,-9.494766865079365,3.0112460208442324,-19.402646774521777,6.859949317923458,-20.74401768103691,36.57492437176146,37.19792134663192,34.46631922604607,1577395501.0,-27.71724858993157,-51.09959076052154,9.153489
7069,1577395501.11,0.2427486902748665,1.921200844369284,10.134246861304304,-0.3570864183379376,2.1644750911061346,6.545572153379859,-0.9838416968368896,3.629376136147103,8.843129819693216,-0.1222563952934451,1.4760087176067074,-1.0243857779153962,-3.952212449980945,1.6981915729801829,0.0911805687881097,1.6821884527439026,-0.4177558712842988,-0.2917778201219513,23.666236516060103,-9.494766865079365,3.0112460208442324,-16.39762031949532,10.213702317797145,-24.824808044519585,36.71869290442388,36.86246143708629,34.27462784916285,1577395501.0,-27.71724858993157,-51.09959076052154,9.153489
7070,1577395501.12,0.1445864222084603,1.1119606832364706,9.028125694312118,0.6700260938690926,-0.3901380802805829,9.507199606993138,-3.03327831793064,-1.182969200766958,9.367459983267434,0.2897309093940548,0.2553055926067074,-0.6886924185403963,-3.952212449980945,10.029490401105184,-0.8548643530868902,-0.7287002191310974,-7.619904308784299,-1.3904106326219514,23.418854252826023,-10.681612723214284,3.808340555773588,-15.877519586894593,10.671032272325377,-23.80461045364892,36.62284721598228,37.0062299697487,34.46631922604607,1577395501.0,-27.71724858993157,-51.09959076052154,9.153489
7071,1577395501.13,-0.6263465123618521,2.261177480111471,11.065591307105088,-0.6467848192168444,1.56113627274676,10.984422031309546,-0.399656491758765,0.9957543099752284,9.478790360464702,0.3660248547065549,1.933772389481708,-0.3529990591653963,3.860287550019055,-2.269093583269817,-0.7022764624618902,-0.5913711175685974,-2.4929511837842986,-0.6885063357469514,24.490844060173693,-10.772908558455434,3.8969066152101823,-17.091087962962966,9.299042408740686,-9.86191004508312,36.52700152754066,37.03019139185911,34.370473537604454,1577395501.0,-27.71724858993157,-51.09959076052154,9.153489
7072,1577395501.14,-0.6335291173423209,1.868528407845846,9.420774766577743,-0.8287441453887189,3.6488801204030095,6.741896689512672,2.233965334413109,1.4841714486471032,8.785668979849467,-3.814883348418445,0.2553055926067073,-0.9938681997903964,1.7545746593940548,-4.008595536394817,-1.1295225562118902,-2.071473656631097,-3.7746894650342986,1.2341010861280486,24.82068707781913,-9.312175194597067,4.959699328449328,-15.704152676027675,7.7746092269799165,-26.185071499013805,36.71869290442388,37.0062299697487,34.61008775870848,1577395501.0,-27.71724858993157,-51.09959076052154,9.153489
7073,1577395501.15,-0.1115931554282584,1.29152580774819,9.427957371558213,0.3563856763886238,1.0392003108326973,7.869565671446264,-2.338959836485327,2.78901135343226,9.06339637242759,-2.227969285918445,-2.094547923018293,-0.5971396841653963,-4.135317918730945,0.4469708698551829,-0.0308897437118902,0.5225204839939026,-0.6313789181592988,1.9665229611280488,24.82068707781913,-9.312175194597067,4.959699328449328,-17.264454873829877,7.317279272451687,-24.484742180896028,36.52700152754066,37.10207565819032,34.41839638182526,1577395501.0,-27.71724858993157,-51.09959076052154,9.153489
7074,1577395501.16,-0.2456684483970084,1.8146588704923303,9.224450230444932,1.2230866773651865,0.117432671672541,13.44087293462986,-1.754774631407202,0.6557776742330409,9.355488974966653,4.043393018769055,2.284724537919208,-0.2919639029153963,-3.647036668730945,9.266550947980184,0.0911805687881097,-0.1488662347560974,2.7255546755907014,0.3796088986280487,24.65576556899641,-10.407725217490842,3.719774496336994,-19.402646774521777,8.07949586333207,-23.46454459002536,36.64680863809267,37.0062299697487,34.41839638182526,1577395501.0,-27.71724858993157,-51.09959076052154,9.153489
7075,1577395501.17,-0.6478943273032584,1.3537750509122524,10.883631980933211,-1.6116480882598123,0.7937946406666816,12.05463017339939,-0.1207319983505619,0.4654386422506195,10.631598459829936,-1.1293364734184452,-0.7212569073932926,-0.5055869497903963,3.6924408703315543,-1.8265887004573167,-0.1377012671493902,0.9955429449314024,0.2536308474657009,-1.5582573123094514,22.511785954301075,-10.042541876526249,2.47984966422466,-19.402646774521777,8.07949586333207,-23.46454459002536,36.67077006020308,37.14999850241112,34.514242070266874,1577395501.0,-27.71724858993157,-51.09959076052154,9.153489
7076,1577395501.18,-0.2265148351157584,1.265189589486471,9.46865879978087,-2.2724477464629373,3.9457611262623855,7.129757358457984,0.3976126610732657,3.3803791634908533,9.013118137564309,1.0679291515815548,2.544123951981707,-0.6886924185403963,0.8695648937690549,-5.778615067644817,-0.6717588843368902,0.3088974371189026,-3.4084785275342986,-0.6579887576219513,23.666236516060103,-8.764400183150183,4.782567209576139,-18.88254604192104,8.23193918150815,-23.1244787264018,36.71869290442388,37.0062299697487,34.41839638182526,1577395501.0,-27.71724858993157,-51.09959076052154,9.153489
7077,1577395501.19,-0.1139873570884146,2.1989282369474084,9.720049974097275,-0.4073646532012189,1.5683188777272283,6.840058957579077,-1.7811108496689207,2.6262056405416345,8.929321079458841,-0.0612212390434451,0.1332352801067073,-0.5055869497903963,-5.325503465605945,5.299265791730183,1.1287782250381098,0.2173447027439026,-1.2417304806592988,1.3866889767530486,23.666236516060103,-8.764400183150183,4.782567209576139,-15.241840913715915,10.213702317797145,-24.824808044519585,36.479078683319855,37.24584419085272,34.41839638182526,1577395501.0,-27.71724858993157,-51.09959076052154,9.153489
7078,1577395501.2,-0.0756801305259146,1.6805835775235805,8.48464191745665,0.4760957593964369,0.3125601069752754,12.416154624082983,-2.277907694151343,0.2056677621236664,8.816793601431499,2.6395844250190548,1.3539384051067072,-0.1241172232278963,-1.388735887480945,4.948313643292684,-0.2902891577743902,-1.4306045160060972,0.8182060427782013,0.0896919064405487,24.57330481458505,-11.22938773466117,4.694001150139537,-17.11998244810745,10.289923976885184,-23.97464338546069,36.69473148231347,37.05415281396951,34.442357803935664,1577395501.0,-27.71724858993157,-51.09959076052154,9.153489
7079,1577395501.21,-0.8944970982993521,1.906835634408346,10.85968996433165,-1.195056999392625,1.9729389582936343,10.493610690977516,1.494157021424828,0.2080619637838221,8.680324106802592,-2.655215379668445,-2.277653391768293,-0.5666221060403963,5.782894971894055,-6.938283036394817,-2.0450498999618905,0.7666611089939026,0.6198417849657012,-1.0852348513719514,25.48037311311001,-9.67735853556166,3.188378139717421,-14.952896062271064,10.366145635973224,-21.084083544660466,36.81453859286549,37.05415281396951,34.562164914487674,1577395501.0,-27.71724858993157,-51.09959076052154,9.153489
7080,1577395501.22,-0.6095871007407584,1.8541631978849085,9.305853086890243,-2.6555200120879374,3.962520537883479,6.46177509527439,2.801391127870141,2.638176648842416,9.058607969107278,-1.2819243640434452,1.0487626238567074,-0.3529990591653963,2.1207855968940548,-5.595509598894817,-0.1529600562118902,-0.8202529535060974,-0.2346504025342987,-0.9326469607469512,23.00655048076923,-9.859950206043958,5.136831447322516,-15.241840913715915,11.433248863205758,-64.27244822485208,36.57492437176146,37.0062299697487,34.46631922604607,1577395501.0,-27.71724858993157,-51.09959076052154,9.153489
7081,1577395501.23,0.1254328089272093,1.16942152308022,8.630688218726181,1.6827733961151865,2.743871892863948,8.719507260801734,-0.7970939673447021,2.7626751351705408,9.214231077017434,-1.5260649890434452,-3.803532298018293,-0.1088584341653963,-5.325503465605945,2.308543135480183,0.3353211937881097,2.475645483993903,-1.3638007931592988,-0.0171196169969513,23.00655048076923,-9.859950206043958,5.136831447322516,-17.206665903540905,11.433248863205758,-69.71350204282896,36.67077006020308,37.10207565819032,34.562164914487674,1577395501.0,-27.71724858993157,-51.09959076052154,9.153489
7082,1577395501.24,-0.2265148351157584,1.6865690816739711,9.372890733374618,0.4174378187226082,-0.7181437077219891,12.702261722471656,-1.9594788733505617,0.0284968392721039,9.833132206167829,3.7229584484565543,0.8198807879192074,0.1810585580221036,-0.900454637480945,6.153757979230184,-0.0156309546493902,-1.2780166253810972,-1.1349189572217988,-0.9631645388719514,23.253932744003308,-8.855696018391331,4.516869031266349,-17.322243844118844,12.043022135910068,-69.71350204282896,36.694731482313486,36.93434570341749,34.442357803935664,1577395501.0,-27.71724858993157,-51.09959076052154,9.153489
7083,1577395501.25,-0.2743988683188834,1.4112358907560023,10.7256146713629,-3.251676225466844,2.300944585735041,10.194335483457984,-1.256780686094702,1.1489832162252285,9.468016452993997,-0.5800200671684451,-2.186100657393293,-0.2614463247903963,6.728939893769055,-8.525197098894816,-0.9769346655868902,-1.2780166253810974,1.0470878787157012,-0.6274711794969513,22.84162897194652,-9.67735853556166,4.605435090702943,-17.322243844118844,11.433248863205758,-69.71350204282896,36.67077006020308,37.0062299697487,34.41839638182526,1577395501.0,-27.71724858993157,-51.09959076052154,9.153489
7084,1577395501.26,-0.3773495397056021,1.8661342061856896,11.053620298804306,-1.8534624559355937,3.038358697063167,6.892731394102515,3.136579360292016,3.3899559701314783,10.100085691275249,-0.0307036609184451,0.4384110613567073,-0.3224814810403963,2.3649262218940548,-6.266896317644817,-0.4886534155868902,0.0952743902439026,-0.9365546994092988,0.4711616330030487,23.171471989591947,-9.312175194597067,4.605435090702943,-17.322243844118844,10.5185889541493,-60.87178958861652,36.57492437176146,36.86246143708629,34.41839638182526,1577395501.0,-27.71724858993157,-51.09959076052154,9.153489
7085,1577395501.27,0.4019631006752572,1.3968706807950644,9.248392247046494,-0.7664949022246563,3.103002141887385,7.395513742735328,-3.181718820860328,1.8121770760885092,9.717013425650247,1.2052582531440548,0.4231522722942074,0.0437294564596036,-3.189272996855945,2.461131026105183,0.7625672875381098,1.2549423589939026,-2.1877754025342986,1.3561713986280486,23.171471989591947,-9.312175194597067,4.605435090702943,-16.39762031949532,12.957682044966528,-60.87178958861652,36.550962949651066,37.19792134663192,34.46631922604607,1577395501.0,-27.71724858993157,-51.09959076052154,9.153489
7086,1577395501.28,-0.2767930699790396,1.954719667611471,9.34176611179259,1.1979475599335458,-0.262048291462224,11.387845011045874,-1.9690556799911865,-0.143885680259146,8.670747300161967,4.089169385956555,4.253108326981708,0.0132118783346036,-1.434512254668445,6.809885908917684,0.0759217797256097,-0.1641250238185974,1.4132988162157014,-0.2765190310594513,23.501315007237384,-8.946991853632479,3.8969066152101823,-16.39762031949532,12.957682044966528,-60.87178958861652,36.67077006020308,37.10207565819032,34.41839638182526,1577395501.0,-27.71724858993157,-51.09959076052154,9.153489
7087,1577395501.29,-0.3629843297446646,1.5692532003263149,9.79427022556212,-2.1479492601348125,0.950614849406916,11.15441034918064,2.2196001244521715,0.4522705331197596,8.701871921743999,-0.7020903796684451,0.0111649676067073,0.0132118783346036,7.491879346894055,-8.799855302019816,0.0911805687881097,-0.1488662347560974,1.6269218630907012,-2.1228325076219514,24.16100104252826,-9.312175194597067,4.251170852956559,-16.39762031949532,10.213702317797145,-63.59231649760496,36.57492437176146,36.910384281307095,34.46631922604607,1577395501.0,-27.71724858993157,-51.09959076052154,9.153489
7088,1577395501.3,-0.8059116368735709,1.609954628548971,9.66019493259337,-2.4137056444121563,3.754224993449885,7.383542734434546,1.3552933251357655,3.401926978432259,9.456045444693215,-3.296084520293445,0.1637528582317073,-0.5666221060403963,2.3649262218940548,-4.985158036394817,-1.4652159155868902,2.841856421493903,-0.3872382931592988,-0.4748832888719513,23.336393498414665,-9.129583524114771,2.6569817830978484,-16.22425340862841,6.097732727043072,-6.801317272471119,36.57492437176146,37.05415281396951,34.46631922604607,1577395501.0,-27.71724858993157,-51.09959076052154,9.153489
7089,1577395501.31,-0.203769919344274,1.7260734090665493,8.39485935520079,0.2630118116425301,1.90590131180926,6.239114340879858,-0.4283869116806396,1.7523220345846031,9.61885115758384,-0.015444871855945,0.4994462176067074,-0.0173056997903963,-3.952212449980945,3.346140791730183,1.2813661156631098,-0.5761123285060974,-2.2182929806592986,-0.2002250857469513,24.82068707781913,-9.312175194597067,3.542642377463798,-17.322243844118844,5.335516136162689,-25.504939771766697,36.76661574864468,36.910384281307095,34.370473537604454,1577395501.0,-27.71724858993157,-51.09959076052154,9.153489
7090,1577395501.32,-0.5880392857993522,1.5572821920255335,9.571609471167587,0.52517689342964,-0.6259669438059741,11.745778159239231,-2.392829373838843,0.7575312447896816,9.11008330480064,2.2886322765815548,1.5370438738567074,-0.0783408560403963,-3.128237840605945,6.321604658917684,-0.1529600562118902,-0.5303359613185974,0.4367363162157012,1.5240180783155486,23.83115802488282,-8.946991853632479,4.605435090702943,-16.51319826007326,6.555062681571303,-20.0638859537898,36.52700152754066,37.10207565819032,34.34651211549405,1577395501.0,-27.71724858993157,-51.09959076052154,9.153489
7091,1577395501.33,-0.4348103795493521,1.3585634542325649,10.61787559665587,-0.8766281785918438,1.7694318171803534,12.619661765196264,2.356069619081078,1.1178585946431971,9.700254014029154,-0.3969145984184451,-0.4771162823932927,-0.4445517935403963,5.904965284394055,-4.893605302019817,-1.0684873999618902,-1.0033584222560974,3.1222831912157014,0.8068549923780487,24.16100104252826,-8.58180851266789,3.188378139717421,-15.704152676027675,5.335516136162689,-26.185071499013805,36.57492437176146,36.86246143708629,34.370473537604454,1577395501.0,-27.71724858993157,-51.09959076052154,9.153489
7092,1577395501.34,-0.8968912999595083,2.4862324361661585,11.678506932105089,-3.7089687425566873,3.9457611262623855,7.965333737852515,1.8341336571670157,1.903156739174447,10.231766782583842,-2.868838426543445,-0.1414229230182926,-0.3835166372903963,5.233578565644055,-7.731740067644817,-1.3736631812118902,0.7361435308689026,1.4132988162157012,-0.7190239138719513,24.16100104252826,-8.216625171703297,3.542642377463798,-16.859932081807084,5.335516136162689,-24.14467631727247,36.52700152754066,37.0062299697487,34.41839638182526,1577395501.0,-27.71724858993157,-51.09959076052154,9.153489
7093,1577395501.35,-0.0230076940024771,1.600377821908346,9.25078644870665,-0.4672196947051251,2.1728547969166816,6.805343033506812,0.6190763146377194,0.8999862435689784,9.928900272574076,-1.266665574980945,1.4302323504192076,-0.1088584341653963,-3.708071824980945,4.688914229230183,1.0067079125381098,1.4533066168064026,-0.2956855587842987,-0.6885063357469514,23.99607953370554,-9.859950206043958,3.7197744963369854,-16.802143111518113,6.555062681571303,-15.302963863060016,36.67077006020308,36.958307125527895,34.298589271273244,1577395501.0,-27.71724858993157,-51.09959076052154,9.153489
7094,1577395501.36,-0.3558017247641959,1.59798362024819,9.198114012183211,1.4529300367401865,-1.2161376530344892,12.356299582579076,-1.544084885313452,3.1241995858541345,9.745743845572122,3.2041596203315548,3.337580983231707,0.1352821908346037,-1.9685698718559448,5.665476729230183,0.0301454125381097,1.7737411871189026,-0.4787910275342988,-0.3222953982469513,23.501315007237384,-9.67735853556166,4.251170852956559,-17.206665903540905,5.335516136162689,-20.74401768103691,36.57492437176146,37.0062299697487,34.27462784916285,1577395501.0,-27.71724858993157,-51.09959076052154,9.153489
7095,1577395501.37,-0.1187757604087271,1.0544998433927202,7.811871250952744,-0.4289124681426251,0.3065746028248848,11.872670847227514,-1.809841269590796,2.0635682504049155,8.179935959829935,0.9458588390815548,3.795344655106707,0.0132118783346036,4.409603956269055,-3.215138505144817,-0.6412413062118902,-0.5150771722560974,-0.2956855587842988,1.5392768673780486,24.65576556899641,-10.225133547008545,4.428302971829755,-17.206665903540905,5.335516136162689,-25.504939771766697,36.57492437176146,37.10207565819032,34.27462784916285,1577395501.0,-27.71724858993157,-51.09959076052154,9.153489
7096,1577395501.38,-0.8801318883384146,2.3904643697599086,9.248392247046494,-2.083305815310594,3.861964068156917,7.776191806700171,3.3783937279677967,1.0125137215963222,10.734549131216657,0.5491303234565549,2.330500905106707,-0.1088584341653963,4.653744581269055,-6.907765458269817,-1.2821104468368902,-0.7897353753810974,0.0400078005907012,-0.3222953982469513,23.666236516060103,-9.859950206043958,3.7197744963369854,-15.472996794871795,5.335516136162689,-25.504939771766697,36.52700152754066,37.05415281396951,34.46631922604607,1577395501.0,-27.71724858993157,-51.09959076052154,9.153489
7097,1577395501.39,-0.0649062230552115,1.5943923177579549,8.692937461890244,-0.4875704088164537,2.128562066203791,7.260241348936499,1.2260064354873288,1.9630117806783527,9.543433805288918,-0.915713426543445,0.3468583269817073,-0.2004111685403963,-4.135317918730945,0.2486066120426828,0.8846376000381094,0.2173447027439026,-0.4482734494092988,-0.1544487185594513,24.32592255135097,-10.955500228937728,3.7197744963369854,-15.126262973137973,5.945289408866996,-47.60922090729783,36.57492437176146,37.12603708030072,34.41839638182526,1577395501.0,-27.71724858993157,-51.09959076052154,9.153489
7098,1577395501.4,-0.0277960973227896,1.6219256368497523,8.898838804663683,1.5008140699433117,0.1150384700123848,13.000339829161108,-1.9534933692001708,2.259892786537728,9.963616196646342,4.943661573456555,3.459651295731707,0.1657997689596037,-5.600161668730945,8.137400557355184,-0.0919248999618902,0.1868271246189026,1.2607109255907012,-1.0852348513719514,24.98560858664185,-11.320683569902318,3.7197744963369854,-15.010685032560032,12.043022135910068,-65.63271167934629,36.81453859286549,37.05415281396951,34.562164914487674,1577395501.0,-27.71724858993157,-51.09959076052154,9.153489
7099,1577395501.41,-0.1499003819907584,1.303496816048971,10.10551644138243,0.3061074415253426,-1.1874072331126142,11.590155051329075,-0.9455344702743896,0.0404678475728846,9.896578550161967,-0.7020903796684451,1.6591141863567074,0.1963173470846037,0.5338715343940549,-0.3770037395198171,-0.0614073218368902,-2.224061547256097,1.9626152224657007,-1.2378227419969514,24.65576556899641,-8.399216842185593,4.074038734083371,-15.472996794871795,10.823475590501452,-69.71350204282896,36.67077006020308,37.0062299697487,34.370473537604454,1577395501.0,-27.71724858993157,-51.09959076052154,9.153489
7100,1577395501.42,-0.6107842015708365,1.7164966024259245,10.098333836401965,-0.4456718797637189,1.939420135051447,11.199900180723608,-0.1147464942001708,1.7164090096822595,10.349082663931496,-1.800723192168445,0.6978104754192074,-0.3529990591653963,4.165463331269055,-5.717579911394817,-1.2515928687118902,-1.4611220941310974,1.1081230349657012,-1.4819633669969514,24.325922551350978,-9.129583524114777,4.074038734083374,-17.206665903540905,10.213702317797145,-66.31284340659342,36.694731482313486,37.19792134663192,34.46631922604607,1577395501.0,-27.71724858993157,-51.09959076052154,9.153489
7101,1577395501.43,-0.0325845006431021,1.351380849252096,9.05446191257384,-2.5741171556426248,3.539943944865901,7.4948731116318115,0.8740587914443598,1.5368438851705408,10.319155143179543,-1.7396880359184452,-0.3245283917682927,-0.0783408560403963,-1.2361479968559452,-3.871266434832317,-0.0308897437118902,-1.3237929925685972,-2.1725166134717986,-0.0934135623094513,24.82068707781913,-8.58180851266789,3.188378139717421,-17.206665903540905,13.110125363142604,-69.71350204282896,36.67077006020308,37.03019139185911,34.370473537604454,1577395501.0,-27.71724858993157,-51.09959076052154,9.153489
7102,1577395501.44,-0.3725611363852896,1.6362908468106898,10.000171568335556,0.7753709669159676,0.9817394709889472,8.566278354551734,-2.8249827734970463,1.5057192635885095,10.617233249868995,1.8003510265815548,-0.7517744855182926,-0.4140342154153963,-4.989810106230945,8.228953291730184,1.2203309594131098,-1.6137099847560974,-6.490753918159299,1.4172065548780486,23.83115802488282,-10.042541876526249,4.251170852956559,-19.17149089336589,8.384382499684225,-64.27244822485208,36.52700152754066,37.10207565819032,34.370473537604454,1577395501.0,-27.71724858993157,-51.09959076052154,9.153489
7103,1577395501.45,0.2044414637123665,1.341804042611471,10.613087193335556,2.4848309522675303,-1.9487633610423016,14.197440659239234,-3.6007041113876714,0.9478702767721034,10.135998716177593,-0.6410552234184451,-2.186100657393293,-0.3224814810403963,-2.792544481230945,4.810984541730183,-0.4276182593368902,-3.658387719131097,-6.856964855659299,1.3256538205030486,24.490844060173693,-10.042541876526249,4.959699328449328,-19.17149089336589,8.994155772388531,-63.59231649760496,36.67077006020308,37.0062299697487,34.562164914487674,1577395501.0,-27.71724858993157,-51.09959076052154,9.153489
7104,1577395501.46,-0.3234800023520865,1.4746822347501425,10.23360623020079,-1.0274628831816877,-0.0501614445383954,13.443267136290014,-1.4985950537704833,0.713238514076791,9.800810483755717,-1.617617723418445,-0.6297041730182927,-0.4750693716653963,4.836850050019055,-1.9334002238948167,-1.7093565405868902,-4.909608422256097,-6.246613293159299,0.4406440548780487,24.40838330576233,-9.586062700320513,3.631208436900396,-19.86495853683354,7.469722590627764,-20.74401768103691,36.67077006020308,37.19792134663192,34.370473537604454,1577395501.0,-27.71724858993157,-51.09959076052154,9.153489
7105,1577395501.47,-0.5473378575766958,1.6530502584317837,9.408803758276964,-2.2090014024687967,3.28496146805926,8.475298691465795,0.5903458947158438,1.717606110512338,9.27528321935142,-0.9462310046684452,-1.1790205792682926,-0.6276572622903963,2.2886322765815548,-3.886525223894817,-0.7175352515243902,-0.3624892816310974,-6.246613293159299,-0.4291069216844513,24.16100104252826,-9.67735853556166,3.8969066152101823,-17.091087962962966,8.994155772388531,-20.40395181741336,36.910384281307095,37.03019139185911,34.442357803935664,1577395501.0,-27.71724858993157,-51.09959076052154,9.153489
7106,1577395501.48,-0.0996221471274771,0.908453542123189,7.936369737280868,0.8519854200409676,1.2786204768483225,5.820129050352515,0.8525109765029532,1.5919105233541344,9.42731502477134,1.8919037609565548,0.5604813738567074,-0.4750693716653963,-5.844302293730945,2.522166182355183,2.166375881288109,-0.3014541253810974,-6.063507824409299,0.7763374142530487,24.16100104252826,-9.67735853556166,3.8969066152101823,-17.322243844118844,5.335516136162689,-25.504939771766697,36.71869290442388,37.0062299697487,34.41839638182526,1577395501.0,-27.71724858993157,-51.09959076052154,9.153489
7107,1577395501.49,-0.0421613072837271,1.779942946420065,8.431969480933212,2.434552717404249,-0.5649148014719892,12.734583444883764,-1.3214241309189207,2.970970679604134,8.409779319204935,3.9060639172065534,1.3844559832317074,0.0437294564596036,-3.677554246855945,5.879099776105183,0.0911805687881097,-2.071473656631097,-0.8755195431592988,1.2341010861280486,23.99607953370554,-9.859950206043958,4.782567209576139,-17.322243844118844,5.945289408866995,-9.861910045083125,36.52700152754066,37.0062299697487,34.370473537604454,1577395501.0,-27.71724858993157,-51.09959076052154,9.153489
7108,1577395501.5,-0.5449436559165396,1.7392415181974086,9.20649371799376,-0.0961184373809063,-0.976717487018864,12.068995383360328,-0.4834535498642333,2.2239797616353845,9.420132419790871,0.5949066906440548,0.6672928972942073,-0.0020469107278963,2.2428559093940548,-0.163380692644817,-0.9158995093368902,0.7971786871189026,0.7724296755907012,1.6918647580030486,25.31545160428729,-8.946991853632479,5.136831447322516,-17.322243844118844,5.945289408866995,-9.861910045083125,36.57492437176146,37.0062299697487,34.562164914487674,1577395501.0,-27.71724858993157,-51.09959076052154,9.153489
7109,1577395501.51,-0.3821379430259146,2.167803615365377,10.18213089450743,-2.588482365603562,2.952167437297541,9.771758890440406,0.5424618615127192,1.2770730050435877,9.48597296544517,-1.2208892077934452,-0.7822920636432926,-0.5666221060403963,4.638485792206555,-6.556813309832316,-1.6635801733993905,-1.2169814691310974,0.1773369021532012,0.3033149533155487,24.65576556899641,-9.494766865079365,5.136831447322516,-16.513198260073263,6.859949317923456,-22.10428113553113,36.57492437176146,37.0062299697487,34.370473537604454,1577395501.0,-27.71724858993157,-51.09959076052154,9.153489
7110,1577395501.52,-1.0189955846274772,1.5884068136075649,9.332189305151964,-3.986696135134812,4.3216507869069165,8.274185752012672,2.696046254823265,2.9350576547017906,10.93566207066978,-1.2514067859184452,-0.9653975323932926,-0.3224814810403963,-4.867739793730945,-2.604786942644817,1.5255067406631098,0.6751083746189026,-2.0962226681592986,-0.7800590701219513,24.65576556899641,-9.494766865079365,5.136831447322516,-17.206665903540905,7.7746092269799165,-13.942700408565791,36.81453859286549,37.05415281396951,34.46631922604607,1577395501.0,-27.71724858993157,-51.09959076052154,9.153489
7111,1577395501.53,-0.3988973546470084,1.887682021127096,9.325006700171494,-1.0370396898223126,2.3344634089772285,8.207148105528296,1.4630323998427968,3.5934631112447595,10.969180893911966,1.4036225109565548,-1.8198897198932928,-0.2614463247903963,-5.844302293730945,6.489451338605183,2.441034084413109,0.9802841558689026,-3.5610664181592986,-0.9631645388719512,24.98560858664185,-9.859950206043958,5.136831447322516,-17.091087962962966,7.7746092269799165,-13.942700408565791,36.57492437176146,37.0062299697487,34.370473537604454,1577395501.0,-27.71724858993157,-51.09959076052154,9.153489
7112,1577395501.54,-0.3258742040122427,1.1909693380216264,10.249168540991809,0.8471970167206556,-1.498653448932927,13.351090372374,-3.483388230040015,3.123002485024056,9.163952842154156,1.5104340343940548,-0.5839278058307926,0.2115761361471036,0.243954542206555,2.949412276105183,-0.5496885718368902,0.5530380621189026,-3.8357246212842986,1.6766059689405486,23.83115802488282,-10.225133547008546,5.136831447322512,-15.241840913715912,5.335516136162689,-20.74401768103691,36.550962949651066,37.05415281396951,34.39443495971486,1577395501.0,-27.71724858993157,-51.09959076052154,9.153489
7113,1577395501.55,-0.7197203771079459,2.069641347298971,10.115093248023056,-1.2836424608184065,2.379953240520197,12.20785907964939,-0.6510476660751708,1.6589481698385096,10.179094346060404,-0.8241606921684451,-0.9653975323932926,0.2878700814596037,7.736019971894055,-4.252736161394817,-2.5028135718368905,-0.1183486566310974,-3.1948554806592986,0.7763374142530487,23.501315007237384,-10.407725217490844,5.668227803942081,-17.206665903540905,10.213702317797145,-15.302963863060016,36.86246143708629,37.05415281396951,34.370473537604454,1577395501.0,-27.71724858993157,-51.09959076052154,9.153489
7114,1577395501.56,-0.5138190343345084,2.0217573140958462,9.511754429663682,-2.5262331224395,4.948931621867854,8.575855161192358,1.5157048363662342,-0.4000652578958643,9.470410654654152,-1.6481353015434452,-3.284733469893293,-0.1088584341653963,0.4423188000190549,-0.9263201457698172,-1.5872862280868902,-1.5221572503810974,-3.1033027462842986,0.6847846798780487,23.501315007237384,-10.407725217490844,5.668227803942081,-15.299629884004888,10.671032272325377,-25.84500563539025,36.52700152754066,37.10207565819032,34.370473537604454,1577395501.0,-27.71724858993157,-51.09959076052154,9.153489
7115,1577395501.57,-0.4443871861899771,2.033728322396627,9.146638676489854,-3.0218328660918434,4.623320196086604,6.782598117735327,2.231571132752953,1.6302177499166344,8.27330982457603,2.7921723156440548,-1.3621260480182928,-0.0173056997903963,-3.524966356230945,-2.452199052019817,2.563104396913109,-0.0267959222560973,-2.6760566525342986,-0.1697075076219513,23.74869727047146,-10.133837711767397,3.099812080280827,-15.068474002849005,11.890578817733992,-21.084083544660466,36.83850001497589,37.0062299697487,34.27462784916285,1577395501.0,-27.71724858993157,-51.09959076052154,9.153489
7116,1577395501.58,0.1852878504311165,1.262795387826315,8.652236033667588,0.964512898068312,0.44424119828387,8.202359702207984,1.4510613915420154,1.9761798898092129,8.683915409292826,0.5796479015815549,0.6825516863567074,0.5014931283346037,-2.273745653105945,4.139597822980183,1.2661073266006095,1.0413193121189026,0.7113945193407012,-0.5511772341844513,24.98560858664185,-10.955500228937728,4.074038734083371,-15.472996794871795,11.738135499557911,-67.67310686108763,36.67077006020308,37.0062299697487,34.370473537604454,1577395501.0,-27.71724858993157,-51.09959076052154,9.153489
7117,1577395501.59,0.2164124720131478,1.78951975306069,8.870108384741807,2.0466920484589366,-2.2839515934641765,11.032306064512673,-0.1817841406845458,1.9175219491353843,10.253314597525248,1.0068939953315548,-0.0498701886432926,0.1657997689596037,2.7311371593940548,-1.2314959270198171,-1.6788389624618902,2.689268530868903,0.1315605349657012,-0.6885063357469513,22.6767074631238,-10.225133547008545,4.074038734083371,-16.39762031949532,10.5185889541493,-63.59231649760496,36.57492437176146,37.05415281396951,34.46631922604607,1577395501.0,-27.71724858993157,-51.09959076052154,9.153489
7118,1577395501.6,-0.2672162633384146,1.4543315206388148,10.704066856421491,-1.5182742235137188,1.2905914851491034,13.02428184576267,-2.7100610938095464,2.0204726205221037,10.68666509801353,-1.8617583484184448,-2.888004954268293,0.2268349252096037,7.339291456269055,-8.769337723894816,-2.0450498999618905,2.139952124618903,1.5658867068407012,-0.5969536013719513,22.6767074631238,-10.225133547008545,4.074038734083371,-17.322243844118844,12.652795408614375,-58.15126267962806,36.57492437176146,37.0062299697487,34.41839638182526,1577395501.0,-27.71724858993157,-51.09959076052154,9.153489
7119,1577395501.61,-0.5640972691977897,2.066050044808737,10.056435307349227,-1.6379843065215314,3.366364324504573,12.205464877989234,-3.193689829161109,1.872032117592416,9.934885776724467,1.0831879406440548,-0.8280684308307926,0.3641640267721037,6.057553175019055,-3.062550614519817,-1.5872862280868902,0.5530380621189026,1.8405449099657007,0.2880561642530487,24.40838330576233,-9.220879359355925,4.871133269012729,-16.513198260073263,12.652795408614375,-58.15126267962806,36.62284721598228,37.19792134663192,34.562164914487674,1577395501.0,-27.71724858993157,-51.09959076052154,9.153489
7120,1577395501.62,-0.2863698766196647,1.3370156392911583,10.48380030368712,-2.3490621995879373,3.185602099162776,7.965333737852515,1.874835085389672,3.1577184090963217,9.83792060948814,1.0374115734565548,-0.9653975323932926,-0.2919639029153963,-2.823062059355945,-2.589528153582317,1.968011623475609,1.0870956793064026,0.2383720584032012,0.1965034298780487,25.15053009546457,-9.67735853556166,5.313963566195704,-18.189078398453404,10.671032272325377,-40.1277719075796,36.479078683319855,37.14999850241112,34.8017791355917,1577395501.0,-27.71724858993157,-51.09959076052154,9.153489
7121,1577395501.63,0.228383480313929,1.5955894185880335,8.987424266089464,1.4409590284394052,0.3688238459889473,10.642051193907202,2.1573508812881093,1.1154643929830408,8.797639988150248,3.2957123547065548,3.123957936356707,0.1963173470846037,-3.250308153105945,5.695994307355183,0.8541200219131098,1.5601181402439026,0.1925956912157012,-0.1086723513719513,24.16100104252826,-9.312175194597067,4.959699328449328,-17.322243844118844,5.335516136162689,-23.46454459002536,36.57492437176146,37.05415281396951,34.27462784916285,1577395501.0,-27.71724858993157,-51.09959076052154,9.153489
7122,1577395501.64,0.1517690271889281,2.155832607064596,10.021719383276965,2.515955573849561,-0.591251019733708,12.018717148497046,-0.1123522925400145,3.0691329476705405,8.737784946646341,1.5562104015815548,-0.2024580792682926,0.1963173470846037,1.6630219250190548,3.040965010480183,-0.3055479468368902,2.841856421493903,-0.6313789181592988,-0.5664360232469513,24.16100104252826,-9.312175194597067,4.959699328449328,-15.877519586894593,10.97591890867753,-23.1244787264018,36.71869290442388,37.0062299697487,34.370473537604454,1577395501.0,-27.71724858993157,-51.09959076052154,9.153489
7123,1577395501.65,-0.2959466832602896,1.5369314779142054,9.489009513892196,0.8639564283417488,0.933855437785822,10.69472363043064,-1.208896652891577,1.074762964760385,8.914955869497904,-1.587100145293445,-1.8504072980182928,0.0437294564596036,4.714779737519055,-0.8958025676448171,-2.0450498999618905,8.853819312118903,-1.6384589962842988,-0.7190239138719513,23.83115802488282,-9.494766865079365,4.605435090702944,-16.39762031949532,5.945289408866995,-7.141383136094671,36.67077006020308,37.19792134663192,34.41839638182526,1577395501.0,-27.71724858993157,-51.09959076052154,9.153489
7124,1577395501.66,-0.5688856725181022,2.004997902474752,10.577174168433212,-2.5621461473418434,3.428613567668636,9.424599649717749,0.6250618187881098,1.242357080971322,9.12684271642173,-2.929873582793445,-3.834049876143293,-0.3529990591653963,3.2957123547065548,-3.428761552019817,-0.7785704077743902,0.8887314214939027,3.2901298709032014,-0.3680717654344513,23.83115802488282,-7.851441830738705,4.959699328449328,-16.975510022385023,9.756372363268916,-12.582436954071568,36.57492437176146,36.93434570341749,34.49028064815647,1577395501.0,-27.71724858993157,-51.09959076052154,9.153489
7125,1577395501.67,-0.3917147496665396,2.0361225240567835,8.396056456030868,-2.554963542361375,4.656839019328792,7.730701975157203,0.5843603905654532,2.774646143471322,8.721025535025248,1.8919037609565548,0.2553055926067073,-0.2004111685403963,-4.165835496855945,-0.7737322551448171,1.891717678163109,0.1868271246189026,-0.2041328244092987,2.2106635861280486,25.48037311311001,-9.67735853556166,3.542642377463798,-15.93530855718356,5.335516136162689,-24.824808044519585,36.71869290442388,37.341689879294336,34.46631922604607,1577395501.0,-27.71724858993157,-51.09959076052154,9.153489
7126,1577395501.68,-0.5281842442954459,1.7416357198575647,8.903627207983995,0.0140148389862801,1.6138087092701972,7.460157187559546,2.2459363427138905,0.7371805306783534,9.302816538443215,1.6782807140815548,-0.4160811261432927,0.2573525033346037,-4.654116746855945,4.780466963605183,2.044305568788109,-0.6066299066310974,-2.4013984494092986,1.4172065548780486,25.48037311311001,-9.67735853556166,3.542642377463798,-16.975510022385023,5.945289408866995,-25.504939771766697,36.52700152754066,37.24584419085272,34.41839638182526,1577395501.0,-27.71724858993157,-51.09959076052154,9.153489
7127,1577395501.69,-0.2097554234946646,1.7452270223477993,9.823000645483994,-0.3403270067168442,1.6988028682057448,10.80964531011814,-1.9020180335068115,1.8002060677877287,9.330349857535012,2.2275971203315548,-1.5757490948932926,0.4099403939596037,1.785092237519055,-2.147023270769817,-0.9616758765243902,1.2244247808689028,1.1844169802782012,0.3643501095655486,24.490844060173693,-9.494766865079365,4.959699328449323,-16.975510022385023,5.945289408866995,-25.504939771766697,36.550962949651066,37.05415281396951,34.27462784916285,1577395501.0,-27.71724858993157,-51.09959076052154,9.153489
7128,1577395501.7,-0.1451119786704459,0.956337575326314,10.153400474585556,-3.5509514329863747,4.599378179485042,8.650075412657202,-0.4355695166611083,1.2926353158346031,10.892566440786966,-0.0917388171684451,-1.9114424542682928,0.2573525033346037,1.9071625500190548,-1.1094256145198171,0.1522157250381097,0.6751083746189026,-0.5093086056592988,-1.5429985232469514,23.666236516060103,-9.494766865079365,4.074038734083371,-16.975510022385023,5.945289408866995,-23.46454459002536,36.479078683319855,37.05415281396951,34.370473537604454,1577395501.0,-27.71724858993157,-51.09959076052154,9.153489
7129,1577395501.71,-0.0445555089438834,1.5381285787442835,9.607522496069931,-2.9859198411895,2.7965443293873853,6.44262148199314,0.936308034608422,4.172859913002572,10.392178293814313,2.8074311047065548,2.757746998856707,0.6235634408346037,-3.494448778105945,-2.909962723894817,2.868280178163109,2.414610327743903,-0.7534492306592988,-0.7495414919969513,25.645294621932727,-8.764400183150183,5.136831447322516,-15.357418854293858,5.335516136162689,-26.185071499013805,36.67077006020308,37.10207565819032,34.46631922604607,1577395501.0,-27.71724858993157,-51.09959076052154,9.153489
7130,1577395501.72,0.2619023035561165,1.6243198385099085,10.009748374976182,-0.8071963304473126,1.4222725764576971,8.542336337950172,2.5715477684951407,2.9254808480611656,10.03544224645103,-1.0072661609184452,-1.6673018292682926,0.0742470345846036,-2.578921434355945,-1.2620135051448171,2.502069240663109,2.689268530868903,-2.6455390744092986,1.6308296017530486,25.645294621932727,-8.764400183150183,2.3027175453514714,-17.091087962962966,10.213702317797145,-24.14467631727247,36.57492437176146,37.10207565819032,34.46631922604607,1577395501.0,-27.71724858993157,-51.09959076052154,9.153489
7131,1577395501.73,-0.4180509679282584,2.127102187142721,9.945104930151963,2.415399104122999,-1.0222073185618328,10.85393804083103,-0.6881577918075926,1.1406035104146814,9.456045444693215,0.1371430187690548,-2.369206126143293,0.0589882455221036,0.2897309093940547,3.788645674542683,-0.5039122046493902,4.367735327743903,-1.2264716915967988,0.7153022580030486,23.913618779294183,-9.403471029838215,3.099812080280827,-16.021992012617012,10.594810613237335,-25.33490683995492,36.62284721598228,37.12603708030071,34.49028064815647,1577395501.0,-27.71724858993157,-51.09959076052154,9.153489
7132,1577395501.74,-0.7484507970298209,1.6219256368497523,9.049673509253529,-0.5342573411895002,1.6138087092701972,11.791267990782202,-1.7308326148056394,0.0093432259908534,10.444850730337748,0.8543061047065549,-0.7212569073932926,0.6235634408346037,5.599789503144055,-4.100148270769817,-2.1976377905868905,-1.7662978753810974,-3.1948554806592986,-0.3528129763719513,24.82068707781913,-10.407725217490844,5.313963566195704,-15.472996794871795,11.128362226853604,-66.31284340659342,36.57492437176146,37.0062299697487,34.46631922604607,1577395501.0,-27.71724858993157,-51.09959076052154,9.153489
7133,1577395501.75,0.0248763392006468,0.9898563985685014,7.263599070776962,-1.946836320681688,3.225106426555354,10.36192959966892,-1.5512674902939207,1.9270987557760093,8.74496755162681,3.4788178234565548,1.6896317644817074,0.3183876595846037,6.088070753144055,-1.8113299113948167,-1.5872862280868902,-0.3930068597560974,-2.2793281369092986,-1.1462700076219514,23.501315007237384,-10.042541876526249,3.542642377463798,-15.357418854293858,10.5185889541493,-66.99297513384053,36.33531015065744,37.05415281396951,34.46631922604607,1577395501.0,-27.71724858993157,-51.09959076052154,9.153489
7134,1577395501.76,-0.4419929845298209,1.6913574849942836,8.850954771460557,-1.7481175828887188,3.2873556697194166,9.1480693579697,-0.8808910254501708,2.3389014413228844,9.558996116079934,3.9670990734565534,-0.1719405011432926,0.4404579720846037,0.4423188000190549,-0.6516619426448171,0.6710145531631098,2.200987280868903,-1.0586250119092988,-0.1086723513719513,25.48037311311001,-9.67735853556166,4.605435090702943,-17.091087962962966,10.213702317797145,-66.31284340659342,36.71869290442388,37.10207565819032,34.562164914487674,1577395501.0,-27.71724858993157,-51.09959076052154,9.153489
7135,1577395501.77,0.1314183130776004,1.5560850911954551,10.121078752173446,-2.3191346788359843,2.5331821467701974,8.48487549810642,0.2192446373916255,1.6206409432760094,10.080932077993998,0.0455902843940548,-2.8269697980182924,0.3031288705221037,-3.280825731230945,-3.062550614519817,2.379998928163109,-0.2861953363185974,-1.5163886837842986,-0.5511772341844514,25.48037311311001,-9.67735853556166,4.605435090702943,-17.033298992673995,10.97591890867753,-66.65290927021697,36.694731482313486,37.05415281396951,34.46631922604607,1577395501.0,-27.71724858993157,-51.09959076052154,9.153489
7136,1577395501.78,-0.7963348302329458,2.4000411764005336,10.29226417087462,-2.6483374071074683,4.223488518840511,8.970898435118139,0.9458848412490468,1.7451394296041345,10.313169639029155,2.2886322765815548,-1.4841963605182926,0.3489052377096037,-0.7478667468559451,-0.7432146770198171,0.2437684594131097,1.2549423589939026,-1.1501777462842988,0.7153022580030487,23.83115802488282,-11.138091899420024,3.542642377463798,-17.264454873829877,12.805238726790453,-69.37343617920541,36.57492437176146,36.910384281307095,34.370473537604454,1577395501.0,-27.71724858993157,-51.09959076052154,9.153489
7137,1577395501.79,-0.3965031529868521,1.360957655892721,9.478235606421494,-2.7369228685332496,2.497269121867854,7.220737021543921,2.320156594178734,1.711620606361947,10.15036392613853,2.8989838390815548,-0.9043623761432926,-0.0783408560403963,-3.799624559355945,-4.252736161394817,2.074823146913109,1.4380478277439026,-1.9131171994092988,0.7458198361280487,24.32592255135097,-8.764400183150183,3.7197744963369854,-16.68656517094017,12.805238726790453,-62.57211890673429,36.52700152754066,37.0062299697487,34.41839638182526,1577395501.0,-27.71724858993157,-51.09959076052154,9.153489
7138,1577395501.8,-0.0493439122641959,1.9762674825528768,10.110304844702744,-0.4145472581816876,1.5611362727467597,9.720283554747043,2.4757797020888908,1.8409074960103844,10.049807456411967,2.3496674328315548,-0.6907393292682926,0.0742470345846036,-3.341860887480945,2.613718916730183,1.891717678163109,-0.6676650628810974,-0.7839668087842988,0.0439155392530487,24.16100104252826,-9.312175194597067,5.313963566195704,-16.68656517094017,12.805238726790453,-62.57211890673429,36.67077006020308,37.0062299697487,34.370473537604454,1577395501.0,-27.71724858993157,-51.09959076052154,9.153489
7139,1577395501.81,0.0440299524818978,1.4962300496915486,10.644211814917588,3.1001407789276865,-1.0605145451243327,10.92336988897556,-0.8413866980575927,1.9749827889791345,9.463228049673686,-1.388735887480945,-1.5299727277057926,-0.1088584341653963,-0.6105376452934451,3.727610518292683,-0.4581358374618902,1.8042587652439028,-0.0820625119092987,-0.9021293826219512,24.16100104252826,-9.312175194597067,5.313963566195704,-17.091087962962966,10.213702317797145,-46.24895745280361,36.57492437176146,36.958307125527895,34.442357803935664,1577395501.0,-27.71724858993157,-51.09959076052154,9.153489
7140,1577395501.82,0.237960286954554,1.3346214376310024,10.237197532691026,1.52715028820503,1.3097450984303534,10.237431113340795,-2.0492614356064207,0.9789948983541348,9.927703171743998,-3.296084520293445,-2.277653391768293,0.1047646127096036,4.470639112519055,-0.8958025676448171,-2.3197081030868905,0.1868271246189026,-1.6079414181592988,-0.5664360232469513,24.16100104252826,-9.312175194597067,4.605435090702943,-17.206665903540905,10.213702317797145,-24.824808044519585,36.71869290442388,37.0062299697487,34.370473537604454,1577395501.0,-27.71724858993157,-51.09959076052154,9.153489
7141,1577395501.83,-0.3845321446860709,1.8230385763028771,9.854125267066024,-0.9293006151152814,2.535576348430354,9.21989540777439,-1.812235471250952,1.328548340736947,8.574979233755718,-0.8241606921684451,-1.8198897198932928,-0.3835166372903963,5.721859815644055,-1.3535662395198171,-1.0684873999618902,-0.2404189691310974,-0.7229316525342988,1.1120307736280486,24.82068707781913,-8.946991853632479,4.251170852956559,-17.264454873829877,9.756372363268914,-17.683424908424907,36.71869290442388,37.19792134663192,34.27462784916285,1577395501.0,-27.71724858993157,-51.09959076052154,9.153489
7142,1577395501.84,-0.2839756749595084,2.5341164693692835,8.642659227026963,-2.6124243822051247,3.36157592118426,10.290103549864234,0.6322444237685781,-0.0744538321146143,8.184724363150249,2.0444916515815548,0.0722001238567073,-0.1393760122903963,1.8461273937690548,-5.412404130144817,0.6404969750381098,-0.6066299066310974,1.4438163943407012,1.3866889767530486,23.99607953370554,-8.399216842185593,4.428302971829755,-17.322243844118844,9.299042408740684,-26.185071499013805,36.57492437176146,37.0062299697487,34.46631922604607,1577395501.0,-27.71724858993157,-51.09959076052154,9.153489
7143,1577395501.85,-0.2241206334556021,1.5776329061368612,8.666601243628525,-3.574893449587937,2.4278372737233225,7.300942777159156,0.802232741639672,1.5500119943014,9.68948010655845,1.7850922375190548,-0.1414229230182926,-0.1088584341653963,-1.663394090605945,-3.398243973894817,1.4034364281631095,1.7584823980564028,0.6198417849657012,0.4101264767530487,25.48037311311001,-9.67735853556166,6.731020517181234,-16.744354141229145,7.317279272451687,-26.185071499013805,36.62284721598228,36.9822685476383,34.49028064815647,1577395501.0,-27.71724858993157,-51.09959076052154,9.153489
7144,1577395501.86,-0.2336974400962271,1.811067568002096,10.270716355933212,-0.8694455736113751,1.132574175578791,9.612544480040016,2.126226259706078,2.7507041268697594,10.466398545279157,1.0068939953315548,-0.0193526105182926,-0.0783408560403963,-1.6328765124809452,0.7826642292301829,0.1827333031631097,3.055479468368903,1.3827812380907012,-0.8410942263719513,24.82068707781913,-9.312175194597067,5.313963566195704,-16.339831349206353,6.402619363395226,-9.521844181459564,36.81453859286549,36.910384281307095,34.46631922604607,1577395501.0,-27.71724858993157,-51.09959076052154,9.153489
7145,1577395501.87,0.0081169275795531,1.7775487447599083,11.70723735202696,2.2621701978729987,-0.4308395085032392,11.827181015684546,0.8453283715224844,1.7044380013814782,9.870242331900249,-2.990908739043445,-4.413883860518292,-0.0783408560403963,-1.1445952624809452,1.5761212604801829,0.1216981469131097,2.353575171493903,-1.4858711056592988,-1.0241996951219514,25.15053009546457,-10.407725217490844,6.022492041688465,-15.472996794871795,9.60392904509284,-26.185071499013805,36.71869290442388,36.86246143708629,34.46631922604607,1577395501.0,-27.71724858993157,-51.09959076052154,9.153489
7146,1577395501.88,0.0081169275795531,1.8804994161466275,10.320994590796492,2.3914570875214363,0.5627541804616035,12.509528488829076,-2.2791047949814205,1.8385132943502285,9.096915195669778,-1.6176177234184452,-2.430241282393293,0.0437294564596036,2.5785492687690548,2.918894697980183,-1.4041807593368902,1.3770126714939026,-2.4929511837842986,0.5627143673780487,24.490844060173693,-9.312175194597067,3.8969066152101823,-15.357418854293858,9.908815681444992,-26.185071499013805,36.67077006020308,36.86246143708629,34.562164914487674,1577395501.0,-27.71724858993157,-51.09959076052154,9.153489
7147,1577395501.89,-0.0756801305259151,1.9870413900235804,9.53928774875548,-1.6523495164824686,2.5056488276784004,10.563042539122046,-1.1741807288193111,2.0719479562154626,10.06058136388267,0.7017182140815548,0.4384110613567074,-0.0020469107278963,4.028134229706555,-3.794972489519817,-1.0379698218368902,0.8124374761814026,1.5811454959032014,0.0286567501905486,25.31545160428729,-10.955500228937728,4.782567209576139,-17.322243844118844,5.640402772514843,-20.74401768103691,36.59888579387187,37.07811423607991,34.514242070266874,1577395501.0,-27.71724858993157,-51.09959076052154,9.153489
7148,1577395501.9,-0.1858134068931021,1.9978152974942835,7.491048228491806,-3.957965715212937,2.8444283625905102,8.422626254942358,0.1007316552138906,0.3349546517721034,8.797639988150248,3.5703705578315548,1.842219655106708,0.0742470345846036,2.1207855968940548,-0.7432146770198171,0.0911805687881097,0.6140732183689026,2.5424492068407014,-0.3528129763719513,24.82068707781913,-7.486258489774114,4.605435090702943,-16.859932081807084,5.945289408866995,-24.824808044519585,36.67077006020308,37.0062299697487,34.46631922604607,1577395501.0,-27.71724858993157,-51.09959076052154,9.153489
7149,1577395501.91,-0.7101435704673209,2.1414673971036584,8.85574317478087,-3.584470256228562,2.554729961711604,7.469733994200171,2.3608580224013904,0.7970355721822596,9.35788317662681,2.3191498547065548,0.7130692644817074,-0.5971396841653963,-1.6633940906059452,-1.6587420207698171,1.6170594750381098,-0.3624892816310974,1.5353691287157012,-2.2449028201219514,22.511785954301075,-9.312175194597067,4.605435090702943,-16.859932081807084,8.07949586333207,-19.38375422654269,36.71869290442388,37.05415281396951,34.46631922604607,1577395501.0,-27.71724858993157,-51.09959076052154,9.153489
7150,1577395501.92,0.2044414637123661,1.3250446309903774,8.515766539038681,-0.7832543138457502,1.927449126750666,7.022018283750953,2.020881386659203,1.9821653939596031,8.69468931676353,1.3425873547065548,1.0029862566692074,-0.0478232779153963,-2.945132371855945,-3.062550614519817,1.1287782250381098,3.574278296493903,0.5588066287157012,-1.5429985232469514,24.738226323407773,-9.038287688873623,4.516869031266349,-17.322243844118844,8.689269136036378,-20.74401768103691,36.52700152754066,37.19792134663192,34.27462784916285,1577395501.0,-27.71724858993157,-51.09959076052154,9.153489
7151,1577395501.93,0.3864007898842415,1.9331718526700647,9.748780394019152,2.3818802808808117,0.5268411555592603,9.824431326963843,2.745127388856469,2.5088897591939783,8.990373221792826,-0.7631255359184451,0.8961747332317074,0.1657997689596037,-1.938052293730945,2.842600752667683,-0.0156309546493902,1.1481308355564024,0.3299247927782012,-1.3598930544969514,24.98560858664185,-9.129583524114771,4.782567209576139,-17.322243844118844,12.652795408614375,-64.95257995209919,36.81453859286549,36.958307125527895,34.41839638182526,1577395501.0,-27.71724858993157,-51.09959076052154,9.153489
7152,1577395501.94,0.5899079309975228,1.176604128060689,9.6530123276129,3.1623900220917487,-1.0389667301829266,11.252572617247043,-0.4834535498642333,1.7834466561666344,10.531041990103374,-1.5260649890434452,-1.5147139386432926,0.0742470345846036,0.8695648937690549,3.529246260480183,-2.0450498999618905,-1.1254287347560974,0.6808769412157012,1.1120307736280486,24.490844060173693,-8.216625171703297,4.605435090702943,-17.322243844118844,13.872341954022987,-66.99297513384053,36.38323299487824,37.10207565819032,34.22670500494204,1577395501.0,-27.71724858993157,-51.09959076052154,9.153489
7153,1577395501.95,-0.0684975255454459,1.763183534798971,10.423945262183212,1.5510923048065928,1.8460462703053533,11.91337227545017,-0.7635751441025146,2.188066736733041,11.639557358755717,-1.6481353015434452,-1.9724776105182928,0.0742470345846036,2.5175141125190548,-1.9028826457698167,-0.4886534155868902,1.3770126714939026,-2.4319160275342986,0.0133979611280486,23.666236516060103,-7.668850160256409,3.3655102585906094,-17.264454873829877,12.805238726790453,-63.93238236122851,36.67077006020308,36.86246143708629,34.370473537604454,1577395501.0,-27.71724858993157,-51.09959076052154,9.153489
7154,1577395501.96,-0.3749553380454459,2.056473238168112,9.381270439185167,-1.6403785081816875,2.935408025676448,12.068995383360328,-0.9814474951767332,2.3412956429830407,9.70264821568931,2.5785492687690548,0.4536698504192074,-0.0783408560403963,2.6090668468940548,-1.0178728801448171,-1.0684873999618902,-0.6676650628810974,2.2677910037157014,1.1120307736280486,24.16100104252826,-8.946991853632477,5.491095685068892,-18.651390160765164,9.146599090564608,-19.04368836291913,36.62284721598228,36.86246143708629,34.562164914487674,1577395501.0,-27.71724858993157,-51.09959076052154,9.153489
7155,1577395501.97,-0.3653785314048209,1.4902445455411586,9.35373712009337,-4.052536680789109,3.119761553508479,7.297351474668921,0.8094153466201413,0.3445314584127288,9.720604728140485,1.8613861828315548,-0.6297041730182926,-0.3835166372903963,-1.449771043730945,-0.743214677019817,0.9304139672256097,-0.5455947503810974,0.8944999880907012,-1.4972221560594514,24.16100104252826,-7.851441830738705,6.376756279434842,-16.570987230362235,9.299042408740686,-21.76421527190758,36.38323299487824,36.9822685476383,34.46631922604607,1577395501.0,-27.71724858993157,-51.09959076052154,9.153489
7156,1577395501.98,-0.5186074376548209,1.887682021127096,9.67934854587462,-1.5326394334746565,1.1493335871998849,8.228695920469702,3.0647533104873284,2.899144629799447,9.915732163443217,2.9600189953315548,2.879817311356707,-0.3835166372903963,-4.135317918730945,-1.0789080363948171,1.0067079125381098,-1.2780166253810974,0.8944999880907012,-1.0852348513719514,24.16100104252826,-7.851441830738705,6.376756279434842,-16.0508864977615,10.823475590501452,-26.185071499013805,36.71869290442388,36.86246143708629,34.27462784916285,1577395501.0,-27.71724858993157,-51.09959076052154,9.153489
7157,1577395501.99,-0.0924395421470083,0.9515491720060014,8.827012754858993,0.99084911633003,1.1134205622975408,9.023570871641576,0.3904300560927969,1.172925232826791,9.25493250524009,-1.8617583484184448,1.903254811356708,-0.5361045279153963,-1.6939116687309452,0.9352521198551828,0.9151551781631098,1.4075302496189026,-2.5539863400342986,-0.6274711794969513,24.490844060173693,-8.216625171703297,4.251170852956559,-16.0508864977615,10.823475590501452,-26.185071499013805,36.67077006020308,36.81453859286549,34.41839638182526,1577395501.0,-27.71724858993157,-51.09959076052154,9.153489
7158,1577395502.0,-0.2588365575278677,1.9810558858731897,9.912783207739851,3.476030439572217,-0.7301147160227703,10.189547080137672,2.650556423280297,4.05314982999476,9.264509311880715,-1.785464403105945,-0.8585860089557926,-0.1088584341653963,-2.731509324980945,3.742869307355183,-1.0684873999618902,-1.7968154535060974,-3.8967597775342986,1.3561713986280486,24.655765568996408,-9.312175194597067,4.251170852956562,-15.646363705738707,9.45148572691676,-25.84500563539025,36.76661574864468,37.0062299697487,34.27462784916285,1577395502.0,-27.717182046321525,-51.09966535682925,10.440068
7159,1577395502.01,0.1948646570717415,1.581224208627096,9.27712266696837,1.687561799435499,0.5017020381276196,10.24700791998142,-1.1753778296493895,0.7467573373189789,8.973613810171733,-4.455752489043445,-4.047672923018292,-0.0173056997903963,1.2052582531440548,-0.0870867473323169,-1.8314268530868905,-1.0033584222560974,0.6351005740282012,1.8597114376905488,23.99607953370554,-9.859950206043958,5.491095685068893,-15.675258190883191,9.375264067828722,-26.015038567202023,36.52700152754066,37.03019139185911,34.34651211549405,1577395502.0,-27.717182046321525,-51.09966535682925,10.440068
7160,1577395502.02,-0.1235641637290396,1.6817806783536586,10.637029209937118,-1.925288505740281,2.7295066829030104,11.95886210699314,-2.9782116797470466,0.6414124642721034,10.995517112173683,0.8237885265815549,-2.369206126143293,-0.2309287466653963,3.921322706269055,-3.306691239519817,-1.2821104468368902,-1.9799209222560967,0.6808769412157012,0.3796088986280487,23.99607953370554,-9.859950206043958,5.491095685068893,-17.322243844118844,8.07949586333207,-12.582436954071568,36.71869290442388,37.05415281396951,34.46631922604607,1577395502.0,-27.717182046321525,-51.09966535682925,10.440068
7161,1577395502.03,-0.5569146642173208,1.8565573995450648,9.157412583960555,-3.692209330935593,2.360799627238947,10.838375730040015,-2.973423276426734,0.2942532235494471,10.53343619176353,2.3191498547065548,2.513606373856707,0.0742470345846036,3.982357862519055,-2.848927567644817,-0.3055479468368902,0.1868271246189026,-2.7981269650342986,-1.2683403201219514,24.82068707781913,-9.67735853556166,4.605435090702943,-15.704152676027675,5.335516136162689,-12.582436954071568,36.67077006020308,37.0062299697487,34.17878216072124,1577395502.0,-27.717182046321525,-51.09966535682925,10.440068
7162,1577395502.04,-0.4779060094321646,1.5692532003263149,10.568794462622666,-4.521800206179734,1.831681060344416,7.698380252745093,0.6130908104873282,2.144971106850228,9.96481329747642,1.7698334484565548,0.5452225847942073,-0.3682578482278963,-2.838320848418445,-2.131764481707317,1.4949891625381098,0.0952743902439026,-0.6466377072217988,-0.6732475466844514,24.490844060173693,-8.946991853632479,5.491095685068892,-16.137569953194955,7.393500931539725,-19.553787158354467,36.43115583909905,37.03019139185911,34.46631922604607,1577395502.0,-27.717182046321525,-51.09966535682925,10.440068
7163,1577395502.05,-0.4970596227134146,1.3896880758145962,10.091151231421494,0.6293246656464363,1.2067944270436346,9.540718430235328,1.989756765077172,2.0420204354635096,10.140787119497904,-0.6105376452934451,2.116877858231707,-0.4750693716653963,-1.9990874499809448,-0.6821795207698171,0.8236024437881098,-0.0878310785060974,-0.7229316525342988,0.4711616330030487,23.666236516060103,-7.668850160256409,5.491095685068893,-16.802143111518113,10.366145635973224,-21.764215271907577,36.71869290442388,37.10207565819032,34.27462784916285,1577395502.0,-27.717182046321525,-51.09966535682925,10.440068
7164,1577395502.06,0.3480935633217416,1.6506560567716273,11.12065794528868,2.27414120617378,1.0487771174733225,11.37228270025486,1.379235341737328,3.294187903725228,9.848694516958842,-4.272647020293445,-1.3316084698932926,-0.3835166372903963,-2.365298387480945,3.712351729230183,-0.6412413062118902,7.968809546493903,-1.3027656369092988,1.1425483517530486,23.666236516060103,-7.668850160256409,5.491095685068893,-15.184051943426944,11.585692181381836,-22.444346999154693,36.57492437176146,37.0062299697487,34.370473537604454,1577395502.0,-27.717182046321525,-51.09966535682925,10.440068
7165,1577395502.07,0.0224821375404911,1.7284676107267054,10.06242081149962,4.167954719357374,-0.1626889225657392,10.141663046934546,-0.7516041358017332,0.9622354867330408,8.321193857779154,-3.509707567168445,-1.5452315167682928,-0.3377402701028963,-2.456851121855945,4.963572432355183,-1.5262510718368902,0.1563095464939026,-1.4858711056592988,0.5321967892530487,24.57330481458505,-9.220879359355925,5.048265387885918,-15.184051943426944,11.585692181381836,-22.444346999154693,36.62284721598228,37.19792134663192,34.46631922604607,1577395502.0,-27.717182046321525,-51.09966535682925,10.440068
7166,1577395502.08,-0.0756801305259146,1.6554444600919398,8.965876451148057,0.4760957593964369,1.5419826594655095,9.229472214415011,-1.4758501379989988,0.0955344857564789,8.893408054556499,-0.6715728015434451,0.0416825457317073,-0.1088584341653963,2.1207855968940548,-0.7584734660823171,-0.7785704077743902,1.1786484136814028,-0.2041328244092988,-1.0394584841844514,25.15053009546457,-9.312175194597067,4.959699328449328,-16.253147893772894,10.89969724958949,-68.52327152014652,36.479078683319855,36.910384281307095,34.514242070266874,1577395502.0,-27.717182046321525,-51.09966535682925,10.440068
7167,1577395502.09,-0.1211699620688833,1.993026894173971,7.522172850073837,-2.1383724534941875,2.2770025691334785,11.137650937559544,-0.691749094297827,1.1322238046041346,9.726590232290873,1.9224213390815548,1.6896317644817074,0.4709755502096037,3.3414887218940548,-3.215138505144817,-0.1834776343368902,0.2783798589939026,-7.680939465034299,-1.4819633669969514,24.490844060173693,-9.312175194597067,3.8969066152101823,-17.206665903540905,10.823475590501452,-60.19165786136941,36.52700152754066,37.05415281396951,34.46631922604607,1577395502.0,-27.717182046321525,-51.09966535682925,10.440068
7168,1577395502.1,-0.2408800450766959,1.29152580774819,9.207690818823838,-3.467154374880906,2.171657696086603,10.531917917540015,-2.868078403379859,1.7666872445455408,8.907773264517434,-0.2138091296684451,-1.8504072980182928,-0.4445517935403963,1.0221527843940548,1.5456036823551829,-0.2750303687118902,-1.3695693597560974,1.2301933474657012,-0.5969536013719513,24.490844060173693,-9.312175194597067,3.8969066152101823,-16.39762031949532,13.26256868131868,-68.35323858833475,36.67077006020308,36.910384281307095,34.46631922604607,1577395502.0,-27.717182046321525,-51.09966535682925,10.440068
7169,1577395502.11,-0.309114792391149,1.5740416036466274,10.259942448462509,-3.294771855349656,2.509240130168636,9.064272299864232,0.3616996361709219,0.3493198617330408,9.563784519400247,0.7627533703315548,0.4384110613567075,-0.2004111685403963,-1.7549468249809452,-2.452199052019817,0.4268739281631097,0.3394150152439026,0.4977714724657012,0.7458198361280487,23.831158024882814,-9.677358535561662,4.605435090702939,-17.322243844118844,12.652795408614375,-58.83139440687517,36.69473148231347,36.86246143708629,34.17878216072124,1577395502.0,-27.717182046321525,-51.09966535682925,10.440068
7170,1577395502.12,-0.2241206334556021,2.050487734017721,11.870043064917589,-3.667070213503953,1.717956481486994,8.761405789854468,3.4346574669814687,2.0958899728170253,10.298804429068216,-2.044863817168445,-0.0803877667682926,-0.5971396841653963,-3.830142137480945,-2.742116044207317,0.8083436547256098,0.5377792730564026,-1.5316474728467988,0.3948676876905487,24.65576556899641,-9.859950206043958,4.428302971829755,-16.85993208180708,13.26256868131868,-64.27244822485207,36.479078683319855,36.910384281307095,34.46631922604607,1577395502.0,-27.717182046321525,-51.09966535682925,10.440068
7171,1577395502.13,0.4606210413490853,1.724876308236471,10.718432066382432,3.011555317501905,0.8668177913014472,11.106526315977517,0.7519545067763906,2.3748144662252284,9.233384690298683,-1.1293364734184452,2.299983326981707,-0.4140342154153963,-1.5413237781059452,6.245310713605183,-0.1834776343368902,1.8652939214939024,3.0002128787157014,-1.1462700076219514,24.98560858664185,-8.034033501221,4.428302971829755,-17.264454873829877,10.366145635973224,-25.84500563539025,36.57492437176146,37.0062299697487,34.46631922604607,1577395502.0,-27.717182046321525,-51.09966535682925,10.440068
7172,1577395502.14,0.2451428919350228,1.128720094857564,10.153400474585556,3.938111359982374,0.0743370417897285,10.201518088438451,-1.7906876563095455,0.5408559945455409,8.814399399771341,-2.960391160918445,0.1637528582317073,-0.5971396841653963,-1.4802886218559452,5.451853682355183,-1.0379698218368902,0.1563095464939026,-0.9365546994092988,-1.6040336794969514,24.98560858664185,-8.034033501221,4.428302971829755,-17.091087962962966,10.213702317797145,-23.46454459002536,36.67077006020308,37.05415281396951,34.562164914487674,1577395502.0,-27.717182046321525,-51.09966535682925,10.440068
7173,1577395502.15,0.1182502039467415,1.906835634408346,9.242406742896105,1.54031839733589,1.533602953654963,9.34080259161228,-1.6901311865829831,2.8009823617330407,8.20986348058189,0.0913666515815547,2.132136647294208,-0.3377402701028963,1.6172455578315548,0.2638654011051828,-0.9464170874618902,-0.6676650628810974,0.3146660037157013,0.1659858517530487,24.738226323407773,-7.942737665979854,5.22539750675911,-17.206665903540905,8.07949586333207,-24.824808044519585,36.57492437176146,37.10207565819032,34.39443495971486,1577395502.0,-27.717182046321525,-51.09966535682925,10.440068
7174,1577395502.16,-0.1546887853110709,1.715299501595846,8.161424693335556,-1.58770607165825,1.8580172786061344,10.112932627012672,-1.4267690039657956,2.161730518471322,9.168741245474466,0.3660248547065549,1.1708329363567074,-0.3529990591653963,3.616146925019055,1.0268048542301829,-0.5496885718368902,0.4920029058689026,3.3969413943407014,1.7834174923780486,25.15053009546457,-9.312175194597067,4.959699328449328,-17.206665903540905,5.335516136162689,-22.784412862778247,36.81453859286549,37.10207565819032,34.370473537604454,1577395502.0,-27.717182046321525,-51.09966535682925,10.440068
7175,1577395502.17,-0.1115931554282584,1.1047780782560015,8.630688218726181,-1.6858683397246563,2.1788403010670723,9.10497372808689,0.0911548485732656,2.164124720131478,9.226202085318215,0.7932709484565549,1.4149735613567074,-0.6581748404153963,1.8461273937690548,-0.7432146770198171,-0.3665831030868902,0.4614853277439026,1.3827812380907012,1.5697944455030486,25.31545160428729,-9.494766865079365,4.428302971829755,-16.859932081807084,8.384382499684225,-26.185071499013805,36.57492437176146,37.10207565819032,34.41839638182526,1577395502.0,-27.717182046321525,-51.09966535682925,10.440068
7176,1577395502.18,-0.4419929845298209,2.0121805074552213,10.148612071265244,-4.283577140994187,2.605008196574885,9.67239952154392,1.676116347596703,0.9789948983541348,9.348306369986185,-0.1832915515434451,0.1027177019817073,-0.3835166372903963,-1.4802886218559452,-2.391163895769817,0.5489442406631098,-0.6676650628810974,2.5119316287157014,0.3490913205030487,25.31545160428729,-9.494766865079365,4.428302971829755,-16.39762031949532,7.7746092269799165,-26.185071499013805,36.71869290442388,36.910384281307095,34.41839638182526,1577395502.0,-27.717182046321525,-51.09966535682925,10.440068
7177,1577395502.19,-0.2540481542075553,2.184563026986471,11.290646263159775,-3.907687480349656,2.5283937434498847,9.126521543028296,1.7251974816299065,2.8273185799947598,11.221769169058453,-1.4802886218559452,0.9724686785442074,-0.5666221060403963,-2.594180223418445,0.1570538776676828,0.1216981469131097,1.7432236089939028,0.4825126834032013,-1.9397270388719516,24.078540288116898,-8.855696018391331,3.631208436900392,-16.137569953194955,8.308160840596186,-26.015038567202023,36.62284721598228,37.03019139185911,34.32255069338365,1577395502.0,-27.717182046321525,-51.09966535682925,10.440068
7178,1577395502.2,-0.3486191197837271,0.956337575326314,11.214031810034776,-1.62601329822075,0.7878091365162909,9.90942548589939,-0.1339001074814208,0.8999862435689784,9.946856785025249,-2.777285692168445,1.811702076981708,-0.1393760122903963,-2.609439012480945,0.5995587604801829,1.1287782250381098,-2.437684594131097,2.0846855349657014,0.0133979611280486,23.666236516060103,-8.764400183150183,6.553888398308031,-15.010685032560032,5.335516136162689,-25.504939771766697,36.71869290442388,36.86246143708629,34.46631922604607,1577395502.0,-27.717182046321525,-51.09966535682925,10.440068
7179,1577395502.21,-0.5760682774985709,2.0840065572599085,11.436692564429306,3.1767552320526864,0.8979424128834784,12.375453195860327,0.7232240868545157,2.4250927010885093,10.69145350133384,-1.7702056140434452,1.903254811356708,-0.4445517935403963,-1.8770171374809448,1.5456036823551829,-0.2445127905868902,2.078916968368903,1.1386406130907012,-0.0171196169969513,25.81021613075545,-9.67735853556166,4.605435090702943,-15.010685032560032,5.335516136162689,-25.504939771766697,36.479078683319855,37.0062299697487,34.27462784916285,1577395502.0,-27.717182046321525,-51.09966535682925,10.440068
7180,1577395502.22,-0.4707234044516959,1.6817806783536586,10.862084165991806,2.7865003614472177,1.1589103938405096,12.356299582579076,0.6011198021865469,3.6174051278463217,9.008329734243995,-2.594180223418445,-0.5534102277057926,-0.3377402701028963,-1.1751128406059452,4.200632979230183,-0.5496885718368902,1.5601181402439026,-1.2722480587842988,0.9289253048780488,25.81021613075545,-9.67735853556166,4.605435090702943,-15.010685032560032,10.5185889541493,-22.784412862778247,36.550962949651066,37.19792134663192,34.41839638182526,1577395502.0,-27.717182046321525,-51.09966535682925,10.440068
7181,1577395502.23,-0.2360916417563834,1.839797987923971,9.803847032202745,1.358359071164015,1.7670376155201972,9.213909903623998,-1.4040240881943122,2.027655225502572,8.7509530557772,0.4270600109565549,-1.2705733136432926,0.2268349252096037,1.7087982922065548,1.1336163776676829,-0.4428770483993902,0.0189804449314026,0.1925956912157012,0.2575385861280486,24.82068707781913,-9.312175194597067,4.959699328449328,-15.010685032560032,10.5185889541493,-24.824808044519585,36.71869290442388,37.10207565819032,34.46631922604607,1577395502.0,-27.717182046321525,-51.09966535682925,10.440068
7182,1577395502.24,-0.1953902135337271,2.0840065572599085,9.722444175757431,-0.5605935594512189,2.272214165813166,8.286156760313453,-0.1698131323837645,1.915127747475228,9.219019480337748,-0.2138091296684451,-0.3550459698932927,-0.1088584341653963,3.0057953625190548,0.8742169636051829,0.0606629906631097,0.8276962652439026,2.1152031130907014,-0.7495414919969513,24.65576556899641,-10.225133547008545,4.428302971829755,-16.802143111518113,13.110125363142604,-67.33304099746408,36.71869290442388,37.05415281396951,34.370473537604454,1577395502.0,-27.717182046321525,-51.09966535682925,10.440068
7183,1577395502.25,0.0799429773842406,1.1454795064786576,8.238039146460556,-1.89416388415825,1.3887537532155096,9.988434140684546,0.0193287987685781,2.714791101967416,9.525477292837747,-2.899356004668445,-0.9348799542682926,0.1657997689596037,2.1818207531440548,-2.085988114519817,-0.5496885718368902,1.9263290777439024,0.9860527224657012,-1.817656726371952,23.666236516060103,-9.859950206043958,3.3655102585906094,-17.322243844118844,12.652795408614375,-69.71350204282896,36.479078683319855,36.86246143708629,34.46631922604607,1577395502.0,-27.717182046321525,-51.09966535682925,10.440068
7184,1577395502.26,-0.088848239656774,1.8074762655118617,9.479432707251572,-3.289983452029344,2.6145850032155105,11.666769504454075,-2.532890170957984,1.510507666908822,9.393796201529153,0.3965424328315548,0.0874589129192073,0.1505409798971036,1.9376801281440548,-1.1399431926448171,0.3048036156631097,0.4920029058689026,1.6269218630907012,-0.9326469607469512,24.16100104252826,-8.946991853632479,6.022492041688465,-16.455409289784292,11.585692181381836,-68.6933044519583,36.59888579387187,37.05415281396951,34.27462784916285,1577395502.0,-27.717182046321525,-51.09966535682925,10.440068
7185,1577395502.27,-0.2504568517173209,1.9786616842130336,10.36169601901915,-2.891348875613328,1.7335187922780098,9.30848086920017,0.3054358971572505,0.6773254891744471,9.654764182486186,1.4951752453315548,-0.6907393292682926,-0.1393760122903963,-1.7091704577934452,0.3859357136051828,0.1827333031631097,-1.2017226800685974,3.0002128787157014,-0.3375541873094513,24.490844060173693,-8.946991853632479,4.251170852956559,-16.88882656695157,11.204583885941643,-67.16300806565229,36.57492437176146,37.0062299697487,34.32255069338365,1577395502.0,-27.717182046321525,-51.09966535682925,10.440068
7186,1577395502.28,-0.5210016393149771,2.03851672571694,10.5340785385504,-3.4575775682402807,1.7023941706959784,9.543112631895482,-0.184178342344702,1.4314990121236657,10.279650815786969,1.5867279797065548,4.070002858231708,-0.3835166372903963,-1.7244292468559452,-3.947560380144817,1.1898133812881098,0.5530380621189026,1.9320976443407007,0.4101264767530487,24.16100104252826,-7.486258489774114,4.959699328449328,-19.98053647741148,8.07949586333207,-26.185071499013805,36.86246143708629,37.10207565819032,34.08293647227963,1577395502.0,-27.717182046321525,-51.09966535682925,10.440068
7187,1577395502.29,-0.3677727330649771,1.5093981588224086,9.686531150855089,-1.3147670824004376,2.379953240520197,10.622897580625953,0.9889804711318594,0.3253778451314784,9.202260068716653,-0.0307036609184451,2.757746998856707,-0.2919639029153963,-1.7549468249809452,3.346140791730183,-0.5191709937118902,1.2854599371189026,1.7489921755907012,-1.817656726371952,23.171471989591947,-7.486258489774114,5.668227803942081,-16.28204237891738,8.07949586333207,-19.38375422654269,36.81453859286549,37.0062299697487,34.562164914487674,1577395502.0,-27.717182046321525,-51.09966535682925,10.440068
7188,1577395502.3,-0.0002627782309932,1.6925545858243618,10.646606016577744,2.374697675900342,0.9194902278248848,10.634868588926734,1.6018960961318591,1.692466993080697,9.314787546743997,-0.5647612781059452,2.025325123856707,-0.2004111685403963,-0.8394194812309451,4.505808760480183,-0.2445127905868902,2.384092749618903,1.3827812380907012,-0.8105766482469513,23.501315007237384,-7.121075148809524,3.542642377463798,-16.10867546805047,10.97591890867753,-25.84500563539025,36.69473148231347,37.24584419085272,34.562164914487674,1577395502.0,-27.717182046321525,-51.09966535682925,10.440068
7189,1577395502.31,-0.2384858434165396,1.9092298360685025,8.360143431128526,2.857129310421827,1.132574175578791,8.562687052061499,-0.6402737586044687,3.1637039132467124,8.519912595572123,0.9458588390815548,2.849299733231707,-0.2614463247903963,0.4270600109565548,1.3472394245426829,-0.5649473608993902,1.6974472418064026,1.7032158084032014,-0.2612602419969513,24.16100104252826,-9.312175194597067,4.605435090702943,-16.33983134920635,7.774609226979917,-20.74401768103691,36.38323299487824,37.00622996974871,34.442357803935664,1577395502.0,-27.717182046321525,-51.09966535682925,10.440068
7190,1577395502.32,-0.0852569371665396,1.466302528939596,8.862925779761339,1.0435215528534676,1.937025933391291,7.448186179258765,1.0057398827529531,1.797811866127572,7.610115964712748,-1.4955474109184452,0.8046219988567074,-0.6581748404153963,2.4869965343940548,5.757029463605183,-0.5191709937118902,1.3159775152439026,3.915740222465701,1.4172065548780486,24.65576556899641,-8.399216842185593,5.136831447322516,-16.39762031949532,5.335516136162689,-15.302963863060016,36.57492437176146,37.0062299697487,34.27462784916285,1577395502.0,-27.717182046321525,-51.09966535682925,10.440068
7191,1577395502.33,0.1254328089272093,1.8038849630216276,7.675401756323837,0.0044380323456551,2.2219359309498845,8.00603516607517,-0.3421956519150145,0.3325604501119471,8.13923453160728,-0.4579497546684451,0.4994462176067073,-0.3835166372903963,2.0292328625190548,-0.4685564738948171,-0.6412413062118902,2.597715796493903,2.6340019412157014,0.8984077267530487,24.32592255135097,-6.938483478327226,4.782567209576139,-16.28204237891738,5.335516136162689,-15.302963863060016,36.57492437176146,36.910384281307095,34.562164914487674,1577395502.0,-27.717182046321525,-51.09966535682925,10.440068
7192,1577395502.34,-0.1439148778403677,1.714102400765768,8.923977922095322,-2.497502702517625,2.438611181194025,10.110538425352514,-1.0233460242294683,0.5636009103170257,9.551813511099466,-0.2138091296684451,-1.3316084698932928,-0.3529990591653963,1.6477631359565548,-3.169362137957317,-0.3360655249618902,-0.0878310785060974,2.5424492068407014,-0.8105766482469514,24.490844060173693,-10.042541876526249,4.959699328449328,-16.628776200651203,7.469722590627764,-25.84500563539025,36.550962949651066,36.93434570341749,34.46631922604607,1577395502.0,-27.717182046321525,-51.09966535682925,10.440068
7193,1577395502.35,-0.4994538243735709,1.8972588277677207,8.700120066870712,-3.651507902712937,1.237919048625666,9.64127489996189,-0.5241549780868896,1.414739600502572,11.12719820348228,2.3801850109565548,0.5299637957317074,-0.3224814810403963,-1.2056304187309452,3.468211104230183,0.5794618187881098,-2.101991234756097,1.2912285037157012,-1.5124809451219514,24.82068707781913,-9.312175194597067,4.959699328449328,-15.472996794871795,5.640402772514843,-15.983095590307128,36.57492437176146,36.910384281307095,34.22670500494204,1577395502.0,-27.717182046321525,-51.09966535682925,10.440068
7194,1577395502.36,-0.5305784459556021,1.5453111837247524,10.107910643042588,-4.965924614138719,1.8436520686451967,10.40023682623142,-1.256780686094702,0.7419689339986659,10.55258980504478,1.4646576672065548,2.055842701981707,-0.0173056997903963,-3.982730028105945,-0.2549334270198171,0.9761903344131098,-0.9728408441310974,-1.3027656369092988,-0.6885063357469513,24.490844060173693,-8.58180851266789,4.251170852956559,-15.472996794871795,5.640402772514843,-26.185071499013805,36.52700152754066,37.05415281396951,34.27462784916285,1577395502.0,-27.717182046321525,-51.09966535682925,10.440068
7195,1577395502.37,-0.9184391149009146,1.9571138692716272,9.801452830542589,-4.4463828538848125,2.1118026545826973,9.6460633032822,-2.192913535215796,2.906327234779916,9.89418434850181,2.3496674328315548,4.375178639481708,-0.0173056997903963,-3.738589403105945,-1.3230486613948171,0.3048036156631097,-1.2169814691310974,-1.1806953244092988,0.3796088986280487,24.98560858664185,-10.225133547008545,4.074038734083371,-17.091087962962966,6.555062681571303,-23.46454459002536,36.57492437176146,37.10207565819032,34.27462784916285,1577395502.0,-27.717182046321525,-51.09966535682925,10.440068
7196,1577395502.38,-0.8238681493247427,2.1390731954435025,10.365287321509385,-1.4404626695586409,1.4737479121510566,9.938155905821263,0.905183413026391,2.113846485268197,10.760885349478372,0.1676605968940548,0.5452225847942074,-0.2614463247903963,-1.068301317168445,-0.651661942644817,0.5184266625381098,-1.8120742425685967,-4.613922863471799,1.3561713986280486,23.83115802488282,-10.407725217490844,4.605435090702943,-15.444102309727311,8.765490795124416,-47.43918797548605,36.694731482313486,37.173959924521526,34.32255069338365,1577395502.0,-27.717182046321525,-51.09966535682925,10.440068
7197,1577395502.39,-0.5114248326743521,1.4303895040372523,10.186919297827744,1.8000892774628428,1.6281739192311346,9.50001700201267,0.8572993798232657,4.855207386147103,8.773697971548685,-1.7091704577934452,-0.1719405011432926,-0.3835166372903963,-1.9380522937309448,3.224070479230183,-0.4886534155868902,1.8042587652439024,-6.063507824409299,0.1354682736280487,24.16100104252826,-8.946991853632479,4.959699328449328,-15.357418854293858,11.433248863205758,-69.71350204282896,36.67077006020308,36.86246143708629,34.27462784916285,1577395502.0,-27.717182046321525,-51.09966535682925,10.440068
7198,1577395502.4,-0.1187757604087271,1.2029403463224075,10.701672654761335,1.582216926388624,1.199611822063166,9.011599863340797,2.030458193299828,1.5512090951314783,8.093744700064311,-3.723330614043445,-2.125065501143293,0.0742470345846036,1.6019867687690548,-0.7126970988948171,0.0911805687881097,-1.0033584222560974,-5.422638683784299,-0.6274711794969513,24.16100104252826,-8.58180851266789,4.959699328449328,-15.472996794871795,10.823475590501452,-68.35323858833475,36.52700152754066,37.0062299697487,34.41839638182526,1577395502.0,-27.717182046321525,-51.09966535682925,10.440068
7199,1577395502.41,0.1876820520912723,1.8134617696622524,9.953484635962509,2.9684596876190925,1.5012812312428534,7.78337441168064,-0.2919174170517333,2.453823121010384,8.563008225454936,-2.807803270293445,-4.047672923018292,0.0132118783346036,-1.2361479968559452,2.674754072980183,-0.6107237280868902,-1.1559463128810974,0.9555351443407012,-1.878691882621952,24.57330481458505,-8.673104347909035,4.339736912393157,-16.10867546805047,11.585692181381836,-59.85159199774585,36.67077006020308,37.0062299697487,34.27462784916285,1577395502.0,-27.717182046321525,-51.09966535682925,10.440068
7200,1577395502.42,0.2810559168373666,1.1718157247403764,9.178960398901964,0.7921303785370619,0.9350525386159004,8.337632096006812,0.2395953515029536,2.008501612221322,8.920941373648294,-2.960391160918445,-2.186100657393293,-0.3224814810403963,1.1747406750190548,0.5080060261051829,-0.4428770483993902,0.0800156011814028,-0.3872382931592988,-0.3375541873094512,24.82068707781913,-8.58180851266789,4.959699328449328,-16.686565170940174,11.585692181381836,-59.85159199774585,36.57492437176146,37.07811423607991,34.370473537604454,1577395502.0,-27.717182046321525,-51.09966535682925,10.440068
7201,1577395502.43,-0.2073612218345084,1.5692532003263149,8.97066485446837,-0.0434460008574688,1.680846355754572,11.731412949278296,-1.0796097632431396,1.5512090951314783,10.006711826529154,0.1524018078315548,0.3163407488567073,0.2878700814596037,1.4493988781440548,-0.224415848894817,-0.3055479468368902,-1.4611220941310974,0.1315605349657012,0.5321967892530487,24.82068707781913,-8.58180851266789,4.959699328449328,-17.033298992673995,11.585692181381836,-62.57211890673429,36.57492437176146,37.0062299697487,34.27462784916285,1577395502.0,-27.717182046321525,-51.09966535682925,10.440068
7202,1577395502.44,-0.2743988683188834,1.811067568002096,9.22684443210509,-1.2405468309355938,2.2027823176686345,11.444108750059549,-1.1466474097275146,0.6318356576314784,10.847076609244,2.5632904797065548,0.8046219988567074,-0.0478232779153963,-0.0459624499809451,0.5690411823551829,-0.8548643530868902,0.4004501714939026,-1.7910468869092988,0.5932319455030487,23.501315007237384,-8.58180851266789,3.542642377463798,-16.39762031949532,10.213702317797145,-62.91218477035785,36.52700152754066,37.10207565819032,34.17878216072124,1577395502.0,-27.717182046321525,-51.09966535682925,10.440068
7203,1577395502.45,-0.5078335301841178,1.8326153829435023,8.041714610327745,-2.7273460618926246,1.7383071955983225,9.777744394590796,-1.0221489233993897,0.971812293373666,9.113674607290871,3.6924408703315543,1.0487626238567072,-0.2004111685403963,-0.5037261218559451,-1.7808123332698171,-0.4581358374618902,-0.8812881097560974,2.6645195193407014,-1.6955864138719514,24.57330481458505,-8.855696018391331,4.516869031266349,-16.744354141229145,5.945289408866995,-24.824808044519585,36.550962949651066,37.24584419085272,34.370473537604454,1577395502.0,-27.717182046321525,-51.09966535682925,10.440068
7204,1577395502.46,-0.5377610509360709,0.8294448873380327,8.26676956638243,-4.600808860964891,1.2714378718678534,9.325240280821264,0.4718329125381094,2.112649384438119,10.875807029165871,1.4646576672065548,0.8046219988567074,-0.2614463247903963,-1.6939116687309452,-1.0178728801448171,0.7778260766006098,1.5906357183689028,-1.6232002072217986,-0.7342827029344513,24.32592255135097,-9.494766865079365,5.136831447322516,-16.802143111518113,10.213702317797145,-25.504939771766693,36.57492437176146,36.910384281307095,34.41839638182526,1577395502.0,-27.717182046321525,-51.09966535682925,10.440068
7205,1577395502.47,-0.4252335729087271,2.155832607064596,8.704908470191025,-1.6810799364043438,0.8428757746998847,9.2629910376572,-1.2926937109970458,2.516072364174447,8.57976763707603,3.1126068859565548,1.994807545731708,0.4404579720846037,-0.5342436999809451,-2.208058427019817,0.2437684594131097,-2.620790062881097,1.3522636599657012,-0.5969536013719513,24.32592255135097,-9.494766865079365,5.136831447322516,-15.93530855718356,5.640402772514843,-13.942700408565791,36.67077006020308,37.10207565819032,34.46631922604607,1577395502.0,-27.717182046321525,-51.09966535682925,10.440068
7206,1577395502.48,-0.5640972691977897,1.744029921517721,9.224450230444932,-0.6731210374785627,0.7231656916920722,9.74901397466892,1.8341336571670157,2.0635682504049155,9.075367380728371,0.8237885265815549,-0.0803877667682926,-0.0478232779153963,-0.7783843249809451,-3.611867020769817,0.1827333031631097,-0.6066299066310974,2.7560722537157014,1.8444526486280488,23.00655048076923,-9.859950206043958,5.845359922815277,-15.93530855718356,5.640402772514843,-23.46454459002536,36.57492437176146,37.05415281396951,34.41839638182526,1577395502.0,-27.717182046321525,-51.09966535682925,10.440068
7207,1577395502.49,-0.1151844579184932,1.5093981588224086,9.025731492651962,0.7765680677460457,1.8843534968678533,10.498399094297827,-0.4810593482040775,1.9833624947896813,8.977205112661967,-0.5647612781059451,-0.0956465558307926,-0.5666221060403963,0.3507660656440549,0.4317120807926828,-0.4581358374618902,0.0952743902439028,-1.5469062619092986,0.4406440548780487,24.078540288116898,-8.490512677426738,5.22539750675911,-16.628776200651203,5.945289408866996,-15.64302972668357,36.64680863809267,37.07811423607991,34.514242070266874,1577395502.0,-27.717182046321525,-51.09966535682925,10.440068
7208,1577395502.5,0.1493748255287718,1.4279953023770962,10.270716355933212,2.71467431164253,1.1373625788991035,9.025965073301732,0.5580241723037345,-2.0784006216653954,8.785668979849467,-3.540225145293445,-2.491276438643293,-0.6276572622903963,1.1747406750190548,1.8812970417301829,0.1827333031631097,1.7432236089939026,-2.3403632931592986,-0.2002250857469513,25.645294621932727,-8.034033501221,4.074038734083371,-17.264454873829877,9.146599090564608,-20.40395181741336,36.52700152754066,37.19792134663192,34.46631922604607,1577395502.0,-27.717182046321525,-51.09966535682925,10.440068
7209,1577395502.51,0.0009343225990853,1.514186562142721,9.554850059546494,3.04028573742378,2.035188201457697,9.04033028326267,-0.107563889219702,2.619023035561166,7.964457810415873,-2.960391160918445,-4.474919016768292,-0.2614463247903963,-0.0154448718559451,1.2404279011051829,-0.7938291968368902,1.1328720464939026,-2.0351875119092986,-2.0007621951219514,25.645294621932727,-8.034033501221,4.074038734083371,-17.264454873829877,9.146599090564608,-20.40395181741336,36.52700152754066,37.0062299697487,34.41839638182526,1577395502.0,-27.717182046321525,-51.09966535682925,10.440068
7210,1577395502.52,-0.1307467687095083,1.772760341439596,10.18213089450743,2.927758259396436,0.8309047663991035,9.100185324766576,1.4917628197646715,4.850418982826791,8.970022507681497,-0.9157134265434452,-3.101628001143293,-0.3529990591653963,0.1066254406440548,1.8202618854801829,-0.9769346655868902,1.9568466558689024,-0.8450019650342988,-0.1086723513719513,23.99607953370554,-10.590316887973138,3.7197744963369854,-15.184051943426944,10.366145635973224,-20.40395181741336,36.52700152754066,37.0062299697487,34.46631922604607,1577395502.0,-27.717182046321525,-51.09966535682925,10.440068
7211,1577395502.53,-0.160674289461462,1.6638241659024862,9.747583293189072,0.9166288648651868,1.8364694636647283,10.576210648252903,0.0552418236709223,1.2591164925924163,9.055016666617044,-1.1751128406059452,-1.3468672589557926,-0.1241172232278963,0.5796479015815549,0.1875714557926829,-0.6412413062118902,-1.1254287347560972,1.3217460818407012,-0.0476371951219513,24.90314783223049,-9.40347102983822,4.339736912393157,-15.15515745828246,10.442367295061262,-23.294511658213583,36.67077006020308,36.98226854763831,34.322550693383654,1577395502.0,-27.717182046321525,-51.09966535682925,10.440068
7212,1577395502.54,0.1613458338295541,1.36814026087319,9.025731492651964,-0.9843672532988752,1.4366377864186346,11.25736102056736,-0.2727638037704833,0.5217023812642909,10.52625358678306,0.7322357922065549,2.208430592606707,0.0132118783346036,0.1676605968940548,0.2028302448551829,-0.5496885718368902,-0.9118056878810974,0.3757011599657012,-0.1086723513719513,24.98560858664185,-8.034033501221,5.845359922815277,-15.357418854293858,10.5185889541493,-20.74401768103691,36.57492437176146,37.05415281396951,34.46631922604607,1577395502.0,-27.717182046321525,-51.09966535682925,10.440068
7213,1577395502.55,-0.3246771031821646,1.0305578267911577,7.864543687476181,-2.54538673572075,1.1948234187428537,11.350734885313452,0.8644819848037344,2.0635682504049155,10.406543503775248,0.6712006359565549,0.6520341082317074,0.3183876595846037,0.2897309093940549,0.9657696979801828,0.2132508812881097,-1.5526748285060974,-3.1338203244092986,-2.1533500857469514,24.98560858664185,-8.034033501221,5.845359922815277,-15.241840913715915,10.213702317797145,-20.74401768103691,36.52700152754066,37.0062299697487,34.46631922604607,1577395502.0,-27.717182046321525,-51.09966535682925,10.440068
7214,1577395502.56,0.065577767423304,1.7224821065763147,8.314653599585556,-3.009861857791062,1.477339214641291,10.378689011290016,-0.4307811133407958,3.600645716225228,9.369854184927592,3.9365814953315534,-0.4160811261432926,0.1200234017721036,-1.1445952624809452,-1.3230486613948171,-0.1834776343368902,-0.9423232660060974,-4.110382824409299,0.0744331173780487,24.65576556899641,-9.494766865079365,4.251170852956562,-17.322243844118844,10.213702317797145,-65.63271167934629,36.64680863809267,37.19792134663192,34.41839638182526,1577395502.0,-27.717182046321525,-51.09966535682925,10.440068
7215,1577395502.57,-0.2504568517173209,1.8158559713224085,8.513372337378526,-3.044577781863328,1.190035015422541,11.080190097715796,-1.1538300147079832,2.387982575356088,10.412529007925638,0.8543061047065549,-1.6062666730182926,-0.1088584341653963,-0.5037261218559451,1.9575909870426829,-0.3818418921493902,-1.9188857660060967,-2.3251045040967986,0.1965034298780487,23.171471989591947,-10.407725217490844,5.313963566195704,-17.322243844118844,11.738135499557911,-60.87178958861652,36.67077006020308,37.05415281396951,34.514242070266874,1577395502.0,-27.717182046321525,-51.09966535682925,10.440068
7216,1577395502.58,-0.6814131505454458,1.6075604268888148,10.792652317847274,-3.6467194993926246,0.5412063655201973,9.784926999571264,1.235583242127953,2.767463538490853,11.493511057486186,1.4036225109565548,2.116877858231707,0.0437294564596036,-0.2595854968559451,1.1488751667301829,0.1827333031631097,2.292540015243903,-8.0166328244093,-0.0781547732469513,24.32592255135097,-11.320683569902318,5.136831447322516,-19.34485780423281,10.366145635973224,-63.25225063398141,36.52700152754066,37.0062299697487,34.370473537604454,1577395502.0,-27.717182046321525,-51.09966535682925,10.440068
7217,1577395502.59,-0.2121496251548209,1.571647401986471,8.89405040134337,-4.367374199099656,0.8476641780201972,9.4928343970322,0.543658962342797,0.7323921273580409,10.902143247427592,0.6406830578315549,3.581721608231707,-0.0173056997903963,1.1747406750190548,-5.015675614519817,1.1592958031631098,-1.1864638910060974,-10.9463203244093,2.7599799923780486,24.32592255135097,-11.320683569902318,5.136831447322516,-19.34485780423281,10.366145635973224,-63.25225063398141,36.71869290442388,37.10207565819032,34.562164914487674,1577395502.0,-27.717182046321525,-51.09966535682925,10.440068
7218,1577395502.6,-0.4515697911704459,2.265965883431784,10.496968412817978,-3.2995602586699686,1.1852466121022285,10.687541025450171,-0.2464275855087645,0.4331169198385096,10.183882749380716,2.6853607922065548,1.7506669207317072,-0.0020469107278963,0.1676605968940548,-1.5671892863948171,-0.0308897437118902,-6.679627953506097,-10.5190742306593,0.8068549923780487,24.243461796939613,-8.49051267742674,5.756793863378679,-17.322243844118844,6.555062681571303,-23.46454459002536,36.550962949651066,37.0062299697487,34.370473537604454,1577395502.0,-27.717182046321525,-51.09966535682925,10.440068
7219,1577395502.61,-0.4108683629477896,1.147873708138814,9.521331236304308,-1.0561933031035629,1.660495641643244,9.50719960699314,1.3421252160049062,1.9618146798482752,9.509914982046732,-3.143496629668445,0.1332352801067073,-0.2614463247903963,2.6243256359565548,-0.8958025676448171,-0.1224424780868902,-1.2017226800685974,-2.8896796994092986,0.1659858517530487,24.32592255135097,-9.494766865079365,6.553888398308031,-17.264454873829877,6.402619363395226,-25.504939771766693,36.57492437176146,37.10207565819032,34.442357803935664,1577395502.0,-27.717182046321525,-51.09966535682925,10.440068
7220,1577395502.62,-0.2696104649985709,0.9635201803067828,8.798282334937118,2.705097505001905,1.458185601360041,9.119338938047829,0.6274560204482657,1.9773769906392904,9.444074436392434,-0.4579497546684451,1.7811844988567074,0.5014931283346037,-0.1375151843559451,-0.5601092082698171,0.1522157250381097,0.5835556402439026,-2.9201972775342986,-1.2073051638719514,23.83115802488282,-10.042541876526249,4.605435090702943,-16.57098723036223,10.366145635973224,-25.84500563539025,36.67077006020308,36.86246143708629,34.41839638182526,1577395502.0,-27.717182046321525,-51.09966535682925,10.440068
7221,1577395502.63,-0.0469497106040396,1.830221181283346,10.32338879245665,3.150419013790968,1.7478840022389472,10.572619345762671,0.7543487084365469,2.611840430580697,9.527871494497903,1.0984467297065548,-0.4160811261432927,-0.2004111685403963,1.1442230968940548,-0.3159685832698171,-0.8243467749618902,-0.1183486566310974,-4.842804699409299,0.8678901486280487,23.83115802488282,-10.042541876526249,4.605435090702943,-17.091087962962966,5.335516136162689,-16.663227317554238,36.57492437176146,36.81453859286549,34.41839638182526,1577395502.0,-27.717182046321525,-51.09966535682925,10.440068
7222,1577395502.64,-0.3905176488364615,1.5165807638028774,9.83257745212462,3.19351464367378,2.2398924434010565,9.523959018614232,0.5568270714736567,1.941463965736947,9.570967124380717,-1.739688035918445,-4.047672923018292,-0.1546348013528963,-1.0683013171684452,1.0573224323551829,-1.0990049780868902,-2.605531273818597,-7.879303722846799,2.4242866330030486,24.40838330576233,-8.855696018391331,3.985472674646776,-16.859932081807084,5.945289408866995,-19.383754226542685,36.76661574864468,36.910384281307095,34.32255069338365,1577395502.0,-27.717182046321525,-51.09966535682925,10.440068
