,timestamp,acc_x_dashboard,acc_y_dashboard,acc_z_dashboard,acc_x_above_suspension,acc_y_above_suspension,acc_z_above_suspension,acc_x_below_suspension,acc_y_below_suspension,acc_z_below_suspension,gyro_x_dashboard,gyro_y_dashboard,gyro_z_dashboard,gyro_x_above_suspension,gyro_y_above_suspension,gyro_z_above_suspension,gyro_x_below_suspension,gyro_y_below_suspension,gyro_z_below_suspension,mag_x_dashboard,mag_y_dashboard,mag_z_dashboard,mag_x_above_suspension,mag_y_above_suspension,mag_z_above_suspension,temp_dashboard,temp_above_suspension,temp_below_suspension,timestamp_gps,latitude,longitude,speed
92236,1577396352.78,0.0768538732910156,-2.3639150091552734,13.507666781311034,-3.022475212878715,5.191329941168064,4.367958150724085,3.245568369547525,-9.902019032796222,8.033344637044271,-2.965927124023437,-0.5407333374023438,0.153350830078125,4.842990782202744,-0.7039512076028964,2.549892518578506,-1.0664803641183034,1.8099830264136905,-18.417721702938987,-5.701084843011927,-16.330711178702252,2.736678685897437,31.03295448155648,1.7122993050563151,-110.09579772079776,31.30341150747297,37.91676400994399,37.62922694461916,1577396352.0,-27.682439914564583,-51.12646349785342,7.1704655
92237,1577396352.79,0.0864306799316406,2.751296837768555,10.422737942199706,2.9522550300412056,-1.4441999599549828,12.39571631722799,-1.1106815511067707,-11.835336873372396,8.974265889485679,-0.5245208740234375,-0.2050399780273437,-0.579071044921875,-1.5504418349847562,-2.0162070669778966,0.0779686904535061,-5.003247942243304,-3.683181036086309,9.994143531436013,-6.102569691111358,-15.855981202577189,1.915675080128206,32.19300846266308,-2.9353702372393955,-41.96103988603991,31.32737292958337,38.0126096983856,37.74903405517117,1577396352.0,-27.682439914564583,-51.12646349785342,7.1704655
92238,1577396352.8,1.680968985595703,-3.582563654174804,7.656237923889159,-0.510957671374809,0.5178483005430637,6.666391744474085,-0.3960123555501295,24.37816033732096,9.587181514485676,-2.172470092773437,-1.6088485717773438,-0.426483154296875,-1.779323670922256,-0.3987754263528963,-0.5018652939214938,1.3444083077566966,-4.903884161086309,-3.158932640438988,-5.701084843011927,-15.950927197802198,0.912226228632484,33.73974710413857,2.364603802220625,-7.062749287749304,31.447180040135382,37.91676400994399,37.772995477281576,1577396352.0,-27.682439914564583,-51.12646349785342,7.1704655
92239,1577396352.81,0.1654393347167968,-1.4541183782958984,7.567652462463378,0.37010853956269,-2.201964785394435,14.538526803067834,0.7867232645670569,1.3124215433756503,7.827443294270833,-5.1021575927734375,0.0085830688476562,-0.304412841796875,-11.483913514672256,2.469876917397104,-0.0746192001714938,-1.4326913016183034,4.861740838913691,-16.708737327938987,-5.8616787822516985,-18.41952307365253,1.4595619658119638,33.73974710413857,2.364603802220625,-7.062749287749304,31.063797286368946,37.9646868541648,37.62922694461916,1577396352.0,-27.682439914564583,-51.12646349785342,7.1704655
92240,1577396352.82,-1.0268730920410154,0.379840093383789,9.808625216369627,2.996547760754096,1.07569728735947,11.45718926644674,1.6390590555826818,-39.20225894978841,19.573396638997394,-4.7054290771484375,-1.6088485717773438,-0.945281982421875,-3.030544374047256,-1.1922324576028964,-0.5629004501714938,-8.268628801618304,29.70304943266369,13.656252906436013,-5.3798969645323815,-17.090279140502357,0.1824452457264983,31.03295448155648,1.7122993050563151,-7.8936609686609795,31.30341150747297,37.91676400994399,37.58130410039836,1577396352.0,-27.682439914564583,-51.12646349785342,7.1704655
92241,1577396352.83,0.7053318090820313,0.6288370660400395,8.56962585723877,-1.2172471611209033,3.441168527593845,10.19903629403463,-0.7084556722005202,21.82474426676432,11.69407897542318,-1.0890960693359373,-0.2508163452148437,-0.472259521484375,-4.419094178734756,1.981595667397104,-0.1356543564214938,-4.652295793805804,38.72099376860119,7.476443336123513,-5.460193934152267,-16.235765183477238,0.2736678685897474,34.12643176450744,-2.690756050802779,-0.8309116809117008,31.25548866325217,38.0126096983856,38.132416808937606,1577396352.0,-27.682439914564583,-51.12646349785342,7.1704655
92242,1577396352.84,0.6347028601074219,-1.5762226629638671,14.12297660797119,7.866353937511908,-3.3799120021913107,12.400504720548302,4.830529868570963,-0.2964819722493486,3.161144258626302,-2.721786499023437,-1.3952255249023438,-1.067352294921875,-2.938991639672256,5.369046839272103,2.732997987328506,6.593431745256696,17.25187755766369,-30.136471702938987,-5.8616787822516985,-18.039739092752487,1.4595619658119638,34.12643176450744,-2.690756050802779,-6.231837606837628,31.30341150747297,37.9646868541648,37.62922694461916,1577396352.0,-27.682439914564583,-51.12646349785342,7.1704655
92243,1577396352.85,1.1638214270019531,-0.0846350286865224,8.530121529846191,2.2519510444455024,4.403637594976657,3.6209672327553353,0.3461901590983068,-29.32378289998372,10.925540242513025,-6.1092376708984375,-1.4867782592773438,0.061798095703125,8.108371641577744,-16.267916051352895,2.092128846703506,-5.094800676618304,-2.1267845517113093,1.144045875186012,-7.467618174649425,-16.520603169152277,0.0,24.6526575854701,-3.4245986101126284,-79.76752136752135,31.111720130589752,37.91676400994399,37.58130410039836,1577396352.0,-27.682439914564583,-51.12646349785342,7.1704655
92244,1577396352.86,1.1255142004394532,0.4337096307373049,11.180502767639158,-2.998533196277153,7.07077824439072,8.517109627774866,1.2488041849772131,-2.5278779195149736,8.72287471516927,-4.3544769287109375,-2.737998962402344,-1.280975341796875,4.141086485327744,-0.2767051138528963,-1.2342871689214938,-3.752027239118304,-12.68586658296131,9.383791968936013,-5.701084843011927,-15.950927197802198,0.912226228632484,32.19300846266308,-3.179984423676012,-86.83027065527065,31.27945008536257,37.91676400994399,37.725072633060776,1577396352.0,-27.682439914564583,-51.12646349785342,7.1704655
92245,1577396352.87,3.443101407470703,-3.69987953552246,3.5525762783813466,3.344904102306832,-3.1991497768495134,13.11637101693502,1.2895056131998697,6.067306040445962,12.2291830464681,-3.515243530273437,1.961708068847656,-0.731658935546875,-5.853420350609756,3.873685511147104,-1.0054053329839938,-1.1275155203683034,5.86882091703869,-2.197628929501488,-5.219303025292609,-17.659955111852437,2.9191239316239352,30.646269821187605,0.0815380621455393,-99.70940170940176,31.20756581903136,38.036571120496006,37.67714978883997,1577396352.0,-27.682439914564583,-51.12646349785342,7.1704655
92246,1577396352.88,0.5149927770996093,0.4061763116455078,7.895658089904784,-0.0464825493044964,5.801851364507908,7.252971151212367,3.281481394449869,-10.627462135823569,11.385226961263024,3.4732818603515625,3.121376037597656,0.092315673828125,0.723117735327744,4.178861292397103,0.3526268935785062,-1.1885506766183034,8.37126232328869,2.669924781436012,-5.8616787822516985,-16.140819188252223,1.094671474358975,30.646269821187605,-1.5492231807652364,-110.92670940170945,31.063797286368946,37.91676400994399,37.772995477281576,1577396352.0,-27.682439914564583,-51.12646349785342,7.1704655
92247,1577396352.89,1.8509573034667968,2.2449231866455075,11.00093764312744,1.55763256300019,-1.3065333644959978,11.663090609220175,-0.5061456319173171,2.8806236307779947,5.998273225911459,1.4286041259765625,2.144813537597656,-1.158905029296875,-1.107936952172256,8.756498011147103,0.8409081435785062,-2.0735604422433034,-4.873366582961309,-0.5344209216889881,-6.343460599971016,-18.609415064102564,1.2771167200854732,32.19300846266308,-2.2015276779295467,-91.81574074074076,31.30341150747297,38.15637823104801,37.772995477281576,1577396352.0,-27.682439914564583,-51.12646349785342,7.1704655
92248,1577396352.9,-0.1661575952148437,-0.1744175909423828,8.5624432522583,1.8353599555783149,-0.4446207668397477,7.947289632657679,1.105152085367838,3.38819438273112,7.00623212483724,-3.103256225585937,1.5954971313476562,-0.792694091796875,-3.335720155297256,0.0589882455221036,0.1084862685785061,-0.4866463797433034,-11.43464587983631,-14.969235374813987,-7.146430296169879,-17.280171130952382,0.7297809829059857,31.419639141925344,-1.8753754293473912,6.231837606837594,31.25548866325217,37.91676400994399,37.58130410039836,1577396352.0,-27.682439914564583,-51.12646349785342,7.1704655
92249,1577396352.91,-1.5799336755371092,-2.775717694702148,11.348096883850095,1.2068820197872996,2.23808219336533,8.357895217374477,-3.618607790120442,-1.138043855794269,11.41276028035482,-0.2498626708984375,-1.5172958374023438,0.397491455078125,-1.001125428734756,-5.556246129477897,-0.9748877548589938,-1.0207039969308034,-12.33491443452381,13.427371070498513,-6.182866660731244,-17.280171130952382,2.5542334401709463,32.38635079284752,-1.875375429347392,0.4154558404558379,31.39925719591458,37.89280258783359,37.60526552250876,1577396352.0,-27.682439914564583,-51.12646349785342,7.1704655
92250,1577396352.92,-1.2734758630371092,0.1140837091064453,9.64821370513916,-3.2618953788943403,-2.65925730248428,8.22741122689596,2.129870395914713,13.197238584391275,7.111576997884114,-3.454208374023437,-0.9374618530273438,-0.701141357421875,-0.650173280297256,7.200101526772103,-0.6239356064214938,1.4664786202566966,-14.94416736421131,-20.706540062313987,-6.6646484784505615,-17.470063121402408,0.1824452457264983,30.646269821187605,1.7122993050563151,-8.724572649572671,31.30341150747297,37.9646868541648,37.62922694461916,1577396352.0,-27.682439914564583,-51.12646349785342,7.1704655
92251,1577396352.93,-0.4714183068847646,-1.8778920721435544,15.50921936920166,1.2583573554806589,-4.356746279535061,12.55612782845846,1.0692390604654944,-28.164989296468093,9.35494395345052,2.7103424072265625,-2.005577087402344,-0.823211669921875,1.119846250952744,1.7374550423971036,-1.8141211532964936,-0.0288827078683033,-14.79157947358631,-5.874997093563988,-5.8616787822516985,-17.659955111852437,0.7297809829059857,31.419639141925344,-3.5061366722581666,-5.400925925925935,31.25548866325217,37.725072633060776,37.725072633060776,1577396352.0,-27.682439914564583,-51.12646349785342,7.1704655
92252,1577396352.94,-1.4518438867187493,-1.257793842163086,8.595962075500488,1.0835806342892524,1.1451291355040012,-2.7045135533774767,-1.346510414632161,6.670644858805338,9.644642354329427,-0.8296966552734375,-5.240440368652344,-0.029754638671875,-1.687770936547256,-14.619966832602897,1.1155663467035062,1.9547598702566968,-14.63899158296131,14.815920875186013,-6.50405453921079,-18.039739092752487,1.094671474358975,31.419639141925344,-3.3430605479670894,-7.8936609686609795,31.39925719591458,38.0605325426064,37.58130410039836,1577396352.0,-27.682439914564583,-51.12646349785342,7.1704655
92253,1577396352.95,-0.2535459558105459,-0.8052897283935547,9.12388354156494,-1.1023254814334027,-2.2055560878846703,9.7465321802651,-2.635788008626301,0.3116452494303392,11.525287758382165,-2.660751342773437,-8.231163024902344,-1.494598388671875,0.6010474228277438,-3.9693320669778966,-0.6544531845464938,0.8561270577566964,-1.5622093563988098,-0.6259736560639872,-5.701084843011927,-17.849847102302462,0.5473357371794949,29.09953117971212,-1.8753754293473912,0.4154558404558299,31.20756581903136,37.94072543205439,37.60526552250876,1577396352.0,-27.682439914564583,-51.12646349785342,7.1704655
92254,1577396352.96,0.1486799230957031,1.7158046197509764,15.174031136779783,-1.4949745536990278,2.2488561008360324,5.311273604825648,-6.173220961507161,10.625866001383464,11.871249898274742,3.5953521728515625,-5.881309509277344,0.153350830078125,4.324191954077744,-11.507173863852897,-0.8070410751714938,0.7645743233816966,14.13908458891369,13.625735328311013,-6.343460599971016,-18.22963108320252,2.736678685897437,24.459315255285667,-3.5061366722581666,-4.570014245014259,31.25548866325217,38.0605325426064,37.725072633060776,1577396352.0,-27.682439914564583,-51.12646349785342,7.1704655
92255,1577396352.97,0.2037465612792968,0.7317877374267577,12.221980489807128,0.0014014838986275,1.5784796359922824,10.664708516935022,5.311764402262369,8.902040806070962,1.3343683919270828,-0.8907318115234375,-3.592491149902344,-1.738739013671875,-1.077419374047256,-3.725191441977896,-1.8751563095464936,1.2528555733816966,1.9930884951636905,-12.436276390438987,-5.219303025292609,-17.659955111852437,2.5542334401709463,31.419639141925344,-2.2015276779295467,-101.78668091168092,31.30341150747297,37.9646868541648,37.772995477281576,1577396352.0,-27.682439914564583,-51.12646349785342,7.1704655
92256,1577396352.98,2.357330954589844,-0.8076839300537109,7.122330953674315,-1.345336949939263,-4.266963717279202,11.41888203988424,-5.909858778889974,-7.965109889729817,6.691394606526694,-2.965927124023437,-1.898765563964844,-0.792694091796875,1.1198462509527438,-6.624361363852896,-0.7612647079839937,1.6801016671316966,-25.03022693452381,-5.997067406063987,-6.50405453921079,-17.659955111852437,1.094671474358975,31.419639141925344,-2.6907560508027792,-8.724572649572671,31.32737292958337,37.91676400994399,37.772995477281576,1577396352.0,-27.682439914564583,-51.12646349785342,7.1704655
92257,1577396352.99,0.5173869787597656,2.458007134399414,8.491814303283691,-2.301820513171684,7.556801181402439,13.726892440274865,-2.3161620869954422,11.664949521891277,14.219961726888023,4.9076080322265625,-1.3647079467773438,-0.792694091796875,-15.542751405297256,13.425687464272103,-3.645175840796494,-0.5781991141183034,-2.4014427548363093,3.554934547061012,-5.8616787822516985,-17.280171130952382,1.4595619658119638,33.73974710413857,-3.3430605479670894,-8.724572649572671,31.447180040135382,37.772995477281576,37.43753556773595,1577396352.0,-27.682439914564583,-51.12646349785342,7.1704655
92258,1577396353.0,1.4200010046386715,0.217034380493164,12.11184721343994,8.859947626476753,-3.976068215570217,12.113200521329553,1.1290941019694007,0.1991177714029941,18.773733284505205,6.4334869384765625,0.6799697875976562,-1.433563232421875,-0.0703392959222559,8.359769495522103,1.0240136123285062,-2.9280526297433034,4.831223260788691,1.876467750186012,-6.343460599971016,-15.950927197802198,3.466459668803423,30.83961215137204,-3.4245986101126284,-84.75299145299148,31.447180040135382,37.9646868541648,37.91676400994399,1577396353.0,-27.6825068330978,-51.12643026409455,8.179391
92259,1577396353.01,2.9235596472167966,-0.0128089788818359,10.153390255432129,-1.5428585869021527,-2.9537441066834984,3.9944626917397104,7.332470603434245,-8.7049182027181,15.373966927083336,-3.087997436523437,7.256507873535156,-2.227020263671875,2.187961485327744,-3.053804723227896,0.0474511123285061,-2.1345955984933034,14.10856701078869,0.6862822033110119,-5.8616787822516985,-16.90038715005233,1.824452457264957,31.80632380229421,-3.5061366722581666,-83.50662393162395,31.25548866325217,37.91676400994399,37.58130410039836,1577396353.0,-27.6825068330978,-51.12643026409455,8.179391
92260,1577396353.02,-0.2415749475097646,-2.6823438299560545,10.842920333557128,2.26631625440644,0.6423467868711887,14.350581972745568,1.129094101969401,2.0725805704752607,13.045605812581384,-1.2264251708984375,3.151893615722656,-0.823211669921875,2.371066954077744,2.805570276772104,1.6191063857660062,-2.836499895368304,35.62345958891369,4.653567359561013,-5.058709086052835,-17.090279140502357,2.371788194444441,31.22629681174091,-0.5707664350187711,-39.05284900284902,31.20756581903136,37.9886482762752,37.772995477281576,1577396353.0,-27.6825068330978,-51.12643026409455,8.179391
92261,1577396353.03,-0.1218648645019521,-3.225827606811523,9.657790511779783,1.11709945753144,-1.4094840358827163,10.31994347787252,-3.343274599202473,-3.938062697347005,7.985460603841146,-4.8580169677734375,1.1377334594726562,-1.830291748046875,10.397190000952744,15.561917933022103,-4.469150450171494,0.1847403390066966,30.83219982328869,-4.135495140438988,-6.343460599971016,-15.950927197802198,2.006897702991451,30.646269821187605,2.0384515536384704,-74.36659544159546,31.20756581903136,38.0605325426064,37.43753556773595,1577396353.0,-27.6825068330978,-51.12643026409455,8.179391
92262,1577396353.04,1.3242329382324218,0.0590170709228515,9.13824875152588,5.42666244581269,-5.465261648187404,8.823567440274866,1.7013082987467445,6.402494272867838,-0.5642335245768223,0.8792877197265625,4.036903381347656,-1.342010498046875,-3.091579530297256,1.2491737923971036,-0.0746192001714938,1.0392325265066966,17.77067638578869,-8.407956077938987,-4.73752120757329,-17.470063121402408,1.2771167200854732,33.73974710413857,-3.179984423676012,-7.062749287749304,31.25548866325217,37.9646868541648,37.772995477281576,1577396353.0,-27.6825068330978,-51.12643026409455,8.179391
92263,1577396353.05,0.7687781530761719,1.6834828973388671,5.01902479522705,-4.573917888659965,0.21378468970322,6.972849556974086,-2.67529233601888,7.005833091227212,-0.0039903361002597,1.9321441650390625,5.730628967285156,-1.479339599609375,-6.662136170922256,-5.037447301352897,-1.6920508407964938,3.5721915108816966,-3.988356817336309,-29.159909202938987,-6.022272721491471,-17.849847102302462,0.5473357371794911,30.646269821187605,-2.8538321750938573,-7.8936609686609795,31.15964297481056,37.91676400994399,37.725072633060776,1577396353.0,-27.6825068330978,-51.12643026409455,8.179391
92264,1577396353.06,-1.1729193933105468,5.211339043579102,11.34570268218994,-0.9335342643923872,2.14829963110947,8.341135805753382,-2.9829472493489577,-9.654219160970053,4.552175423177083,8.539199829101562,7.851600646972656,0.214385986328125,0.4637183212652438,6.879666956459603,1.9700585342035064,-0.6697518484933034,-37.84760974702381,-0.9006318591889881,-5.8616787822516985,-18.039739092752487,0.7297809829059857,30.646269821187605,-2.3646038022206244,-7.8936609686609795,31.25548866325217,38.0126096983856,37.67714978883997,1577396353.0,-27.6825068330978,-51.12643026409455,8.179391
92265,1577396353.07,0.3450044592285156,-4.573763141479492,8.85573295562744,0.2384274482540962,-2.3408284816834977,6.15882099252096,1.0620564554850256,-10.79026784871419,14.480929707845055,-10.320663452148438,-1.2426376342773438,-0.365447998046875,-7.730251405297256,-0.6123984732278964,0.1390038467035061,-2.5008065359933034,-37.37458728608631,20.278567359561013,-6.985836356930107,-18.98919904500261,1.2771167200854732,30.83961215137204,-3.4245986101126284,-88.07663817663818,31.20756581903136,37.9646868541648,37.62922694461916,1577396353.0,-27.6825068330978,-51.12643026409455,8.179391
92266,1577396353.08,-2.975753243408203,-2.2298397161865235,6.176621297912597,-2.7471420219607463,2.387719797125095,12.766817574552208,-0.1470153828938795,10.630654404703776,10.01574361165365,-5.7125091552734375,1.4734268188476562,1.007843017578125,-2.023464295922256,1.1576210580221036,-0.6544531845464938,0.3983633858816966,-23.70271228608631,22.292727515811013,-6.50405453921079,-18.41952307365253,2.18934294871795,32.38635079284752,-3.4245986101126284,-88.07663817663818,31.20756581903136,38.0605325426064,37.725072633060776,1577396353.0,-27.6825068330978,-51.12643026409455,8.179391
92267,1577396353.09,-1.4674061975097654,-1.1332953558349608,13.355634975891112,-1.4722296379275437,-2.794529696283108,9.939265413907677,1.647438761393229,3.4468523234049484,13.569935976155602,-0.9365081787109374,-0.7543563842773438,-0.090789794921875,0.5247534775152439,-1.4363730826028966,0.4441796279535063,0.5204336983816966,-14.95942615327381,-7.461911156063987,-6.985836356930107,-17.090279140502354,1.4595619658119676,31.03295448155648,-2.772294112948318,-108.43397435897438,31.27945008536257,38.036571120496,37.67714978883997,1577396353.0,-27.6825068330978,-51.12643026409455,8.179391
92268,1577396353.1,2.641043851318359,2.9057228448486327,8.54927514312744,-0.1015491874880902,6.318998923101658,10.025456673673302,1.533714182535807,-24.379756471761063,12.07715124104818,-0.6160736083984375,-2.066612243652344,0.489044189453125,-3.396755311547256,1.0965859017721036,0.9019432998285062,-1.6157967703683034,0.3146216982886905,15.121096656436013,-6.985836356930107,-16.710495159602303,2.736678685897437,30.646269821187605,-2.690756050802779,-101.78668091168092,31.25548866325217,37.9646868541648,37.91676400994399,1577396353.0,-27.6825068330978,-51.12643026409455,8.179391
92269,1577396353.11,-1.9630059411621088,-0.4892551092529296,10.364080001525878,5.737908661633003,0.1587180515196262,11.938423800138146,-3.2211703145345045,28.81461601359049,6.697380110677083,-1.5010833740234375,-2.097129821777344,0.763702392578125,-3.122097108422256,10.038236292397103,-0.7154883407964938,2.5956290108816966,12.15544201078869,-0.6564912341889881,-6.182866660731244,-17.280171130952382,1.824452457264953,14.01882942532616,-2.690756050802779,-101.78668091168092,31.25548866325217,37.86884116572318,37.725072633060776,1577396353.0,-27.6825068330978,-51.12643026409455,8.179391
92270,1577396353.12,0.7184999182128906,-5.021478851928711,3.801573251037597,-1.9331134575076212,-4.423783926019436,4.703146383145961,4.267892478434244,9.819020041910807,12.733162495930992,-9.710311889648438,1.4734268188476562,0.885772705078125,-1.596218202172256,-5.891939488852897,-0.8985938095464938,1.4664786202566966,14.29167247953869,-31.448727562313987,-6.182866660731244,-17.280171130952382,1.4595619658119638,20.20578399122809,-3.3430605479670894,7.893660968660963,31.447180040135382,38.0605325426064,37.86884116572318,1577396353.0,-27.6825068330978,-51.12643026409455,8.179391
92271,1577396353.13,1.8701109167480463,3.5820848138427737,9.92833529937744,-0.3469548576541064,5.645031155767674,8.525489333585412,-4.97971143391927,-7.989051906331378,6.213751375325522,1.8405914306640625,2.373695373535156,-0.731658935546875,-5.288845155297256,2.683499964272104,0.7646141982660062,-1.2953622000558034,7.165817987351191,4.668826148623513,-6.6646484784505615,-18.419523073652535,1.6420072115384623,21.84919379779579,1.7530683361290844,1.4540954415954368,31.20756581903136,37.91676400994399,37.58130410039836,1577396353.0,-27.6825068330978,-51.12643026409455,8.179391
92272,1577396353.14,-0.4786009118652333,-2.512355512084961,11.59469965484619,4.349271698742377,-1.6465100002381852,12.793153792813929,2.6230759379069,-2.5183011128743487,7.5401390950520835,-2.477645874023437,9.255409240722656,-0.151824951171875,9.084934141577744,12.296537073647103,-1.4173926376714938,-2.8059823172433034,0.3451392764136905,-2.121334984188988,-6.343460599971016,-18.98919904500261,1.2771167200854732,32.96637778340082,-3.179984423676012,7.893660968660963,31.30341150747297,38.0605325426064,37.725072633060776,1577396353.0,-27.6825068330978,-51.12643026409455,8.179391
92273,1577396353.15,2.032916629638672,-2.972042230834961,10.218033700256347,-1.008951616687309,-9.46357842064834,9.393387435392055,-1.9378782246907549,-10.158198610432942,16.12335204671224,-6.8721771240234375,13.009071350097656,-0.182342529296875,5.026096250952744,-7.112642613852897,1.6648827529535062,-5.552564348493304,7.455734979538691,10.757082984561013,-6.02227272149147,-17.470063121402408,1.6420072115384623,31.61298147210978,-3.261522485821551,8.309116809116793,31.30341150747297,38.0605325426064,37.86884116572318,1577396353.0,-27.6825068330978,-51.12643026409455,8.179391
92274,1577396353.16,0.6718129858398437,0.1715445489501958,11.710818435363768,-5.5004739311404345,5.579190610113376,10.573728853849085,-2.02406948445638,0.7282363382975253,5.536192305501302,-1.9588470458984373,3.426551818847656,0.199127197265625,-12.490993592797256,-4.060884801352897,-4.530185606421494,-2.5008065359933034,5.899338495163691,11.977786109561013,-5.701084843011927,-17.659955111852433,0.3648904914529928,26.77942321749889,-1.5492231807652364,14.540954415954404,31.25548866325217,38.10845538682721,37.62922694461916,1577396353.0,-27.6825068330978,-51.12643026409455,8.179391
92275,1577396353.17,2.0233398229980466,1.5027206719970705,9.435129757385251,3.681289435558784,1.099639303961033,13.115173916104943,2.5919513163248697,7.592412497965494,14.13975597127279,-2.050399780273437,5.776405334472656,-0.487518310546875,2.935642149390244,9.839872034584603,1.4054833388910062,-1.8599373953683036,5.838303338913691,-10.269528343563987,-5.701084843011927,-18.609415064102564,0.1824452457264983,31.032954481556477,-3.0169082993849345,-5.400925925925943,31.447180040135382,38.084493964716806,37.725072633060776,1577396353.0,-27.6825068330978,-51.12643026409455,8.179391
92276,1577396353.18,1.0584765539550782,-0.5658695623779296,9.60272387359619,-6.099024346179497,1.008659640875095,6.003197884610804,-3.4893209004720047,-18.01836266072591,11.507331245930992,-6.6585540771484375,5.349159240722656,-0.090789794921875,-8.035427186547256,1.7374550423971036,-0.5018652939214938,-3.629956926618304,-3.957839239211309,0.960940406436012,-5.701084843011927,-18.609415064102564,0.1824452457264983,28.326161858974377,-2.8538321750938573,-0.4154558404558628,31.20756581903136,37.91676400994399,37.772995477281576,1577396353.0,-27.6825068330978,-51.12643026409455,8.179391
92277,1577396353.19,-0.5097255334472646,1.1795034478759765,9.614694881896972,4.868813458996283,2.998241220464939,13.044544967130332,-2.584312672932942,12.349691196695964,8.143477913411457,-3.7288665771484375,5.501747131347656,-0.151824951171875,-19.540554139672256,8.237699183022103,0.7188378310785062,-4.148755754743304,17.19084240141369,7.094973609561012,-6.182866660731244,-16.900387150052328,1.824452457264953,23.685945934547927,-1.5492231807652364,-101.78668091168092,31.20756581903136,37.86884116572318,37.725072633060776,1577396353.0,-27.6825068330978,-51.12643026409455,8.179391
92278,1577396353.2,0.0014365209960938,-3.4029985296630856,7.844182754211425,1.84493676221894,-0.1812585842225602,12.93201748910299,-2.5340344380696607,8.41122946573893,13.305376692708336,-5.1326751708984375,5.944252014160156,-0.029754638671875,10.275119688452744,2.164701136147104,-0.0135840439214938,-0.9138924734933034,36.26432872953869,-6.210690452938988,-6.343460599971015,-17.659955111852433,0.9122262286324764,24.84599991565453,-2.2015276779295467,-7.062749287749304,31.327372929583376,37.9646868541648,37.772995477281576,1577396353.0,-27.6825068330978,-51.12643026409455,8.179391
92279,1577396353.21,-0.0907402429199209,1.1914744561767576,6.416041463928222,-0.8928328361697313,-2.485677682122951,4.033967019132288,3.224020554606119,-6.559713515218099,13.547191060384112,-0.8602142333984375,3.518104553222656,-1.067352294921875,-8.554226014672256,8.024076136147103,0.1542626357660061,-4.789624895368304,43.66484142485119,7.781619117373513,-6.02227272149147,-17.849847102302462,1.2771167200854732,31.419639141925344,1.7122993050563151,-85.999358974359,31.20756581903136,37.89280258783359,37.653188366729566,1577396353.0,-27.6825068330978,-51.12643026409455,8.179391
92280,1577396353.22,-0.0763750329589833,-2.153225263061523,9.945094710998534,-3.393576470202934,7.676511264410252,7.470843502286585,0.0110019266764319,18.28970551554362,4.638366682942708,-3.484725952148437,3.029823303222656,-0.334930419921875,-3.610378358422256,-21.48642191072789,2.183681581078506,-1.1885506766183034,48.92912365141369,-4.043942406063988,-6.50405453921079,-16.520603169152277,1.4595619658119638,31.61298147210978,-1.9569134914929305,-88.07663817663818,31.30341150747297,38.0605325426064,37.725072633060776,1577396353.0,-27.6825068330978,-51.12643026409455,8.179391
92281,1577396353.23,-1.2016498132324218,-0.0199915838623037,13.615405856018064,0.6741721504025336,1.7628331638243135,11.995884639981895,4.71081978556315,7.67142115275065,-0.7916826822916659,-5.9871673583984375,5.867958068847656,-0.243377685546875,0.051731016577744,27.829984339272105,0.5052147842035062,0.1542227608816966,22.22624279203869,-13.962155296688987,-6.50405453921079,-16.520603169152277,1.4595619658119638,31.61298147210978,-1.9569134914929305,-88.07663817663818,31.30341150747297,37.772995477281576,37.725072633060776,1577396353.0,-27.6825068330978,-51.12643026409455,8.179391
92282,1577396353.24,-2.4921245080566408,1.5075090753173828,5.793549032287597,4.557567243175971,-8.041422634515529,4.940172347501429,0.0660685648600256,-7.493452162679036,-2.0558211588541657,-4.8274993896484375,3.975868225097656,-1.494598388671875,2.859348204077744,-7.112642613852897,2.946621034203506,-3.0806405203683034,-26.60188220796131,-15.884762718563987,-6.50405453921079,-16.520603169152277,1.4595619658119638,31.419639141925344,3.0169082993849345,-5.400925925925935,31.20756581903136,37.91676400994399,37.725072633060776,1577396353.0,-27.6825068330978,-51.12643026409455,8.179391
92283,1577396353.25,0.1367089147949223,0.1164779107666015,8.05128119781494,-3.9693819694705126,1.210969681158298,13.049333370450649,-3.836480141194661,-8.69055299275716,13.653733034261066,-2.676010131835937,2.114295959472656,0.321197509765625,-10.736232850609756,0.6845985970846034,0.8866845107660062,-2.6839120047433034,-20.69673084077381,10.406130836123513,-6.102569691111357,-16.995333145277343,-0.4561131143162344,31.03295448155648,-3.179984423676012,-7.8936609686609875,31.15964297481056,38.15637823104801,37.725072633060776,1577396353.0,-27.6825068330978,-51.12643026409455,8.179391
92284,1577396353.26,1.9922152014160155,0.5019443780517578,10.890804366760252,-1.8253743828005904,-0.0711253078553727,14.639083272794396,-3.4007354390462234,15.763822764078776,15.721126167805991,-1.0738372802734375,4.525184631347656,-0.334930419921875,4.263156797827744,-8.760591832602897,4.533535096703506,-2.8975350516183034,14.38322521391369,15.243166968936013,-7.146430296169879,-18.41952307365253,0.7297809829059857,30.646269821187605,-3.3430605479670894,6.231837606837594,31.30341150747297,38.0605325426064,37.62922694461916,1577396353.0,-27.6825068330978,-51.12643026409455,8.179391
92285,1577396353.27,0.1582567297363281,-1.372715521850586,11.743140157775878,-1.1190848930544963,2.1363286228086884,8.986373153165493,0.4659002421061193,9.960277939860026,8.258399593098957,3.0155181884765625,6.936073303222656,2.259063720703125,-5.197292420922256,13.028958948647103,-0.2882422470464938,0.1542227608816966,1.4742896670386905,-6.180172874813988,-6.6646484784505615,-15.950927197802198,0.912226228632484,31.419639141925344,-3.0169082993849345,-5.400925925925935,31.20756581903136,37.91676400994399,37.772995477281576,1577396353.0,-27.6825068330978,-51.12643026409455,8.179391
92286,1577396353.28,0.4479551306152343,-1.1069591375732422,10.404781429748532,-0.2571722953982471,-0.8839567714784196,10.877792464688929,1.8485517008463543,-8.481060347493488,11.466629817708334,-1.5621185302734375,4.220008850097656,-0.334930419921875,0.524753477515244,5.521634729897103,2.412563417016006,0.6272452218191965,-6.93330310639881,-9.537106468563987,-6.6646484784505615,-15.950927197802198,0.912226228632484,30.83961215137204,-2.9353702372393955,-4.985470085470089,31.20756581903136,37.9646868541648,37.82091832150238,1577396353.0,-27.6825068330978,-51.12643026409455,8.179391
92287,1577396353.29,0.2647987036132818,-2.41658744567871,4.547367068176269,-4.030434111804496,1.5425666110899383,11.466766073087364,-1.605084193929036,-17.11096023152669,7.657454976399739,-3.9272308349609375,2.861976623535156,0.229644775390625,-3.915554139672256,10.465482386147103,-1.8751563095464936,-0.2730233328683034,0.9554908389136904,16.524905250186013,-6.744945448070448,-17.944793097527473,1.3683393429487225,32.19300846266308,-2.690756050802779,-83.50662393162395,31.399257195914583,37.91676400994399,37.772995477281576,1577396353.0,-27.6825068330978,-51.12643026409455,8.179391
92288,1577396353.3,0.2947262243652343,1.0885237847900389,12.15015444000244,2.80261742628144,-2.187599575433498,15.809847884610802,1.275140403238932,16.601793345133462,11.871249898274742,6.6471099853515625,5.532264709472656,1.435089111328125,-5.685573670922256,8.878568323647103,-0.3187598251714938,-0.0594002859933033,13.25407482328869,9.475344703311013,-5.540490903772153,-17.659955111852437,1.824452457264953,32.19300846266308,-2.690756050802779,-83.50662393162395,31.20756581903136,37.772995477281576,37.725072633060776,1577396353.0,-27.6825068330978,-51.12643026409455,8.179391
92289,1577396353.31,0.1558625280761718,0.829950005493164,7.479067001037596,1.1817429023556587,-1.23470731469131,4.8180680628334605,1.6558184672037757,6.833450571695963,13.384385347493492,8.386611938476562,3.365516662597656,0.580596923828125,7.101291563452744,-7.417818395102897,2.153164002953506,2.5651114327566966,25.91886974516369,-12.497311546688987,-7.467618174649425,-17.659955111852437,0.3648904914529966,30.646269821187605,-2.5276799265117016,-115.08126780626785,31.25548866325217,37.772995477281576,37.725072633060776,1577396353.0,-27.6825068330978,-51.12643026409455,8.179391
92290,1577396353.32,-0.6174646081542968,1.270483110961914,12.66011939361572,-2.97459117967559,3.860153818121189,13.003843538907676,-1.5332581441243485,-13.328121608479815,11.516908052571615,2.4967193603515625,3.151893615722656,1.801300048828125,3.103488829077744,2.744535120522104,1.2071190810785062,-0.5781991141183034,14.07804943266369,-0.229245140438988,-7.467618174649425,-17.659955111852437,0.3648904914529966,32.57969312303195,-3.5061366722581666,1.2463675213675056,31.543025728577,37.9646868541648,37.9646868541648,1577396353.0,-27.6825068330978,-51.12643026409455,8.179391
92291,1577396353.33,0.1379060156250004,-1.5738284613037108,7.4934322109985345,1.2715254646115186,-1.3400521877381857,8.587738576749475,-3.940627913411458,1.4297374247233074,7.160658131917318,-6.2313079833984375,3.365516662597656,0.809478759765625,0.2653540634527439,7.474759729897103,2.580410096703506,0.5662100655691966,-17.26350330171131,-2.502804710751488,-7.066133326549993,-17.944793097527473,2.0981203258546968,31.61298147210978,-1.7938373672018533,8.309116809116802,31.20756581903136,37.94072543205439,37.67714978883997,1577396353.0,-27.6825068330978,-51.12643026409455,8.179391
92292,1577396353.34,-1.931881319580078,3.6790499810791015,9.741587569885253,-4.710387383288872,1.4563753513243136,7.32719140267721,-0.3672819356282545,-11.108696669514972,11.282276289876306,1.0929107666015625,1.992225646972656,1.190948486328125,5.392307188452744,-15.321871129477897,4.686122987328506,-2.1956307547433034,-4.629225957961309,15.761965797061013,-5.058709086052835,-18.98919904500261,1.2771167200854732,31.61298147210978,-3.261522485821551,-8.309116809116826,31.25548866325217,37.91676400994399,37.725072633060776,1577396353.0,-27.6825068330978,-51.12643026409455,8.179391
92293,1577396353.35,-3.1960197961425783,-1.3463793035888671,8.343373800354003,-1.8469221977419965,-2.7837557888124045,6.462884603360804,-0.7862672261555983,13.46299496866862,9.49620185139974,0.8792877197265625,1.6870498657226562,1.221466064453125,5.239719297827744,14.127591761147103,-3.156894590796494,0.9781973702566966,-5.910964239211309,14.815920875186013,-6.50405453921079,-17.659955111852437,0.7297809829059857,31.419639141925344,-3.261522485821551,-8.309116809116826,31.20756581903136,38.15637823104801,37.91676400994399,1577396353.0,-27.6825068330978,-51.12643026409455,8.179391
92294,1577396353.36,-2.6345795068359377,-1.4577096807861325,8.65102871368408,5.091474213390815,-4.4812447658631855,10.26966524300924,3.544843577067057,2.8686526224772138,9.433952608235677,-1.3332366943359375,-2.417564392089844,1.160430908203125,-12.979274842797256,-8.669039098227897,-1.6920508407964938,2.5345938546316966,-10.91584705171131,-6.515866234188988,-6.343460599971017,-17.659955111852437,0.7297809829059857,30.646269821187605,-2.2015276779295467,-8.724572649572671,31.25548866325217,38.0605325426064,37.58130410039836,1577396353.0,-27.6825068330978,-51.12643026409455,8.179391
92295,1577396353.37,1.0608707556152344,2.0509928521728518,4.778407528381346,-3.6952458793826217,0.2700484287168923,5.665615450528772,1.1554303202311194,2.7992207743326816,9.13826870320638,-1.1348724365234375,-4.172325134277344,-0.426483154296875,4.400485899390244,-2.7028525747903966,1.3749657607660062,3.0686514718191966,-16.82099841889881,-2.685910179501488,-6.825242417690333,-18.41952307365253,2.5542334401709463,32.57969312303195,-3.179984423676012,-8.724572649572671,31.39925719591458,37.91676400994399,37.772995477281576,1577396353.0,-27.6825068330978,-51.12643026409455,8.179391
92296,1577396353.38,1.700122598876953,0.839526812133789,9.705674544982909,0.8058532417111274,2.5696791232969702,16.56402140756002,-4.612201479085286,2.1001138895670564,10.87047360432943,1.4896392822265625,-7.285118103027344,0.946807861328125,-3.488308045922256,-14.253755895102897,0.9324608779535062,-0.3035409109933034,3.70207287016369,-3.189450218563988,-6.6646484784505615,-16.330711178702252,1.2771167200854732,30.646269821187605,-2.2015276779295467,11.217307692307685,31.20756581903136,38.0605325426064,37.725072633060776,1577396353.0,-27.6825068330978,-51.12643026409455,8.179391
92297,1577396353.39,-0.4163516687011708,0.2242169854736328,14.913063155822751,4.318147077160345,2.2344908908750947,6.316838302091273,-2.000127467854817,-13.579512782796222,8.859344209798177,3.3206939697265625,-2.036094665527344,2.198028564453125,8.871311094702744,5.918363245522103,2.275234315453506,-2.0430428641183034,10.32438732328869,13.106936500186013,-6.182866660731244,-16.900387150052328,1.824452457264953,32.19300846266308,-2.2015276779295467,-8.724572649572671,31.30341150747297,37.9646868541648,37.772995477281576,1577396353.0,-27.6825068330978,-51.12643026409455,8.179391
92298,1577396353.4,1.7767370520019528,-3.0773871038818355,8.278730355529785,1.7659281074337838,-6.075783071527248,6.453307796720179,-1.94745503133138,11.473413389078775,16.824853133138024,0.2384185791015625,0.1306533813476558,1.877593994140625,-1.931911561547256,4.239896448647103,0.0169335342035061,0.0321524483816966,33.45671154203869,6.881350562686012,-6.182866660731244,-17.090279140502354,1.2771167200854694,31.03295448155648,-2.2015276779295467,-7.8936609686609795,31.25548866325217,38.0605325426064,37.62922694461916,1577396353.0,-27.6825068330978,-51.12643026409455,8.179391
92299,1577396353.41,1.8222268835449216,3.492302251586914,10.933899996643063,0.91957782056855,4.4503245273497045,16.34016355233541,1.0309318339029947,-3.9069380757649737,11.543244270833336,6.1283111572265625,2.114295959472656,-1.372528076171875,-4.586940858422256,4.331449183022104,-1.7683447861089938,-0.1509530203683033,25.55265880766369,-3.921872093563988,-6.182866660731244,-17.280171130952382,0.7297809829059857,31.419639141925344,-1.8753754293473917,-51.1010683760684,31.39925719591458,37.9646868541648,37.74903405517118,1577396353.0,-27.6825068330978,-51.12643026409455,8.179391
92300,1577396353.42,0.4192247106933593,3.4755428399658204,15.315289034729002,-1.121479094714653,0.75008586157822,13.710133028653772,-4.889928871663411,2.399389097086588,2.6224488850911456,11.011123657226562,6.814002990722656,0.275421142578125,12.960666563452744,-14.619966832602897,3.038173768578506,-1.1885506766183034,15.14616466703869,1.052493140811012,-6.182866660731244,-17.659955111852437,1.094671474358975,30.83961215137204,-1.7938373672018528,-98.04757834757837,31.20756581903136,37.9646868541648,37.58130410039836,1577396353.0,-27.6825068330978,-51.12643026409455,8.179391
92301,1577396353.43,1.9060239416503904,-3.3527202947998043,9.267535641174316,-2.905159331531059,-0.1932295925233415,3.7191295008217415,-1.6457856221516922,-2.891796571858724,5.883351546223959,-9.038925170898438,1.0156631469726562,-1.494598388671875,0.051731016577744,8.085111292397103,-3.095859434546494,1.1002676827566966,10.53801037016369,-7.553463890438988,-6.343460599971016,-15.950927197802198,2.371788194444441,30.83961215137204,-2.119989615784008,-114.66581196581198,31.20756581903136,38.10845538682721,37.725072633060776,1577396353.0,-27.6825068330978,-51.12643026409455,8.179391
92302,1577396353.44,0.1821987463378911,-0.7298723760986329,10.495761092834472,-0.6641865776248096,-2.7801644863221697,13.03377105965963,-0.4558673970540363,6.33066822306315,9.916384242757164,-5.9719085693359375,2.068519592285156,-0.319671630859375,-2.801662538109756,5.460599573647104,-2.805942442358994,2.0005362374441966,-1.9589378720238095,-4.196530296688988,-6.343460599971016,-15.950927197802198,2.006897702991452,30.646269821187605,-1.8753754293473912,-8.724572649572671,31.27945008536257,37.86884116572319,37.725072633060776,1577396353.0,-27.6825068330978,-51.12643026409455,8.179391
92303,1577396353.45,2.3585280554199217,-1.2745532537841795,7.979455148010253,1.299058783703315,0.0653441867735325,8.007144674161585,-2.890770485432942,-14.652115126546224,4.64315508626302,3.7174224853515625,5.990028381347656,0.580596923828125,1.669162657202744,17.209867151772105,0.8103905654535062,-0.1814705984933033,-18.51472400483631,-4.196530296688988,-6.6646484784505615,-17.849847102302462,2.006897702991451,30.646269821187605,-3.179984423676012,-0.4154558404558628,31.30341150747297,37.9646868541648,37.725072633060776,1577396353.0,-27.6825068330978,-51.12643026409455,8.179391
92304,1577396353.46,0.0816422766113281,1.5817293267822263,9.08557631500244,-2.665739165515434,0.625587375250095,15.388468392423302,-4.865986855061848,4.379393870035807,12.745133504231774,7.654190063476562,6.752967834472656,0.458526611328125,-0.650173280297256,0.2726112923971036,1.5733300185785062,5.006517682756696,-21.74958728608631,6.576174781436012,-6.985836356930107,-18.98919904500261,0.1824452457264983,30.646269821187605,1.875375429347392,-70.21203703703704,31.30341150747297,37.91676400994399,37.43753556773595,1577396353.0,-27.6825068330978,-51.12643026409455,8.179391
92305,1577396353.47,-0.916739815673828,-2.0670340032958983,11.443864950256346,-3.383999663562309,3.27836281470322,3.8436279871498655,6.6596999369303385,11.820572629801433,11.095528560384118,3.4732818603515625,2.449989318847656,-0.212860107421875,-0.711208436547256,9.153226526772103,-2.760166075171494,2.0768301827566966,-23.30598377046131,2.425784156436012,-6.825242417690333,-17.659955111852437,1.824452457264953,30.646269821187605,1.875375429347392,-70.21203703703704,31.25548866325217,37.91676400994399,37.58130410039836,1577396353.0,-27.6825068330978,-51.12643026409455,8.179391
92306,1577396353.48,-1.674504641113281,-0.2594117498779297,13.013264138488768,1.5600267646603465,-2.399486422357326,5.949328347257288,-2.1737070882161458,-9.569225002034504,8.138689510091147,2.0389556884765625,2.282142639160156,0.260162353515625,1.211398985327744,-2.5502646841653966,-0.4560889267339938,1.1765616280691964,-25.44221423921131,3.3718290783110123,-6.584351508830675,-17.18522513572737,1.0034488514957256,31.12962564664869,-0.5299974039460016,-38.42966524216526,31.32737292958337,38.0126096983856,37.67714978883997,1577396353.0,-27.6825068330978,-51.12643026409455,8.179391
92307,1577396353.49,-1.0556035119628906,0.3080140435791015,8.726446065979003,-3.9681848686404337,3.58482062720322,11.43803565316549,5.287822385660807,17.760586948649088,17.641275899251305,-1.9283294677734373,-1.0290145874023438,1.313018798828125,-1.596218202172256,0.5777870736471036,-0.2272070907964938,1.9242422921316968,-4.140944707961309,-1.846676781063988,-6.02227272149147,-15.571143216902144,1.2771167200854732,30.646269821187605,-3.3430605479670894,-81.84480056980057,31.20756581903136,37.9646868541648,37.772995477281576,1577396353.0,-27.6825068330978,-51.12643026409455,8.179391
92308,1577396353.5,1.6306907507324218,0.6503848809814452,10.438300252990722,4.588691864758002,2.5744675266172825,16.774711153653772,-3.118219643147786,-4.919685378011068,9.204109248860677,-2.386093139648437,-0.3271102905273437,-0.151824951171875,-4.037624452172256,8.725980433022103,1.1155663467035062,-2.3787362234933034,0.4672095889136905,-2.853756859188988,-7.467618174649425,-18.41952307365253,1.824452457264953,24.459315255285667,-3.5061366722581666,-85.1684472934473,31.20756581903136,37.9646868541648,37.772995477281576,1577396353.0,-27.6825068330978,-51.12643026409455,8.179391
92309,1577396353.51,1.0728417639160155,1.6415843682861326,10.455059664611817,1.82578314893769,0.2832165378477512,3.944184456876429,0.3294307474772131,-11.649786244710285,10.157001509602868,3.5648345947265625,2.297401428222656,2.075958251953125,5.483859922827744,-7.631441441977897,2.549892518578506,-2.4397713797433034,5.319504510788691,4.531497047061012,-6.50405453921079,-17.659955111852437,2.9191239316239352,24.459315255285667,-3.3430605479670894,-85.1684472934473,31.063797286368946,38.0605325426064,37.58130410039836,1577396353.0,-27.6825068330978,-51.12643026409455,8.179391
92310,1577396353.52,-1.0388441003417968,-3.2796971441650387,8.16620287750244,0.1905434150509716,-0.4027222377870139,11.088482210782676,0.8010884745279947,4.651135758463541,10.923146040852869,-3.103256225585937,2.205848693847656,0.763702392578125,-8.874660584984756,8.542874964272103,-2.271884825171494,1.2070792061941966,-0.5246117001488094,-3.555661156063988,-5.861678782251699,-16.90038715005233,2.371788194444444,31.51631030701756,-3.057677330457704,-97.4243945868946,31.20756581903136,37.86884116572319,37.67714978883997,1577396353.0,-27.6825068330978,-51.12643026409455,8.179391
92311,1577396353.53,-1.031661495361328,4.019026616821289,11.044033273010252,-2.8405158867068403,5.301463217535252,2.9649559778725227,1.0189608256022131,-7.77836216023763,11.382832759602868,-0.0667572021484375,2.419471740722656,-0.792694091796875,2.248996641577744,-10.408541051352897,2.763515565453506,-2.3177010672433034,1.5048072451636905,7.949465797061012,-5.8616787822516985,-17.280171130952382,0.0,30.83961215137204,-3.4245986101126284,-108.01851851851852,31.20756581903136,38.15637823104801,37.725072633060776,1577396353.0,-27.6825068330978,-51.12643026409455,8.179391
92312,1577396353.54,1.1590330236816406,-0.1181538519287099,12.53322670562744,2.275893061047065,-0.3392758937928727,6.245012252286585,-4.154908961995442,3.799997068277994,6.532180196126302,-1.1653900146484375,-1.7614364624023438,-1.464080810546875,0.906223204077744,3.904203089272104,-1.6004981064214938,-2.8975350516183034,-0.1736595517113094,4.562014625186012,-7.307024235409652,-17.470063121402408,1.2771167200854732,30.646269821187605,-3.5061366722581666,6.231837606837594,31.20756581903136,37.86884116572318,37.58130410039836,1577396353.0,-27.6825068330978,-51.12643026409455,8.179391
92313,1577396353.55,1.259589493408203,-2.5973496710205075,9.879254165344236,0.3629259345822213,-2.853187636956936,11.260864730313928,3.736379709879557,2.689087497965495,9.90561033528646,-4.3239593505859375,0.5731582641601562,-0.685882568359375,-0.1924096084222559,-6.899019566977897,0.1390038467035061,2.8702872140066966,-0.0210716610863094,-14.328366234188987,-6.985836356930107,-18.22963108320252,2.371788194444441,31.03295448155648,-3.5061366722581666,11.217307692307685,31.30341150747297,38.10845538682721,37.58130410039836,1577396353.0,-27.6825068330978,-51.12643026409455,8.179391
92314,1577396353.56,0.5030217687988281,2.1347899102783203,6.408858858947753,-0.5839808220095751,1.815505600347751,8.242973537686975,-0.8628816792805988,-9.745198824055988,15.676833437093102,1.7948150634765625,-0.0219345092773437,-0.426483154296875,-4.586940858422256,3.9804970345846034,-3.782504942358994,-2.821241106305804,36.67631603422619,9.856814429873513,-6.02227272149147,-17.470063121402408,0.1824452457264983,30.93628331646426,-0.6930735282370788,1.4540954415954293,31.25548866325217,37.89280258783359,37.725072633060776,1577396353.0,-27.6825068330978,-51.12643026409455,8.179391
92315,1577396353.57,-0.9598354455566404,4.464348125610352,13.859614425354003,-1.3178036308474652,4.02535373267197,13.21932168832174,-1.0352641988118485,28.206488791910804,6.343038264973958,9.057998657226562,2.724647521972656,1.007843017578125,-4.831081483422256,-9.706636754477897,-2.058261778296494,-2.3177010672433034,52.07243419828869,1.662844703311012,-5.701084843011927,-16.710495159602303,1.6420072115384623,32.96637778340082,1.7122993050563151,-7.8936609686609795,31.063797286368946,38.15637823104801,37.58130410039836,1577396353.0,-27.6825068330978,-51.12643026409455,8.179391
92316,1577396353.58,-1.3046004846191406,1.280059917602539,11.934676290588378,-3.7120052910037153,-5.359916775140529,10.123618941739709,1.832989390055338,-0.4975949117024736,-1.7733053629557285,5.7010650634765625,6.722450256347656,-0.121307373046875,10.305637266577744,13.822415979897103,2.885585877953506,3.3585684640066966,5.594162713913691,-27.634030296688987,-6.50405453921079,-17.280171130952382,1.094671474358975,31.419639141925344,-2.690756050802779,-8.724572649572671,31.20756581903136,38.0605325426064,37.58130410039836,1577396353.0,-27.6825068330978,-51.12643026409455,8.179391
92317,1577396353.59,-0.696473262939453,-2.726636560668945,10.303027859191891,3.159353473644721,-6.827562392816311,9.707027852872525,-8.136466322835286,-17.58501216023763,7.439582625325521,-11.297225952148438,1.610755920410156,-0.365447998046875,-1.321559999047256,-4.121919957602897,2.366787049828506,-0.6697518484933034,-19.82697986421131,-0.076657249813988,-6.182866660731244,-17.659955111852437,1.824452457264953,31.419639141925344,-2.690756050802779,-8.724572649572671,31.23152724114176,37.9646868541648,37.58130410039836,1577396353.0,-27.6825068330978,-51.12643026409455,8.179391
92318,1577396353.6,0.4886565588378906,-0.7550114935302734,12.796588888244628,-1.0412733390994184,0.256880319586033,6.733429390958461,-2.486150404866536,10.351729911295571,11.797029646809898,0.2994537353515625,0.1611709594726562,0.458526611328125,-0.4975853896722562,3.187040003334604,1.2834130263910062,2.824510846819196,-36.16914295014881,-7.995968773251487,-6.182866660731244,-17.659955111852437,1.824452457264953,31.12962564664869,-3.057677330457704,-5.1931980056980285,31.20756581903136,37.91676400994399,37.67714978883997,1577396353.0,-27.6825068330978,-51.12643026409455,8.179391
92319,1577396353.61,1.1374852087402345,-0.3958812445068359,7.864533468322753,7.521588898449409,-5.707076015863185,7.695898458341273,-0.4079833638509108,-17.79330770467122,10.523314363606774,4.0836334228515625,3.121376037597656,1.404571533203125,-8.828884217797256,5.704740198647103,0.8103905654535062,-0.8528573172433034,-19.46076892671131,14.388674781436013,-5.058709086052835,-17.470063121402408,0.5473357371794949,30.646269821187605,-2.8538321750938573,-95.13938746438748,31.111720130589752,37.9646868541648,37.725072633060776,1577396353.0,-27.6825068330978,-51.12643026409455,8.179391
92320,1577396353.62,-2.025255184326172,1.481172857055664,15.916233651428222,-5.3879464531130905,4.671788180914158,4.5547058802162725,0.1857786478678381,6.266024778238932,15.2446800374349,3.9615631103515625,0.7104873657226562,1.404571533203125,2.523654844702744,-20.47934183260289,2.458339784203506,-0.0899178641183033,4.403977167038691,23.208254859561013,-6.343460599971016,-18.22963108320252,0.912226228632484,30.646269821187605,-2.8538321750938573,-101.78668091168092,31.30341150747297,38.10845538682721,37.62922694461916,1577396353.0,-27.6825068330978,-51.12643026409455,8.179391
92321,1577396353.63,-1.571553969726562,-2.75536698059082,13.677655099182129,1.9275367194943311,-5.426954421624904,10.726957760099085,-0.8868236958821614,4.220179459635417,11.00933730061849,-2.111434936523437,-1.334190368652344,-0.014495849609375,-2.465969178734756,5.109647425209603,-0.5629004501714938,-0.8986336844308035,31.39677501860119,-1.770382835751488,-5.219303025292609,-16.900387150052328,0.3648904914529966,32.19300846266309,-3.179984423676012,-53.59380341880343,31.25548866325217,37.94072543205439,37.725072633060776,1577396353.0,-27.6825068330978,-51.12643026409455,8.179391
92322,1577396353.64,-2.0420145959472653,-0.0175973822021474,9.961854122619629,-3.182886724109184,-0.897124880609279,2.74947782845846,4.811376255289713,13.300189255777994,3.807578706868489,0.4215240478515625,-2.951622009277344,0.336456298828125,3.164523985327744,-20.17416605135289,3.099208924828506,2.1683829171316966,10.87370372953869,-3.219967796688988,-5.219303025292609,-16.900387150052328,0.3648904914529966,32.19300846266308,-3.5061366722581666,-8.724572649572671,31.447180040135382,37.91676400994399,37.62922694461916,1577396353.0,-27.6825068330978,-51.12643026409455,8.179391
92323,1577396353.65,-0.6030993981933583,1.2824541192626953,9.351332699279784,-3.302596807116996,3.7212901218321264,6.702304769376429,-1.9354840230305983,9.883663486735026,6.276000618489583,2.1305084228515625,-4.202842712402344,0.092315673828125,2.798313047827744,-2.809664098227896,0.7188378310785062,1.4969961983816966,-2.4014427548363093,-14.480954124813987,-6.825242417690333,-16.900387150052328,1.4595619658119638,34.51311642487631,-1.8753754293473912,-88.49209401709405,31.30341150747297,37.91676400994399,37.725072633060776,1577396353.0,-27.6825068330978,-51.12643026409455,8.179391
92324,1577396353.66,-3.169683577880859,3.820307879028321,10.435906051330566,1.797052729015815,-0.8995190822694352,10.573728853849085,-11.557780495198568,-3.2485326192220048,7.161855232747396,-0.0057220458984375,-6.033897399902344,0.336456298828125,-7.058864686547256,6.284574183022103,0.0474511123285061,2.6566641671316966,-13.50984119233631,-8.957272484188987,-5.8616787822516985,-16.520603169152277,1.824452457264953,30.646269821187605,-3.5061366722581666,-2.0772792022792146,31.20756581903136,37.725072633060776,37.58130410039836,1577396353.0,-27.6825068330978,-51.12643026409455,8.179391
92325,1577396353.67,-0.5133168359374994,-0.6029796881103514,8.393652035217285,-1.5668006035037152,0.8614162387754861,11.025035866788537,-2.858448763020833,-6.302336836751302,7.022991536458334,-6.1702728271484375,-2.387046813964844,0.336456298828125,2.279514219702744,-7.631441441977896,0.3831444717035063,-0.7613045828683034,-18.91145252046131,5.660647437686012,-5.540490903772153,-18.039739092752487,1.094671474358975,32.19300846266309,-0.6523044971643099,-0.4154558404558545,31.13568155270016,38.1084553868272,37.67714978883997,1577396353.0,-27.6825068330978,-51.12643026409455,8.179391
92326,1577396353.68,-1.1729193933105468,-1.5020024114990234,13.725539132385252,2.6326291084103457,-8.879393215570216,11.780406490567836,3.6956782816569,5.135961594645182,14.921462813313806,0.6351470947265625,-1.2426376342773438,0.702667236328125,-2.359157655297256,-3.023287145102896,2.641445252953506,1.6190665108816966,-15.95124744233631,5.660647437686012,-5.540490903772153,-18.039739092752487,1.094671474358975,35.28648574561405,-3.3430605479670894,-71.87386039886043,31.30341150747297,37.9646868541648,37.725072633060776,1577396353.0,-27.6825068330978,-51.12643026409455,8.179391
92327,1577396353.69,2.602736624755859,-2.596152570190429,8.527727328186034,-4.652926543445122,-0.0591542995545915,7.274518966153773,-0.6306441182454421,2.1001138895670564,8.840190596516926,1.2454986572265625,-1.7614364624023438,1.496124267578125,5.056613829077744,-8.211275426352897,2.336269471703506,2.9008047921316966,-15.00520252046131,2.883547828311012,-4.898115146813063,-17.659955111852437,1.4595619658119638,31.419639141925344,-3.5061366722581666,-79.35206552706556,31.063797286368946,38.10845538682721,37.62922694461916,1577396353.0,-27.6825068330978,-51.12643026409455,8.179391
92328,1577396353.7,-0.101514150390624,0.9137470635986332,10.561601638488767,4.751497577648627,1.719737533941501,5.696740072110804,2.0484675394694007,-0.5382963399251298,10.791464949544274,3.2444000244140625,-1.2731552124023438,1.862335205078125,5.789035704077744,2.988675745522104,0.7493554092035062,-0.5781991141183034,-11.83137439546131,5.324954078311012,-6.26316363035113,-16.805441154827317,2.280565571581199,31.419639141925344,-3.5061366722581666,-79.35206552706556,31.27945008536257,37.91676400994399,37.772995477281576,1577396353.0,-27.6825068330978,-51.12643026409455,8.179391
92329,1577396353.71,0.8860940344238282,0.561799419555664,9.53329202545166,0.6238939155392524,-2.1923879787538105,8.302828579190884,1.285914310709635,-3.703430934651693,9.897230629475912,0.9403228759765624,-2.005577087402344,1.160430908203125,-0.0245629287347559,-0.5971396841653962,2.504116151391006,0.6730215890066966,-9.71040271577381,0.6252470470610119,-6.02227272149147,-17.090279140502357,3.101569177350434,33.256391278677484,-3.4653676411853978,-8.101388888888902,31.30341150747297,38.036571120496006,37.60526552250876,1577396353.0,-27.6825068330978,-51.12643026409455,8.179391
92330,1577396353.72,1.266772098388672,-0.1827972967529296,11.549209823303222,1.23202113721894,2.6127747531797825,14.727668734220178,-6.309690456136067,12.234769517008464,12.682884261067713,-2.599716186523437,-0.2050399780273437,0.550079345703125,-2.053981874047256,-4.305025426352897,3.251796815453506,2.5651114327566966,-0.9976341610863096,-1.755124046688988,-6.02227272149147,-17.090279140502357,3.101569177350434,30.646269821187605,-3.0169082993849345,-85.1684472934473,31.30341150747297,37.9646868541648,37.9646868541648,1577396353.0,-27.6825068330978,-51.12643026409455,8.179391
92331,1577396353.73,0.5796362219238281,-2.735016266479492,8.611524386291503,-3.953819658679497,-0.2123832058045915,10.523450618985803,-0.3648877339680983,-13.845269167073566,11.82097166341146,-2.843856811523437,0.4968643188476562,0.977325439453125,7.070773985327744,7.840970667397103,2.732997987328506,-0.3950936453683034,0.0704810732886905,-4.806881859188988,-5.3798969645323815,-17.090279140502357,1.6420072115384623,31.419639141925344,-3.179984423676012,-88.49209401709405,31.20756581903136,37.91676400994399,37.62922694461916,1577396353.0,-27.6825068330978,-51.12643026409455,8.179391
92332,1577396353.74,-0.0404620080566405,-0.6341043096923829,10.227610506896973,1.8688787788205024,-6.832350796136622,4.968902767423304,-1.4710089009602858,-9.68654088338216,5.902505159505209,1.3980865478515625,-0.2355575561523437,1.770782470703125,-2.389675233422256,2.714017542397104,2.977138612328506,-0.5781991141183034,-3.2559349423363093,6.820315406436012,-6.343460599971016,-17.280171130952382,1.0946714743589787,31.419639141925344,-3.179984423676012,-88.49209401709405,31.25548866325217,37.9646868541648,37.58130410039836,1577396353.0,-27.6825068330978,-51.12643026409455,8.179391
92333,1577396353.75,-1.1681309899902343,0.1069011041259765,8.034521786193848,2.005348273449409,2.4858820651915017,10.201430495694789,0.2647873026529949,-6.071296376546223,11.734780403645836,1.2149810791015625,1.0461807250976562,1.435089111328125,0.4789771103277439,-3.2521689810403966,1.9090233779535064,-0.5171639578683034,4.068283807663691,4.653567359561013,-6.343460599971016,-17.849847102302462,3.101569177350434,31.99966613247865,-3.098446361530473,-56.5019943019943,31.39925719591458,38.06053254260641,37.74903405517118,1577396353.0,-27.6825068330978,-51.12643026409455,8.179391
92334,1577396353.76,-2.279040560302734,5.091628960571289,10.979389828186036,-4.75587721483184,2.6965718112852515,13.930399581388146,-5.086253407796224,2.964420688883464,11.840125276692712,8.020401000976562,1.870155334472656,0.366973876953125,-3.183132264672256,3.202298792397104,-1.7530859970464938,-4.514966692243304,12.18595958891369,15.456790015811013,-6.343460599971016,-17.849847102302462,3.101569177350434,32.19300846266308,-3.5061366722581666,-5.400925925925935,31.39925719591458,37.91676400994399,37.62922694461916,1577396353.0,-27.6825068330978,-51.12643026409455,8.179391
92335,1577396353.77,-2.7602750939941405,2.213798565063476,16.201143648986815,-2.924312944812309,-2.1421097438905288,4.030375716642054,2.752362827555338,16.486871665445964,9.505778658040365,-7.1773529052734375,0.8630752563476562,0.733184814453125,2.676242735327744,-13.551851598227897,2.092128846703506,0.3068106515066966,19.51017833891369,-8.194333031063987,-6.02227272149147,-18.22963108320252,1.2771167200854732,32.19300846266308,-2.2015276779295467,7.893660968660963,31.20756581903136,37.9646868541648,37.62922694461916,1577396353.0,-27.6825068330978,-51.12643026409455,8.179391
92336,1577396353.78,3.543657877197265,-3.75135487121582,7.991426156311034,3.024081079845893,-2.4090632289979514,11.636754390958458,-2.0516028035481764,-4.8382825215657554,4.390566811116536,-7.2841644287109375,-0.2050399780273438,1.725006103515625,-5.090480897484756,8.024076136147103,1.6496239638910062,2.397264753069196,2.6797340029761902,-12.802487327938987,-7.628212113889197,-17.47006312140241,1.8244524572649603,31.61298147210978,-0.2446141864366158,7.893660968660963,31.25548866325217,38.0126096983856,37.91676400994399,1577396353.0,-27.6825068330978,-51.12643026409455,8.179391
92337,1577396353.79,2.164597720947265,1.624824956665039,11.886792257385252,0.207302826672065,7.3389288303282205,12.04376867318502,1.8449603983561196,3.189475644938151,12.553597371419274,11.713027954101562,4.220008850097656,1.984405517578125,-1.870876405297256,-6.776949254477897,1.4817772842035062,1.9547598702566968,-16.83625720796131,0.3200712658110119,-6.825242417690333,-18.039739092752487,2.18934294871795,30.646269821187605,-3.3430605479670894,9.555484330484315,31.25548866325217,37.772995477281576,37.772995477281576,1577396353.0,-27.6825068330978,-51.12643026409455,8.179391
92338,1577396353.8,-0.0811634362792959,0.360686480102539,2.4680029263305654,2.1992786079220648,3.062884665289157,6.201916622403773,-1.767889906819661,-9.420784499104816,5.373386592610677,0.9098052978515624,-1.6698837280273438,1.709747314453125,1.669162657202744,14.982083948647103,0.3831444717035062,-1.7073495047433034,-19.03352283296131,-2.487545921688988,-6.825242417690333,-18.039739092752487,2.18934294871795,30.646269821187605,-3.3430605479670894,9.555484330484315,31.30341150747297,38.0605325426064,37.772995477281576,1577396353.0,-27.6825068330978,-51.12643026409455,8.179391
92339,1577396353.81,0.6107608435058594,1.653555376586914,5.403294161682128,1.758745502453315,-2.0152170559022475,6.570623678067835,5.488935325113932,-10.871670705159504,16.611769185384116,4.7855377197265625,13.039588928222656,0.946807861328125,-8.828884217797256,5.033353479897103,1.2376366592035062,-0.1204354422433033,-4.171462286086309,26.443118140811013,-5.3798969645323815,-17.090279140502357,2.006897702991451,30.83961215137204,-3.4245986101126284,9.97094017094016,31.111720130589752,38.25222391948962,37.62922694461916,1577396353.0,-27.6825068330978,-51.12643026409455,8.179391
92340,1577396353.82,-1.6397887170410157,-3.1827319769287103,10.26112933013916,0.4347519843869093,1.3689869907286107,5.134102681974086,2.722435306803385,3.3319306437174485,4.638366682942708,-6.8416595458984375,2.266883850097656,1.038360595703125,-0.802761170922256,2.683499964272104,0.6120263076410062,-2.2566659109933034,-6.94856189546131,7.766360328311013,-6.022272721491472,-17.470063121402404,1.824452457264957,30.93628331646426,-3.4653676411853978,0.6231837606837445,31.20756581903136,37.9886482762752,37.58130410039836,1577396353.0,-27.6825068330978,-51.12643026409455,8.179391
92341,1577396353.83,0.5269637854003906,0.1452083306884765,7.675391537170409,0.2887056831173775,-10.06452303734756,15.426775618985802,-0.1039197530110671,7.697757371012369,7.599994136555989,-9.435653686523438,1.1682510375976562,-0.823211669921875,1.241916563452744,-5.830904332602897,1.2071190810785062,1.7106192452566966,-21.35285877046131,-5.478268577938988,-6.02227272149147,-15.191359236002096,0.1824452457264983,31.419639141925344,-2.8538321750938573,-95.13938746438748,31.20756581903136,38.0605325426064,37.725072633060776,1577396353.0,-27.6825068330978,-51.12643026409455,8.179391
92342,1577396353.84,-3.440228365478516,0.5354632012939453,8.805454720764159,-9.95847742235137,2.6893892063047824,6.5059802332436165,-1.825350746663411,-4.225366896565755,16.17602448323568,3.2291412353515625,-0.0219345092773437,2.289581298828125,4.995578672827744,-8.669039098227897,3.923183534203506,0.5204336983816966,-9.35945056733631,-5.447750999813988,-6.02227272149147,-15.191359236002096,0.1824452457264983,30.646269821187605,-1.5492231807652364,-95.13938746438748,31.5909485727978,38.0605325426064,37.772995477281576,1577396353.0,-27.6825068330978,-51.12643026409455,8.179391
92343,1577396353.85,-0.3014299890136708,0.8802282403564453,7.562864059143066,5.362019000988472,1.30554064673447,14.880897640470176,-10.461236134847006,-5.187835963948568,8.775547151692708,1.5659332275390625,-1.959800720214844,1.679229736328125,-5.166774842797256,22.153714808022105,3.465419862328506,-2.0125252859933034,-3.652663457961309,10.848635718936013,-6.182866660731243,-18.609415064102564,0.7297809829059818,30.646269821187605,-2.2015276779295467,-95.13938746438748,31.15964297481056,38.0605325426064,37.58130410039836,1577396353.0,-27.6825068330978,-51.12643026409455,8.179391
92344,1577396353.86,0.6538564733886719,-3.2521638250732416,8.781512704162596,-2.467020427722465,-3.057891878900296,7.989188161710413,1.6857459879557293,9.751982395426433,11.561200783284503,-4.3697357177734375,1.4734268188476562,2.533721923828125,1.2266577743902438,-4.091402379477897,3.663784120141006,2.168382917131696,-0.9518577938988092,-5.646115257626487,-5.3798969645323815,-17.090279140502357,1.2771167200854732,32.19300846266309,-2.2015276779295467,-90.98482905982908,31.447180040135382,38.1084553868272,37.725072633060776,1577396353.0,-27.6825068330978,-51.12643026409455,8.179391
92345,1577396353.87,0.7544129431152344,0.5785588311767578,5.527792648010253,6.568696637707221,-0.6337626979920915,14.169819747403771,-6.441371547444661,-14.585077480061848,9.903216133626303,-0.7686614990234375,-1.5478134155273438,3.113555908203125,-5.319362733422256,8.909085901772103,0.0474511123285061,-1.3716561453683034,-8.13874744233631,-2.579098656063988,-5.058709086052835,-16.710495159602303,1.6420072115384623,33.93308943432301,-3.4245986101126284,-8.309116809116826,31.30341150747297,37.91676400994399,37.58130410039836,1577396353.0,-27.6825068330978,-51.12643026409455,8.179391
92346,1577396353.88,-0.1817199060058583,3.738905022583008,12.74391645172119,-0.2882969169802777,4.33181154517197,12.994266732267052,-0.2763022725423171,-15.288972768147785,15.029201888020836,6.9522857666015625,0.0696182250976562,2.442169189453125,-1.809841249047256,-17.946382848227895,3.099208924828506,-2.7449471609933034,4.831223260788691,21.194094703311013,-5.058709086052835,-16.710495159602303,1.6420072115384623,31.61298147210978,-3.4245986101126284,-8.309116809116826,31.20756581903136,37.9646868541648,37.725072633060776,1577396353.0,-27.6825068330978,-51.12643026409455,8.179391
92347,1577396353.89,-0.2044648217773437,-1.6109385870361326,9.01614446685791,-1.15499791795684,1.4396159397032198,6.673574349454554,-5.428624245198567,22.34787732950846,8.648654463704426,-4.5833587646484375,0.1153945922851562,1.343536376953125,6.948703672827744,1.6764198861471036,-0.5629004501714938,-2.1040780203683034,14.81047130766369,15.884036109561013,-6.102569691111357,-16.995333145277343,1.0034488514957294,31.61298147210978,-3.4245986101126284,-8.309116809116826,31.25548866325217,37.9646868541648,37.725072633060776,1577396353.0,-27.6825068330978,-51.12643026409455,8.179391
92348,1577396353.9,2.3058556188964845,-3.060627692260742,9.68652093170166,1.6103049995236276,-3.3978685146424823,9.496338106778772,3.560405887858072,4.513469163004557,9.667387270100912,-7.940292358398437,-3.348350524902344,-0.060272216796875,-3.152614686547256,4.239896448647103,0.0016747451410061,3.434862409319196,3.5494849795386907,-5.279904320126488,-4.576927268333519,-16.520603169152277,1.094671474358975,31.22629681174091,-0.0815380621455383,-7.8936609686609875,31.30341150747297,37.91676400994399,37.58130410039836,1577396353.0,-27.6825068330978,-51.12643026409455,8.179391
92349,1577396353.91,-0.9334992272949216,-0.4509478826904296,8.609130184631347,1.0141487861447211,-1.5076463039491226,3.6568802576576793,-1.4207306660970047,-9.806250966389976,9.57281630452474,1.2149810791015625,1.1682510375976562,2.777862548828125,-5.716091249047256,-0.0935996451028963,1.4512597060785062,-1.1885506766183034,-18.54524158296131,-11.490231468563987,-5.8616787822516985,-16.900387150052328,1.824452457264953,30.646269821187605,-2.690756050802779,-8.724572649572671,31.20756581903136,38.0605325426064,37.772995477281576,1577396353.0,-27.6825068330978,-51.12643026409455,8.179391
92350,1577396353.92,0.2947262243652343,0.1835155572509765,6.605183395080566,-3.312173613757621,2.950357187261814,12.144325142911583,2.972629380289713,3.67549858194987,18.26855673421224,1.7032623291015625,-0.2355575561523437,0.702667236328125,-14.657741639672256,-8.516451207602897,-0.7765234970464938,1.5885489327566966,-4.903884161086309,-9.018307640438987,-5.8616787822516985,-16.900387150052328,1.824452457264953,30.646269821187605,-3.3430605479670894,2.0772792022791817,31.30341150747297,38.0605325426064,37.772995477281576,1577396353.0,-27.6825068330978,-51.12643026409455,8.179391
92351,1577396353.93,-1.419522164306641,2.9296648614501954,10.080367104797364,2.4746117988400336,3.1873831516172824,12.03179766488424,-5.51002710164388,-0.0881864278157548,14.236721138509118,5.7315826416015625,0.832557678222656,1.633453369140625,2.706760313452744,-4.030367223227897,2.794033143578506,-3.2332284109933034,11.81974865141369,9.261721656436013,-6.504054539210788,-16.520603169152277,2.189342948717949,30.646269821187605,-3.5061366722581666,-77.69024216524217,31.25548866325217,38.0605325426064,37.725072633060776,1577396353.0,-27.6825068330978,-51.12643026409455,8.179391
92352,1577396353.94,1.5708357092285157,-0.5945999822998046,7.143878768615722,1.0356966010861277,-1.5555303371522482,7.968837447599084,-1.5308639424641928,-1.853910152180989,16.705143050130207,-14.074325561523438,-16.715049743652344,-0.518035888671875,-3.457790467797256,3.492215784584604,1.0392724013910062,-4.743848528180804,37.97331310453869,14.403933570498513,-5.219303025292609,-18.79930705455259,1.094671474358975,30.646269821187605,-3.424598610112628,-85.999358974359,31.20756581903136,38.0126096983856,37.74903405517118,1577396353.0,-27.6825068330978,-51.12643026409455,8.179391
92353,1577396353.95,-0.0500388146972646,-3.865079450073242,7.366539523010253,0.6406533271603462,-3.767772671136624,7.971231649259241,1.583992417399088,9.66339693400065,7.892086739095052,-9.283065795898438,-1.852989196777344,0.733184814453125,3.957981016577744,-17.305513707602895,2.458339784203506,-2.3177010672433034,51.09587169828869,-1.816159202938988,-6.02227272149147,-17.470063121402408,1.2771167200854732,30.83961215137204,-2.119989615784008,-111.34216524216524,31.20756581903136,38.10845538682721,37.725072633060776,1577396353.0,-27.6825068330978,-51.12643026409455,8.179391
92354,1577396353.96,-0.0955286462402334,-3.9392997015380855,4.33548022125244,-5.61778981248809,1.9088794650938448,5.9433428431068975,-1.9450608296712235,4.4320663065592445,9.158619417317707,-8.092880249023438,-2.371788024902344,0.061798095703125,-5.655056092797256,-3.938814488852896,-1.0816992782964938,0.4899161202566966,35.19621349516369,-18.692379906063987,-6.02227272149147,-17.470063121402408,1.2771167200854732,30.646269821187605,-2.2015276779295467,-91.81574074074076,31.447180040135382,37.91676400994399,37.86884116572318,1577396353.0,-27.6825068330978,-51.12643026409455,8.179391
92355,1577396353.97,-0.4690241052246088,3.021841625366211,9.295068960266113,-1.3752644706912152,1.8083229953672824,13.43001143441549,-1.3070060872395828,-2.1005129231770834,1.214658308919271,4.6024322509765625,-2.890586853027344,1.267242431640625,-0.5586205459222562,-3.7709678091653966,-1.3105811142339938,0.3525870186941967,-11.69404529389881,1.830691382998512,-5.8616787822516985,-18.229631083202516,1.0946714743589747,31.22629681174091,-3.5061366722581666,-53.59380341880344,31.35133435169377,38.0126096983856,37.74903405517118,1577396353.0,-27.6825068330978,-51.12643026409455,8.179391
92356,1577396353.98,-0.3636792321777333,2.6734852838134766,9.360909505920407,3.810576325207221,-0.0807021144959977,5.021575203946742,0.5066016703287756,21.066979441324868,5.208186678059896,1.5811920166015625,1.0461807250976562,0.550079345703125,-4.739528749047256,-4.884859410727897,2.397304627953506,1.3444083077566966,-21.10871814546131,-2.334958031063988,-6.182866660731244,-18.41952307365253,1.824452457264953,30.646269821187605,-3.5061366722581666,4.570014245014226,31.30341150747297,38.25222391948962,37.58130410039836,1577396353.0,-27.6825068330978,-51.12643026409455,8.179391
92357,1577396353.99,1.1518504187011718,-2.641642401733398,8.992202450256347,-5.706375273913872,1.949580893316501,14.588805037931117,1.1674013285319007,-14.80055562947591,12.771469722493492,-11.907577514648438,-3.012657165527344,1.251983642578125,-2.359157655297256,-0.7649863638528964,2.885585877953506,-1.6768319266183034,-33.49885486421131,1.662844703311012,-5.219303025292609,-18.41952307365253,1.4595619658119638,32.38635079284752,-2.119989615784008,-8.309116809116826,31.20756581903136,37.91676400994399,37.725072633060776,1577396353.0,-27.6825068330978,-51.12643026409455,8.179391
92358,1577396354.0,0.3450044592285156,-2.809236517944336,8.906011190490721,3.695654645519721,2.988664413824314,4.901865120938929,-5.122166432698568,-3.456828163655598,11.933499141438803,-3.484725952148437,-1.532554626464844,0.748443603515625,-2.969509217797256,11.228421839272103,1.7564354873285062,0.3983633858816966,-45.03449939546131,2.242678687686012,-5.058709086052836,-18.039739092752484,1.0946714743589747,32.38635079284752,-2.772294112948318,8.309116809116793,31.35133435169377,38.0605325426064,37.725072633060776,1577396354.0,-27.68257524894899,-51.12639521113018,8.353466
92359,1577396354.01,0.2396595861816406,0.3846284967041015,8.592370773010252,1.6067136970333933,-0.162104970941311,11.122001034024866,5.019671799723307,2.0546240580240887,14.40790655721029,0.4215240478515625,-1.822471618652344,1.007843017578125,-2.694851014672256,-10.347505895102891,-1.9361914657964936,1.3291495186941966,-23.97737048921131,7.766360328311013,-6.50405453921079,-16.900387150052328,1.824452457264953,30.83961215137204,-0.65230449716431,1.661823361823343,31.20756581903136,37.89280258783359,37.725072633060776,1577396354.0,-27.68257524894899,-51.12639521113018,8.353466
92360,1577396354.02,-2.5854983728027343,4.540962578735352,13.32570745513916,-1.8564990043826213,6.675734970464939,7.02073359017721,-3.5012919087727856,5.217364451090494,14.42586306966146,9.393692016601562,4.158973693847656,0.458526611328125,-1.260524842797256,0.3031288705221036,0.0474511123285061,-0.2425057547433033,8.31022716703869,-4.776364281063988,-6.6646484784505615,-15.950927197802198,3.466459668803423,30.646269821187605,-2.5276799265117016,-5.400925925925935,31.20756581903136,38.0605325426064,37.725072633060776,1577396354.0,-27.68257524894899,-51.12639521113018,8.353466
92361,1577396354.03,0.6203376501464843,-0.3767276312255859,9.224440011291502,-3.8484747856326216,-7.359075161370997,12.378956905606897,5.06276742960612,-28.605522401936845,20.73697864583333,-6.0482025146484375,-5.240440368652344,-1.616668701171875,2.828830625952744,5.124906214272103,1.3902245498285062,-7.108960832868304,31.44255138578869,2.700442359561012,-6.182866660731244,-16.140819188252223,1.4595619658119638,30.646269821187605,-1.2230709321830808,7.893660968660963,31.111720130589752,37.86884116572318,37.58130410039836,1577396354.0,-27.68257524894899,-51.12639521113018,8.353466
92362,1577396354.04,-1.4590264916992188,-3.6986824346923823,11.44865335357666,2.546437848644721,-2.3671646999452163,10.803572213224085,-2.938654518636067,-0.6532180196126298,8.947929671223958,-5.0716400146484375,-2.905845642089844,1.770782470703125,3.530734922827744,-1.3753379263528964,1.5733300185785062,-1.951490129743304,33.54826427641369,13.351077125186013,-5.8616787822516985,-16.520603169152274,1.0946714743589747,30.646269821187605,-1.5492231807652364,4.570014245014226,31.183604396920963,37.91676400994399,37.86884116572318,1577396354.0,-27.68257524894899,-51.12639521113018,8.353466
92363,1577396354.05,0.5628768103027343,2.9536068780517577,13.000096029357907,-1.1322530021853563,0.5405932163145487,12.24248741097799,4.811376255289713,1.575783725992838,8.867723915608725,9.851455688476562,-1.7614364624023438,0.153350830078125,-0.7112084365472562,-0.6276572622903966,0.0474511123285061,-0.1204354422433034,29.09269787016369,-12.802487327938987,-5.540490903772153,-17.280171130952382,0.7297809829059857,31.90299496738643,-2.813063144021088,-93.2698361823362,31.01587444214814,37.9646868541648,37.67714978883997,1577396354.0,-27.68257524894899,-51.12639521113018,8.353466
92364,1577396354.06,3.677733170166015,2.285624614868164,12.681667208557128,2.0149250800900336,-1.366388405999904,15.00779032845846,-10.542638991292318,4.659515464274088,6.599217842610677,7.501602172851562,-23.642539978027344,3.022003173828125,3.469699766577744,-5.098482457602897,5.235439393578506,0.3678458077566966,20.02897716703869,1.937502906436012,-6.50405453921079,-17.280171130952382,0.7297809829059857,31.80632380229421,-3.5061366722581666,-8.724572649572671,31.111720130589752,37.86884116572318,37.725072633060776,1577396354.0,-27.68257524894899,-51.12639521113018,8.353466
92365,1577396354.07,1.3745111730957031,-0.4796783026123046,10.088746810607908,-2.5268754692263715,6.314210519781345,10.042216085294395,4.124240378824869,3.4911450541178386,0.9297483113606768,3.4732818603515625,23.324012756347656,1.618194580078125,-3.488308045922256,-4.396578160727897,2.946621034203506,-1.7989022391183034,0.8944556826636905,-0.137692406063988,-5.3798969645323815,-17.470063121402408,0.912226228632484,31.419639141925344,-3.179984423676012,-7.062749287749304,31.447180040135382,37.9646868541648,37.58130410039836,1577396354.0,-27.68257524894899,-51.12639521113018,8.353466
92366,1577396354.08,1.4762647436523435,-3.2808942449951166,9.942700509338378,8.467298554211128,-7.11486659203506,17.538461483243616,9.013200168863932,-4.323529164632161,16.805699519856773,-4.2018890380859375,0.985145568847656,1.419830322265625,5.758518125952744,16.965726526772105,1.2376366592035062,-0.8528573172433034,12.67424083891369,-2.212887718563988,-5.3798969645323815,-17.470063121402408,0.912226228632484,33.73974710413857,2.0384515536384704,-88.49209401709405,31.30341150747297,37.9646868541648,37.725072633060776,1577396354.0,-27.68257524894899,-51.12639521113018,8.353466
92367,1577396354.09,-1.366849727783203,2.7309461236572266,15.729485921936034,-4.211196337146294,2.836632608404392,13.266008620694787,-0.9778033589680988,-5.715757430013019,11.236786458333334,9.485244750976562,0.3137588500976562,0.641632080078125,0.280612852515244,-11.034151402915391,-2.058261778296494,-1.2038094656808034,-1.852126348586309,16.509646461123513,-6.182866660731244,-17.280171130952382,0.0,34.51311642487632,-3.098446361530473,-48.60833333333336,31.25548866325217,37.84487974361279,37.772995477281576,1577396354.0,-27.68257524894899,-51.12639521113018,8.353466
92368,1577396354.1,-2.16651308227539,-2.842755341186523,12.315354354553222,2.15139457471894,0.0102775485899387,15.582398726895958,2.8337656840006504,13.355255893961589,8.627106648763021,2.6493072509765625,-2.646446228027344,1.740264892578125,-4.007106874047256,6.833890589272103,-2.241367247046494,5.586351667131696,-2.1878197079613093,-20.706540062313987,-5.540490903772153,-17.280171130952382,0.7297809829059857,34.12643176450744,-2.2015276779295467,-2.908190883190908,31.447180040135382,38.0605325426064,37.86884116572318,1577396354.0,-27.68257524894899,-51.12639521113018,8.353466
92369,1577396354.11,0.9196128576660156,-1.401445941772461,7.740034981994628,-0.2140766655154339,-4.945719887933498,7.121290059903773,4.964605161539713,-20.101318105061846,11.995748384602868,-1.3790130615234375,-2.463340759277344,1.068878173828125,2.279514219702744,-10.103365270102897,1.7869530654535062,0.6425040108816966,-11.37361072358631,-0.198727562313988,-6.343460599971016,-15.950927197802198,1.6420072115384623,34.12643176450744,-3.3430605479670894,-7.8936609686609795,31.063797286368946,38.0605325426064,37.772995477281576,1577396354.0,-27.68257524894899,-51.12639521113018,8.353466
92370,1577396354.12,0.4718971472167968,-1.4708777899169925,8.329008590393066,-2.608278325671684,3.089220883550876,6.628084517911585,-5.708745839436848,-6.047354359944661,7.714915816243489,-3.7288665771484375,-4.080772399902344,1.251983642578125,0.601047422827744,7.657865198647103,3.923183534203506,4.152025495256696,-9.84773181733631,11.794680640811013,-5.540490903772153,-16.900387150052328,1.4595619658119638,30.646269821187605,2.364603802220625,-75.19750712250713,31.30341150747297,37.9646868541648,37.772995477281576,1577396354.0,-27.68257524894899,-51.12639521113018,8.353466
92371,1577396354.13,0.5533000036621094,-1.264976447143554,6.375340035705565,1.8593019721798776,-6.056629458245998,10.52464771981588,2.8265830790201822,12.049218888346353,7.720901320393881,-0.4634857177734375,-1.791954040527344,2.289581298828125,2.065891172827744,-4.701753941977897,0.3831444717035062,4.335130964006696,-12.94526599702381,-15.686398460751487,-5.3798969645323815,-18.22963108320252,2.736678685897437,32.289679627755305,-2.976139268312165,-1.0386396011396235,31.30341150747297,37.9886482762752,37.67714978883997,1577396354.0,-27.68257524894899,-51.12639521113018,8.353466
92372,1577396354.14,-0.8185775476074217,2.941635869750977,9.39203412750244,-2.7567188286013717,5.708477499761814,3.259442782071741,-0.381647145589192,-24.947182265218096,10.822589571126304,5.7621002197265625,0.1916885375976562,1.770782470703125,6.857150938452744,-8.546968785727897,1.6038475967035062,2.5651114327566966,-7.925124395461309,22.750491187686013,-5.058709086052835,-18.22963108320252,2.371788194444441,30.646269821187605,-3.179984423676012,-76.85933048433051,31.20756581903136,38.0605325426064,37.14999850241112,1577396354.0,-27.68257524894899,-51.12639521113018,8.353466
92373,1577396354.15,-1.3524845178222655,-3.3287782781982416,9.894816476135253,-0.1111259941287152,0.6591061984922825,8.016721480802211,-4.502068202718098,12.17970287882487,11.612676118977868,2.8629302978515625,2.266883850097656,-0.182342529296875,-2.145534608422256,15.806058558022103,0.3831444717035062,-1.5547616141183034,2.3287818545386907,23.147219703311013,-6.02227272149147,-18.609415064102564,0.1824452457264983,31.61298147210978,-3.261522485821551,-83.09116809116813,31.20756581903136,37.91676400994399,37.772995477281576,1577396354.0,-27.68257524894899,-51.12639521113018,8.353466
92374,1577396354.16,2.171780325927734,-0.0942118353271474,9.60272387359619,-0.0752129692263724,1.0541494724180642,17.205667452481897,-0.8652758809407555,-1.7413826741536451,10.034897224934896,1.1844635009765625,0.6189346313476562,0.611114501953125,3.545993711890244,-10.790010777915397,0.7646141982660062,2.1683829171316966,1.687912713913691,-5.020504906063987,-5.701084843011927,-17.470063121402408,2.006897702991451,31.709652637201994,-3.30229151689432,-84.96071937321939,31.063797286368946,38.0605325426064,37.725072633060776,1577396354.0,-27.68257524894899,-51.12639521113018,8.353466
92375,1577396354.17,-0.6150704064941406,2.1898565484619144,17.132488094787597,2.378843732433784,0.96077560767197,2.2514838831459603,0.1570482279459631,-3.3227528706868488,7.707733211263021,0.1773834228515624,1.183509826660156,0.305938720703125,4.995578672827744,18.674710901772105,-2.363437559546494,-1.4326913016183034,-12.77741931733631,18.996829078311013,-6.182866660731244,-17.659955111852437,2.18934294871795,31.22629681174091,-1.7938373672018528,-89.73846153846154,31.27945008536257,37.9646868541648,37.62922694461916,1577396354.0,-27.68257524894899,-51.12639521113018,8.353466
92376,1577396354.18,2.1693861242675783,-4.949652802124023,7.196551205139159,2.910356500988471,-5.022334341058498,7.990385262540491,4.569561887613931,30.81377439982096,8.967083284505208,-6.5364837646484375,1.0461807250976562,1.404571533203125,-3.335720155297256,-9.645601598227897,0.5662499404535062,4.731859479631696,-22.11579822358631,-11.032467796688987,-4.898115146813063,-18.79930705455259,1.4595619658119638,30.646269821187605,-2.2015276779295467,-90.1539173789174,31.30341150747297,37.9646868541648,37.58130410039836,1577396354.0,-27.68257524894899,-51.12639521113018,8.353466
92377,1577396354.19,1.5899893225097657,0.7892485772705077,10.85967974517822,-1.9714206840701212,-4.260978213128811,14.703726717618617,2.666171567789713,-9.281920802815756,12.23038014729818,1.7337799072265625,3.579139709472656,2.014923095703125,8.260959532202744,4.056790979897103,2.427822206078506,2.4430411202566966,-23.39753650483631,-33.76806349981399,-6.02227272149147,-17.470063121402408,0.5473357371794949,31.03295448155648,-2.8538321750938573,-98.4630341880342,31.111720130589752,37.91676400994399,37.53338125617755,1577396354.0,-27.68257524894899,-51.12639521113018,8.353466
92378,1577396354.2,0.8154650854492186,1.8666393243408204,8.423579555969237,2.3800408332638616,2.7660036594297823,7.376272536710413,-3.134979054768881,-2.5530170369466125,13.198834718831383,7.2116851806640625,2.694129943847656,0.473785400390625,1.852268125952744,-2.870699254477896,2.443080995141006,2.1073477608816966,0.9402320498511898,12.588137672061013,-5.8616787822516985,-17.280171130952382,1.4595619658119676,31.22629681174091,-3.261522485821551,8.309116809116793,31.27945008536257,37.9886482762752,37.725072633060776,1577396354.0,-27.68257524894899,-51.12639521113018,8.353466
92379,1577396354.21,1.5253458776855469,2.376604277954101,7.455124984436034,3.609463385754096,2.8689543308165013,7.523515938810022,3.609487021891275,8.562064170328775,5.825890706380209,-1.4095306396484375,6.081581115722656,-1.403045654296875,2.523654844702744,24.015287073647105,-4.804843809546494,-1.7683846609933034,9.34782482328869,1.388186500186012,-6.985836356930107,-17.470063121402408,2.006897702991451,31.03295448155648,1.7122993050563151,-8.724572649572671,31.20756581903136,38.10845538682721,37.725072633060776,1577396354.0,-27.68257524894899,-51.12639521113018,8.353466
92380,1577396354.22,-2.733938875732422,-2.371097614135742,8.47984329498291,1.0333023994259711,-4.414207119378811,8.720616768888148,-6.637696083577474,-16.253836037190755,9.232839668782551,-5.5904388427734375,-0.2660751342773437,-0.182342529296875,-1.443630311547256,1.4017616830221036,1.9395409560785064,-3.721509660993304,20.12052990141369,9.902590797061013,-5.701084843011927,-17.470063121402408,1.6420072115384623,32.19300846266308,1.7122993050563151,-6.231837606837628,31.111720130589752,37.91676400994399,37.58130410039836,1577396354.0,-27.68257524894899,-51.12639521113018,8.353466
92381,1577396354.23,1.1111489904785157,-1.2506112371826172,0.5502473965454091,-8.864327263659966,-2.6688341091249046,4.636108736661585,4.114663572184244,-2.2022664937337235,-0.7940768839518222,-7.757186889648437,5.928993225097656,-1.158905029296875,-2.786403749047256,0.0284706673971036,-0.0135840439214938,0.2457754952566966,0.3756568545386905,5.447024390811012,-5.8616787822516985,-17.659955111852437,1.094671474358975,32.19300846266308,1.7122993050563151,-8.724572649572671,31.30341150747297,37.9646868541648,37.725072633060776,1577396354.0,-27.68257524894899,-51.12639521113018,8.353466
92382,1577396354.24,-0.1817199060058593,0.0027533319091799,12.658922292785643,-0.6103170402712939,-1.823680923089748,11.89053976693502,-3.6844483357747393,5.429251298014322,9.733227815755209,2.0236968994140625,3.151893615722656,1.343536376953125,1.837009336890244,2.195218714272104,3.434902284203506,2.6566641671316966,-14.13545154389881,-17.349606468563987,-5.941975751871586,-16.805441154827317,2.2805655715811985,31.51631030701756,-2.813063144021087,0.6231837606837445,31.30341150747297,37.91676400994399,37.772995477281576,1577396354.0,-27.68257524894899,-51.12639521113018,8.353466
92383,1577396354.25,-2.0875044274902343,5.065292742309571,6.854180367736816,-0.1829520439334027,3.6470698703672815,6.999185775235804,6.082697336832682,-17.383899220784503,15.074691719563804,15.863418579101562,11.116981506347656,2.930450439453125,-2.389675233422256,20.017484339272105,-0.9901465439214938,0.5814688546316966,-15.95124744233631,8.437747047061013,-5.3798969645323815,-17.090279140502357,2.006897702991451,31.419639141925344,-2.2015276779295467,7.893660968660963,31.063797286368946,37.91676400994399,37.86884116572318,1577396354.0,-27.68257524894899,-51.12639521113018,8.353466
92384,1577396354.26,0.4599261389160156,-2.248993329467773,9.454283370666502,5.565526142101753,-1.6680578151795915,16.401215694669396,-0.5660006734212233,0.7042943216959628,12.278264180501305,-12.548446655273438,-9.177207946777344,0.794219970703125,-0.589138124047256,-5.983492223227897,3.099208924828506,-3.2332284109933034,-5.453200567336309,14.388674781436013,-5.219303025292609,-17.659955111852437,2.18934294871795,30.646269821187605,-3.5061366722581666,-0.4154558404558628,31.20756581903136,37.9646868541648,37.62922694461916,1577396354.0,-27.68257524894899,-51.12639521113018,8.353466
92385,1577396354.27,2.3633164587402344,-5.880997247924804,9.559628243713378,-7.894675591296684,0.5753091403868137,7.267336361173304,-6.604177260335286,10.522915329996746,14.801752730305992,-8.306503295898438,-0.2965927124023437,1.648712158203125,0.906223204077744,-11.751314488852897,3.526455018578506,0.5509512765066966,7.181076776413691,0.5336943126860119,-6.182866660731244,-15.761035207352172,0.7297809829059857,31.22629681174091,-2.119989615784008,-93.89301994301997,31.30341150747297,37.9646868541648,37.772995477281576,1577396354.0,-27.68257524894899,-51.12639521113018,8.353466
92386,1577396354.28,0.3174711401367188,-1.466089386596679,8.62588959625244,-2.736368114490044,1.433630435552829,3.725115004972132,6.906302707926431,5.768030832926431,7.068481368001302,-1.2264251708984375,2.114295959472656,0.626373291015625,2.920383360327744,6.498197229897105,0.2763329482660062,3.3127920968191966,2.7712867373511907,-4.684811546688987,-6.90553938731022,-16.615549164377292,1.0034488514957294,31.12962564664869,-2.813063144021087,-51.72425213675216,31.20756581903136,37.86884116572319,37.653188366729566,1577396354.0,-27.68257524894899,-51.12639521113018,8.353466
92387,1577396354.29,2.025734024658203,2.1347899102783203,5.451178194885253,11.002758112316595,-5.553847109613185,16.803441573575647,0.6406769632975257,-3.7177961446126297,7.238469685872396,3.1375885009765625,-0.4491806030273437,1.801300048828125,5.087131407202744,-11.018892613852897,1.5733300185785062,2.2599356515066966,-4.720778692336309,-6.637936546688988,-6.985836356930107,-15.950927197802198,1.6420072115384623,30.646269821187605,1.875375429347392,-111.7576210826211,31.20756581903136,37.91676400994399,37.58130410039836,1577396354.0,-27.68257524894899,-51.12639521113018,8.353466
92388,1577396354.3,-0.4067748620605458,5.8194662652587885,4.20140492828369,-9.77412389451934,6.010146908941501,-0.7867580235923199,-2.830915443929036,-4.553372524007161,14.27981676839193,9.790420532226562,4.036903381347656,1.587677001953125,11.099094297827744,-15.169283238852897,6.456142518578506,3.6027090890066966,1.6573951357886905,4.867190406436012,-6.50405453921079,-16.520603169152277,1.4595619658119638,30.646269821187605,1.7122993050563151,-88.49209401709405,31.111720130589752,37.91676400994399,37.772995477281576,1577396354.0,-27.68257524894899,-51.12639521113018,8.353466
92389,1577396354.31,0.1486799230957031,0.829950005493164,7.045716500549315,1.1482240791134712,3.6686176853086887,10.382192721036583,-1.511710329182942,-1.797646413167317,11.622252925618492,-3.484725952148437,0.7104873657226562,-0.792694091796875,-11.239772889672256,32.8653847298971,-1.4173926376714938,-1.2190682547433034,19.81535412016369,-2.731686546688988,-5.701084843011927,-17.470063121402408,0.5473357371794949,31.999666132478648,-2.4461418643661625,-86.41481481481483,31.30341150747297,37.91676400994399,37.62922694461916,1577396354.0,-27.68257524894899,-51.12639521113018,8.353466
92390,1577396354.32,1.4547169287109374,-1.5606603521728513,11.164940456848145,0.1510390876583934,0.2496977146055639,9.14558756356588,-6.5131975972493485,4.858234202067057,10.693302681477864,0.2079010009765625,4.570960998535156,0.992584228515625,5.422824766577744,-11.079927770102897,3.526455018578506,0.2610342843191965,30.14555431547619,6.988162086123513,-5.058709086052836,-17.470063121402408,1.0946714743589747,30.646269821187605,-3.3430605479670894,-7.062749287749304,31.30341150747297,38.06053254260641,37.820918321502376,1577396354.0,-27.68257524894899,-51.12639521113018,8.353466
92391,1577396354.33,-1.2208034265136718,-3.441305756225585,9.401610934143063,3.379620026379096,-4.450120144281154,19.51367785287252,3.133040891520181,12.112665232340497,1.7820841023763014,-2.355575561523437,2.755165100097656,0.580596923828125,-5.288845155297256,29.050687464272105,-3.309482481421494,4.090990339006696,-5.697341192336309,-30.075436546688987,-5.219303025292609,-16.900387150052328,1.824452457264953,30.646269821187605,-3.3430605479670894,-5.400925925925935,31.447180040135382,37.62922694461916,37.772995477281576,1577396354.0,-27.68257524894899,-51.12639521113018,8.353466
92392,1577396354.34,-2.1258116540527343,2.6926388970947266,9.38006311920166,-2.862063701648246,4.106756589117283,9.718998861173304,-5.440595253499349,-28.56242677205403,8.447541524251301,2.7713775634765625,6.386756896972656,1.343536376953125,-1.321559999047256,-15.810152379477897,0.5967675185785062,4.060472760881696,-44.88191150483631,-18.570309593563987,-6.50405453921079,-17.659955111852437,2.18934294871795,30.646269821187605,-3.3430605479670894,-5.400925925925935,31.447180040135382,38.0605325426064,37.91676400994399,1577396354.0,-27.68257524894899,-51.12639521113018,8.353466
92393,1577396354.35,-0.5671863732910155,4.397310479125976,12.45062674835205,1.67255424268769,5.378077670660252,5.244235958341273,0.9734709940592444,-23.57051631062825,13.06595652669271,4.5108795166015625,3.762245178222656,0.305938720703125,6.674045469702744,12.174466761147103,1.5428124404535062,-1.4326913016183034,-26.99861072358631,22.323245093936013,-5.781381812631812,-18.134685087977505,1.3683393429487225,31.22629681174091,-7.012273344516334,-8.309116809116826,31.20756581903136,37.9646868541648,37.58130410039836,1577396354.0,-27.68257524894899,-51.12639521113018,8.353466
92394,1577396354.36,-0.0715866296386708,-7.516236981811523,10.067198995666503,-3.018883910388481,-3.1177469204042016,11.198615487149866,2.5356875773111973,6.900488218180339,18.10335681966146,-2.508163452148437,1.5954971313476562,1.923370361328125,0.6010474228277439,-1.6957724966653964,0.6425438857660062,-0.5781991141183034,16.13798595610119,16.372317359561013,-6.343460599971016,-16.710495159602303,1.2771167200854732,30.83961215137204,-3.9953650451314,-75.61296296296297,31.30341150747297,37.89280258783359,37.70111121095037,1577396354.0,-27.68257524894899,-51.12639521113018,8.353466
92395,1577396354.37,-0.1003170495605458,-0.0487220037841787,14.079880978088378,6.53757201612519,-1.3831478176209977,13.43001143441549,3.176136521402994,-5.968345705159505,3.5035150960286456,-2.660751342773437,-0.7238388061523438,1.923370361328125,5.422824766577744,1.3102089486471036,-1.0511817001714938,1.2833731515066966,29.12321544828869,-6.058102562313988,-6.343460599971016,-16.710495159602303,1.2771167200854732,30.646269821187605,-2.2015276779295467,-84.33753561253562,31.111720130589752,38.10845538682721,37.725072633060776,1577396354.0,-27.68257524894899,-51.12639521113018,8.353466
92396,1577396354.38,-0.4235342736816396,4.004661406860351,8.168597079162597,-2.20844664842559,3.9870465061094698,5.265783773282679,0.6550421732584631,15.402298313395182,3.613648372395833,10.705947875976562,-1.4562606811523438,0.122833251953125,2.096408750952744,-17.671724645102895,3.190761659203506,3.1144278390066966,23.44694591703869,-3.464108421688988,-5.540490903772153,-16.900387150052328,1.094671474358975,31.80632380229421,-3.5061366722581666,-88.49209401709405,31.25548866325217,38.0605325426064,37.725072633060776,1577396354.0,-27.68257524894899,-51.12639521113018,8.353466
92397,1577396354.39,-0.0272938989257811,1.7337611322021484,11.112268020324706,-2.99374479295684,3.2616034030821264,11.93602959847799,-2.0599825093587234,-7.696959303792317,2.1747331746419265,2.7866363525390625,9.514808654785156,0.901031494140625,-2.664333436547256,9.702542933022103,-2.332919981421494,0.5204336983816966,-33.01057361421131,-8.621579124813987,-6.744945448070448,-17.754901107077444,1.733229834401708,32.77303545321639,-2.9353702372393955,-114.66581196581198,31.27945008536257,38.10845538682721,37.725072633060776,1577396354.0,-27.68257524894899,-51.12639521113018,8.353466
92398,1577396354.4,-3.2965762658691404,1.0837353814697264,11.214021590881346,-1.7906584587283243,-1.1904145839784197,8.222622823575646,-0.1996878194173177,-2.621251784261068,8.282341609700522,-2.874374389648437,-2.097129821777344,0.946807861328125,-0.2381859756097561,-4.533907262290397,2.305751893578506,2.0920889718191966,-32.76643298921131,5.675906226748513,-5.3798969645323815,-18.609415064102564,0.5473357371794949,31.709652637202,-3.220753454748781,-55.04789886039888,31.39925719591458,37.91676400994399,37.67714978883997,1577396354.0,-27.68257524894899,-51.12639521113018,8.353466
92399,1577396354.41,0.5341463903808593,-3.9871837347412105,3.3035793057250964,1.4020094550900335,-4.476456362542874,11.114818429044396,-2.4646025899251294,-2.420138844807942,17.84717724202474,-11.022567749023438,-1.5172958374023438,1.190948486328125,1.272434141577744,-2.351900426352896,-3.065341856421494,0.3678458077566966,-3.835768926711309,13.961428687686013,-5.3798969645323815,-18.609415064102564,0.5473357371794949,32.19300846266308,-3.3430605479670894,6.231837606837594,31.25548866325217,38.0605325426064,37.43753556773595,1577396354.0,-27.68257524894899,-51.12639521113018,8.353466
92400,1577396354.42,-0.4043806604003896,-1.6743849310302734,10.249158321838378,-2.931495549792777,3.39328449439072,12.831461019376428,-2.9266835103352857,-0.1169168477376298,12.91272762044271,0.0247955322265625,-2.219200134277344,2.442169189453125,1.608127500952744,-4.121919957602897,-1.8446387314214936,-1.4632088797433034,10.32438732328869,12.557620093936013,-5.3798969645323815,-17.849847102302462,0.912226228632484,32.19300846266308,-2.2015276779295467,7.893660968660963,31.25548866325217,38.10845538682721,37.772995477281576,1577396354.0,-27.68257524894899,-51.12639521113018,8.353466
92401,1577396354.43,-0.5839457849121088,1.2836512200927737,9.96664252593994,-2.0588090446658245,-1.940996804437404,15.449520534757289,0.9674854899088542,4.754086429850259,10.148621803792318,2.4356842041015625,0.8783340454101562,1.206207275390625,3.744357969702744,-2.9164756216653966,1.9853173232660064,0.7950919015066966,10.47697521391369,-1.4041718982514877,-6.022272721491471,-17.470063121402408,1.8244524572649603,32.19300846266309,6.661338147750939e-16,-8.724572649572671,31.30341150747297,38.036571120496006,37.70111121095037,1577396354.0,-27.68257524894899,-51.12639521113018,8.353466
92402,1577396354.44,2.648226456298828,-4.363073395385742,7.8334088467407215,-1.6098962333865277,4.3198405368711885,0.8005976770912728,-1.2435597432454422,-4.890954958089193,8.871315218098959,-4.0950775146484375,-1.3647079467773438,3.083038330078125,-3.610378358422256,7.474759729897103,1.7869530654535062,3.4501211983816966,5.868820917038691,-8.102780296688987,-6.02227272149147,-17.470063121402408,1.6420072115384623,32.77303545321639,1.7938373672018535,11.632763532763512,31.25548866325217,38.10845538682721,37.772995477281576,1577396354.0,-27.68257524894899,-51.12639521113018,8.353466
92403,1577396354.45,0.2971204260253905,2.472372344360352,12.152548641662596,5.429056647472846,1.9830997165586888,11.39254582162252,0.7268682230631507,-5.834270412190755,8.682173286946615,-0.7076263427734375,-1.4257431030273438,1.007843017578125,-7.028347108422256,7.016996058022103,-0.2577246689214938,0.3983633858816966,6.784348260788691,-5.630856468563988,-6.02227272149147,-17.470063121402408,1.6420072115384623,32.77303545321639,1.7938373672018535,11.632763532763512,31.111720130589752,38.0605325426064,37.772995477281576,1577396354.0,-27.68257524894899,-51.12639521113018,8.353466
92404,1577396354.46,2.650620657958984,-0.6065709906005858,6.298725582580565,2.53446684034394,-0.7223481594178727,10.099676925138146,-1.6649392354329422,-3.880601857503255,9.060457149251302,0.9403228759765624,-7.895469665527344,0.733184814453125,5.453342344702744,2.195218714272104,2.153164002953506,-0.1204354422433033,11.78923107328869,2.151125953311012,-6.02227272149147,-16.330711178702252,1.6420072115384623,30.646269821187605,-3.5061366722581666,-8.724572649572671,31.111720130589752,37.772995477281576,37.772995477281576,1577396354.0,-27.68257524894899,-51.12639521113018,8.353466
92405,1577396354.47,1.3397952490234373,-0.5215768316650391,7.494629311828612,-1.7619280388064495,0.0007007419493142,8.252550344327602,0.6873638956705731,6.961540360514322,6.602809145100911,4.861831665039063,10.369300842285156,0.809478759765625,-2.176052186547256,9.382108362709603,0.4594384170160062,-0.0136239188058033,6.73857189360119,1.6170683361235123,-6.26316363035113,-16.235765183477234,1.1858940972222238,27.359450208052195,-2.6907560508027792,-1.6431300764452317e-14,31.23152724114176,37.9646868541648,37.89280258783359,1577396354.0,-27.68257524894899,-51.12639521113018,8.353466
92406,1577396354.48,-0.1170764611816396,2.0031088189697264,13.67047249420166,5.754668073254097,4.602356332769626,9.678297432950648,-0.3074268941243483,-16.581841664632158,5.39732860921224,3.6563873291015625,2.907752990722656,0.611114501953125,5.117648985327744,2.408841761147104,5.113369081078506,-1.1275155203683034,-14.51692127046131,0.7473173595610119,-6.182866660731244,-17.659955111852437,1.824452457264953,31.80632380229421,-3.5061366722581666,-7.8936609686609795,31.20756581903136,37.91676400994399,37.58130410039836,1577396354.0,-27.68257524894899,-51.12639521113018,8.353466
92407,1577396354.49,-2.62619980102539,-1.394263336791992,12.834896114807128,-2.117466985339653,-2.5610950344178733,6.649632332852992,-1.0687830220540355,2.8590758158365888,10.255163777669274,4.1751861572265625,3.029823303222656,2.381134033203125,8.108371641577744,8.817533167397103,3.007656190453506,0.2457754952566966,-14.48640369233631,4.256838843936012,-6.182866660731244,-17.659955111852437,1.824452457264953,30.646269821187605,-2.8538321750938573,-94.3084757834758,31.447180040135382,37.91676400994399,37.86884116572318,1577396354.0,-27.68257524894899,-51.12639521113018,8.353466
92408,1577396354.5,-2.232353627929688,-1.4158111517333978,11.612656167297365,-1.7391831230349653,-4.682357705316311,14.205732772306115,2.9008033304850254,-6.310716542561849,14.124193660481774,-6.2007904052734375,-0.2050399780273442,0.931549072265625,-11.758571717797256,11.503080042397103,0.9934960342035062,-0.0899178641183033,-7.192702520461309,-5.874997093563988,-6.6646484784505615,-16.710495159602303,1.2771167200854732,30.646269821187605,-2.690756050802779,-94.3084757834758,31.15964297481056,37.9646868541648,37.772995477281576,1577396354.0,-27.68257524894899,-51.12639521113018,8.353466
92409,1577396354.51,0.3689464758300781,0.5857414361572265,10.919534786682128,-0.3924446891970746,0.8626133396055643,15.09637578988424,1.1063491861979162,-1.865881160481771,12.627817622884118,0.9708404541015624,-0.3271102905273437,0.824737548828125,0.0517310165777438,4.514554651772104,2.244716737328506,1.5732901436941966,3.4426734561011907,-0.488644554501488,-6.825242417690333,-18.039739092752487,1.824452457264953,31.03295448155648,-2.690756050802779,-85.99935897435897,31.111720130589752,38.0126096983856,37.89280258783359,1577396354.0,-27.68257524894899,-51.12639521113018,8.353466
92410,1577396354.52,1.937148563232422,-0.3791218328857421,9.083182113342284,-1.0975370781130902,0.7668452731993137,10.087705916837365,-3.925065602620442,7.362569138590494,4.154737947591145,-1.2569427490234375,-0.9984970092773438,1.465606689453125,3.286594297827744,-7.539888707602897,1.0240136123285062,1.1307852608816966,2.2067115420386907,-1.327877952938988,-6.6646484784505615,-17.849847102302462,1.6420072115384623,31.03295448155648,-2.690756050802779,-85.99935897435897,31.25548866325217,37.91676400994399,37.772995477281576,1577396354.0,-27.68257524894899,-51.12639521113018,8.353466
92411,1577396354.53,0.2971204260253905,2.3335086480712888,8.010579769592285,0.437146186047065,9.77862032202744,5.509992342618617,0.2504220926920569,-7.5964028340657554,6.965530696614583,-1.3790130615234375,-1.6393661499023438,0.824737548828125,-7.669216249047256,0.6083046517721036,-0.9901465439214938,1.6495840890066966,-5.270095098586309,-0.7480439685639881,-6.6646484784505615,-17.849847102302462,1.6420072115384623,30.646269821187605,-3.179984423676012,-7.062749287749304,31.447180040135382,38.0605325426064,37.725072633060776,1577396354.0,-27.68257524894899,-51.12639521113018,8.353466
92412,1577396354.54,0.6730100866699219,1.7062278131103517,5.549340462951659,0.8633140815548774,1.28638703345322,16.803441573575647,1.5385025858561194,-12.71999438680013,9.017361519368489,-1.1959075927734375,-7.712364196777344,0.733184814453125,5.087131407202744,-2.657076207602896,0.8103905654535062,-3.4163338797433034,-3.988356817336309,8.224124000186013,-6.343460599971015,-16.330711178702252,1.4595619658119676,30.83961215137204,-3.0984463615304736,6.647293447293441,31.23152724114176,38.0605325426064,37.772995477281576,1577396354.0,-27.68257524894899,-51.12639521113018,8.353466
92413,1577396354.55,-1.3117830895996092,-3.980001129760742,8.477449093322752,-4.352454235095513,-2.00803445092178,6.394649856046351,-1.189690205891927,10.85092095743815,6.404090407307944,0.9098052978515624,25.429725646972656,2.381134033203125,-4.709011170922256,0.2573525033346033,-1.6920508407964938,0.4746573311941965,-5.34638904389881,-0.2902802966889872,-5.3798969645323815,-17.090279140502357,0.5473357371794949,33.73974710413857,4.440892098500626e-16,-41.545584045584064,31.30341150747297,38.06053254260641,37.70111121095037,1577396354.0,-27.68257524894899,-51.12639521113018,8.353466
92414,1577396354.56,-0.4259284753417958,1.2178106744384765,14.12297660797119,4.820929425793159,3.031760043707126,21.88872589974752,-0.582760085042317,-11.070389442952472,22.76007904866536,-0.4329681396484375,0.7715225219726562,0.672149658203125,-2.115017030297256,0.5777870736471036,2.031093690453506,-1.0054452078683034,8.89006115141369,-6.332760765438988,-5.8616787822516985,-17.659955111852437,0.7297809829059857,33.73974710413857,-2.364603802220624,-8.724572649572671,31.25548866325217,38.15637823104801,37.772995477281576,1577396354.0,-27.68257524894899,-51.12639521113018,8.353466
92415,1577396354.57,-0.0644040246582021,1.232175884399414,15.174031136779783,-2.5172986625857465,6.0819729587461895,10.20502179818502,-0.6474035298665358,-8.242837282307942,15.608598689778647,2.4662017822265625,1.839637756347656,1.404571533203125,6.155246641577744,7.291654261147103,-0.6239356064214938,-2.8059823172433034,18.80827404203869,12.343997047061013,-5.8616787822516985,-17.659955111852437,0.7297809829059857,21.75252263270357,-2.8538321750938573,-8.724572649572671,31.30341150747297,38.15637823104801,37.58130410039836,1577396354.0,-27.68257524894899,-51.12639521113018,8.353466
92416,1577396354.58,-0.8305485559082024,-0.3288435980224607,14.185225851135252,2.80261742628144,-3.494833681878811,11.30396036019674,-4.219552406819661,17.066268467203777,8.969477486165365,-2.431869506835937,-0.861167907714844,1.190948486328125,-8.859401795922256,8.970121058022103,-0.9596289657964938,0.2762930733816966,21.40226818266369,-4.440670921688988,-6.102569691111357,-17.75490110707745,1.3683393429487185,32.19300846266308,-3.5061366722581666,-80.18297720797722,31.23152724114176,37.91676400994399,37.725072633060776,1577396354.0,-27.68257524894899,-51.12639521113018,8.353466
92417,1577396354.59,1.259589493408203,-2.459683075561523,6.763200704650878,-1.6829193840212933,1.2444885044004863,9.292830965665493,-2.082727425130208,-6.145516628011068,9.722453908284509,-11.877059936523438,-0.4796981811523437,0.458526611328125,4.751438047827744,1.1576210580221034,0.4136620498285062,1.8326895577566968,-3.3017113095238098,-1.4957246326264872,-5.8616787822516985,-19.55887501635269,1.094671474358975,32.19300846266308,-3.5061366722581666,-81.84480056980057,31.25548866325217,38.0605325426064,37.79695689939198,1577396354.0,-27.68257524894899,-51.12639521113018,8.353466
92418,1577396354.6,0.9674968908691406,0.3870226983642578,6.660250033264159,3.0635854072384707,-3.73185964623428,7.300855184415491,0.8657319193522132,-1.977211537679036,7.595205733235677,-0.1583099365234375,0.6494522094726562,0.824737548828125,-2.755886170922256,6.894925745522103,-0.0135840439214938,2.4125235421316966,-15.43244861421131,9.261721656436013,-6.50405453921079,-18.41952307365253,1.4595619658119638,32.57969312303195,-2.8538321750938573,-87.66118233618238,31.25548866325217,37.91676400994399,37.91676400994399,1577396354.0,-27.68257524894899,-51.12639521113018,8.353466
92419,1577396354.61,1.977849991455078,1.823543694458008,3.8231210659790023,-1.7990381645388716,2.641505173101657,3.984885885099085,0.1067699930826819,4.226164963785807,12.615846614583337,2.8324127197265625,-0.8153915405273438,0.885772705078125,-9.866481874047256,-13.857027379477897,0.1695214248285061,-0.8833748953683034,11.11784435453869,3.890627906436012,-6.50405453921079,-18.41952307365253,1.4595619658119638,31.419639141925344,-2.8538321750938573,-91.81574074074076,31.20756581903136,37.9646868541648,37.58130410039836,1577396354.0,-27.68257524894899,-51.12639521113018,8.353466
92420,1577396354.62,0.7113173132324223,-0.3898957403564452,10.923126089172362,1.2427950446896432,2.105204001226658,5.77574872689596,-1.5368494466145828,7.005833091227212,6.746461244710288,4.8465728759765625,0.7104873657226562,1.419830322265625,-1.4283715224847562,10.740140589272103,1.5885888076410062,1.1155264718191966,16.48893810453869,4.058474586123512,-6.102569691111358,-18.1346850879775,1.9156750801282023,31.612981472109777,-2.8538321750938564,-45.28468660968663,31.25548866325217,37.9646868541648,37.74903405517118,1577396354.0,-27.68257524894899,-51.12639521113018,8.353466
92421,1577396354.63,-2.2072145104980465,-0.8962693914794921,13.58667543609619,-3.917906633777152,0.5322135105040012,12.764423372892052,1.543290989176432,9.421582566324869,8.940747066243489,13.422012329101562,41.970252990722656,1.770782470703125,-0.650173280297256,-11.781832066977897,-1.5089453720464938,2.7176993233816966,-14.79157947358631,-6.973629906063988,-7.146430296169879,-17.659955111852437,2.18934294871795,31.80632380229421,-3.5061366722581666,4.570014245014226,31.25548866325217,38.0605325426064,37.725072633060776,1577396354.0,-27.68257524894899,-51.12639521113018,8.353466
92422,1577396354.64,-2.370020223388672,5.185002825317382,13.86200862701416,2.4961596137814395,-0.4254671535584977,15.041309151700649,5.989323472086588,-19.40939382527669,9.831390083821615,-9.588241577148438,-0.2965927124023437,-0.914764404296875,3.225559141577744,12.021878870522103,3.282314393578506,-1.3106209891183034,-34.17024158296131,-5.173092796688988,-5.701084843011927,-18.609415064102564,0.1824452457264983,31.419639141925344,-3.179984423676012,7.893660968660963,31.111720130589752,38.0605325426064,37.91676400994399,1577396354.0,-27.68257524894899,-51.12639521113018,8.353466
92423,1577396354.65,1.6019603308105468,-4.149989447631835,3.595671908264159,-2.026487322253715,-1.9864866359803728,14.030956051114709,-2.620225697835286,2.351505063883463,11.016519905598962,-7.696151733398437,-0.5407333374023438,0.611114501953125,1.119846250952744,-9.035250035727897,2.244716737328506,0.5204336983816966,-14.33381580171131,4.500979468936012,-5.701084843011927,-18.609415064102564,0.1824452457264983,30.646269821187605,-2.690756050802779,-8.724572649572671,31.111720130589752,37.9646868541648,37.772995477281576,1577396354.0,-27.68257524894899,-51.12639521113018,8.353466
92424,1577396354.66,0.0696712683105469,1.1304223138427734,12.395560110168455,1.7300150825314404,4.169005832281345,7.669562240079553,-2.7722575032552075,6.152300199381511,9.925961049397788,-2.141952514648437,-1.685142517089844,0.778961181640625,-1.626735780297256,1.9663368783346036,-0.8528174423589938,1.5122549874441966,-4.400344122023809,1.494998023623512,-6.102569691111358,-18.134685087977505,-0.0912226228632453,33.73974710413857,-3.179984423676012,-8.724572649572671,31.15964297481056,38.0126096983856,37.725072633060776,1577396354.0,-27.68257524894899,-51.12639521113018,8.353466
92425,1577396354.67,-0.5983109948730458,2.7453113336181643,10.270706136779785,-2.665739165515434,-3.4134308254334984,7.528304342130335,3.6406116434733065,-6.870959731038411,6.237693391927083,6.7081451416015625,-5.820274353027344,1.709747314453125,8.779758360327744,6.406644495522103,2.824550721703506,-2.3787362234933034,-2.8897240048363093,7.461184547061012,-6.02227272149147,-17.849847102302462,0.912226228632484,30.646269821187605,-3.5061366722581666,-5.400925925925935,31.111720130589752,37.9646868541648,37.725072633060776,1577396354.0,-27.68257524894899,-51.12639521113018,8.353466
92426,1577396354.68,-0.4738125085449208,-3.292865253295898,0.0307056362915029,-0.0991549858279339,-6.408577102288967,6.802861239102992,-0.3696761372884108,8.408835264078775,13.121023164876306,0.0553131103515625,20.577430725097656,0.397491455078125,-6.662136170922256,-3.603121129477896,-1.6615332626714938,1.3749258858816966,7.181076776413691,7.125491187686012,-7.307024235409652,-16.330711178702252,1.2771167200854732,30.646269821187605,-1.8753754293473912,-8.724572649572671,31.20756581903136,38.0605325426064,37.725072633060776,1577396354.0,-27.68257524894899,-51.12639521113018,8.353466
92427,1577396354.69,-0.801818135986328,-1.081820020141601,9.57159925201416,-5.1054306572146535,-1.5722897487733414,14.785129574063928,2.4698470316569003,-0.7202556660970049,9.850543697102868,-3.6067962646484375,-1.608848571777344,0.397491455078125,8.901828672827744,-14.040132848227897,4.869228456078506,-0.3645760672433034,11.97233654203869,-2.426510765438988,-7.307024235409652,-16.330711178702252,1.2771167200854732,31.03295448155648,-2.2015276779295467,7.893660968660963,31.25548866325217,38.0605325426064,37.772995477281576,1577396354.0,-27.68257524894899,-51.12639521113018,8.353466
92428,1577396354.7,-1.0340556970214845,-0.3791218328857421,11.774264779357908,2.980985449963081,0.9619727085020484,9.356277309659632,0.9782593973795572,4.048994040934245,7.488663759358725,3.6869049072265625,-3.073692321777344,1.679229736328125,-0.4060326552972562,3.049710901772104,-0.6391943954839938,1.4054434640066966,13.45243908110119,-7.645016624813987,-6.825242417690333,-18.79930705455259,0.7297809829059857,30.646269821187605,-2.2015276779295467,-95.13938746438748,31.447180040135382,38.084493964716806,37.67714978883997,1577396354.0,-27.68257524894899,-51.12639521113018,8.353466
92429,1577396354.71,-0.2032677209472646,4.708556694946289,17.687942879943847,-0.1757694389529339,-0.245902029046779,8.892999288419398,5.742720701090494,-8.089608376057942,12.819353755696618,2.5272369384765625,0.8935928344726562,-0.731658935546875,3.134006407202744,-6.929537145102897,1.4207421279535062,-0.9749276297433034,3.67155529203869,-4.349118187313988,-4.416333329093746,-15.950927197802198,1.6420072115384623,32.38635079284752,-2.119989615784008,-101.3712250712251,31.25548866325217,37.9646868541648,37.772995477281576,1577396354.0,-27.68257524894899,-51.12639521113018,8.353466
92430,1577396354.72,1.7647660437011718,-1.918593500366211,10.330561178283691,-1.4853977470584028,1.085274094000095,2.862005306485804,-4.904294081624348,-8.661822572835286,8.20572715657552,-0.7991790771484375,-1.2731552124023438,0.855255126953125,-4.617458436547256,7.749417933022103,-1.3563574814214938,-2.0735604422433034,2.5424049014136907,0.5642118908110119,-6.825242417690333,-16.900387150052328,2.9191239316239352,31.61298147210978,-3.0984463615304736,-8.309116809116826,31.20756581903136,38.0605325426064,37.91676400994399,1577396354.0,-27.68257524894899,-51.12639521113018,8.353466
92431,1577396354.73,-0.5671863732910151,-0.0475249029541015,11.117056423645018,-1.1980935478396526,-1.0527479885194353,18.031667025235805,-3.8939409810384102,8.080829636637368,9.77632344563802,-2.233505249023437,-0.1287460327148437,0.702667236328125,-4.342800233422256,1.7984901986471036,2.732997987328506,1.5580313546316966,-9.78669666108631,7.461184547061012,-5.3798969645323815,-19.748767006802723,2.006897702991451,30.646269821187605,-2.8538321750938573,-86.83027065527065,31.25548866325217,37.91676400994399,37.772995477281576,1577396354.0,-27.68257524894899,-51.12639521113018,8.353466
92432,1577396354.74,1.3745111730957031,1.65594957824707,11.21162738922119,2.1346351630978457,-0.4362410610292013,7.34634501595846,-2.5076982198079425,2.3969948954264324,10.605914320882162,2.5882720947265625,2.175331115722656,0.702667236328125,6.551975157202744,0.7761513314596038,2.443080995141006,1.6648428780691966,-10.24446033296131,-2.579098656063988,-6.343460599971016,-17.090279140502357,1.2771167200854732,30.646269821187605,-2.8538321750938573,-86.83027065527065,31.111720130589752,38.036571120496006,37.74903405517118,1577396354.0,-27.68257524894899,-51.12639521113018,8.353466
92433,1577396354.75,1.9251775549316408,1.0933121881103514,9.940306307678222,0.1833608100705025,-0.0400006862733415,12.833855221036584,-0.1925052144368483,-0.8686961690266923,13.872802486165368,1.2149810791015625,2.846717834472656,0.244903564453125,-5.410915467797256,1.859525354897104,0.7798729873285062,2.5651114327566966,5.075363885788691,5.721682593936012,-7.467618174649425,-16.520603169152277,2.18934294871795,30.646269821187605,-3.5061366722581666,-3.7391025641025832,31.39925719591458,37.91676400994399,38.53976098481445,1577396354.0,-27.68257524894899,-51.12639521113018,8.353466
92434,1577396354.76,0.6897694982910156,-2.11731223815918,7.713698763732909,5.213578498058784,-4.864317031488186,15.984624605802209,-1.9163304097493483,8.423200474039712,7.410852205403645,-4.3087005615234375,0.2222061157226562,-0.243377685546875,4.202121641577744,10.099271448647103,1.7564354873285062,-0.9138924734933034,6.692795526413691,2.578372047061012,-6.343460599971016,-18.22963108320252,1.6420072115384623,31.419639141925344,1.7122993050563151,-8.724572649572671,31.39925719591458,37.9646868541648,37.62922694461916,1577396354.0,-27.68257524894899,-51.12639521113018,8.353466
92435,1577396354.77,0.8453926062011718,-0.0678756170654297,9.436326858215333,-3.496527141589653,-2.575460244378811,5.019181002286586,0.0325497416178381,-1.9915767476399733,5.653508186848958,0.5130767822265625,2.572059631347656,1.282501220703125,8.962863829077744,-11.049410191977897,3.129726502953506,2.8092520577566966,-8.47444080171131,-5.691891624813988,-6.825242417690333,-18.039739092752487,1.094671474358975,30.646269821187605,-3.3430605479670894,-7.062749287749304,31.183604396920963,37.772995477281576,37.772995477281576,1577396354.0,-27.68257524894899,-51.12639521113018,8.353466
92436,1577396354.78,-2.341289803466797,3.1020473809814453,9.382457320861816,2.9941535590939403,3.782342264166111,5.679980660489711,2.129870395914713,-3.2174079976399743,3.990735133870442,4.4803619384765625,1.0156631469726562,0.733184814453125,-5.471950624047256,8.268216761147103,-1.4631690048589938,1.7258780343191964,-31.19477771577381,-2.472287132626488,-6.985836356930107,-17.849847102302462,0.912226228632484,30.646269821187605,-3.5061366722581666,4.570014245014226,31.25548866325217,38.036571120496,37.74903405517118,1577396354.0,-27.68257524894899,-51.12639521113018,8.353466
92437,1577396354.79,-0.2846705773925771,3.300766118774414,6.459137093811035,-6.156485186023247,-2.187599575433498,2.9697443811928355,-7.140478432210286,-5.683435707600911,7.470707246907552,0.8792877197265625,-0.8764266967773438,-0.273895263671875,8.688205625952744,-9.950777379477897,2.549892518578506,-1.7683846609933034,-39.11408923921131,9.933108375186013,-6.02227272149147,-16.710495159602303,2.736678685897437,25.23268457602341,-2.690756050802779,-8.724572649572671,31.25548866325217,38.15637823104801,37.725072633060776,1577396354.0,-27.68257524894899,-51.12639521113018,8.353466
92438,1577396354.8,-2.3532608117675777,-2.007178961791992,11.415134530334472,-6.345627117175591,-5.048670559320216,8.560205257657678,4.603080710856119,6.649097043863931,20.464039656575515,-3.179550170898437,-4.385948181152344,1.129913330078125,-1.291042420922256,4.819730433022103,-1.6615332626714938,-0.4866463797433034,-21.74958728608631,14.358157203311013,-4.576927268333519,-18.41952307365253,2.5542334401709463,32.38635079284752,-3.4245986101126284,-84.75299145299148,31.20756581903136,38.0605325426064,37.62922694461916,1577396354.0,-27.68257524894899,-51.12639521113018,8.353466
