,timestamp,acc_x_dashboard,acc_y_dashboard,acc_z_dashboard,acc_x_above_suspension,acc_y_above_suspension,acc_z_above_suspension,acc_x_below_suspension,acc_y_below_suspension,acc_z_below_suspension,gyro_x_dashboard,gyro_y_dashboard,gyro_z_dashboard,gyro_x_above_suspension,gyro_y_above_suspension,gyro_z_above_suspension,gyro_x_below_suspension,gyro_y_below_suspension,gyro_z_below_suspension,mag_x_dashboard,mag_y_dashboard,mag_z_dashboard,mag_x_above_suspension,mag_y_above_suspension,mag_z_above_suspension,temp_dashboard,temp_above_suspension,temp_below_suspension,timestamp_gps,latitude,longitude,speed
86449,1577397922.22,1.7726435511147105,-1.7298982922065542,8.462276570241043,3.1234988439048204,0.8267879074468846,12.346343207382576,3.0073800633872425,9.853862488835034,8.029539218958412,17.5876152224657,-5.121742806783536,0.3708630073361281,4.404207555259147,1.0372254906631098,0.49591064453125,6.204744664634146,-22.515645841272864,20.619462176067078,-18.65140100704337,-21.728408787393168,3.409793288308909,17.237178033606607,-46.6853663003663,-17.026270604395606,27.94881241201665,35.28100757779974,37.9886482762752,1577397921.999,-27.69022826168635,-51.12628610177849,7.1834025
86450,1577397922.23,0.3073921350990853,4.875704088164538,14.442992317311354,-4.020798910001429,2.113671299780869,11.69152905332984,-1.2195829676186165,-19.75163813982708,8.025947916468178,12.5216972537157,-0.0863424161585365,0.1572399604611281,10.400911656821648,-4.288091892149391,2.86102294921875,-4.827359827553353,-2.6334436928353657,3.727982683879573,-19.40881830682178,-21.36322544642857,4.029755704365082,17.237178033606607,-46.6853663003663,-17.026270604395606,27.852966723575044,35.08931620091653,38.15637823104801,1577397921.999,-27.69022826168635,-51.12628610177849,7.1834025
86451,1577397922.24,1.7175769129311165,-3.003613575409679,7.703314643971511,0.1666597936118521,-0.2015217055902247,9.912637219833748,3.477840689607945,-1.5988011525223893,10.894201505335364,4.495574206840701,0.4324564119664634,0.4929333198361281,10.492464391196648,13.01537490472561,-0.52642822265625,3.381868688071646,1.272806307164634,-3.4436481754954267,-19.40881830682178,-21.36322544642857,4.029755704365082,17.237178033606607,-46.6853663003663,-15.407105654761905,27.75712103513344,34.993470512474914,38.0605325426064,1577397921.999,-27.69022826168635,-51.12628610177849,7.1834025
86452,1577397922.25,-0.7556334020102896,-3.5710393688667104,10.10469890910823,1.5912097814048207,-5.33708426662538,5.088320874618903,1.4643170934165397,8.593315314762766,8.021159513147865,-0.5703437619092987,12.761557974466465,1.744154022961128,9.760042516196648,7.5222108422256095,0.45013427734375,14.459749547446648,5.972513338414634,4.033158465129573,-19.40881830682178,-21.36322544642857,4.029755704365082,17.881558520844237,-46.6853663003663,-15.00231441735348,27.852966723575044,35.28100757779974,37.91676400994399,1577397921.999,-27.69022826168635,-51.12628610177849,7.1834025
86453,1577397922.26,-0.7520420995200551,2.163073607207507,13.15012342082698,-2.408304091886195,1.7784830673589935,18.866951428818123,-1.0436091455971324,-3.2915017262528585,13.36142631612638,7.1811210818407005,-0.8340230802210364,0.3861217963986281,7.867952672446647,-5.356207126524391,2.22015380859375,-0.2954994759908533,-3.4879358803353657,-6.297041730182928,-18.65140100704337,-21.91100045787546,3.099812080280829,17.639915838130126,-45.92419184981684,-14.091534133184524,27.900889567795847,35.20912331146853,38.06053254260641,1577397921.999,-27.69022826168635,-51.12628610177849,7.1834025
86454,1577397922.27,-1.2703867589438833,2.3402445300590697,10.839718818776198,5.017312357088414,2.6380014633550872,12.673151733993905,2.170606583162633,7.853507001774485,8.303675309046302,10.1413261599657,-12.079750619283535,0.7675915229611281,8.203646031821647,17.80663467035061,0.41961669921875,14.185091344321648,15.310892244664634,-13.575484112995428,-19.21946398187718,-21.545817116910868,3.874765100351035,20.620175591604163,-46.51621642246642,-16.014292510874544,27.90088956779585,35.08931620091653,37.91676400994399,1577397921.999,-27.69022826168635,-51.12628610177849,7.1834025
86455,1577397922.28,-1.7444386876548208,0.1615210193168822,10.980976716725417,0.930410123201696,-2.8231725234613188,8.808910254501715,-0.7503194422279915,0.5990759715010481,10.355506131800208,7.120085925590701,8.946860708841463,1.744154022961128,10.858675328696648,0.4726502953506097,-1.50299072265625,12.903353063071648,14.334329744664634,5.314896746379573,-19.21946398187718,-21.545817116910868,3.874765100351035,17.237178033606607,-46.00876678876679,-12.168775755494504,27.75712103513344,34.993470512474914,37.91676400994399,1577397921.999,-27.69022826168635,-51.12628610177849,7.1834025
86456,1577397922.29,1.339293050626429,-4.844754652069836,4.238904841725417,-1.8588348108803352,-1.499179005394912,7.805739758896246,-3.7287063074623674,-6.265100188166921,2.366055191858802,3.1833183474657014,6.871665396341464,1.133802460461128,9.241243688071648,-4.440679782774391,0.99945068359375,12.933870641196648,21.780618807164632,5.986283465129573,-19.21946398187718,-21.545817116910868,3.874765100351035,20.620175591604163,-45.83961691086691,-12.775962611607142,27.852966723575044,35.13723904513733,37.91676400994399,1577397921.999,-27.69022826168635,-51.12628610177849,7.1834025
86457,1577397922.3,1.9186898523842413,0.4009411853325076,8.814224214284012,0.1690539952720084,-0.8000721206292873,3.9450895818942926,2.012589273592321,3.090242798893626,4.772227860315834,15.2530204959032,-8.860146127096035,-0.1174182426638719,7.028719274009148,3.402337795350609,2.31170654296875,15.665193883384148,29.547342439977136,4.826615496379572,-19.59817263176638,-21.728408787393164,2.479849664224667,18.042653642653644,-46.00876678876679,-39.6945798992674,27.876928145685447,35.11327762302693,37.94072543205439,1577397921.999,-27.69022826168635,-51.12628610177849,7.1834025
86458,1577397922.31,3.1397326990639294,7.257934740020008,8.99378933879573,1.5576909581626333,6.035373619116807,10.45372679502906,-2.2035998499428358,-13.816412224299736,14.732106766565831,29.5810234255907,-18.702065072408537,-0.2089709770388719,0.4826987661966463,-0.2597715796493902,3.62396240234375,14.703890172446648,41.25083365091464,-6.800581769245427,-20.35558993154479,-21.91100045787546,2.014877852182544,17.55936827722542,-45.33216727716727,-61.553306719322336,27.852966723575044,34.89762482403331,38.0605325426064,1577397921.999,-27.69022826168635,-51.12628610177849,7.1834025
86459,1577397922.32,0.1493748255287718,2.653884947539538,12.836483003346512,0.7723928136313833,5.302747911108994,9.855176379989995,3.884854971834508,1.2455104197432356,6.646887760218178,15.6344902224657,3.301108755716464,0.6150036323361281,8.813997594321647,12.92382217035061,0.38909912109375,7.013460484946647,41.18979849466464,-13.667036847370428,-19.40881830682178,-20.632858764499392,2.7898308722527494,17.55936827722542,-45.33216727716727,-61.553306719322336,28.044658100458264,35.28100757779974,38.0605325426064,1577397921.999,-27.69022826168635,-51.12628610177849,7.1834025
86460,1577397922.33,-1.526566336580602,-5.088963221405773,4.222145430104324,-0.4438616297279915,-3.1368129409417875,5.670111878036871,-2.565124300626429,1.4837334849287822,13.793579715784585,-1.4248359494092986,20.146811880716463,2.262952851086128,4.022737828696647,-0.2445127905868909,2.28118896484375,14.963289586509148,28.692850252477136,-1.887251691120427,-19.40881830682178,-20.632858764499392,2.7898308722527494,17.881558520844237,-45.33216727716727,-62.36288919413919,27.852966723575044,35.20912331146853,38.0605325426064,1577397921.999,-27.69022826168635,-51.12628610177849,7.1834025
86461,1577397922.34,-0.261230759188024,-2.203950220917492,7.172998976246902,-4.200364034513147,-0.4600954848870997,15.75927767393531,1.6534590245688834,2.8352603220869854,14.504657608850987,-6.3534248165968,16.149009146341463,2.278211640148628,4.388948766196647,1.1745545922256098,4.47845458984375,-3.545621546303354,-1.809469083460366,-3.1079548161204267,-19.219463981877176,-21.18063377594628,2.9448214762667893,17.720463399034827,-35.01402472527472,-16.014292510874544,27.75712103513344,35.13723904513733,38.0605325426064,1577397921.999,-27.69022826168635,-51.12628610177849,7.1834025
86462,1577397922.35,1.494916158536585,1.9068940295707884,10.765498567311354,0.2720046666587271,-1.6069180801019434,11.71786527159156,4.303840262361852,-2.767171562678639,14.79196180806974,0.7113945193407013,-23.188149056783537,-0.2394885551638719,3.259798375571646,9.96361709222561,0.17547607421875,5.334993688071647,-13.650289395960366,2.3241740901295733,-20.544944256489394,-21.36322544642857,3.409793288308909,17.720463399034827,-35.01402472527472,-16.823874985691393,27.70919819091263,35.28100757779974,38.0605325426064,1577397921.999,-27.69022826168635,-51.12628610177849,7.1834025
86463,1577397922.36,-2.7523975865806016,4.10237695193407,13.253074092213698,4.2104663976157575,1.0674051742925876,9.038753613876716,-3.2259239588295543,-4.13904911394817,8.373107157190834,16.9162285037157,14.684165396341465,2.934339569836128,-0.1886879525533537,6.6677186547256095,1.24359130859375,-2.477506311928354,-16.732564786585368,-1.246382550495427,-19.030109656932574,-21.728408787393168,3.409793288308909,17.881558520844237,-35.85977411477411,-58.71976805746337,27.90088956779585,35.08931620091653,38.0605325426064,1577397921.999,-27.69022826168635,-51.12628610177849,7.1834025
86464,1577397922.37,-0.4312190770591178,0.4356571094047728,7.311862672535964,-3.5263962671791638,1.9317119736089932,9.065089832138437,0.6706392430747428,5.236644587223703,7.110165781458412,-1.5011298947217986,1.3022073885289638,2.095106171398628,1.1083091177591466,-0.4428770483993902,1.45721435546875,-3.4082924447408534,-12.261739591272866,10.579178972942074,-19.219463981877176,-21.18063377594628,3.254802684294869,18.36484388627246,-40.934270451770445,-15.407105654761905,27.68523676880223,35.13723904513733,38.0126096983856,1577397921.999,-27.69022826168635,-51.12628610177849,7.1834025
86465,1577397922.38,-0.8107000401938834,0.111242784453601,8.177366572682448,1.220108524080602,-3.0003434463128813,7.530406567978278,-2.8476400965248665,-13.062238701350516,8.22227245260099,8.4323417849657,3.6062845369664633,-0.941392852038872,4.785677281821647,-0.2597715796493902,0.11444091796875,-9.649137171303352,-10.415426114710366,-1.612593487995427,-19.787526956710987,-22.09359212835776,3.409793288308909,7.73256584685156,-46.17791666666667,-9.942423949748168,27.90088956779585,35.13723904513733,38.0605325426064,1577397921.999,-27.69022826168635,-51.12628610177849,7.1834025
86466,1577397922.39,0.410342806485804,-1.2726057751167104,5.984277851979324,1.6965546544516958,0.5119503891363367,6.898337329697028,11.644462552400917,22.802902167790112,10.384236551722084,1.6879570193407014,-1.9173971036585369,2.720716522961128,-2.630094202553354,1.2355897484756098,1.64031982421875,11.377474156821648,5.758890291539634,-1.093794659870427,-17.515275057375753,-20.2676754235348,3.409793288308909,7.73256584685156,-46.17791666666667,-9.942423949748168,28.14050378889987,35.13723904513733,37.772995477281576,1577397921.999,-27.69022826168635,-51.12628610177849,7.1834025
86467,1577397922.4,-1.0836390294516958,3.2524353625786007,12.721561323659012,-2.531605477384242,3.8494675033941497,10.19754721739234,-2.0240347254311164,-16.026260356623954,2.8568665321908338,8.7985527224657,-17.115151009908537,-0.7277698051638719,-0.1276527963033537,-0.7785704077743902,0.63323974609375,-1.2262856088033538,24.954446932164632,10.319779558879572,-18.84075533198797,-20.085083753052505,3.2548026842948694,17.237178033606607,-46.6853663003663,-10.14481956845238,27.94881241201665,35.233084733578934,37.91676400994399,1577397921.999,-27.69022826168635,-51.12628610177849,7.1834025
86468,1577397922.41,1.3069713282143196,0.8223206775200077,8.403618629567214,2.012589273592321,-0.1296956557855372,10.839193262314216,-4.45414941048971,-5.872451115901296,5.895108438929115,7.3947441287157,-6.540810189596036,-0.1174182426638719,-2.324918421303354,6.0268495141006095,0.11444091796875,5.884310094321647,9.512552400914634,-4.328657941120427,-18.74607816951567,-20.35897125877595,3.4872885903159325,17.881558520844237,-45.33216727716727,-10.14481956845238,27.852966723575044,35.08931620091653,37.91676400994399,1577397921.999,-27.69022826168635,-51.12628610177849,7.1834025
86469,1577397922.42,-0.7963348302329458,2.515021251250476,12.309758638112136,0.2791872716391959,0.3024577438726659,7.447806610702888,-0.7096180140053354,2.7754052805830787,3.150156235559974,0.2841484255907013,-0.0253072599085365,-0.0563830864138719,-0.2954994759908538,-3.082647556211891,1.25885009765625,10.675569859946648,28.64707388528964,-0.6665485661204268,-17.893983707264958,-20.99804210546398,2.7898308722527494,18.042653642653644,-45.33216727716727,-15.407105654761905,27.75712103513344,35.25704615568934,37.94072543205439,1577397921.999,-27.69022826168635,-51.12628610177849,7.1834025
86470,1577397922.43,-0.5521262608970083,-2.809683240937023,8.529314216725417,2.584803470369664,-2.8614797500238187,5.018889026474372,-1.8109507776772105,-2.623519463069264,8.65562295308927,-17.2634589962843,10.228598990091465,0.6150036323361281,-3.087857874428354,3.219232326600609,-0.95367431640625,6.220003453696647,40.64048208841464,-4.816939191120427,-18.46204668209877,-20.450267094017097,4.184746308379121,17.55936827722542,-44.99386752136752,-17.026270604395606,27.852966723575044,35.28100757779974,37.9646868541648,1577397921.999,-27.69022826168635,-51.12628610177849,7.1834025
86471,1577397922.44,2.888341524747523,0.6259961413871947,5.85259676067073,1.5145953282798208,3.135995408667587,6.048395740341559,2.309470279451696,-19.26082679949505,8.332405728968178,6.296111316215701,-2.9855123380335367,0.7065563667111281,-4.522184046303353,-2.5485899390243905,-0.34332275390625,3.931185094321646,50.13144888528964,-10.737349347370428,-18.08333803220956,-22.27618379884005,2.63484026823871,17.55936827722542,-44.99386752136752,-17.026270604395606,27.852966723575044,34.94554766825411,37.9646868541648,1577397921.999,-27.69022826168635,-51.12628610177849,7.1834025
86472,1577397922.45,0.3397138575111942,0.5410019824516483,9.234406605641434,0.1702510961020865,-0.8982343886956937,5.258309192489996,-1.7630667444740855,6.401423694889718,7.932574051722083,-2.9354560665967986,0.1272806307164646,-1.521226836413872,-2.355435999428354,1.983270412538109,-0.60272216796875,11.270662633384148,37.68027701028964,-8.524824933307928,-18.08333803220956,-22.27618379884005,2.63484026823871,17.962106081748942,-42.87949404761905,-15.103512226705584,27.876928145685447,35.13723904513733,37.89280258783359,1577397921.999,-27.69022826168635,-51.12628610177849,7.1834025
86473,1577397922.46,1.0304410364662728,0.819926475859851,9.654588996998855,0.7412681920493521,0.4161823227300867,7.939815051864996,1.0309665929282583,3.9389872874190166,9.48641092916349,-4.232453136909299,2.629722036966464,-0.7277698051638719,-3.972867640053354,-7.034673923399391,1.21307373046875,1.7644370474466462,17.111429354039632,4.399369402629573,-18.272692357154163,-19.90249208257021,3.409793288308909,18.525939008081867,-41.272570207570205,-17.026270604395606,27.90088956779585,34.94554766825411,37.9646868541648,1577397921.999,-27.69022826168635,-51.12628610177849,7.1834025
86474,1577397922.47,-1.3182707921470085,1.4496015124809445,11.670506794850418,-1.880382625821741,1.51272668308165,10.164028394150153,-2.124591195157679,-16.97915261736614,12.483951407679116,-10.9463203244093,13.463462271341465,-1.307603789538872,-5.437711390053353,-0.3208067358993902,-0.64849853515625,-12.395719202553352,5.972513338414634,-4.145552472370427,-17.704629382320356,-20.81545043498169,2.9448214762667897,19.814699982557126,-41.272570207570205,-10.95440204326923,27.852966723575044,35.28100757779974,37.9646868541648,1577397921.999,-27.69022826168635,-51.12628610177849,7.1834025
86475,1577397922.48,-0.6574711339438833,0.6499381579887572,4.38375404216487,-2.0455825403725227,0.5789880356207117,10.590196289657966,-0.180499447110804,-1.8980763600419208,7.039536832483803,-1.409577160346799,4.720176138528964,-0.3920764457888719,-4.796842249428353,7.1559999047256095,-0.70953369140625,-5.895475061928353,-9.805074552210366,-14.063765362995428,-20.16623560660019,-19.537308741605617,2.4798496642246635,19.814699982557126,-41.272570207570205,-10.95440204326923,27.94881241201665,35.13723904513733,38.0605325426064,1577397921.999,-27.69022826168635,-51.12628610177849,7.1834025
86476,1577397922.49,-1.1027926427329455,-1.7035620739448354,8.045685481373855,1.4008707494223989,-1.6536050124749906,6.102265277695074,3.1426524571860703,6.05546155499714,5.71314911275724,-7.040070324409299,3.9114603182164633,-2.253648711413872,-4.598477991615853,0.2895448266006093,-0.78582763671875,0.5895102896341466,-12.811055997522866,2.7209026057545733,-20.16623560660019,-19.537308741605617,2.4798496642246635,17.881558520844237,-46.00876678876679,-13.38314946771978,27.90088956779585,35.13723904513733,38.0126096983856,1577397921.999,-27.69022826168635,-51.12628610177849,7.1834025
86477,1577397922.5,-0.2743988683188834,0.5541700915825073,5.495860713307449,-0.439073226407679,2.7577115463629,14.784837598251716,0.0589207189048209,-8.491707732112234,1.5256904091439585,-10.1528632931593,3.9724954744664633,0.7981091010861281,-7.024625452553353,-6.607427829649391,-1.59454345703125,-9.740689905678352,7.620462557164634,4.185746355754573,-19.59817263176638,-21.91100045787546,3.874765100351035,17.237178033606607,-45.33216727716727,-10.549610805860803,27.75712103513344,35.13723904513733,38.15637823104801,1577397921.999,-27.69022826168635,-51.12628610177849,7.1834025
86478,1577397922.51,-0.7221145787681021,2.608395115996569,10.19328437053401,2.1251167516196645,0.6915155136480564,9.48886352598609,-3.714341097501429,-1.040952165705983,5.10023348775724,-0.1125800900342987,-5.060707650533536,-1.826402617663872,-7.421353968178353,4.8061463891006095,-3.27301025390625,-8.977750452553353,23.825296541539632,5.375931902629573,-19.40881830682178,-20.632858764499392,4.339736912393168,20.45908046979476,-43.97896825396825,-17.026270604395606,27.90088956779585,35.13723904513733,37.91676400994399,1577397921.999,-27.69022826168635,-51.12628610177849,7.1834025
86479,1577397922.52,-0.6550769322837271,-0.5471626720893668,7.648248005787917,0.3318597081626334,-1.6691673232660058,6.690041785263434,0.5066364293540396,1.3532494944502669,15.196581888636146,-7.757233410346799,1.805747427591464,-0.8803576957888719,-9.801725061928352,-5.112066501524391,-0.86212158203125,-5.102018030678353,10.763773104039634,0.7677776057545732,-20.35558993154479,-21.18063377594628,4.029755704365082,20.45908046979476,-43.97896825396825,-17.026270604395606,27.900889567795847,35.52062179890376,38.0605325426064,1577397921.999,-27.69022826168635,-51.12628610177849,7.1834025
86480,1577397922.53,-3.039701785799352,2.7975370471489134,13.15012342082698,-3.2486688746010386,1.0195211410894622,15.546193726181404,-2.1868404383217417,1.8320898264815164,13.57211606222013,-11.5261543087843,0.2493509432164634,0.981214569836128,-4.903653772865853,-7.01941513433689,-1.79290771484375,-8.611539515053352,-24.865499356897864,-4.877974347370427,-19.787526956710987,-21.728408787393168,4.339736912393168,17.398273155416014,-43.30236874236874,-17.026270604395606,27.75712103513344,35.13723904513733,38.0126096983856,1577397921.999,-27.69022826168635,-51.12628610177849,7.1834025
86481,1577397922.54,-0.5138190343345084,-3.214303321503429,6.824642634694167,2.809858426424352,-5.715368128930068,6.687647583603278,-5.541116964200648,0.7858237009932355,10.661963944300208,-14.9746406369093,-0.1473775724085365,0.035169647961128,-6.200650843178353,2.791986232850609,-0.16021728515625,-20.513394983803355,-34.371724942835364,4.490922137004573,-19.59817263176638,-21.18063377594628,2.014877852182544,17.55936827722542,-43.97896825396825,-17.026270604395606,27.75712103513344,35.28100757779974,37.91676400994399,1577397921.999,-27.69022826168635,-51.12628610177849,7.1834025
86482,1577397922.55,0.3409109583412728,-2.4792834118354605,7.200532295338699,4.3205996739829455,-2.5406567275628813,7.78419194395484,4.873660257479039,-0.0210222584794197,12.043418302210364,-8.3828437619093,-4.663979134908536,-0.2700061332888719,-8.947232874428353,-14.84717392339939,2.40325927734375,-8.031705530678353,-40.07851205221037,3.941605730754573,-19.40881830682178,-22.09359212835776,2.7898308722527494,17.55936827722542,-43.97896825396825,-60.743724244505486,28.044658100458264,35.13723904513733,38.15637823104801,1577397921.999,-27.69022826168635,-51.12628610177849,7.1834025
86483,1577397922.56,0.3648529749428353,3.1830035144340694,11.806976289479325,-1.8899594324623663,6.37774445651915,15.297196753525151,0.6646537389243521,7.491982551090891,0.8601023476205207,-5.376862316596799,-8.310829720846035,-1.002428008288872,-9.435514124428352,-10.51367782964939,-5.28717041015625,-18.834928186928355,-19.204488614710368,8.214066668254572,-20.16623560660019,-21.363225446428576,3.564783892322956,17.55936827722542,-43.97896825396825,-59.124559294871794,27.92485098990625,35.233084733578934,37.91676400994399,1577397921.999,-27.69022826168635,-51.12628610177849,7.1834025
86484,1577397922.57,1.636174056485804,-0.1066295666206167,10.102304707448074,1.047726004549352,-2.274900343285537,5.751514734482184,-0.2738733118568978,-1.362972288996999,8.997993790491615,-9.2678535275343,-14.826332650533535,-2.986070586413872,-4.293302210365853,3.142938381288109,-2.60162353515625,-15.249112757240852,-4.342428067835366,2.6903850276295733,-20.16623560660019,-22.09359212835776,3.099812080280829,17.881558520844237,-43.640668498168495,-61.55330671932234,27.852966723575044,35.20912331146853,38.084493964716806,1577397921.999,-27.69022826168635,-51.12628610177849,7.1834025
86485,1577397922.58,0.7886266687904916,-4.174378187226085,6.965900532643387,2.7140903600181017,-1.1615965713128809,6.874395313095465,-5.821238558438929,-7.182079424006765,13.561342154749427,-15.8901679806593,16.698325552591463,0.981214569836128,-13.036588343178352,-9.56763290777439,2.06756591796875,-18.133023890053355,-13.436666349085366,1.896927996379573,-20.544944256489394,-20.99804210546398,4.029755704365082,18.525939008081867,-43.640668498168495,-17.026270604395606,27.75712103513344,35.08931620091653,38.10845538682721,1577397921.999,-27.69022826168635,-51.12628610177849,7.1834025
86486,1577397922.59,-1.811476334139196,0.9755495837700072,8.335383882252762,-4.1429031946693975,0.6077184555425867,16.427259937118905,6.987740323397008,-2.671403496272389,15.924419193323644,-8.1997382931593,9.099448599466465,-0.2700061332888719,-7.970670374428353,-8.89624618902439,-4.31060791015625,-13.250211390053352,-32.876363614710364,-2.5586384098704267,-18.46204668209877,-22.27618379884005,2.9448214762667897,17.237178033606607,-42.62576923076923,-15.407105654761905,27.94881241201665,35.28100757779974,37.9646868541648,1577397921.999,-27.69022826168635,-51.12628610177849,7.1834025
86487,1577397922.6,-0.7388739903891959,0.5457903857719608,11.93027767497737,-1.551179897550257,1.9017844528570405,13.293249963974372,-2.14973031258932,6.928148060124094,12.111653049524818,-17.7975166134718,-5.075966439596037,-1.109239531726372,-11.480191858803352,-0.1224424780868906,0.09918212890625,-19.384244593178355,-39.727559903772864,-3.1232136051829267,-21.018330068850904,-20.541562929258244,3.797269798344015,17.47882071632072,-39.834796245421245,-61.45210890997024,27.92485098990625,35.065354778806125,38.0126096983856,1577397921.999,-27.69022826168635,-51.12628610177849,7.1834025
86488,1577397922.61,-1.7899285191977896,1.981114281035632,11.507701081959793,-1.597866829923304,-2.789653700219131,8.207965637802497,3.446716068025914,9.788021943180734,5.739485331018959,-4.812287121284299,-1.3070455411585369,-0.1784533989138719,-2.141812952553354,-3.1284239233993905,-3.79180908203125,-14.959195765053352,-45.11391244283536,3.0565959651295733,-20.9236529063786,-21.728408787393168,3.409793288308909,17.398273155416014,-45.16301739926739,-16.823874985691393,27.94881241201665,34.993470512474914,38.10845538682721,1577397921.999,-27.69022826168635,-51.12628610177849,7.1834025
86489,1577397922.62,1.4422437220131477,-4.01157247433546,7.973859431569168,2.831406241365758,-2.5071379043206936,5.133810706161872,2.83619464468607,1.432258149235423,8.928561942347084,-20.4983222775343,-9.027992806783535,-2.589342070788872,-10.015348108803352,0.0148866234756097,-2.20489501953125,-20.574430140053355,-29.855123380335368,7.939408465129573,-20.9236529063786,-21.728408787393168,3.409793288308909,17.237178033606607,-46.00876678876679,-12.978358230311354,27.852966723575044,34.993470512474914,37.9646868541648,1577397921.999,-27.69022826168635,-51.12628610177849,7.1834025
86490,1577397922.63,0.2690849085365853,-2.6085703014838977,8.888444465748854,0.8537956700766959,-0.6564200210199123,11.552665357040778,-3.7287063074623674,-11.371932329280204,6.232690873011146,-3.7136543087842986,0.4629739900914634,-0.3005237114138719,-10.137418421303352,-10.45264267339939,-2.26593017578125,-19.414762171303355,-14.993062833460366,3.941605730754573,-20.544944256489394,-20.2676754235348,4.649718120421247,17.720463399034827,-45.83961691086691,-15.204710036057692,27.70919819091263,35.28100757779974,37.9646868541648,1577397921.999,-27.69022826168635,-51.12628610177849,7.1834025
86491,1577397922.64,1.3273220423256478,-1.806512745331554,8.823801020924636,0.0912424413169302,-0.9245706069574128,10.016784992050544,0.9974477696860709,3.517607795231517,10.37465974508146,-8.5506904415968,-4.969154916158536,-1.338121367663872,-4.690030725990853,-1.1905577124618902,-0.87738037109375,-11.068204554115852,-11.788717130335366,8.168290301067072,-20.26091276907249,-21.271929611187424,3.0223167782738094,17.881558520844237,-42.62576923076923,-12.978358230311354,27.70919819091263,35.20912331146853,37.9886482762752,1577397921.999,-27.69022826168635,-51.12628610177849,7.1834025
86492,1577397922.65,-0.5521262608970083,2.795142845488757,12.1421645219012,-1.6888464930092415,1.0674051742925876,11.622097205185309,5.553613528963414,-6.344108842952077,12.79998602681974,3.854705066215701,-4.847084603658536,-1.185533477038872,-8.611539515053353,-10.94092392339939,0.78582763671875,-8.153775843178353,-22.683492520960368,-3.809859112995426,-20.35558993154479,-21.18063377594628,2.9448214762667897,17.55936827722542,-38.56617216117216,-10.549610805860803,27.94881241201665,35.13723904513733,37.9646868541648,1577397921.999,-27.69022826168635,-51.12628610177849,7.1834025
86493,1577397922.66,-1.0596970128501333,0.6690917712700073,12.898732246510574,-2.476538839200648,-0.8144373305902247,12.46485618956031,-0.9059425501381476,3.0722862864424543,12.936455521448648,-13.5097968869093,-5.304848275533536,-1.582261992663872,-5.864957483803353,-0.4428770483993902,-3.36456298828125,-11.083463343178352,-24.331441739710368,-8.601118878620428,-20.35558993154479,-21.18063377594628,2.9448214762667897,18.525939008081867,-46.6853663003663,-17.026270604395606,27.852966723575044,35.13723904513733,37.9646868541648,1577397921.999,-27.69022826168635,-51.12628610177849,7.1834025
86494,1577397922.67,-0.1965873143638052,-2.0626923229682728,9.3565108903094,-1.1980351526772102,-1.9445005141839744,11.01636418516578,0.6239523107016959,1.2814234446455792,10.192700418909585,-9.8782050900343,4.018271841653964,0.7675915229611281,-6.536344202553353,2.120599514100609,0.38909912109375,-12.060025843178352,-21.981588224085368,-1.215864972370427,-19.787526956710984,-20.632858764499392,3.719774496336999,13.370895110180822,-46.6853663003663,-15.407105654761905,27.972773834127057,35.13723904513733,37.9646868541648,1577397921.999,-27.69022826168635,-51.12628610177849,7.1834025
86495,1577397922.68,-0.2265148351157584,-0.8392552746284292,7.542903132741043,1.3745345311606805,-2.2976452590570218,10.88827439634742,2.1658181798423204,3.051935572331125,10.40578436666349,-3.9272773556592986,2.751792349466464,-0.1479358207888719,-5.422452600990853,-3.570928806211891,-1.04522705078125,-12.029508265053355,-17.876973966272868,0.1879436213795733,-21.11300723132321,-21.545817116910868,4.184746308379121,14.659656084656085,-39.7502213064713,-15.407105654761905,27.852966723575044,35.065354778806125,38.06053254260641,1577397921.999,-27.69022826168635,-51.12628610177849,7.1834025
86496,1577397922.69,-0.2767930699790396,-1.1385304821479605,9.197296479909012,-1.7941913660561164,1.4456890365972752,13.180722485947028,-1.1621221277748666,3.316494855778392,12.591690482386143,-2.9812324337842986,-5.701576791158536,-0.3615588676638719,-4.308560999428353,-6.729498142149391,0.51116943359375,-10.045865686928352,-12.185445645960366,14.164994402629572,-18.84075533198797,-20.085083753052505,3.564783892322956,17.237178033606607,-46.6853663003663,-16.216688129578753,27.852966723575044,35.233084733578934,38.10845538682721,1577397921.999,-27.69022826168635,-51.12628610177849,7.1834025
86497,1577397922.7,-2.3908731358970083,3.1830035144340694,13.87796072551448,-3.7334947107826792,1.0721935776129,16.73132354795875,-0.6473687708412728,-7.373615556819264,13.764849295862708,0.1315605349657013,-5.854164681783536,-0.3920764457888719,-2.416471155678354,-6.271734470274391,-2.02178955078125,-15.081266077553352,-24.056783536585368,-5.518843487995427,-18.84075533198797,-20.085083753052505,3.564783892322956,17.237178033606607,-41.272570207570205,-16.216688129578753,27.75712103513344,35.13723904513733,37.91676400994399,1577397921.999,-27.69022826168635,-51.12628610177849,7.1834025
86498,1577397922.71,-0.8286565526450558,-2.8803121899116326,11.994921119801589,-1.004104818204554,-2.339543788109756,12.792861817001716,0.6574711339438833,7.800834565251047,11.485569315393958,-12.8536689572218,-1.2612691739710362,0.3250866401486281,-1.5009438119283538,0.0148866234756097,-0.89263916015625,-5.712369593178353,-26.040426114710368,-2.5586384098704267,-18.46204668209877,-20.632858764499392,4.33973691239316,17.55936827722542,-40.59597069597069,-8.525654618818681,27.852966723575044,34.993470512474914,37.91676400994399,1577397921.999,-27.69022826168635,-51.12628610177849,7.1834025
86499,1577397922.72,-0.2241206334556021,-1.1696551037299916,8.340172285573074,-1.0543830530678353,-2.252155427514053,9.950944446396248,-1.4410466211830697,-5.601906328303641,11.226995536097084,-4.140900402534299,-0.1168599942835365,2.293470429211128,-1.8976723275533536,-5.600347751524391,0.52642822265625,-12.197354944740852,-18.975606778772868,4.719803972942072,-20.16623560660019,-20.99804210546398,3.409793288308909,17.559368277225424,-46.00876678876679,-9.740028331043955,28.044658100458264,35.113277623026924,37.9886482762752,1577397921.999,-27.69022826168635,-51.12628610177849,7.1834025
86500,1577397922.73,-0.4443871861899771,-0.5184322521674917,13.51404207317073,1.0908216344321646,-1.0801937148675684,8.583855298447027,-2.1102259851967413,0.2088211008955793,11.284456375940833,-10.9768379025343,-6.556068978658536,-1.093980742663872,-3.087857874428354,1.7238709984756098,-1.10626220703125,-9.221891077553352,-22.775045255335368,-5.091597394245427,-20.35558993154479,-20.81545043498169,3.2548026842948694,17.398273155416014,-46.51621642246642,-16.014292510874544,27.94881241201665,34.993470512474914,38.10845538682721,1577397921.999,-27.69022826168635,-51.12628610177849,7.1834025
86501,1577397922.74,1.6816638880287726,-0.444212000702648,7.530932124440262,-0.4366790247475228,-1.362709510766006,10.369929736923591,5.00055294546732,12.3617887278487,9.098550260218175,11.1484062380907,-5.457436166158536,-0.2089709770388719,-1.9587074838033536,-4.898443454649391,1.45721435546875,4.419466344321647,-16.579976895960368,8.153031512004572,-20.35558993154479,-20.81545043498169,3.2548026842948694,17.398273155416014,-43.13321886446885,-16.823874985691393,27.75712103513344,35.233084733578934,38.0605325426064,1577397921.999,-27.69022826168635,-51.12628610177849,7.1834025
86502,1577397922.75,-1.2727809606040397,0.9336510547172732,13.158503126637529,0.1714481969321644,1.9700192001714945,13.287264459823982,-2.6932140894447887,-7.229963457209891,5.561117307337318,-4.4460761837843,2.355063833841464,1.179578827648628,0.4826987661966463,-2.3960020483993905,-1.77764892578125,-3.942350061928354,12.793192049352132,4.246781512004572,-20.071558444127888,-20.54156292925824,3.797269798344019,17.639915838130122,-40.173096001221,-15.913094701522436,27.92485098990625,35.13723904513733,37.91676400994399,1577397921.999,-27.69022826168635,-51.12628610177849,7.1834025
86503,1577397922.76,2.5986431238686167,-6.45126396603468,2.53902166301448,3.9806230382407577,-4.23335730129335,4.056419959091558,4.701277737947789,6.42656281232136,10.077778739222085,-13.2961738400343,5.284751333841464,2.232435272961128,-1.3788734994283538,2.883538967225609,-0.58746337890625,8.997103063071647,4.934915682164634,-7.929732159870427,-19.40881830682178,-19.537308741605617,2.7898308722527494,19.00922437351009,-39.7502213064713,-14.799918798649268,28.044658100458264,34.993470512474914,37.9646868541648,1577397921.999,-27.69022826168635,-51.12628610177849,7.1834025
86504,1577397922.77,0.9179135584389292,-1.593428797577648,9.688107820241042,1.619940201326696,0.274924424780868,10.630897717880622,4.0021708531821645,5.155241730778391,9.297268998011146,-1.4553535275342986,-10.981117806783535,-0.6362170707888719,2.313753453696646,-9.32349228277439,4.60052490234375,0.3911460318216463,5.545267244664634,6.474564715129573,-20.35558993154479,-20.450267094017097,2.324859060210624,19.49250973893832,-45.33216727716727,-16.62147936698718,27.852966723575044,34.8017791355917,37.91676400994399,1577397921.999,-27.69022826168635,-51.12628610177849,7.1834025
86505,1577397922.78,0.5875137293373666,-0.3915395641792105,12.683254097096512,-1.2770438074623665,1.117683409155869,13.28127895567359,-2.9553791712318978,-11.472488799006769,13.400930643518958,9.6530449099657,-14.734779916158535,-0.7582873832888719,2.802034703696646,-4.959478610899391,1.51824951171875,-0.5854164681783537,12.594827791539634,-1.887251691120427,-20.35558993154479,-20.450267094017097,2.324859060210624,-2.899712192569336,-46.17791666666667,-16.823874985691393,27.94881241201665,35.13723904513733,37.91676400994399,1577397921.999,-27.69022826168635,-51.12628610177849,7.1834025
86506,1577397922.79,-0.0816656346763057,1.7871839465629755,12.725152626149246,-0.908336751798304,0.5777909347906346,10.885880194687262,3.550863840242711,6.201507856266671,9.12249227681974,6.4181816287157005,-2.3293844083460367,1.362684296398628,5.045076695884147,-0.4733946265243902,1.99127197265625,3.4276450552591475,14.608987947789632,1.545975847942073,-19.124786819404875,-20.724154599740537,3.1773073822878564,17.237178033606607,-44.65556776556776,-41.111349230196886,27.92485098990625,35.233084733578934,38.0126096983856,1577397921.999,-27.69022826168635,-51.12628610177849,7.1834025
86507,1577397922.8,0.4558326380287728,-0.8967161144721792,8.43833455363948,2.2017312047446644,-0.7641590957269434,11.72983627989234,-5.416618477872523,-6.676902873713796,12.18707040181974,0.6198417849657013,13.616050161966465,3.544691132336128,4.327913609946647,1.5102479516006098,0.54168701171875,3.839632359946646,15.493997713414634,-2.1619098942454267,-18.84075533198797,-21.18063377594628,3.564783892322956,18.525939008081867,-43.97896825396825,-65.19642785599817,27.90088956779585,35.32893042202055,38.25222391948962,1577397921.999,-27.69022826168635,-51.12628610177849,7.1834025
86508,1577397922.81,-0.3318597081626334,-6.1017105236518665,5.570080964772293,0.5976160924399772,-6.23730409084413,5.957416077255622,-4.444572603849085,-0.0305990651200447,10.125662772425208,-5.575226574409299,11.876548208841465,2.568128632336128,2.649446813071646,4.2568299828506095,1.48773193359375,8.997103063071647,12.655862947789634,-4.969527081745427,-21.870424531101616,-18.989533730158733,2.9448214762667897,17.398273155416014,-46.17791666666667,-67.82757089915293,27.94881241201665,34.993470512474914,38.0605325426064,1577397921.999,-27.69022826168635,-51.12628610177849,7.1834025
86509,1577397922.82,-0.4108683629477896,0.561352696562976,7.583604560963699,1.172224490877477,-0.6995156509027247,10.93256712706031,6.846482425447789,1.6070348704268291,13.266855350550207,9.5004570193407,-7.166420541158536,1.377943085461128,-0.4938637338033537,-1.2668516577743902,2.37274169921875,14.337679234946648,-9.469381192835366,0.5846721370045732,-19.40881830682178,-21.728408787393168,2.7898308722527494,18.68703412989128,-43.80981837606838,-64.58924099988553,27.90088956779585,35.28100757779974,37.91676400994399,1577397921.999,-27.69022826168635,-51.12628610177849,7.1834025
86510,1577397922.83,-1.0860332311118526,0.0992717761528202,10.107093110768384,-0.7958092737709604,1.7305990341558692,15.673086414169685,-0.5911050318276012,3.2722021250655007,13.50866971822599,13.0862724490282,-3.1381002286585367,0.6912975776486281,5.808016149009148,1.968011623475609,1.27410888671875,4.205843297446648,-13.924947599085366,-6.037642316120427,-19.40881830682178,-21.728408787393168,2.7898308722527494,17.881558520844237,-42.45661935286935,-41.3137448489011,27.94881241201665,35.01743193458532,37.9646868541648,1577397921.999,-27.69022826168635,-51.12628610177849,7.1834025
86511,1577397922.84,0.6665223841225228,-3.1329004650581167,8.991395137135575,0.0254018956626334,-3.634806886254288,4.097121387314215,0.2001786168540396,-2.776748369319264,9.347547232874428,-3.4389961056592986,-3.3212056974085367,2.415540741711128,7.867952672446647,0.7167909203506098,-0.49591064453125,1.2151206411966462,-7.668844083460366,7.206986590129573,-18.46204668209877,-20.81545043498169,2.9448214762667897,17.55936827722542,-41.272570207570205,-17.026270604395606,27.70919819091263,35.233084733578934,37.9646868541648,1577397921.999,-27.69022826168635,-51.12628610177849,7.1834025
86512,1577397922.85,-2.208913809725133,0.8725989123832885,13.310534932057449,-1.684058089688929,-0.7904953139886622,8.418655383896246,-2.1461390100990854,-5.513320866877859,7.906237833460365,12.3080742068407,11.083091177591465,3.880384491711128,4.999300328696647,-13.80957626714939,6.37054443359375,2.130647984946646,2.7376500571646343,1.286576433879573,-20.35558993154479,-21.545817116910868,3.564783892322956,18.20374876446305,-39.91937118437118,-68.839548992674,27.70919819091263,35.28100757779974,38.25222391948962,1577397921.999,-27.69022826168635,-51.12628610177849,7.1834025
86513,1577397922.86,0.448650033048304,-4.569421461151866,8.677754719655105,-0.448650033048304,0.6340546738043065,15.175092468857184,8.017247037264195,10.262073871891667,10.20706562887052,-12.4721992306593,-5.396401009908536,1.713636444836128,10.065218297446648,1.6628358422256098,-1.44195556640625,15.802522984946648,2.9512731040396343,7.176469012004573,-20.35558993154479,-20.81545043498169,2.9448214762667897,17.881558520844237,-39.91937118437118,-67.62517528044872,28.044658100458264,35.32893042202055,38.30014676371043,1577397921.999,-27.69022826168635,-51.12628610177849,7.1834025
86514,1577397922.87,-0.7999261327231808,2.339047429228992,13.842047700612136,1.3218620946372424,-0.7162750625238186,9.760605414413826,1.6091662938559927,-4.298263524348561,11.875824185999427,10.2633964724657,-7.578407845846035,1.912000702648628,6.952425328696648,-5.539312595274391,2.93731689453125,9.058138219321648,0.2962438071646341,4.307816668254572,-20.35558993154479,-20.81545043498169,2.9448214762667897,12.565419501133787,-39.07362179487179,-40.09937113667583,27.829005301464647,35.13723904513733,37.94072543205439,1577397921.999,-27.69022826168635,-51.12628610177849,7.1834025
86515,1577397922.88,0.209229867032679,-1.2917593883979603,7.602758174244949,-4.41584218392721,4.2516933823004,12.390635938095466,-2.7901792566811165,7.961246076481515,6.206354654749427,11.9418632693407,1.6531595369664631,2.995374726086128,8.539339391196647,-1.4194395483993902,1.18255615234375,17.877718297446645,9.298929354039634,-5.762984112995427,-21.11300723132321,-19.71990041208792,2.63484026823871,17.237178033606607,-37.88957264957265,-15.407105654761905,28.044658100458264,35.13723904513733,38.0605325426064,1577397921.999,-27.69022826168635,-51.12628610177849,7.1834025
86516,1577397922.89,1.463791536954554,-3.5949813854682726,8.47664178020198,1.4044620519126334,-1.4824195937738185,5.344500452255621,2.127510953279821,3.848007624333079,3.2088141762338025,-1.4553535275342986,-3.0160299161585367,2.354505585461128,8.630892125571647,9.68895888910061,2.15911865234375,14.398714391196648,28.097757479039632,10.563920183879572,-18.46204668209877,-21.18063377594628,4.184746308379121,17.237178033606607,-46.6853663003663,-11.359193280677657,28.044658100458264,35.424776110462155,38.25222391948962,1577397921.999,-27.69022826168635,-51.12628610177849,7.1834025
86517,1577397922.9,0.7024354090248666,1.0952596667778198,9.29306454631526,0.4599494969809932,0.0211390488043062,6.379992670273199,1.02976949209818,-3.290304625422781,5.607804239710365,22.2262870974657,0.7986673494664634,1.805189179211128,6.433626500571647,-4.379644626524391,2.57110595703125,13.849397984946648,32.202371736852136,-11.118819073932928,-19.787526956710987,-20.632858764499392,3.719774496336995,17.962106081748942,-44.90929258241758,-15.3059078454098,27.70919819091263,35.13723904513733,37.89280258783359,1577397921.999,-27.69022826168635,-51.12628610177849,7.1834025
86518,1577397922.91,2.864399508145961,-0.3077425060737422,8.21447669841487,2.821829434725133,1.0841645859136817,5.955021875595465,-2.268243294767054,3.3356484690596417,4.970946598108802,13.4830009646532,-8.249794564596035,1.728895233898628,5.212923375571647,9.04808974847561,2.58636474609375,21.753450719321645,53.61045279153964,15.416215105754572,-19.21946398187718,-22.27618379884005,2.9448214762667897,17.881558520844237,-45.33216727716727,-12.978358230311354,27.805043879354244,34.94554766825411,38.0605325426064,1577397921.999,-27.69022826168635,-51.12628610177849,7.1834025
86519,1577397922.92,0.7910208704506478,2.993861583281726,10.66015369426448,2.2974992711509143,-0.3427796035394435,8.222330847763434,-7.006368380216273,-18.9352153737138,14.1263737465463,8.3713066287157,-0.9713521817835366,0.4929333198361281,2.283235875571646,1.1135194359756098,3.13568115234375,14.551302281821648,45.15708365091464,-8.204390362995428,-19.030109656932574,-21.36322544642857,3.409793288308909,17.237178033606607,-46.6853663003663,-15.81189689217033,27.94881241201665,35.13723904513733,38.0605325426064,1577397921.999,-27.69022826168635,-51.12628610177849,7.1834025
86520,1577397922.93,0.6330035608803353,1.1862393298637572,8.433546150319168,-2.0838897669350227,2.6547608749761813,7.618992029404059,3.750779678865758,12.268414863102608,8.686747574671303,6.784392566215701,0.9512552400914634,1.316907929211128,3.961702672446646,-1.7246153296493902,2.09808349609375,14.886995641196648,27.609476229039632,-20.258833722370422,-19.40881830682178,-21.36322544642857,2.169868456196584,18.525939008081867,-46.6853663003663,-16.216688129578753,27.94881241201665,34.993470512474914,38.0605325426064,1577397921.999,-27.69022826168635,-51.12628610177849,7.1834025
86521,1577397922.94,-0.3438307164634146,-3.690749451874523,5.87175037395198,2.2496152379477894,-2.8195812209710844,7.944603455185309,2.1825775914634145,0.3261369822432355,6.090235874231849,-1.4248359494092986,16.972983755716463,4.002454804211128,7.227083531821647,2.090081935975609,1.65557861328125,17.74038919588415,32.76694693216464,4.857133074504573,-19.59817263176638,-20.81545043498169,2.9448214762667897,18.12320120355835,-43.89439331501832,-13.484347277071889,27.70919819091263,35.28100757779974,38.036571120496006,1577397921.999,-27.69022826168635,-51.12628610177849,7.1834025
86522,1577397922.95,-0.3701669347251334,0.4584020251762573,8.997380641285964,-0.1852878504311165,3.8159486801519615,10.008405286239997,-6.304867293790491,0.1417834544112043,5.52161297994474,0.8487236209032014,-3.016029916158536,-0.1784533989138719,-0.7380043588033537,-0.9616758765243902,1.06048583984375,14.673372594321648,44.97397818216464,4.887650652629573,-18.46204668209877,-20.81545043498169,2.9448214762667897,17.398273155416014,-40.088521062271056,-16.823874985691393,27.92485098990625,35.233084733578934,38.0605325426064,1577397921.999,-27.69022826168635,-51.12628610177849,7.1834025
86523,1577397922.96,3.031993624356898,0.2572890857231323,9.14701824504573,-1.703211702970179,-2.0785758071527245,5.9622044805759336,4.538472025057164,-5.522897673518483,9.589361600550207,12.3996269412157,-7.776772103658536,0.4929333198361281,4.816194859946647,6.5761659203506095,1.06048583984375,13.269564000571648,47.38486685403964,-3.2910602848704267,-18.65140100704337,-22.823958810286936,3.099812080280829,17.398273155416014,-40.088521062271056,-16.823874985691393,27.90088956779585,35.28100757779974,38.10845538682721,1577397921.999,-27.69022826168635,-51.12628610177849,7.1834025
86524,1577397922.97,0.9346729700600228,0.8725989123832885,10.700855122487136,0.6191639073813834,0.8375618149175877,7.1449401006931215,0.4300219762290396,5.049896857731516,9.400219669397863,5.838347644340701,0.2188333650914634,1.133802460461128,-0.1581703744283537,1.7543885766006098,4.87518310546875,16.473909703696645,41.80015005716464,-3.2605427067454267,-19.59817263176638,-20.81545043498169,2.63484026823871,19.170319495319497,-40.59597069597069,-15.81189689217033,27.94881241201665,34.993470512474914,37.9646868541648,1577397921.999,-27.69022826168635,-51.12628610177849,7.1834025
86525,1577397922.98,1.6469479639565074,0.2429238757621952,8.723244551198073,-0.2786617151772103,-0.6348722060785059,7.89911362364234,-2.091072371915492,-8.020050005061451,9.472045719202551,2.359343738090701,11.022056021341465,2.476575897961128,3.595491734946646,8.59032607660061,1.02996826171875,4.877230016196647,19.949564119664632,-8.570601300495428,-17.799306544792657,-22.184887963598904,3.332297986301892,19.170319495319497,-40.59597069597069,-15.81189689217033,27.757121035133437,35.424776110462155,37.91676400994399,1577397921.999,-27.69022826168635,-51.12628610177849,7.1834025
86526,1577397922.99,1.1429685144936166,1.068923448516101,9.391226814381668,3.6155072850669296,-0.1320898574456935,5.361259863876716,3.247997330232945,10.175882612126047,7.944545060022865,-1.2417304806592986,0.4934915682164634,0.096204804211128,-1.5924965463033538,6.4846131859756095,1.83868408203125,11.423250524009148,6.811746736852134,-1.2616413395579271,-18.08333803220956,-21.91100045787546,4.184746308379121,17.881558520844237,-45.33216727716727,-11.359193280677657,27.61335250247102,35.32893042202055,37.9646868541648,1577397921.999,-27.69022826168635,-51.12628610177849,7.1834025
86527,1577397923.0,-1.3517896153891955,0.0465993396293822,5.601205586354324,-0.7311658289467415,0.6963039169683689,10.38908335020484,1.2703867589438833,-14.829159526545828,6.376342972620521,9.0121757693407,15.569175161966465,0.4624157417111281,0.2690757193216463,-0.2292540015243902,0.02288818359375,-7.116178186928353,11.313089510289634,-1.734663800495427,-20.35558993154479,-21.18063377594628,2.9448214762667897,18.36484388627246,-45.50131715506714,-16.014292510874544,27.90088956779585,35.13723904513733,37.9646868541648,1577397922.999,-27.69023152981189,-51.12621157616904,7.355423
86528,1577397923.01,1.0950844812904916,1.2844015979301633,7.135888850514481,-2.076707161954554,-1.278912452660537,7.796162952255621,-8.397399544767055,5.231856183903391,10.942085538538487,-3.3169257931592986,-8.326088509908537,0.5234508979611281,-1.1957680306783538,-1.0532286108993902,3.10516357421875,-5.590299280678353,-8.035055020960366,-22.089888409870422,-19.030109656932574,-21.728408787393168,3.099812080280829,17.720463399034827,-45.16301739926739,-16.823874985691393,27.94881241201665,35.13723904513733,38.25222391948962,1577397922.999,-27.69023152981189,-51.12621157616904,7.355423
86529,1577397923.02,-1.1710273900473989,-0.8189045605171016,8.391647621266433,-3.577871602872523,0.7824951767339939,9.927002429794683,1.9814646520102897,22.479684943669017,11.847093766077553,-4.2019355587843,9.374106802591465,0.4471569526486281,-0.8905922494283537,0.9914491234756098,-0.22125244140625,5.853792516196647,-18.227926114710368,15.233109637004572,-19.31414114434948,-21.819704622634312,2.867326174259769,17.55936827722542,-44.65556776556777,-17.026270604395606,27.829005301464647,34.993470512474914,38.0605325426064,1577397922.999,-27.69023152981189,-51.12621157616904,7.355423
86530,1577397923.03,0.4007659998451791,-1.071492835663585,8.945905305592605,-0.4235109156166634,-3.348699787865615,9.472104114364996,-1.9821361963783823,-5.803019267756766,14.120388242395912,2.9086601443407014,8.153403677591463,1.774671601086128,-2.263883265053354,-1.3889219702743911,2.99835205078125,-7.634977015053352,-21.661153653772868,8.214066668254572,-19.030109656932574,-20.632858764499392,2.7898308722527494,19.57305729984301,-39.496496489621485,-11.46039109002976,27.94881241201665,35.233084733578934,38.084493964716806,1577397922.999,-27.69023152981189,-51.12621157616904,7.355423
86531,1577397923.04,-1.6558532262290395,1.9595664660942256,13.473340644948074,-8.646396517423304,4.615612034644149,14.997921546005625,2.388478934236852,0.886380170719798,11.634009818323646,-19.8879707150343,7.665122427591464,2.537611054211128,0.9709800161966464,-8.56055282964939,1.30462646484375,-21.703580530678355,-21.310201505335368,15.263627215129572,-19.21946398187718,-21.18063377594628,4.494727516407208,17.55936827722542,-35.1831746031746,-59.124559294871794,28.092580944679067,34.993470512474914,37.91676400994399,1577397922.999,-27.69023152981189,-51.12621157616904,7.355423
86532,1577397923.05,-0.8561898717368521,3.6139598132621935,12.28821082317073,0.8250652501548209,-0.2877129653558498,11.79447972471656,-13.389310006192831,-20.649463762385672,16.00582204976896,6.936980456840701,-0.9713521817835366,0.1572399604611281,-4.094937952553353,14.87694717035061,-0.00762939453125,-21.459439905678355,-38.64418588033536,-1.551558331745427,-19.030109656932574,-20.2676754235348,2.4798496642246635,19.975795104366533,-42.11831959706959,-61.75570233802655,27.90088956779585,35.424776110462155,38.25222391948962,1577397922.999,-27.69023152981189,-51.12621157616904,7.355423
86533,1577397923.06,-1.0956100377524771,-0.3723859508979609,10.803805793873854,0.3749553380454459,-2.0223120681390525,7.294577704452887,4.798242905184117,8.709434095280344,8.128898587854897,-11.6787421994093,3.392661490091464,0.981214569836128,-2.5232826791158534,-5.325689548399391,-0.25177001953125,-15.432218225990852,-62.09694466939787,-10.249068097370424,-19.40881830682178,-21.36322544642857,4.029755704365082,20.136890226175943,-38.90447191697192,-61.553306719322336,27.852966723575044,35.113277623026924,38.0126096983856,1577397922.999,-27.69023152981189,-51.12621157616904,7.355423
86534,1577397923.07,0.228383480313929,-1.172049305390148,3.5397979569597924,0.5808566808188834,3.641171958960556,13.930107605575934,0.9399869298423208,6.627675751774484,4.60223954244474,-1.5163886837842986,6.291831411966464,2.598646210461128,-8.001187952553353,0.4421327172256097,0.72479248046875,-10.747769983803352,-55.24574838033536,15.751908465129572,-19.97688128165559,-21.545817116910868,3.564783892322956,19.975795104366533,-35.690624236874235,-61.75570233802655,27.75712103513344,35.28100757779974,37.9646868541648,1577397922.999,-27.69023152981189,-51.12621157616904,7.355423
86535,1577397923.08,-1.5888155797446646,2.151102598906726,9.077586396901198,-0.4007659998451791,-1.985201942406631,13.762513489364997,-0.1206444056068968,-5.896393132502858,1.9781945229134892,7.242156238090701,-12.354408822408535,-1.155015898913872,-0.5548988900533537,1.876458889100609,-0.25177001953125,-18.377164515053355,-32.449117520960364,15.477250262004572,-19.97688128165559,-21.545817116910868,3.564783892322956,17.237178033606607,-35.1831746031746,-17.026270604395606,27.75712103513344,35.233084733578934,37.9646868541648,1577397922.999,-27.69023152981189,-51.12621157616904,7.355423
86536,1577397923.09,-2.3621427159751334,0.1519442126762573,13.205190059010574,-2.4861156458412728,-0.3547506118402247,7.78419194395484,-1.1094496912514291,2.954970405094798,4.223955680140053,-4.964875011909299,-9.455238900533535,-0.5141467582888719,-1.4399086556783538,-5.875005954649391,0.20599365234375,-5.773404749428353,-4.891744474085366,4.735062762004573,-19.21946398187718,-21.545817116910868,2.63484026823871,17.237178033606607,-35.85977411477411,-60.743724244505486,27.852966723575044,35.424776110462155,37.9646868541648,1577397922.999,-27.69023152981189,-51.12621157616904,7.355423
86537,1577397923.1,0.3265457483803353,-0.798553846405773,7.897244978444168,0.6383175206626334,-1.1244864455804595,7.051566235947028,-1.61342914071432,-0.8961029652665305,5.8268736916146615,-2.6455390744092995,-2.390419564596036,1.545789765148628,-3.362516077553354,-1.724615329649391,-0.58746337890625,-0.6159340463033538,20.865091463414632,17.87288014481707,-19.976881281655587,-20.632858764499392,2.7898308722527494,17.31772559451131,-40.68054563492063,-37.97421714028159,27.829005301464647,35.113277623026924,38.0126096983856,1577397922.999,-27.69023152981189,-51.12621157616904,7.355423
86538,1577397923.11,-0.8442188634360709,-4.059456507538585,8.517343208424636,0.8059116368735709,-2.9955550429925686,7.049172034286872,-4.114172774747523,2.0499621775557357,12.2876268715463,-13.6318671994093,-6.128822884908536,0.950696991711128,-3.881314905678354,-5.356207126524391,3.25775146484375,2.191683141196646,13.388284822789634,2.4157268245045733,-19.40881830682178,-22.09359212835776,2.4798496642246635,4.993948776091632,-39.58107142857143,-11.359193280677657,27.75712103513344,35.13723904513733,37.9646868541648,1577397922.999,-27.69023152981189,-51.12621157616904,7.355423
86539,1577397923.12,1.1716989344154916,4.006608885527819,12.393555696217604,-4.7055405848061165,7.321059910620712,13.930107605575934,7.368418387361851,6.603733735172922,11.430502677210365,5.014373034965701,-13.849770150533535,-1.124498320788872,-1.5314613900533538,-4.959478610899391,0.69427490234375,-0.6159340463033537,15.341409822789634,-1.856734112995427,-19.40881830682178,-22.09359212835776,2.4798496642246635,8.215851212279782,-39.58107142857143,-15.407105654761905,28.044658100458264,35.28100757779974,38.0605325426064,1577397922.999,-27.69023152981189,-51.12621157616904,7.355423
86540,1577397923.13,1.2638756983315071,0.0729355578911014,10.190890168873857,2.189760196443883,-1.767329591332412,8.409078577255622,-1.770249349454554,-16.129211028010673,15.179822477015051,3.061248034965701,-2.0089498380335358,-0.3005237114138719,0.6658042349466463,11.33690810785061,-1.07574462890625,-3.515103968178354,0.4793492759146341,-10.279585675495428,-19.31414114434948,-20.17637958829365,3.0223167782738094,17.237178033606607,-46.00876678876679,-17.026270604395606,27.852966723575044,35.13723904513733,38.10845538682721,1577397922.999,-27.69023152981189,-51.12621157616904,7.355423
86541,1577397923.14,-0.8609782750571646,-3.357955421112804,10.133429329030106,-0.2750704126869759,-2.64959290309999,10.694344061874762,-5.778142928556117,-2.7851280751298115,16.739644858606848,-24.4961250119093,24.724448599466463,3.971937226086128,-7.070401819740853,-5.1273252905868905,2.60162353515625,-3.637174280678354,-27.38319955221037,-18.214155987995422,-18.272692357154163,-20.99804210546398,4.339736912393168,17.881558520844237,-45.67046703296703,-16.41908374828297,27.852966723575044,35.11327762302693,38.0126096983856,1577397922.999,-27.69023152981189,-51.12621157616904,7.355423
86542,1577397923.15,0.3217573450600228,0.111242784453601,9.570791938893386,1.868937173982946,-0.2972897719964747,15.146362048935307,-0.4342848230873665,4.192772663395579,6.534360282190834,-8.2912910275343,4.521811880716464,-0.6056994926638719,-5.925992640053353,16.21972060785061,-1.80816650390625,-2.599576624428354,-52.34657845846037,6.627152605754573,-19.030109656932574,-21.728408787393168,4.029755704365082,17.237178033606607,-46.6853663003663,-13.787940705128204,27.90088956779585,34.8017791355917,37.91676400994399,1577397922.999,-27.69023152981189,-51.12621157616904,7.355423
86543,1577397923.16,-0.6335291173423209,-1.114588465546398,4.902098701588699,1.2464447423423208,-3.6276242812738175,8.246272864364997,0.8753434850181021,9.12003967999714,5.495276761683021,10.4159843630907,14.440024771341465,2.964857147961128,-10.717252405678352,7.3085877953506095,1.79290771484375,-4.796842249428353,-28.634420255335368,14.195511980754572,-19.030109656932574,-21.728408787393168,4.029755704365082,17.55936827722542,-38.56617216117216,-12.168775755494504,27.90088956779585,35.13723904513733,37.91676400994399,1577397922.999,-27.69023152981189,-51.12621157616904,7.355423
86544,1577397923.17,-0.3450278172934932,3.1255426745903194,12.49291506511409,-1.521252376798304,1.5725817245855565,14.325150879501717,0.1211699620688833,0.522461518376048,7.681182877405678,-4.476593761909299,-3.183876595846036,-0.7888049614138719,-5.468228968178353,0.2895448266006097,-2.57110595703125,-13.280728968178352,6.003030916539634,23.04560963700457,-19.503495469294084,-21.45452128166972,3.797269798344015,12.565419501133787,-42.45661935286935,-14.395127561240844,27.900889567795847,35.233084733578934,38.25222391948962,1577397922.999,-27.69023152981189,-51.12621157616904,7.355423
86545,1577397923.18,-2.553678848787633,-1.6915910656440545,7.796688508717605,-0.8963657434975227,-0.069840614281631,7.748278919052496,-0.5324470911537728,-21.14985190935833,13.130385855921302,-0.0210273556592986,6.963218130716464,1.225355194836128,-6.231168421303353,2.151117092225609,0.48065185546875,-17.309049280678355,6.582864900914634,5.192826433879573,-20.16623560660019,-21.728408787393168,4.339736912393168,12.565419501133787,-42.45661935286935,-14.395127561240844,27.90088956779585,35.13723904513733,38.0605325426064,1577397922.999,-27.69023152981189,-51.12621157616904,7.355423
86546,1577397923.19,-1.3254533971274771,-1.4952665295112415,7.7583812821551055,-0.199653060392054,0.1815505600347742,11.21268872129859,-3.2259239588295543,2.363602595036204,19.20926387105802,-6.673859386909299,17.522300161966463,3.514173554211128,-8.855680140053353,-5.569830173399391,4.78363037109375,-4.369596155678353,0.1436559165396341,-3.870894269245426,-20.16623560660019,-21.728408787393168,4.339736912393168,17.237178033606607,-42.62576923076923,-17.026270604395606,27.94881241201665,35.13723904513733,37.9646868541648,1577397922.999,-27.69023152981189,-51.12621157616904,7.355423
86547,1577397923.2,-0.4719205052817745,0.2668658923637573,11.517277888600418,-0.9358700708901008,-0.8718981704339752,12.44570257627906,4.399608328768102,-1.939974889094655,12.133200864466223,-3.973053722846799,-6.586586556783536,0.8286266792111281,-4.659513147865853,1.4644715844131095,1.15203857421875,-9.862760218178355,-6.570211270960366,-9.303023175495428,-19.40881830682178,-20.815450434981685,3.874765100351039,12.243229257514972,-46.17791666666667,-3.465764151213372,27.972773834127054,35.065354778806125,38.084493964716806,1577397922.999,-27.69023152981189,-51.12621157616904,7.355423
86548,1577397923.21,-2.565649857088414,-0.1425425915229604,12.609033845631668,-0.3337283533608041,-1.4321413589105372,9.986857471298592,-9.125236849454556,3.3907151072432358,13.9348376137338,-9.8782050900343,-3.3822408536585367,2.110364960461128,-6.749967249428353,-6.607427829649391,1.85394287109375,-4.583219202553353,-17.281881192835368,-0.1477497379954268,-19.21946398187718,-21.545817116910868,3.564783892322956,17.398273155416014,-46.17791666666667,-3.060972913804947,27.90088956779585,35.424776110462155,38.25222391948962,1577397922.999,-27.69023152981189,-51.12621157616904,7.355423
86549,1577397923.22,-1.619940201326696,1.0186452136528197,11.864437129323074,-7.085377035001429,-0.8599271621331934,12.85271685850562,0.2480626500571646,-7.488537236506764,11.55500116353849,-8.7185371212843,5.010093130716464,3.117445038586128,-2.294400843178354,-12.95508407964939,2.79998779296875,-15.813687952553352,-25.948873380335368,-8.936812237995428,-19.40881830682178,-22.09359212835776,3.099812080280829,18.68703412989128,-43.47151862026863,-3.870555388621797,27.852966723575044,35.28100757779974,37.9646868541648,1577397922.999,-27.69023152981189,-51.12621157616904,7.355423
86550,1577397923.23,-0.060117819734899,-3.20113521237257,8.098357917897292,0.9639289464438834,-3.323560670433974,11.964468042587653,3.243208926912633,20.509256977360423,12.852658463343175,-8.1234443478468,-3.2754293302210367,1.850965546398628,1.0014975943216462,3.310785060975609,0.54168701171875,-5.895475061928353,-41.42128548971037,3.972123308879573,-19.59817263176638,-21.911000457875463,3.4097932883089124,17.398273155416014,-41.103420329670335,-15.204710036057692,27.852966723575044,35.08931620091653,38.0605325426064,1577397922.999,-27.69023152981189,-51.12621157616904,7.355423
86551,1577397923.24,-0.4108683629477896,1.9715374743950072,8.35453749553401,1.3745345311606805,-1.335176191674209,9.692370667099372,-4.126143783048304,-8.071525340754812,12.737736783655675,1.4743339724657014,-0.7882467130335366,3.300550507336128,-6.215909632240853,-4.379644626524391,1.77764892578125,-22.13082662442835,-34.43276009908537,17.26252858231707,-19.40881830682178,-20.99804210546398,3.719774496336995,18.848129251700684,-45.83961691086691,-17.026270604395606,27.61335250247102,35.20912331146853,38.084493964716806,1577397922.999,-27.69023152981189,-51.12621157616904,7.355423
86552,1577397923.25,-2.726061368318883,0.944424962187976,11.629805366627762,-7.92095341439596,1.2110572739019627,10.360352930282966,1.430798270174352,9.455227912419014,7.482464139612708,-1.1501777462842986,-9.333168588033535,1.255872772961128,6.891390172446647,-18.87549423589939,4.29534912109375,-11.693814905678352,-25.979390958460368,-6.190230206745427,-18.65140100704337,-22.09359212835776,4.339736912393168,19.49250973893832,-46.6853663003663,-15.407105654761905,28.044658100458264,35.233084733578934,38.0605325426064,1577397922.999,-27.69023152981189,-51.12621157616904,7.355423
86553,1577397923.26,-3.508965311189977,-1.0020609875190545,6.302706672780105,-3.8412337854897114,-1.3794689223870995,11.904613001083748,6.602273856111852,18.984150519840888,7.113757083948646,1.5048515505907014,10.625327505716465,4.002454804211128,2.649446813071646,-1.4499571265243902,1.33514404296875,8.936067906821647,-8.431783536585366,24.32734791825457,-20.544944256489394,-21.728408787393168,3.409793288308909,18.84812925170068,-46.6853663003663,-15.407105654761905,27.94881241201665,35.13723904513733,37.9646868541648,1577397922.999,-27.69023152981189,-51.12621157616904,7.355423
86554,1577397923.27,-1.295525876375524,-1.095434852265148,11.409538813893386,0.5473378575766958,-3.3115896621331937,7.360418250107184,-3.386335470060023,-24.255131462580984,13.250095938929114,-7.6504218869092995,-2.909218392721036,3.941419647961128,-1.4399086556783538,-0.6565000952743902,-0.46539306640625,-13.677457483803352,-3.0301722084603657,9.587357683879572,-20.071558444127888,-22.002296293116608,3.4872885903159325,-2.5775219489505203,-43.13321886446885,-11.966380136790292,27.92485098990625,35.233084733578934,37.9646868541648,1577397922.999,-27.69023152981189,-51.12621157616904,7.355423
86555,1577397923.28,2.6177967371498667,-1.5527273693549917,7.638671199147293,-0.8017947779213512,-0.2925013686761619,10.08980814268531,-4.7785637354408825,2.3923330149580777,8.31684341817716,1.9320976443407007,-8.600746713033537,1.561048554211128,0.5132163443216463,-3.4335997046493905,3.45611572265625,-3.1641518197408534,-1.7026575600228655,-5.885054425495428,-20.35558993154479,-22.27618379884005,2.9448214762667897,-2.738617070759928,-44.99386752136752,-15.407105654761905,27.90088956779585,34.993470512474914,38.084493964716806,1577397922.999,-27.69023152981189,-51.12621157616904,7.355423
86556,1577397923.29,0.1302212122475218,-3.9972072643745222,13.952180976979324,-0.1637400354897103,-4.9971076308831925,3.4650521490329647,10.22470096792826,6.61809894513386,14.368188114222082,0.5282890505907013,-13.483559213033535,2.995374726086128,2.557894078696646,-3.2810118140243905,2.61688232421875,-0.2497231088033537,-0.3446253334603658,3.819535418254573,-20.734298581434,-20.81545043498169,2.324859060210624,-2.738617070759928,-46.00876678876679,-15.407105654761905,27.90088956779585,35.13723904513733,37.91676400994399,1577397922.999,-27.69023152981189,-51.12621157616904,7.355423
86557,1577397923.3,-1.2847519689048208,0.7289468127739135,15.38391356975276,0.6143755040610709,7.933975535620712,16.496691785263433,3.078009012361852,0.3668384104658918,9.208683536585363,-2.3098457150342986,-1.6732564786585369,3.147962616711128,-8.367398890053353,-8.56055282964939,4.99725341796875,-3.423551233803354,-1.839986661585366,-4.298140362995427,-19.40881830682178,-21.728408787393168,2.4798496642246635,18.20374876446305,-44.99386752136752,-68.839548992674,28.044658100458264,35.13723904513733,38.30014676371043,1577397922.999,-27.69023152981189,-51.12621157616904,7.355423
86558,1577397923.31,-0.1774337010825553,0.6714859729301639,9.367284797780105,1.6726126378501331,1.360694877661728,11.291697376083746,-3.1445211023842417,-2.885684544856375,10.484793021448644,2.069426745903201,-4.633461556783536,3.559949921398628,-1.4856850228658538,1.6018006859756095,2.67791748046875,7.135530797446648,6.003030916539634,13.417313738567072,-19.40881830682178,-21.728408787393168,2.4798496642246635,18.20374876446305,-43.47151862026861,-64.79163661858975,27.852966723575044,35.18516188935813,38.15637823104801,1577397922.999,-27.69023152981189,-51.12621157616904,7.355423
86559,1577397923.32,-3.061249600740758,-2.6899731579292103,9.482206477467605,-1.4470321253334602,-5.516649391137099,6.429073804306403,2.381296329256384,-4.565217009455983,7.688365482386146,-11.5261543087843,11.113608755716465,4.948499726086128,3.107210484946646,-15.76270126714939,5.33294677734375,-4.278043421303353,11.862405916539634,1.072953387004573,-19.030109656932574,-21.36322544642857,3.409793288308909,17.55936827722542,-45.67046703296703,-65.6012190934066,27.90088956779585,35.13723904513733,38.0605325426064,1577397922.999,-27.69023152981189,-51.12621157616904,7.355423
86560,1577397923.33,0.2307776819740853,0.3722107654106322,8.225250605885574,-2.8835531214272105,1.3164021469488376,14.377823316025154,4.816199417635289,6.421774409001047,5.313317435511146,-1.4248359494092986,-8.204018197408537,2.629163788586128,-1.1957680306783538,-4.440679782774391,2.40325927734375,14.276644078696648,15.524515291539634,1.469681902629573,-19.59817263176638,-21.18063377594628,4.184746308379121,17.398273155416014,-40.088521062271056,-68.63715337396978,27.75712103513344,35.13723904513733,37.9646868541648,1577397922.999,-27.69023152981189,-51.12621157616904,7.355423
86561,1577397923.34,1.090296077970179,-3.750604493378429,6.04413289348323,3.6789536290610703,0.9429066879644626,8.01403530332984,0.0589207189048209,6.44571642560261,5.354018863733803,0.6503593630907013,-15.650307259908535,3.270032929211128,0.3301108755716463,1.1440370141006098,4.50897216796875,9.973665563071648,30.081400057164632,12.150834246379572,-20.734298581434,-20.81545043498169,3.874765100351035,17.237178033606607,-43.640668498168495,-65.6012190934066,27.94881241201665,35.13723904513733,38.0605325426064,1577397922.999,-27.69023152981189,-51.12621157616904,7.355423
86562,1577397923.35,0.0631835657631478,3.756414812041492,8.491006990162917,0.0122337865317745,-0.2853187636956937,5.893969733261481,-1.661313173917445,-8.77542062884075,6.330853141077553,17.7096855349657,-9.531532845846035,2.690198944836128,2.954622594321646,-4.410162204649391,1.68609619140625,12.537142125571645,44.60776724466464,-12.354780987995426,-20.734298581434,-20.81545043498169,3.874765100351035,9.746254869469157,-39.66564636752136,-15.508303464114007,27.94881241201665,35.18516188935813,38.0605325426064,1577397922.999,-27.69023152981189,-51.12621157616904,7.355423
86563,1577397923.36,0.5779369226967416,-5.524707923554211,7.2340511185808865,1.710919864412633,-3.1990621841058497,1.3749140997165588,-2.627373543790492,12.797533429997138,12.598873087366616,4.159880847465701,-0.9713521817835366,3.819349335461128,0.6352866568216463,-2.0297911108993905,2.73895263671875,25.385042516196645,44.94346060403964,2.2326213557545733,-19.21946398187718,-20.450267094017097,3.2548026842948694,17.237178033606607,-41.272570207570205,-16.62147936698718,28.092580944679067,35.13723904513733,38.0605325426064,1577397922.999,-27.69023152981189,-51.12621157616904,7.355423
86564,1577397923.37,0.3217573450600228,-2.1632487926948354,8.198914387623855,0.0062482823813834,2.5039261703863374,13.28846156065406,-3.2355007654701797,-11.482065605647392,11.966803849085364,-9.6950996212843,6.535972036966464,5.619886444836128,-3.576139124428354,-9.53711532964939,5.85174560546875,9.515901891196648,27.029642244664632,2.4462444026295733,-18.84075533198797,-20.450267094017097,2.9448214762667897,17.237178033606607,-41.272570207570205,-16.62147936698718,27.90088956779585,35.424776110462155,37.9646868541648,1577397922.999,-27.69023152981189,-51.12621157616904,7.355423
86565,1577397923.38,2.275425899747523,-0.0132557018745235,9.31940076457698,5.7858510899985705,-1.7721179946527246,9.294933191513437,-2.380770772794398,-3.918782561213796,19.40319420553068,4.297209949028201,-0.0710836270960365,2.247694062023628,0.8489097036966463,8.25463271722561,0.48065185546875,-3.972867640053354,2.3714391196646343,-2.1619098942454267,-20.5449442564894,-20.815450434981685,2.4798496642246666,17.237178033606607,-41.272570207570205,-16.62147936698718,27.78108245724384,35.13723904513733,37.86884116572318,1577397922.999,-27.69023152981189,-51.12621157616904,7.355423
86566,1577397923.39,-3.073220609041539,2.89569931521532,15.905849531666824,0.3115089940513053,-0.2434202346429591,14.176710376572029,2.574029562898961,0.6493542063643291,15.996245243128334,3.1528007693407014,7.268393911966464,4.124525116711128,2.573152867759146,-4.9747373999618905,2.93731689453125,-5.3003822884908525,-20.333639005335368,-2.985884503620427,-21.302361556267808,-20.99804210546398,3.099812080280829,17.881558520844237,-40.765120573870576,-16.62147936698718,27.70919819091263,35.065354778806125,38.0126096983856,1577397922.999,-27.69023152981189,-51.12621157616904,7.355423
86567,1577397923.4,-2.1538471715415395,0.4631904284965698,6.73366297160823,2.3238354894126334,1.4217470199957127,10.985239563583749,8.259061404939976,7.910967841618235,4.918274161585365,1.1996757693407014,8.397544302591463,2.415540741711128,-0.2497231088033537,11.73363662347561,-1.77764892578125,2.008577672446646,-36.32484994283536,-1.124312237995427,-19.21946398187718,-22.27618379884005,3.564783892322956,17.881558520844237,-40.59597069597069,-15.81189689217033,27.852966723575044,35.13723904513733,38.0605325426064,1577397922.999,-27.69023152981189,-51.12621157616904,7.355423
86568,1577397923.41,0.8676353235756478,-1.1121942638862417,3.5230385453386988,3.9423158116782577,-1.3124312759027246,5.708419104599371,-1.042412044767054,4.851178119938548,0.4722416786752082,5.746794909965701,-3.5653463224085367,2.842786835461128,2.740999547446646,1.2050721703506098,1.76239013671875,0.3911460318216463,-6.844869474085366,22.40474049637957,-20.35558993154479,-20.085083753052505,3.564783892322956,10.632278039420896,-41.103420329670335,-16.014292510874544,27.852966723575044,35.233084733578934,37.9646868541648,1577397922.999,-27.69023152981189,-51.12621157616904,7.355423
86569,1577397923.42,0.8460875086342415,0.5374106799614139,7.826616029469558,-1.6912406946693976,-0.4864317031488184,7.609415222763434,-3.927425045255336,-3.150243828303639,0.785882096155677,8.2492363162157,-14.231239877096035,0.5692272651486281,0.8489097036966463,-12.25317978277439,4.41741943359375,-1.4399086556783538,19.217142244664632,20.48213307450457,-20.734298581434,-20.81545043498169,2.634840268238707,10.31008779580208,-41.103420329670335,-15.609501273466115,27.78108245724384,35.28100757779974,38.10845538682721,1577397922.999,-27.69023152981189,-51.12621157616904,7.355423
86570,1577397923.43,3.465344124845179,-2.3954863537299915,9.91316277629573,4.654590805574742,-0.3798897292718654,5.443859821152106,1.9563255345786488,-1.6454880848954363,5.784975162561928,0.2536308474657013,-16.901527963033537,-0.4531116020388719,1.4134848990091466,3.8601014672256095,-0.43487548828125,10.324617711509145,38.62632193216464,-2.6044147770579267,-21.491715881212407,-20.81545043498169,2.9448214762667897,17.47882071632072,-46.431641483516486,-12.472369183550825,27.852966723575044,35.304968999910145,38.06053254260641,1577397922.999,-27.69023152981189,-51.12621157616904,7.355423
86571,1577397923.44,2.1198027918373663,-3.326830799530773,8.883656062428543,1.2775693639243522,0.8615038315191502,10.195153015732185,5.232790506502477,-5.451071623713796,2.33493057027677,11.3925468630907,9.221518911966465,3.056409882336128,-7.665494593178353,-9.50659775152439,4.38690185546875,29.504915563071645,76.68174185403963,-6.922652081745427,-18.84075533198797,-20.085083753052505,3.564783892322956,17.55936827722542,-46.34706654456654,-1.6442035828754566,27.75712103513344,35.13723904513733,38.25222391948962,1577397922.999,-27.69023152981189,-51.12621157616904,7.355423
86572,1577397923.45,2.428654805997523,5.129489464141101,13.80134627238948,-2.325704134610804,5.223739256323838,10.614138306259528,-5.069459237149866,5.921386262028391,18.53649320455412,-2.3098457150342986,2.202475943216464,1.927259491711128,6.464144078696647,4.1347596703506095,-0.89263916015625,20.776888219321645,68.80820669778963,-3.626753644245426,-21.491715881212407,-20.085083753052505,3.2548026842948694,17.55936827722542,-46.34706654456654,-17.026270604395606,27.75712103513344,34.8017791355917,37.91676400994399,1577397922.999,-27.69023152981189,-51.12621157616904,7.355423
86573,1577397923.46,1.645750863126429,-3.664413233612805,7.642262501637527,2.6853599400962267,-7.822265589867568,4.437098023056402,-6.702304769376429,-12.087798625666922,30.162736466272865,-3.5000312619092986,7.649863638528963,1.057508515148628,1.0320151724466462,8.34618545160061,3.28826904296875,15.924593297446648,27.914652010289632,-20.533491925495422,-20.355589931544795,-19.902492082570213,2.6348402682387064,17.237178033606607,-43.640668498168495,-17.026270604395606,27.805043879354244,35.13723904513733,37.91676400994399,1577397922.999,-27.69023152981189,-51.12621157616904,7.355423
86574,1577397923.47,0.764684652188929,0.3147499255668822,14.244273579518389,-0.3265457483803353,1.5761730270757908,13.74814827940406,1.0920187352622424,9.512688752262765,19.47023185201505,-8.0776679806593,1.4700540682164631,3.331068085461128,2.557894078696646,-3.113165134336891,2.14385986328125,-5.1935707650533525,-30.602804044397864,-15.360762433307926,-19.97688128165559,-19.71990041208792,3.2548026842948694,17.962106081748942,-46.2624916056166,-9.841226140396063,27.94881241201665,35.04139335669572,38.036571120496006,1577397922.999,-27.69023152981189,-51.12621157616904,7.355423
86575,1577397923.48,1.6792696863686165,3.702545274687976,7.935552205006668,6.494534781404821,-4.293212342797256,9.184799915146248,-3.2259239588295543,-4.431141716487233,13.472756693323646,30.8017265505907,18.834556021341463,1.347425507336128,10.980745641196648,8.86498427972561,1.06048583984375,-15.783170374428352,-64.79775033346037,15.111039324504572,-19.787526956710987,-21.728408787393168,3.409793288308909,17.237178033606607,-46.00876678876679,-17.026270604395606,27.90088956779585,35.08931620091653,37.772995477281576,1577397922.999,-27.69023152981189,-51.12621157616904,7.355423
86576,1577397923.49,-1.440375076814977,2.0337867175590696,7.238839521901199,0.9663231481040396,-1.0921647231683498,5.799398767685309,1.220108524080602,-0.6578799000809832,7.3843018715463025,6.082488269340701,4.765952505716464,2.476575897961128,-4.003385218178353,0.7167909203506098,1.15203857421875,-16.149381311928355,-53.68935189596037,8.488724871379572,-18.272692357154163,-20.2676754235348,3.099812080280829,18.525939008081867,-46.6853663003663,-17.026270604395606,27.94881241201665,35.28100757779974,37.91676400994399,1577397922.999,-27.69023152981189,-51.12621157616904,7.355423
86577,1577397923.5,0.5946963343178353,0.618813536406726,5.2253159257097925,-2.182052035001429,0.2485882065191492,12.800044421982184,11.6396741490806,7.635634650700266,1.389220914515052,10.2023613162157,3.240073599466464,1.683118866711128,2.130647984946646,-4.288091892149391,-0.77056884765625,7.928987828696647,-19.845357755335368,23.25923268387957,-20.35558993154479,-21.91100045787546,2.63484026823871,18.525939008081867,-45.67046703296703,-17.026270604395606,27.94881241201665,35.13723904513733,38.0605325426064,1577397922.999,-27.69023152981189,-51.12621157616904,7.355423
86578,1577397923.51,0.3504877649818978,-2.512802235077648,4.535785847584792,1.9335806188071645,-2.7082508437738184,6.180076831650153,5.244761514803258,-5.853297502620046,-0.123914534703697,15.7260429568407,6.597007193216464,1.103284882336128,-2.874234827553354,4.0737245141006095,3.28826904296875,-4.094937952553353,9.207376619664634,13.402054949504572,-19.59817263176638,-20.450267094017097,3.2548026842948694,18.525939008081867,-46.00876678876679,-16.62147936698718,27.94881241201665,34.993470512474914,38.10845538682721,1577397922.999,-27.69023152981189,-51.12621157616904,7.355423
86579,1577397923.52,-1.1363114659751334,-1.2151449352729604,11.15814763957698,-2.715959005216273,-3.074563697777725,11.30845678770484,-4.566676888517054,-4.160596928889577,12.649151322229896,-4.049347668159299,-3.1991353849085367,1.072767304211128,6.097933141196647,-15.82373642339939,4.20379638671875,3.351351109946646,19.766458650914632,4.490922137004573,-19.97688128165559,-21.91100045787546,2.9448214762667897,18.525939008081867,-46.34706654456654,-13.38314946771978,27.70919819091263,35.13723904513733,38.0605325426064,1577397922.999,-27.69023152981189,-51.12621157616904,7.355423
86580,1577397923.53,-0.5640972691977897,-0.1329657848823354,8.704090937916824,-7.731811483243616,2.5733580185308687,13.307615173935307,-2.7135648035561166,-11.12532955828411,16.843792630823646,-3.6831367306592986,11.754477896341465,4.948499726086128,-2.294400843178354,6.6677186547256095,1.27410888671875,4.907747594321647,4.355081697789634,-8.601118878620428,-21.870424531101616,-23.371733821733827,2.63484026823871,17.237178033606607,-43.97896825396825,-63.98205414377289,27.75712103513344,35.13723904513733,38.15637823104801,1577397922.999,-27.69023152981189,-51.12621157616904,7.355423
86581,1577397923.54,-1.7276792760337272,-0.3843569591987417,14.251456184498856,-3.922636641935023,-2.7920479018792874,7.492099341415778,-5.016786800626429,2.2941707468916728,19.455866642054115,6.753874988090701,3.9724954744664633,3.422620819836128,4.938265172446647,-0.2597715796493902,4.78363037109375,-1.2873207650533538,-19.906392911585368,-5.793501691120427,-18.08333803220956,-21.91100045787546,3.564783892322956,17.55936827722542,-41.272570207570205,-67.22038404304028,27.852966723575044,35.13723904513733,38.0605325426064,1577397922.999,-27.69023152981189,-51.12621157616904,7.355423
86582,1577397923.55,-1.0644854161704458,-3.24542794308546,12.710787416188309,-2.459779427579554,-6.349831568871474,8.90228411924781,-3.3169036219154915,-4.917164653498952,17.2675663246713,-8.3065498165968,5.788291372903963,3.483655976086128,-1.8061195931783536,-0.1682188452743902,3.65447998046875,-14.318326624428352,-43.83217416158536,-1.826216534870427,-20.35558993154479,-20.99804210546398,2.9448214762667893,19.975795104366533,-35.690624236874235,-62.16049357543498,27.996735256237457,35.13723904513733,37.91676400994399,1577397922.999,-27.69023152981189,-51.12621157616904,7.355423
86583,1577397923.56,0.3002095301186165,5.471860301543445,8.84056043254573,0.9830825597251334,-1.2813066543206937,9.89108940489234,5.907955374666539,21.114989997379958,14.60042567525724,18.3810722537157,-0.2694478849085365,1.133802460461128,0.8794272818216463,2.212152248475609,5.54656982421875,-28.081754358803355,-58.32802377096037,-1.185347394245427,-18.272692357154163,-21.728408787393168,2.7898308722527494,17.881558520844237,-35.1831746031746,-60.743724244505486,27.94881241201665,34.993470512474914,38.0605325426064,1577397922.999,-27.69023152981189,-51.12621157616904,7.355423
86584,1577397923.57,-0.0714902776206412,2.746660261870593,7.726658110158035,1.7492270909751333,-3.92689948879335,9.943761841415778,-3.2163471521889293,-8.479736723811452,3.728355936487709,13.71951219512195,3.7817606111852142,1.759412812023628,6.952425328696647,6.6372010766006095,0.23651123046875,-8.092740686928353,-45.35805306783536,28.23359791825457,-19.55083405053023,-21.59146503453145,2.4411020132211565,18.525939008081867,-34.84487484737485,-68.02996651785715,27.88890885674065,34.993470512474914,38.0605325426064,1577397922.999,-27.69023152981189,-51.12621157616904,7.355423
86585,1577397923.58,-0.443190085359899,0.021460222197742,6.61275578777034,-0.6234267542397103,-1.2525762343988185,4.77707465879859,1.9886472569907585,-2.2715718190262955,1.0564268837533333,9.0579521365282,7.832969107278965,2.385023163586128,0.8183921255716463,-2.0908262671493905,1.88446044921875,7.440706578696647,-1.962056974085366,13.157914324504572,-20.828975743906295,-21.454521281669724,2.092373154189564,2.4164268271411125,-35.85977411477411,-61.553306719322336,27.829005301464647,35.233084733578934,37.9646868541648,1577397922.999,-27.69023152981189,-51.12621157616904,7.355423
86586,1577397923.59,0.5827253260170541,-1.5024491344917104,4.985895759694168,-4.078259749845179,5.022626316870713,10.609349902939217,1.641488016268102,5.045108454411204,-1.2420067099966656,16.6110527224657,-5.304848275533536,-1.246568633288872,7.776399938071647,2.669915920350609,2.03704833984375,8.539339391196647,34.38437857278964,17.369340105754574,-19.787526956710987,-20.99804210546398,2.7898308722527494,17.881558520844237,-45.33216727716727,-65.6012190934066,27.94881241201665,35.13723904513733,38.25222391948962,1577397922.999,-27.69023152981189,-51.12621157616904,7.355423
86587,1577397923.6,-0.3917147496665396,-1.143318885468273,11.780640071217604,0.7556334020102896,-3.2852534438714747,4.645393567489996,4.811411014314976,-15.00633044939739,9.795262943323646,10.3854667849657,2.324546255716464,2.690198944836128,-2.660611780678354,5.2333924828506095,2.09808349609375,12.811800328696648,44.45517935403964,3.2702190120045733,-18.65140100704337,-22.09359212835776,4.959699328449327,17.881558520844237,-44.65556776556777,-65.6012190934066,27.90088956779585,35.424776110462155,38.0605325426064,1577397922.999,-27.69023152981189,-51.12621157616904,7.355423
86588,1577397923.61,-2.0173776769126333,2.3857343616020383,17.72783699504573,-3.0942428675209603,7.534143858374619,17.274807324814216,-8.519503829435022,-7.055186736018484,15.661057010706458,-9.8782050900343,5.834067740091464,3.422620819836128,-7.268766077553353,-7.4314024390243905,8.47625732421875,17.633577672446645,30.722269197789632,-15.833784894245428,-19.59817263176638,-20.085083753052505,2.9448214762667897,2.4164268271411125,-46.6853663003663,-68.02996651785715,27.90088956779585,35.28100757779974,38.10845538682721,1577397922.999,-27.69023152981189,-51.12621157616904,7.355423
86589,1577397923.62,-1.263204153963415,-3.681172645233898,9.841336726491043,3.949498416658727,-3.2038505874261625,15.467185071396246,-9.161149874356898,2.737098054020579,22.343273844202557,-4.415558605659299,11.876548208841465,4.399183319836128,4.694124547446647,16.52489638910061,-1.28936767578125,9.393831578696648,-8.706441739710366,-12.446333722370428,-18.84075533198797,-21.91100045787546,3.874765100351035,10.31008779580208,-46.51621642246642,-15.204710036057692,27.852966723575044,35.13723904513733,38.10845538682721,1577397922.999,-27.69023152981189,-51.12621157616904,7.355423
86590,1577397923.63,-1.957522635408727,3.580440990020007,13.715155012623857,-2.1413506067787726,-1.1592023696527247,10.037135706161871,-5.356763436368617,-4.048069450862233,19.94428378072599,5.563689441215701,8.885825552591463,2.262952851086128,1.5202964224466462,-2.6706602515243905,4.96673583984375,-6.627896936928353,-23.385396817835368,-18.031050519245422,-21.11300723132321,-20.085083753052505,3.874765100351035,14.176370719227862,-46.51621642246642,-16.014292510874544,27.94881241201665,35.13723904513733,37.91676400994399,1577397922.999,-27.69023152981189,-51.12621157616904,7.355423
86591,1577397923.64,0.3887949915443978,-3.1448714733588976,5.359391218678542,2.213702213045446,1.5079382797613377,21.696897791122808,5.493758487459508,22.13491990460652,9.462468912561928,4.556609363090701,-3.3822408536585367,2.781751679211128,2.527376500571646,10.42138076410061,-1.47247314453125,8.081575719321647,-21.127096036585368,10.624955340129572,-20.544944256489394,-20.2676754235348,2.169868456196584,17.881558520844237,-45.67046703296703,-16.216688129578753,27.75712103513344,35.233084733578934,37.91676400994399,1577397922.999,-27.69023152981189,-51.12621157616904,7.355423
86592,1577397923.65,-0.1810250035727896,2.967525365020007,6.958717927662918,1.3182707921470085,-1.4824195937738185,0.8745259527439027,1.033360794588415,-13.533896428401295,7.013200614222083,24.3625175662157,0.2798685213414634,3.453138397961128,-3.576139124428354,9.32274795160061,1.39617919921875,-10.015348108803352,-13.955465177210366,21.51973073075457,-18.08333803220956,-21.545817116910868,3.874765100351035,17.237178033606607,-46.6853663003663,-13.38314946771978,28.044658100458264,35.13723904513733,38.10845538682721,1577397922.999,-27.69023152981189,-51.12621157616904,7.355423
86593,1577397923.66,0.7024354090248666,0.5182570666801635,5.766405500905106,-2.862005306485804,3.533432884253525,10.61892670957984,3.130681448885289,3.2973412424971418,-0.6673983115591657,13.4677421755907,-7.288490853658536,0.8286266792111281,-2.141812952553354,-14.54199814214939,4.35638427734375,1.2761557974466462,-1.656881192835366,-0.4529255192454268,-18.84075533198797,-21.545817116910868,4.184746308379121,17.237178033606607,-39.91937118437118,-17.026270604395606,28.044658100458264,35.13723904513733,38.25222391948962,1577397922.999,-27.69023152981189,-51.12621157616904,7.355423
86594,1577397923.67,-1.4188272618735709,-0.6979973766792105,6.137506758229324,1.2153201207602895,-0.1799738906488185,5.047619446396246,4.255956229158727,15.63705659894245,-5.032027938024009,13.7118828005907,-1.2154928067835369,3.819349335461128,9.332796422446648,5.7521913109756095,2.03704833984375,15.497347203696648,40.97617544778964,37.083695574504574,-19.97688128165559,-21.545817116910868,1.7048966441544513,17.237178033606607,-38.56617216117216,-15.407105654761905,28.044658100458264,35.13723904513733,38.15637823104801,1577397922.999,-27.69023152981189,-51.12621157616904,7.355423
86595,1577397923.68,0.2235950769936165,-1.5359679577338978,10.109487312428543,-1.320139437345179,-2.8255667251214747,0.3501957891696838,2.967875735994664,-24.7962210377763,11.868641581018958,-11.5871894650343,-4.419838509908536,0.3098278510861281,2.618929234946646,-3.9829161108993913,1.27410888671875,17.053743688071645,56.84531607278964,-7.807661847370427,-20.9236529063786,-20.2676754235348,2.7898308722527494,6.604899994185707,-41.272570207570205,-13.787940705128204,27.852966723575044,35.52062179890376,38.0605325426064,1577397922.999,-27.69023152981189,-51.12621157616904,7.355423
86596,1577397923.69,0.8221454920326791,-1.468930311249523,8.165395564381667,-0.7120122156654917,1.8072134872808685,11.24620754454078,0.7161290746177112,-0.927227586848564,19.98977361226896,3.641082019340701,-1.9479146817835369,5.162122772961128,3.320833531821646,0.5184266625381095,2.79998779296875,29.44388040682165,54.480203768102136,-15.177656964557926,-19.787526956710987,-21.36322544642857,3.719774496336995,18.36484388627246,-45.16301739926739,-15.204710036057692,27.75712103513344,35.32893042202055,38.0605325426064,1577397922.999,-27.69023152981189,-51.12621157616904,7.355423
86597,1577397923.7,-0.3462249181235709,4.167020396758288,18.886630598561357,1.689372049471227,0.4113939194097742,16.810332202743904,-1.9306608606850224,-8.453400505549734,25.716703983362702,6.174041003715701,5.284751333841464,5.864027069836128,-0.8905922494283537,1.6933534203506098,5.21087646484375,-4.430631311928353,-18.136373380335368,-40.12577708174543,-19.787526956710987,-19.90249208257021,3.719774496336995,18.20374876446305,-39.91937118437118,-15.407105654761905,27.852966723575044,35.28100757779974,38.0605325426064,1577397922.999,-27.69023152981189,-51.12621157616904,7.355423
86598,1577397923.71,1.090296077970179,-2.0411445080268664,15.874724910084792,-0.0105111292397093,-1.918164295922256,7.961362866806402,6.30299864859232,22.21153435773152,6.385919779261147,-15.6765449337843,0.1272806307164634,3.636243866711128,3.137728063071646,1.4797303734756098,5.45501708984375,4.785677281821647,-5.380025724085366,16.636918230754574,-19.030109656932574,-21.36322544642857,2.4798496642246635,18.20374876446305,-39.91937118437118,-15.407105654761905,27.61335250247102,35.233084733578934,38.15637823104801,1577397922.999,-27.69023152981189,-51.12621157616904,7.355423
86599,1577397923.72,0.5707543177162728,-0.6812379650581167,12.676071492116042,0.1115931554282584,-5.497495777855849,8.58864370176734,1.4523460851157584,-14.812400114924737,9.943703446253334,-3.8357246212842986,15.080893911966465,5.406263397961128,2.832552281821646,0.4116151391006097,6.37054443359375,-1.4704262338033538,4.660257479039634,23.68647877762957,-19.030109656932574,-20.99804210546398,2.4798496642246635,18.36484388627246,-39.7502213064713,-15.204710036057692,27.75712103513344,35.28100757779974,37.9646868541648,1577397922.999,-27.69023152981189,-51.12621157616904,7.355423
86600,1577397923.73,0.1266299097572884,0.5493816882621951,5.103211641041824,-0.2044414637123665,-0.5798055678949122,5.401961292099371,-2.6465271570717417,0.934264203922923,12.479163004358805,10.0039970584032,7.131064810403963,4.811170624523628,-1.5009438119283538,-5.173101657774391,3.44085693359375,13.513704625571648,12.320169588414634,-6.922652081745427,-18.65140100704337,-20.99804210546398,2.7898308722527463,17.237178033606607,-46.6853663003663,-13.787940705128204,27.94881241201665,35.13723904513733,38.0605325426064,1577397922.999,-27.69023152981189,-51.12621157616904,7.355423
86601,1577397923.74,1.6672986780678352,3.81507275271532,3.1663024979754173,-0.6713107874428353,2.506320372046493,3.726020129989996,2.449531076570836,7.470434736149484,3.503300980433021,31.7172538943407,-12.995277963033535,-0.2394885551638719,1.9475425161966464,-2.457037204649391,3.47137451171875,7.8526938833841475,13.113626619664632,11.265824480754572,-18.65140100704337,-20.2676754235348,3.099812080280829,17.398273155416014,-46.516216422466414,-15.407105654761905,27.75712103513344,35.16120046724773,37.9886482762752,1577397922.999,-27.69023152981189,-51.12621157616904,7.355423
86602,1577397923.75,1.6026552332436166,-4.550267847870616,5.340237605397292,3.875278165193883,3.009102720679306,5.071561462997809,0.3821379430259146,-5.6665497731278585,-1.965055611363853,2.1152031130907014,-12.873207650533535,0.7675915229611281,-4.400113733803353,8.34618545160061,2.79998779296875,-1.3788734994283538,4.049905916539634,-3.5352009098704267,-19.97688128165559,-21.18063377594628,3.2548026842948694,18.525939008081867,-45.33216727716727,-10.549610805860803,27.75712103513344,35.13723904513733,37.9646868541648,1577397922.999,-27.69023152981189,-51.12621157616904,7.355423
86603,1577397923.76,0.8724237268959603,-3.650048023651866,5.419246260182449,5.649381595369664,-2.7274044570550684,4.669335584091559,-1.588290023282679,11.31552260236042,5.186424747522865,6.906462878715701,7.115806021341464,5.314710663586128,-1.1652504525533538,2.669915920350609,2.03704833984375,7.410189000571647,18.667825838414632,9.923051043254572,-17.136566407486544,-22.823958810286936,2.169868456196584,18.525939008081867,-43.97896825396825,-62.36288919413919,27.75712103513344,35.13723904513733,37.9646868541648,1577397922.999,-27.69023152981189,-51.12621157616904,7.355423
86604,1577397923.77,-0.0972279454673209,3.302713597441882,15.51080625774104,-1.0627627588783817,1.4133673141851657,10.14128347837867,-2.395135982755336,-4.645422765071219,8.198330435999427,1.0165703005907014,6.047690786966464,3.910902069836128,-0.5854164681783538,-4.3949034155868905,5.92803955078125,6.189485875571648,24.740823885289632,-1.353194073932927,-20.16623560660019,-20.99804210546398,2.4798496642246635,17.720463399034827,-44.82471764346764,-62.16049357543498,27.94881241201665,35.11327762302693,38.0126096983856,1577397922.999,-27.69023152981189,-51.12621157616904,7.355423
86605,1577397923.78,0.860452718595179,-1.3300666149604603,11.11984041301448,2.2903166661704457,-4.518267298851944,7.74588471739234,0.7771812169516958,-0.7680131764481706,13.274037955530677,-11.4956367306593,17.293418326028963,4.994276093273628,1.6423667349466462,12.40502334222561,2.98309326171875,13.086458531821648,41.92222036966464,2.4462444026295733,-20.16623560660019,-20.99804210546398,2.4798496642246635,18.84812925170068,-42.62576923076923,-62.36288919413919,27.68523676880223,35.32893042202055,38.0605325426064,1577397922.999,-27.69023152981189,-51.12621157616904,7.355423
86606,1577397923.79,-0.7316913854087271,-2.869538282440929,12.436651326100415,0.2935524816001334,-2.186314881859756,9.249443359970464,-1.6792696863686165,-0.1407323414872321,13.611620389612709,-20.3762519650343,15.874350943216465,5.345228241711128,2.191683141196646,0.9609315453506098,7.59124755859375,14.459749547446648,30.874857088414632,-10.279585675495428,-19.40881830682178,-22.823958810286936,2.7898308722527494,18.525939008081867,-43.97896825396825,-62.36288919413919,27.90088956779585,35.13723904513733,38.10845538682721,1577397922.999,-27.69023152981189,-51.12621157616904,7.355423
86607,1577397923.8,1.2554959925209603,3.795919139434069,10.054420674244948,0.7245087804282584,5.204585643042588,17.13833783018531,1.5241721349204458,2.9597588084151103,12.48634560933927,7.974578113090701,14.256919302591465,4.643323944836128,2.740999547446646,0.0759217797256097,3.62396240234375,6.494661656821647,17.325052400914632,-2.6501911442454267,-19.030109656932574,-20.99804210546398,3.099812080280829,18.525939008081867,-43.640668498168495,-17.026270604395606,27.75712103513344,35.233084733578934,38.39599245215204,1577397922.999,-27.69023152981189,-51.12621157616904,7.355423
86608,1577397923.81,-0.9399869298423208,1.3071465137016482,8.82140681926448,3.082797415682164,-0.9102053969964748,8.85679428770484,-1.1645163294350227,-9.13814218035442,16.697746329554114,6.387664050590701,-1.3223043302210369,2.629163788586128,1.8559897818216464,8.74291396722561,3.25775146484375,-1.5314613900533538,0.5403844321646342,0.1269084651295732,-19.97688128165559,-23.00655048076923,2.324859060210624,19.331414617128907,-35.35232448107448,-15.204710036057692,27.94881241201665,35.28100757779974,38.15637823104801,1577397922.999,-27.69023152981189,-51.12621157616904,7.355423
86609,1577397923.82,0.3792181849037728,-0.0563513317573354,4.466353999440261,-1.9641796839272103,0.9093878647222752,3.368086981796637,0.8118971410239615,3.883920649235422,3.5727328285775526,7.028533191215701,10.869468130716465,3.270032929211128,-2.416471155678354,1.0524842797256095,3.60870361328125,-4.812101038490853,-9.011617520960366,0.7982951838795729,-19.97688128165559,-23.00655048076923,2.324859060210624,18.042653642653647,-43.13321886446885,-16.014292510874544,27.75712103513344,35.28100757779974,38.0605325426064,1577397922.999,-27.69023152981189,-51.12621157616904,7.355423
86610,1577397923.83,-0.0948337438071646,0.618813536406726,4.100041145436355,-1.1716989344154916,-3.1966679824456934,3.649405676864996,1.9599168370688835,-6.265100188166921,3.876796439417397,4.159880847465701,2.141440786966464,3.758314179211128,-0.1581703744283537,3.432855373475609,4.60052490234375,3.076692906821646,11.160501619664634,19.13935963700457,-19.787526956710987,-21.728408787393168,2.7898308722527494,18.68703412989128,-43.13321886446885,-15.204710036057692,27.75712103513344,35.28100757779974,37.91676400994399,1577397922.999,-27.69023152981189,-51.12621157616904,7.355423
86611,1577397923.84,-0.1259583653891959,-3.2095149181831166,4.444806184498855,0.1331409703696646,1.5821585312261814,0.4938478887790588,-6.022351497892054,-1.0265869557450455,3.939045682581459,-8.3523261837843,1.1038431307164631,2.415540741711128,-6.353238733803353,7.7663514672256095,3.25775146484375,1.1540854849466462,11.007913729039634,11.601517840129572,-20.35558993154479,-19.71990041208792,1.084934228098292,18.84812925170068,-46.34706654456654,-10.549610805860803,27.852966723575044,35.13723904513733,38.10845538682721,1577397922.999,-27.69023152981189,-51.12621157616904,7.355423
86612,1577397923.85,0.1601487329994759,2.1762417163383665,7.747607374684402,-0.6665223841225228,2.003538023413681,10.88707729551734,-4.092624959806116,-4.359315666682545,8.073831949671302,4.648162097465701,-7.288490853658535,0.950696991711128,-4.949430140053353,-7.4008848608993905,5.27191162109375,0.2385581411966463,14.914163729039634,7.420609637004573,-18.556723844571067,-22.002296293116608,3.4872885903159325,17.881558520844237,-46.00876678876679,-9.740028331043955,27.90088956779585,35.13723904513733,38.10845538682721,1577397922.999,-27.69023152981189,-51.12621157616904,7.355423
86613,1577397923.86,-0.7915464269126333,-4.7130735607612415,11.55319091350276,-0.9191106592690071,-3.098505714379287,7.208386444687262,-3.048753035977992,-3.575214622981374,12.547397751673255,-22.1462714962843,7.512534536966464,3.727796601086128,-4.7205483041158525,0.8388612328506094,1.48773193359375,-2.614835413490854,13.144144197789634,2.1258098323170733,-18.84075533198797,-21.545817116910868,3.564783892322956,17.559368277225424,-46.00876678876679,-10.14481956845238,28.044658100458264,35.18516188935813,38.22826249737922,1577397922.999,-27.69023152981189,-51.12621157616904,7.355423
86614,1577397923.87,0.8843947351967415,2.3689749499809447,16.15724070598323,-5.857151583341273,2.8726332260504,22.008144006943123,-8.294448873380334,2.1960084788252665,12.744919388636148,-9.5119941525343,14.989341177591465,4.582288788586128,-0.5854164681783537,-14.26733993902439,5.08880615234375,-0.8600746713033537,-0.8634241615853658,-10.188032941120428,-18.46204668209877,-20.085083753052505,2.63484026823871,12.726514622943194,-46.6853663003663,-17.026270604395606,27.90088956779585,35.13723904513733,38.10845538682721,1577397922.999,-27.69023152981189,-51.12621157616904,7.355423
86615,1577397923.88,-1.105186844393102,-0.2550700695503042,17.10773876506526,4.057237491365758,-2.8399319350824124,12.132062158798592,7.231948892732945,12.854994269840889,11.693864859827553,-25.0149238400343,6.535972036966464,-0.0869006645388719,1.4897788443216462,19.33251357660061,0.17547607421875,8.630892125571647,-4.128805020960366,-4.969527081745427,-19.030109656932574,-21.36322544642857,3.719774496336995,17.55936827722542,-46.34706654456654,-17.026270604395606,27.852966723575044,35.13723904513733,38.25222391948962,1577397922.999,-27.69023152981189,-51.12621157616904,7.355423
86616,1577397923.89,0.4690007471596322,1.054558238555164,10.796623188893388,-0.3229544458901009,0.7489763534918067,7.322111023544684,0.0840598363364612,-0.4112771290848894,7.709913297327552,-5.193756847846799,3.819907583841464,1.957777069836128,-8.443692835365852,-0.1987364233993904,1.97601318359375,1.0472739615091462,10.870584627477134,-2.4060505192454267,-18.935432494460272,-20.90674627022284,3.0223167782738094,18.20374876446305,-46.34706654456654,-13.787940705128204,27.94881241201665,35.113277623026924,37.94072543205439,1577397922.999,-27.69023152981189,-51.12621157616904,7.355423
86617,1577397923.9,-0.2648220616782584,2.9531601550590696,5.73767508098323,0.7388739903891959,-2.3275727798089747,0.6782014166110901,6.822540408846226,6.361919367497141,7.087420865686927,16.9467460818407,-3.0160299161585367,-1.643297148913872,-4.064420374428353,9.07860732660061,-3.73077392578125,-5.010465296303353,2.2493688071646343,4.857133074504573,-19.030109656932574,-21.728408787393168,3.409793288308909,17.237178033606607,-46.6853663003663,-16.216688129578753,27.90088956779585,35.13723904513733,38.0605325426064,1577397922.999,-27.69023152981189,-51.12621157616904,7.355423
86618,1577397923.91,0.611455745938929,-2.455341395233898,2.448041999928542,-4.197969832852992,2.211833567847275,-0.4901689935451589,2.6829657384360703,-4.677744487483326,9.242202359827552,-0.6618964962842987,-0.4525533536585365,2.262952851086128,-15.447477015053352,10.69603896722561,1.82342529296875,-7.085660608803353,-12.307515958460366,1.225541277629573,-19.030109656932574,-21.728408787393168,3.099812080280829,17.237178033606607,-46.6853663003663,-17.026270604395606,27.852966723575044,34.993470512474914,38.25222391948962,1577397922.999,-27.69023152981189,-51.12621157616904,7.355423
86619,1577397923.92,2.715959005216273,-1.890309803437023,0.56619949504573,2.8290120397056016,-0.2015217055902247,5.018889026474372,-3.589842611173304,2.9501820017744853,2.679695609339271,13.0710136599657,0.2493509432164634,-0.8498401176638719,-9.038785608803352,6.6372010766006095,1.79290771484375,-5.712369593178353,-29.153219083460368,4.796097918254573,-19.787526956710987,-22.09359212835776,2.7898308722527494,17.237178033606607,-46.6853663003663,-16.62147936698718,27.94881241201665,35.13723904513733,38.0605325426064,1577397922.999,-27.69023152981189,-51.12621157616904,7.355423
86620,1577397923.93,0.0308618433510384,-1.8879156017768663,7.238839521901199,0.5233958409751334,-2.5418538283929597,6.5631490972751525,-0.1469806238686168,-0.5525350270341082,11.91891981588224,-3.149079113471799,0.9512552400914632,-0.5599231254763719,-8.825162561928352,2.196893459413109,2.63214111328125,-17.04964986661585,-41.72646127096036,10.365555926067072,-18.272692357154163,-20.4502670940171,2.3248590602106267,17.237178033606607,-46.6853663003663,-16.216688129578753,27.996735256237457,35.11327762302693,37.9886482762752,1577397922.999,-27.69023152981189,-51.12621157616904,7.355423
86621,1577397923.94,-3.552060941072789,3.075264439727038,16.3176522172137,-4.24345966439596,2.587723228491806,18.60598344786109,-2.876370516446741,6.704290204899484,10.70505957418302,-15.0356757931593,11.022056021341465,2.140882538586128,-10.564664515053352,-3.2199766577743905,2.40325927734375,-17.614225061928355,-33.273092130335364,9.038041277629572,-18.08333803220956,-21.18063377594628,2.63484026823871,17.237178033606607,-46.34706654456654,-17.026270604395606,27.75712103513344,35.28100757779974,38.0605325426064,1577397922.999,-27.69023152981189,-51.12621157616904,7.355423
86622,1577397923.95,-1.8186589391196648,2.1582852038871945,11.332924360768386,-3.972914876798304,-0.7833127090081935,16.503874390243904,3.398832034822789,-4.155808525569264,11.320369400843177,-18.6062324337843,17.369712271341463,1.774671601086128,-7.543424280678353,7.4001405297256095,-1.07574462890625,-14.745572718178352,-9.408346036585366,9.099076433879572,-19.21946398187718,-21.18063377594628,2.63484026823871,17.237178033606607,-46.6853663003663,-17.026270604395606,27.90088956779585,35.13723904513733,38.10845538682721,1577397922.999,-27.69023152981189,-51.12621157616904,7.355423
86623,1577397923.96,-2.698528049227086,-0.6824350658881954,12.887958339039873,-2.165292623380336,-3.981966126976944,13.140021057724372,3.707684048982945,-7.488537236506764,10.180729410608802,-22.4819648556593,11.647666372903965,2.125623749523628,-1.2568031869283538,-1.3278868140243902,3.10516357421875,-7.604459436928353,2.0357457602896343,-7.990767316120427,-19.692849794238683,-21.819704622634312,3.642279194329976,17.237178033606607,-46.6853663003663,-16.216688129578753,27.781082457243837,35.32893042202055,38.15637823104801,1577397922.999,-27.69023152981189,-51.12621157616904,7.355423
86624,1577397923.97,-0.3821379430259146,0.1256079944145385,9.276305134694168,0.414459665438024,1.6731381943121186,12.84074585020484,-1.642159560636195,-5.897590233332939,14.285588156946693,-8.8406074337843,-4.816567025533536,0.096204804211128,-8.321622522865852,3.371820217225609,-1.22833251953125,-3.957608850990853,5.819925447789634,1.423905535442073,-20.16623560660019,-21.728408787393168,2.4798496642246635,19.975795104366533,-45.83961691086691,-16.62147936698718,27.852966723575044,35.28100757779974,38.0126096983856,1577397922.999,-27.69023152981189,-51.12621157616904,7.355423
86625,1577397923.98,-0.7628160069907584,-0.9685421642768668,7.612334980885574,-0.4797746546303353,-1.9540773208246,3.8648838262790575,4.806622610994664,-0.5860538502762956,10.587743692835364,9.2257988162157,-9.027992806783535,1.255872772961128,-7.757047327553353,2.883538967225609,1.79290771484375,-30.523160608803355,-26.467672208460368,-22.456099347370422,-20.16623560660019,-21.728408787393168,2.4798496642246635,19.814699982557126,-43.97896825396825,-13.38314946771978,27.94881241201665,35.08931620091653,38.0605325426064,1577397922.999,-27.69023152981189,-51.12621157616904,7.355423
86626,1577397923.99,0.3026037317787728,-0.8248900646674917,5.637118611256668,-1.3536582605873666,3.4280880112066496,6.1872594366306215,-0.1517690271889281,24.500391144840894,5.040378446253333,3.2443535037157014,-3.6874166349085367,1.652601288586128,-12.243131311928352,-6.210699314024391,3.04412841796875,1.3371909536966462,-24.117818692835368,9.190629168254572,-20.35558993154479,-20.81545043498169,4.494727516407208,17.237178033606607,-46.6853663003663,-13.38314946771978,27.852966723575044,35.13723904513733,37.772995477281576,1577397922.999,-27.69023152981189,-51.12621157616904,7.355423
86627,1577397924.0,0.1002936914955692,0.7397207202446167,5.5054375199480745,1.6247286046470084,-0.7450054824456934,6.101068176864996,-2.550759090665492,-6.906746233088795,6.26860389791349,4.0225517459032005,-8.097206673971035,-0.7582873832888719,-1.4093910775533538,1.876458889100609,-2.17437744140625,-15.508512171303352,-18.014303067835368,18.92573659012957,-19.50349546929408,-22.3674796340812,3.4872885903159325,-3.382997557997558,-43.640668498168495,-10.549610805860803,27.805043879354244,35.233084733578934,37.9646868541648,1577397923.999,-27.6902333112788,-51.12613602397055,7.4221563
86628,1577397924.01,-0.3917147496665396,-4.571815662812023,7.820630525319167,-2.7961647608315072,-1.894222279320694,5.972978388046637,-1.184867043546351,-1.196575273616141,4.60223954244474,-14.1201484494093,4.918540396341464,1.622083710461128,-7.131436975990853,-8.86572861089939,3.08990478515625,-11.525968225990855,0.7540074790396343,4.750321551067072,-19.40881830682178,-21.36322544642857,3.409793288308909,18.848129251700684,-43.97896825396825,-65.19642785599817,27.852966723575044,35.11327762302693,38.06053254260641,1577397923.999,-27.6902333112788,-51.12613602397055,7.4221563
86629,1577397924.02,0.4606210413490853,-0.5854698986518667,10.471011763112136,-0.3887949915443978,-1.5303036269769434,11.523934937118904,0.6838073522056022,-9.159689995295828,15.373752811487709,-20.0405586056593,4.277671255716464,1.713636444836128,-5.834439905678353,5.8132264672256095,-2.60162353515625,-6.933072718178353,8.963235994664634,11.418412371379572,-19.40881830682178,-21.36322544642857,3.409793288308909,17.881558520844237,-41.61086996336996,-68.43475775526557,28.044658100458264,35.13723904513733,37.9646868541648,1577397923.999,-27.6902333112788,-51.12613602397055,7.4221563
86630,1577397924.03,-2.5393136388266955,-3.334013404511241,11.893167549244948,-0.640186165860804,-5.363420484887099,10.266979065536871,-2.7399010218178352,-5.8916047291825455,18.139055728968177,-18.9419257931593,7.939780630716464,2.415540741711128,-7.238248499428353,2.914056545350609,0.66375732421875,-20.330289515053355,-12.093892911585366,-8.021284894245428,-19.40881830682178,-21.36322544642857,3.409793288308909,19.331414617128907,-43.47151862026863,-64.99403223729396,28.044658100458264,35.233084733578934,37.91676400994399,1577397923.999,-27.6902333112788,-51.12613602397055,7.4221563
86631,1577397924.04,-2.3166528844321643,5.061254716826648,16.853953389088698,-4.733073903897913,4.871791612280869,18.218122778915777,-2.8512313990151013,3.682807709782296,11.41972876973966,-8.0929267697218,-6.830727181783536,1.530530976086128,-4.644254358803353,-6.0123350562118905,1.35040283203125,-3.942350061928354,-10.461202481897866,-1.719405011432927,-20.16623560660019,-20.99804210546398,3.4097932883089155,18.123201203558345,-38.81989697802197,-66.51199937757556,27.78108245724384,35.18516188935813,38.1084553868272,1577397923.999,-27.6902333112788,-51.12613602397055,7.4221563
86632,1577397924.05,0.5013224695717415,-3.712297266815929,9.379255806080886,5.781062686678258,-6.402504005394912,5.37083667051734,1.6366996129477895,-1.998632829768483,7.937362455042396,2.2677910037157014,-11.896645150533535,-1.093980742663872,-3.362516077553354,5.5385682641006095,1.24359130859375,-11.968473108803352,-1.229635099085366,-0.8801716129954268,-19.21946398187718,-21.18063377594628,2.9448214762667897,17.398273155416014,-40.42682081807081,-62.16049357543498,28.092580944679067,35.13723904513733,38.10845538682721,1577397923.999,-27.6902333112788,-51.12613602397055,7.4221563
86633,1577397924.06,0.5228702845131478,-6.410562537812023,7.791900105397293,3.1785654820884144,-2.4281292495355373,1.250415613388434,6.106674112459507,10.060960932438546,7.640481449183021,-25.5337226681593,7.176841177591464,2.751234101086128,-10.900357874428352,-12.92456650152439,0.96893310546875,-2.233365686928354,4.751810213414634,4.155228777629573,-19.40881830682178,-20.99804210546398,2.7898308722527494,18.042653642653644,-43.47151862026863,-61.75570233802655,27.565429658250217,35.233084733578934,37.9646868541648,1577397923.999,-27.6902333112788,-51.12613602397055,7.4221563
86634,1577397924.07,1.5739248133217414,-0.0395919201362417,7.892456575123855,-0.4582268396889291,3.3658387680425874,16.590065650009528,-0.4127370081459603,-3.3920581959794203,8.013976908167397,-5.300568371284299,-8.265053353658537,2.751234101086128,-4.461148890053353,-9.10986923589939,1.15203857421875,-6.322721155678353,3.9888707602896334,13.310502215129572,-19.40881830682178,-20.99804210546398,2.7898308722527494,18.042653642653644,-43.80981837606838,-63.37486728766025,27.94881241201665,35.28100757779974,37.91676400994399,1577397923.999,-27.6902333112788,-51.12613602397055,7.4221563
86635,1577397924.08,1.6661015772377572,0.327918034697742,4.522617738453934,-0.3181660425697886,-1.5171355178460844,4.7627094488376525,-2.3436606470619763,-2.9012468556473907,10.282482981165442,14.9631035037157,-11.271034798971035,0.2793102729611281,-2.0197426400533534,1.6628358422256095,0.61798095703125,-6.9635902963033525,4.202493807164634,0.2642375666920733,-19.21946398187718,-21.36322544642857,4.029755704365078,17.237178033606607,-42.62576923076923,-12.775962611607142,27.829005301464647,35.11327762302693,37.94072543205439,1577397923.999,-27.6902333112788,-51.12613602397055,7.4221563
86636,1577397924.09,-0.9782941564048208,2.469531419707507,12.692830903737136,-0.4342848230873665,0.8136197983160252,10.705117969345466,-4.528369661954554,-3.1670032399247328,4.834477103479896,-4.568146496284299,-12.018715463033535,-1.978990508288872,-5.468228968178353,-3.1589415015243905,-1.47247314453125,-1.1957680306783538,15.036234041539634,7.237504168254573,-20.35558993154479,-21.18063377594628,2.9448214762667897,17.237178033606607,-37.88957264957265,-15.407105654761905,27.90088956779585,35.28100757779974,38.0605325426064,1577397923.999,-27.6902333112788,-51.12613602397055,7.4221563
86637,1577397924.1,-0.4515697911704459,-0.0180441051948354,10.305811848561357,0.2289090367759146,0.1791563583746179,6.702012793564215,-0.9059425501381476,-1.0170101491044206,10.357900333460364,-8.2302558712843,6.902182974466464,1.042249726086128,-6.383756311928353,2.212152248475609,0.45013427734375,-8.428434046303353,6.064066072789634,-4.816939191120427,-18.65140100704337,-19.537308741605617,2.169868456196584,17.237178033606607,-46.00876678876679,-15.00231441735348,28.044658100458264,35.28100757779974,38.0605325426064,1577397923.999,-27.6902333112788,-51.12613602397055,7.4221563
86638,1577397924.11,0.151769027188929,-3.046709205292492,9.144624043385576,0.7723928136313833,-5.574110230980849,5.995723303818122,2.070050113436071,9.495929340641672,9.711465885218177,-11.1752021603468,6.093467154153964,2.751234101086128,0.5437339224466463,-1.9382383765243905,3.53240966796875,1.7034018911966462,-0.2530725990853658,-7.014204816120427,-19.219463981877176,-19.90249208257021,2.6348402682387064,17.398273155416014,-45.16301739926739,-16.419083748282965,27.900889567795847,35.08931620091653,38.15637823104801,1577397923.999,-27.6902333112788,-51.12613602397055,7.4221563
86639,1577397924.12,-0.8274594518149772,-1.267817371796398,16.174000117604322,-0.2882385218178353,-0.4241824599847559,18.157070636581796,-3.0762863550697888,-6.335729137141532,14.619579288538487,-22.3904121212843,-5.915199838033536,-0.971910430163872,-4.598477991615853,-5.3409483374618905,-0.19073486328125,-7.314542444740852,-4.647603849085366,-3.352095441120427,-19.59817263176638,-20.085083753052505,2.9448214762667897,17.559368277225424,-44.99386752136752,-15.002314417353478,27.61335250247102,35.13723904513733,38.084493964716806,1577397923.999,-27.6902333112788,-51.12613602397055,7.4221563
86640,1577397924.13,-2.7619743932212266,1.4304478991996945,14.909861641041823,-0.5563891077553353,0.2078867782964929,14.20783499815406,5.24954991812357,8.432903803532296,14.657886515100987,1.9320976443407007,6.200278677591464,2.690198944836128,-2.569059046303354,5.8132264672256095,1.85394287109375,-9.862760218178352,-18.929830411585368,-7.197310284870427,-19.787526956710987,-20.632858764499392,3.719774496336995,17.55936827722542,-46.6853663003663,-4.882533482142857,27.90088956779585,35.47269895468296,38.25222391948962,1577397923.999,-27.6902333112788,-51.12613602397055,7.4221563
86641,1577397924.14,-0.9256217198813832,-1.7227156872260854,13.068720564381668,3.432350858064977,-3.0625926894769435,9.10100285704078,2.1155399449790395,6.0626441599776095,9.725831095179116,-10.2444160275343,4.003013052591464,1.225355194836128,-1.2262856088033538,0.0148866234756097,2.28118896484375,-5.132535608803353,-27.047506192835368,10.197709246379572,-17.893983707264958,-20.632858764499392,2.169868456196584,17.237178033606607,-46.00876678876679,-16.216688129578753,27.852966723575044,35.13723904513733,38.30014676371043,1577397923.999,-27.6902333112788,-51.12613602397055,7.4221563
86642,1577397924.15,0.6569455774818977,-0.5531481762397579,7.490230696217605,2.141876163240758,-0.3236259902581935,8.452174207138434,-5.29690839486471,-8.419881682307546,11.408954862268958,5.350066394340701,-4.374062142721037,1.438978241711128,-0.0361000619283536,-1.9992735327743905,0.17547607421875,-14.074185999428352,-34.432760099085364,5.253861590129573,-18.74607816951567,-20.541562929258244,2.7123355702457266,17.55936827722542,-46.6853663003663,-15.407105654761905,27.852966723575044,35.08931620091653,38.0605325426064,1577397923.999,-27.6902333112788,-51.12613602397055,7.4221563
86643,1577397924.16,-0.1977844151938834,1.0473756335746949,10.47580016643245,1.1494795751059927,-0.673179432641006,10.354367426132574,7.383980698152866,1.8344840281416728,5.4150710060677865,13.1930839724657,-18.854652963033537,-1.795885039538872,-2.767423304115854,-0.0003721655868906,0.75531005859375,-8.474210413490852,-27.154317716272864,12.730668230754572,-20.9236529063786,-20.99804210546398,1.859887248168504,17.881558520844237,-43.97896825396825,-16.62147936698718,28.044658100458264,35.13723904513733,37.94072543205439,1577397923.999,-27.6902333112788,-51.12613602397055,7.4221563
86644,1577397924.17,-1.3206649938071646,-1.911857618378429,4.406498957936355,-3.901088826993617,2.4129465073004,8.46175101377906,-0.2523254969154915,1.7842057932783917,4.281416519983803,-1.9741523556592984,-0.9713521817835366,2.354505585461128,-1.3178383431783538,-5.081548923399391,2.76947021484375,0.2080405630716463,-2.0536097084603657,10.655472918254572,-18.65140100704337,-20.99804210546398,2.7898308722527494,18.525939008081867,-41.272570207570205,-17.026270604395606,27.94881241201665,35.13723904513733,38.0605325426064,1577397923.999,-27.6902333112788,-51.12613602397055,7.4221563
86645,1577397924.18,0.659339779142054,-1.974106861542492,5.436005671803543,1.2847519689048208,0.7848893783941502,7.927844043564215,-6.187551412442836,-3.581200127131764,2.943057791956459,6.143523425590701,2.507651724466464,1.652601288586128,-2.660611780678354,5.7216737328506095,-0.12969970703125,1.0625327505716462,19.583353182164632,12.120316668254572,-17.515275057375753,-20.99804210546398,3.409793288308909,18.84812925170068,-41.272570207570205,-15.407105654761905,27.75712103513344,35.28100757779974,37.9646868541648,1577397923.999,-27.6902333112788,-51.12613602397055,7.4221563
86646,1577397924.19,-0.9399869298423208,-1.0535363232124135,12.03921385051448,-0.4330877222572884,-1.0394922866449123,9.303312897323982,0.3893205480063831,-2.580423833186452,8.920182236536537,-7.1773994259718,-3.244911752096036,1.912000702648628,-0.7380043588033537,-7.0499327124618905,2.29644775390625,10.553499547446648,32.538065096227136,-0.6360309879954267,-18.272692357154163,-21.36322544642857,3.099812080280829,17.639915838130126,-41.187995268620256,-16.925072795043498,27.829005301464647,35.08931620091653,38.204301075268816,1577397923.999,-27.6902333112788,-51.12613602397055,7.4221563
86647,1577397924.2,1.861229012540492,-1.7993301403510853,14.519606770436354,0.6455001256431021,4.11761808933165,14.004327857040778,-0.8580585169350228,6.812029279606516,15.009834159143958,-8.0166328244093,-6.250893197408536,1.408460663586128,-7.787564905678353,9.07860732660061,1.33514404296875,13.391634313071648,45.98105826028964,0.2794963557545732,-19.21946398187718,-22.27618379884005,2.324859060210624,18.20374876446305,-46.00876678876679,-17.026270604395606,27.90088956779585,35.08931620091653,37.91676400994399,1577397923.999,-27.6902333112788,-51.12613602397055,7.4221563
86648,1577397924.21,1.186064144376429,2.0960359607231323,11.33053015910823,2.678177335115758,1.8143960922613376,12.294867871689217,-7.592947786954554,-20.419620403010672,24.9290116371713,-0.2651679806592987,2.599204458841464,3.422620819836128,2.679964391196646,1.1745545922256098,3.65447998046875,9.607454625571648,25.442728182164632,-19.953657941120422,-18.84075533198797,-21.545817116910868,1.084934228098292,18.20374876446305,-46.6853663003663,-16.62147936698718,27.75712103513344,35.13723904513733,38.10845538682721,1577397923.999,-27.6902333112788,-51.12613602397055,7.4221563
86649,1577397924.22,-0.2408800450766959,1.3610160510551634,11.47657646037776,3.477840689607945,-1.7433875747308496,11.780114514755622,0.1163815587485709,-7.562757487971608,20.62663125387052,4.953337878715701,6.993735708841464,1.805189179211128,0.2690757193216463,0.6862733422256098,2.06756591796875,-10.991910608803352,-14.382711270960366,-32.893111066120426,-20.16623560660019,-20.632858764499392,3.099812080280829,19.00922437351009,-45.50131715506714,-15.204710036057692,27.90088956779585,34.993470512474914,38.0605325426064,1577397923.999,-27.6902333112788,-51.12613602397055,7.4221563
86650,1577397924.23,0.5587833094154916,-3.9804478527534295,7.699723341481277,-0.820948391202601,-2.9632333205804597,6.047198639511481,-2.944605263761195,3.181222461979561,8.93694164815763,-2.6913154415967986,7.573569693216464,3.102186249523628,1.0014975943216462,-2.624883884336891,4.02069091796875,-1.2873207650533525,-18.533101895960368,8.641312762004572,-17.136566407486544,-21.36322544642857,2.4798496642246635,20.45908046979476,-43.30236874236874,-16.62147936698718,27.852966723575044,35.13723904513733,37.94072543205439,1577397923.999,-27.6902333112788,-51.12613602397055,7.4221563
86651,1577397924.24,-1.0716680211509146,1.6411376452934443,10.023296052662918,-1.7965855677162728,-1.8583092544183497,6.158529016708746,1.7324676793540397,-5.518109270198171,2.722791239222084,8.2187187380907,6.047690786966464,1.744154022961128,0.6963218130716463,-7.095709079649391,1.60980224609375,-9.618619593178352,-19.601217130335368,7.908890887004573,-18.84075533198797,-23.371733821733827,3.2548026842948694,19.814699982557126,-45.33216727716727,-14.597523179945052,27.90088956779585,35.233084733578934,37.9646868541648,1577397923.999,-27.6902333112788,-51.12613602397055,7.4221563
