,timestamp,acc_x_dashboard,acc_y_dashboard,acc_z_dashboard,acc_x_above_suspension,acc_y_above_suspension,acc_z_above_suspension,acc_x_below_suspension,acc_y_below_suspension,acc_z_below_suspension,gyro_x_dashboard,gyro_y_dashboard,gyro_z_dashboard,gyro_x_above_suspension,gyro_y_above_suspension,gyro_z_above_suspension,gyro_x_below_suspension,gyro_y_below_suspension,gyro_z_below_suspension,mag_x_dashboard,mag_y_dashboard,mag_z_dashboard,mag_x_above_suspension,mag_y_above_suspension,mag_z_above_suspension,temp_dashboard,temp_above_suspension,temp_below_suspension,timestamp_gps,latitude,longitude,speed
102312,1577396453.54,0.2451428919350228,1.176604128060689,10.550837950171491,-0.3115965867949689,0.3879774592701973,10.491216489317358,-9.387489523985328,12.629180176674447,12.76004373570884,5.492977979706555,-0.3855635480182927,1.1728798470846038,2.7006195812690548,6.245310713605183,1.830682521913109,-13.607118187881095,-7.589386730659299,-3.648711413871952,9.977751283774465,-30.492808970543347,8.148077468166749,-13.277015923890923,-36.7388396804345,-26.185071499013805,28.428040854224697,38.635606673256056,45.10519064306467,1577396453.0,-27.687206412464445,-51.12429541194143,8.870174
102313,1577396453.55,-0.5269871434653678,0.7731811483243608,11.882014073218368,1.5726401197479996,0.397554265910823,13.898165451719702,4.267839644715845,6.355174726234994,10.519070981802592,-2.441592332793445,0.6825516863567076,0.9287392220846036,-2.197451707793445,-4.557911942644816,0.7778260766006098,-3.872010766006096,-3.286408215034299,4.468964367378049,8.98822223083816,-29.397258947649576,8.502341705913125,-13.450382834757836,-37.196169634962736,-14.96289799943646,28.428040854224697,38.53976098481445,45.27292059783749,1577396453.0,-27.687206412464445,-51.12429541194143,8.870174
102314,1577396453.56,0.5946963343178353,4.104712758431783,10.4957713119879,-0.2397705369902813,4.398265240031916,15.600442832090796,-4.5081065405868905,-6.950601000083364,4.5120190164705605,10.650448682831556,5.778987233231708,3.248075159584604,-1.8159819812309448,8.259470869855184,-0.3665831030868902,-2.559754906631097,18.6557304568407,10.96920850800305,7.998693177901848,-29.03207560668498,9.210870181405893,-13.392593864468866,-37.34861295313882,-14.622832135812905,28.044658100458264,38.58768382903526,44.96142211040225,1577396453.0,-27.687206412464445,-51.12429541194143,8.870174
102315,1577396453.57,-1.4331924718345084,-0.8488904764314975,7.0481209213629,-4.963530412478563,-1.9942531925852705,5.786610227110328,-3.14819999761814,0.3756560799947596,13.167058017935403,-6.164736864043445,-0.9653975323932926,0.8066689095846037,3.4025238781440548,6.947215010480183,1.6475770531631098,-0.1793838128810974,9.4089042849657,-1.6650688357469514,9.153143739660877,-29.21466727716728,7.97094534929356,-13.392593864468866,-37.34861295313882,-14.622832135812905,28.284272321562284,38.58768382903526,45.15311348728547,1577396453.0,-27.687206412464445,-51.12429541194143,8.870174
102316,1577396453.58,-0.1343380711997427,0.2560335897306118,9.291487876929306,2.8248075880097177,-0.7277205143626141,7.134545761778297,9.574587624452173,0.4235401131978846,9.087338389029153,0.8695648937690548,5.885798756669207,1.6153847298971038,-6.820864793730945,2.888377119855183,3.600702053163109,1.1939072027439026,6.113005847465701,-3.801299304496952,9.070682985249515,-30.036329794337608,8.059511408730154,-12.641337250712253,-42.68412908930151,-14.96289799943646,28.332195165783087,38.58768382903526,45.15311348728547,1577396453.0,-27.687206412464445,-51.12429541194143,8.870174
102317,1577396453.59,-3.2001132970298203,0.2620190938810013,7.208532432593369,-0.8694455736113751,2.4290343745534004,8.258623441221655,-0.8916649329208749,-3.437110063804068,10.030653843130716,0.4270600109565549,0.4384110613567073,1.3254677377096038,-2.014346239043445,1.8965558307926829,1.3881776391006095,5.374815405868902,-1.9741523556592984,0.2575385861280486,8.823300722015436,-30.67540064102564,8.325209587039938,-13.103649013024016,-40.54992263483644,-16.66322731755424,28.284272321562284,38.635606673256056,45.05726779884387,1577396453.0,-27.687206412464445,-51.12429541194143,8.870174
102318,1577396453.6,2.342463546231898,3.9419070455411584,6.784758738745713,-2.159920268435594,1.6162029109303535,6.53838954839939,1.044047109315453,10.958027417885384,6.9301626932283735,9.155087354706556,-4.078190501143292,-0.8717978872903963,2.4564789562690548,-1.9028826457698167,5.3096864281631095,3.757383765243903,-8.9931953244093,-7.951689929496951,9.318065248483594,-29.03207560668498,7.793813230420372,-12.699126221001222,-38.26327286219527,-9.861910045083125,28.284272321562284,38.39599245215204,45.29688201994789,1577396453.0,-27.687206412464445,-51.12429541194143,8.870174
102319,1577396453.61,-4.402002530428258,1.643473451791159,16.545918907202743,-1.116048344607469,0.9649800593678536,14.867817124082984,-4.915120822813453,1.0364557381978847,11.998687607779154,-2.136416551543445,2.727229420731707,1.935819300209604,3.829769971894055,-4.100148270769817,-3.1436827124618905,10.166075171493905,-7.436798840034299,8.98556592987805,8.163614686724566,-30.31021730006105,8.67947382478632,-12.467970339845342,-37.65349958949097,-15.302963863060016,28.428040854224697,38.39599245215204,44.96142211040225,1577396453.0,-27.687206412464445,-51.12429541194143,8.870174
102320,1577396453.62,0.0224821375404915,-2.0256405923982945,10.337754002417588,4.675525471310499,-1.8362358830149577,10.419390439512672,-1.812235471250952,-4.975384630454458,18.22600612584556,-21.621890184355944,2.681453053544208,1.2491737923971038,-7.309146043730945,2.339060713605183,1.6475770531631098,-4.268739281631097,-12.2280586056593,-0.9326469607469512,8.328536195547283,-28.666892265720392,7.439548992673991,-13.565960775335776,-38.41571618037136,-14.96289799943646,28.23634947734148,38.68352951747686,45.10519064306467,1577396453.0,-27.687206412464445,-51.12429541194143,8.870174
102321,1577396453.63,-3.224055313631383,1.724876308236471,13.186853978003525,-3.4755340806914528,0.926672832805354,11.76014336920017,-2.8046320593857184,4.992873981606088,8.128460624136576,1.0679291515815548,20.274836842606707,3.736356409584604,3.4483002453315548,-1.1399431926448171,3.585443264100609,-6.191346703506098,-5.9414375119093,11.67111280487805,8.823300722015436,-28.849483936202684,7.262416873800799,-16.310936864061865,-36.05284474864216,-25.33490683995492,28.23634947734148,38.53976098481445,45.20103633150627,1577396453.0,-27.687206412464445,-51.12429541194143,8.870174
102322,1577396453.64,-1.6175459996665396,2.42158899134194,9.667377537573838,2.12091229992378,-0.957563873737614,10.479245481016576,2.396771047303734,-0.1055784536966455,12.470345334829936,2.6548432140815548,-4.474919016768292,0.1963173470846037,-1.9685698718559448,4.170115401105183,-1.5872862280868902,-9.334657250381095,-3.7746894650342986,-9.14187547637195,9.153143739660877,-29.57985061813187,7.616681111547183,-12.525759310134312,-35.976623089554124,-100.65949563257256,28.14050378889987,38.635606673256056,45.15311348728547,1577396453.0,-27.687206412464445,-51.12429541194143,8.870174
102323,1577396453.65,-0.4994538243735709,2.835785878548971,9.734415184058214,-1.8127610277129376,5.904218084270198,14.50629267339939,16.070056728456077,-4.11826043611852,5.208731699576029,7.781796339081555,-10.944645579268292,-0.4445517935403963,-5.294985887480945,0.1417950886051829,3.295526271913109,6.534483374618903,8.4323417849657,-7.982207507621951,9.153143739660877,-30.67540064102564,7.97094534929356,-12.641337250712253,-35.671736453201966,-102.0197590870668,28.284272321562284,38.68352951747686,45.10519064306467,1577396453.0,-27.687206412464445,-51.12429541194143,8.870174
102324,1577396453.66,0.8640440210854134,0.9108477437833452,6.868555796851181,0.9214172681854994,0.1665138057057446,5.993708670713843,-3.5504258765243897,1.9917422006002288,6.885869962515483,2.319149854706555,0.9877274676067072,1.3407265267721038,-1.068301317168445,7.694895674542684,0.0148866234756093,2.170469702743904,16.3821708865282,9.12289503144055,9.070682985249515,-29.488554782890724,7.705247170983777,-13.62374974562475,-33.38508668056082,-111.88166913214992,28.21238805523108,38.56372240692485,45.12915206517506,1577396453.0,-27.687206412464445,-51.12429541194143,8.870174
102325,1577396453.67,-3.731626065584508,1.284343202767721,11.781457603491804,-3.713757145877,2.6840168513600418,8.736266672422827,2.698440456483422,12.363423792397104,11.33070534459556,5.187802198456555,9.441096608231708,1.3865028939596038,-2.029605028105945,-2.330128739519817,1.6780946312881098,8.945372046493903,0.9555351443407012,-10.05740282012195,10.307594301419906,-29.397258947649576,7.793813230420372,-13.277015923890923,-37.34861295313882,-109.16114222316146,28.38011801000389,38.30014676371043,45.10519064306467,1577396453.0,-27.687206412464445,-51.12429541194143,8.870174
102326,1577396453.68,1.4278785120522102,-1.169713498892435,4.531814976538681,3.437723213009717,0.318545611125666,10.38826581793064,-2.022925217344702,0.8353427987447597,12.02023542272056,-5.066104051543445,10.081965748856708,1.7221962533346038,-4.532046434355945,2.522166182355183,-0.5191709937118902,5.832579077743903,21.7685234255907,11.12179639862805,10.307594301419906,-29.397258947649576,7.793813230420372,-13.277015923890923,-37.34861295313882,-109.16114222316146,28.23634947734148,38.635606673256056,45.00934495462306,1577396453.0,-27.687206412464445,-51.12429541194143,8.870174
102327,1577396453.69,-0.5281842442954459,-0.7435456033846225,10.37366702731993,-0.1751270921660626,1.1038437556569158,5.824917453672827,6.0000445458388905,-11.700697093833364,10.811163584341656,-11.535830614043444,-9.723942454268292,-0.6886924185403963,2.3649262218940548,7.893259932355183,1.6780946312881098,0.9497665777439026,19.9985038943407,-6.273223132621951,8.823300722015436,-28.849483936202684,7.97094534929356,-12.641337250712253,-34.452189907793354,-87.73699281487744,28.428040854224697,38.49183814059364,45.29688201994789,1577396453.0,-27.687206412464445,-51.12429541194143,8.870174
102328,1577396453.7,0.0440299524818973,2.318638319955221,8.489430320776963,0.6676318922089369,2.1932055110280104,8.912240494444312,-3.2667129797958747,6.570652875649056,8.600118351187357,11.428646925019056,1.2013505144817074,-0.2156699576028962,0.4880951672065548,2.339060713605183,0.8083436547256095,11.737730444931405,15.6192314334032,-2.2143852419969514,8.905761476426797,-29.12337144192613,7.705247170983774,-12.78580967643468,-38.4919378394594,-21.93424820371936,28.284272321562284,38.46787671848324,45.24895917572708,1577396453.0,-27.687206412464445,-51.12429541194143,8.870174
102329,1577396453.71,0.5946963343178353,1.2196997579435014,6.547732774390244,1.6133415479706552,0.912307622844416,6.1624998877548585,-7.1177863501572025,-11.123694493735709,14.03854742223228,12.573056104706556,-3.589909251143293,2.027372034584604,-1.7854644031059452,2.613718916730183,1.4339540062881098,1.0413193121189026,17.7707206912157,-7.707549304496951,8.493457704370002,-29.94503395909646,7.262416873800799,-13.62374974562475,-38.56815949854744,-15.302963863060016,28.284272321562284,38.44391529637284,45.15311348728547,1577396453.0,-27.687206412464445,-51.12429541194143,8.870174
102330,1577396453.72,-1.9790704503501333,3.1733683126310024,12.69125423435118,-2.878180766482469,0.366429644328791,15.894929636290014,2.3273391991592027,0.9358992684713222,9.360277378286966,-15.747256395293444,-6.672184641768292,-2.458711949790396,4.165463331269055,-11.515919755144816,2.257928615663109,12.760069312118905,3.3664238162157014,-8.65359422637195,8.493457704370002,-29.94503395909646,7.262416873800799,-12.699126221001222,-36.1290664077302,-22.10428113553113,28.284272321562284,38.58768382903526,44.96142211040225,1577396453.0,-27.687206412464445,-51.12429541194143,8.870174
102331,1577396453.73,-0.4216422704184928,-1.7036204691072787,6.609982017554306,-0.9173296068145002,-4.69491266524152,13.000339829161108,-4.16334150152439,37.22960223477991,2.2351332376619677,-5.539126512480944,10.371882741044208,1.981595667397104,4.897885206269055,5.116160322980183,-0.7022764624618902,9.799864233993905,11.4535820193407,17.19479444550305,8.575918458781361,-29.305963112408428,7.882379289856962,-12.641337250712253,-38.41571618037136,-21.764215271907577,28.18842663312068,38.49183814059364,45.24895917572708,1577396453.0,-27.687206412464445,-51.12429541194143,8.870174
102332,1577396453.74,-2.560861453768102,9.020008766732564,12.861242552222274,-0.8443064561797348,2.3440402156178544,10.56064833746189,-3.1338347876572024,-21.958654106772816,4.152888767447124,31.61602485470656,5.229670826981708,2.668241175209604,-1.6786528796684452,0.7521466511051829,0.9914491234756094,-3.078553734756097,30.0845634646532,-7.57022020293445,9.64790826612903,-29.397258947649576,7.793813230420372,-13.305910409035407,-40.47370097574839,-18.873655431107352,28.092580944679067,38.56372240692485,45.22499775361668,1577396453.0,-27.687206412464445,-51.12429541194143,8.870174
102333,1577396453.75,0.9873454065834604,0.99703900354897,7.895668309058212,1.4361706251190929,-3.406832172077458,1.3357893408798582,-3.057220334532203,5.310105701576791,11.80954567662681,-8.117861864043444,-4.566471751143292,-1.3600791372903962,8.254818800019056,8.228953291730184,-1.0684873999618902,10.623838843368905,25.1559745974657,-2.8552543826219514,9.48298675730631,-27.75393391330892,7.616681111547183,-13.392593864468866,-38.56815949854744,-15.302963863060016,28.044658100458264,38.39599245215204,45.15311348728547,1577396453.0,-27.687206412464445,-51.12429541194143,8.870174
102334,1577396453.76,-1.0716680211509146,-1.940646433462748,11.690477940405868,-7.422375517459031,2.1788403010670723,3.4019853735947025,6.641690590760765,-8.346420567954459,7.140852439322123,-2.624697801543445,-10.273258860518292,-1.848360387290396,-3.463931199980945,-2.635304520769817,5.7674501000381095,7.724668921493903,17.4045097537157,-8.19583055449695,9.48298675730631,-27.75393391330892,7.616681111547183,-13.392593864468866,-38.56815949854744,-15.302963863060016,28.284272321562284,38.58768382903526,45.00934495462306,1577396453.0,-27.687206412464445,-51.12429541194143,8.870174
102335,1577396453.77,1.0160758265053351,0.910847743783346,8.540905656470322,1.08661718273628,4.383900030070979,11.13525673589939,-5.595074094297828,15.167033936440072,-5.316178798470845,-12.542910692168444,10.417659108231708,0.0284706673971038,-5.111880418730945,0.0502423542301829,-1.1600401343368902,13.095762671493905,20.7919609255907,-8.40945360137195,8.988222230838158,-29.21466727716728,7.439548992673991,-12.699126221001222,-37.95838622584312,-15.302963863060016,28.21238805523108,38.58768382903526,45.24895917572708,1577396453.0,-27.687206412464445,-51.12429541194143,8.870174
102336,1577396453.78,-2.091597928377477,3.077600246224752,10.804623326148056,-1.8642363634062973,0.970965563518245,4.909135318663062,-0.9754619910263428,-5.680477019370474,10.80158677770103,-1.3124419421684452,8.464534108231707,0.7151161752096037,1.7087982922065548,3.910715987042683,1.2966249047256098,-2.330873070693597,19.0829765505907,5.0030219845655495,8.823300722015436,-29.57985061813187,9.0337380625327,-12.583548280423283,-38.26327286219528,-15.302963863060016,28.14050378889987,38.41995387426245,45.27292059783749,1577396453.0,-27.687206412464445,-51.12429541194143,8.870174
102337,1577396453.79,-1.0596970128501333,2.7352294088224087,8.922780821265246,-0.2014633104277813,-0.8450363957102703,9.866329856016575,-6.284604172422828,13.129568323647105,13.653080954947123,-2.441592332793445,13.255793873856708,-0.5361045279153963,-2.975649949980945,-0.9263201457698172,1.0677430687881098,-1.1864638910060974,-17.6296699337843,-7.036162585746951,10.80235882788806,-29.57985061813187,8.325209587039938,-12.58354828042328,-38.56815949854744,-15.302963863060016,28.14050378889987,38.68352951747686,45.00934495462306,1577396453.0,-27.687206412464445,-51.12429541194143,8.870174
102338,1577396453.8,-3.587973965975133,-3.4298398660799347,6.662654454077744,-5.195767973513719,0.2347485530201973,15.868593418028295,-0.1913609473251708,12.162310852943978,15.901236313833842,-3.387637254668445,10.143000905106708,2.027372034584604,-1.9075347156059448,6.550486494855183,-2.8079893530868905,0.7971786871189026,-31.3320625119093,5.781220226753049,10.80235882788806,-29.57985061813187,8.325209587039938,-13.62374974562475,-38.56815949854744,-12.582436954071568,28.284272321562284,38.58768382903526,45.10519064306467,1577396453.0,-27.687206412464445,-51.12429541194143,8.870174
102339,1577396453.81,-1.5373402440513049,2.263571681771628,8.397253556860948,-0.6036891893340318,1.1098292598073074,11.25616391973728,5.693586733338891,1.6876785897603852,9.385416495718609,-7.568545457793444,3.139216725419208,1.4017616830221038,-8.865542528105944,6.291087080792683,1.968011623475609,-10.5706191644436,-59.1946113400343,3.187226086128049,8.740839967604078,-30.218921464819903,7.528115052110586,-12.930282102157104,-37.348612953138826,-25.84500563539025,28.332195165783087,38.635606673256056,45.15311348728547,1577396453.0,-27.687206412464445,-51.12429541194143,8.870174
102340,1577396453.82,-1.7971111241782582,-1.399556858267435,11.226002818335555,-0.2014633104277813,1.5515594661061347,5.705207370665015,14.604805312440453,49.832679773842415,-3.664179652963032,-0.1832915515434451,-11.158268626143292,-1.0243857779153962,-2.975649949980945,0.3249005573551829,0.4268739281631097,-1.4306045160060974,-7.955597668159299,27.05197217987805,9.153143739660877,-29.57985061813187,8.325209587039938,-21.020737942612943,-35.82417977137804,-25.504939771766697,28.38011801000389,38.82729805013928,45.10519064306467,1577396453.0,-27.687206412464445,-51.12429541194143,8.870174
102341,1577396453.83,1.2866206141029914,4.727205190072408,11.589921470679306,-3.2780124437285623,4.252218938762385,16.886129123594703,-1.7116790015243897,-51.75808506990758,13.109597178091654,10.253720167206556,-0.7517744855182926,2.179959925209604,-2.182192918730945,-8.494679520769816,2.715692287538109,-14.522645531631095,20.1816093630907,3.2482612423780486,8.823300722015436,-31.040583981990235,7.97094534929356,-12.23681445868946,-38.56815949854744,-91.47771731473654,28.284272321562284,38.44391529637284,45.24895917572708,1577396453.0,-27.687206412464445,-51.12429541194143,8.870174
102342,1577396453.84,-0.3869263463462271,0.5684769063810013,10.866872569312118,3.6986911939667486,-1.376549164264958,5.690842160704078,-17.546928781797828,-1.6977225577005517,4.916639097036967,-7.721133348418445,-0.8738447980182926,0.5625282845846037,-0.0459624499809451,10.883982588605184,-1.5262510718368902,0.0647568121189026,9.8361503787157,-17.65627977324695,8.823300722015436,-31.040583981990235,7.97094534929356,-13.565960775335776,-35.976623089554124,-107.46081290504368,28.284272321562284,38.77937520591847,45.24895917572708,1577396453.0,-27.687206412464445,-51.12429541194143,8.870174
102343,1577396453.85,0.0188908350502574,-0.3904008585115757,3.361050364722275,0.3743421888397962,0.2227775447194169,5.398749558165015,5.889911269471704,-3.810605522788443,9.865453928579935,4.455380323456556,11.104304616044208,1.874784143959604,-4.028506395293444,0.2638654011051828,2.303704982850609,7.190611304306404,46.3809501834032,8.46676710175305,8.57591845878136,-29.853738123855315,8.236643527603341,-13.392593864468866,-37.19616963496274,-102.6998908143139,28.332195165783087,38.39599245215204,45.12915206517507,1577396453.0,-27.687206412464445,-51.12429541194143,8.870174
102344,1577396453.86,0.4558326380287728,3.913176625619284,7.974676963843369,-3.361809501834031,0.155739898235041,15.231735776426731,-7.874354074766577,4.656488648354134,15.79349723912681,5.340390089081555,13.622004811356708,2.729276331459604,-0.2290679187309451,6.275828291730183,-0.9769346655868902,4.703428687118903,20.0900566287157,-21.19631883574695,7.8337716690791295,-29.57985061813187,8.67947382478632,-13.334804894179896,-33.53752999873689,-25.84500563539025,28.14050378889987,38.44391529637284,45.29688201994789,1577396453.0,-27.687206412464445,-51.12429541194143,8.870174
102345,1577396453.87,2.7566604334389293,-0.8848035013338412,6.916439830054307,-3.979513530154344,-1.082062360065739,8.113774240782202,8.238623098084984,26.158813758217416,10.672299888052592,-8.728213426543444,-20.344059641768293,-0.8412803091653963,1.2968109875190548,8.900340010480184,5.1876161156631095,4.367735327743903,1.6574394412157012,1.3866889767530486,9.812829774951748,-31.040583981990235,8.67947382478632,-13.334804894179896,-33.53752999873689,-25.84500563539025,28.475963698445504,38.39599245215204,45.29688201994789,1577396453.0,-27.687206412464445,-51.12429541194143,8.870174
102346,1577396453.88,-1.5205808324302112,0.3937001851895961,11.983767643775009,-2.50707950915825,-5.372471735065739,8.889495578672827,-19.347368430235328,-4.6928688345560206,13.916443137564311,-8.896060106230944,14.125544850419208,1.6306435189596038,-3.311343309355945,4.383738447980183,0.1216981469131097,-3.749940453506097,-4.995392590034299,8.74142530487805,9.812829774951748,-31.040583981990235,8.67947382478632,-13.334804894179896,-33.53752999873689,-25.84500563539025,28.308233743672687,38.58768382903526,45.24895917572708,1577396453.0,-27.687206412464445,-51.12429541194143,8.870174
102347,1577396453.89,-1.526566336580602,1.0832302633145952,12.138193650855088,-1.105274437136766,1.3528407283131667,13.189481760313452,1.9682089501357651,6.011606788002572,9.405767209829936,-9.247012254668444,5.595881764481708,2.759793909584604,-9.262271043730944,2.613718916730183,0.9456727562881097,-9.121034203506095,-9.3746650509718,7.871674328315549,9.48298675730631,-29.94503395909646,7.97094534929356,-13.450382834757836,-36.43395304408236,-23.46454459002536,28.38011801000389,38.68352951747686,45.20103633150627,1577396453.0,-27.687206412464445,-51.12429541194143,8.870174
102348,1577396453.9,-0.7484507970298209,1.157450514779439,13.54598422702696,4.18950253429878,1.920266521770197,5.961386948301734,-3.143411594297828,-7.154108141196645,7.753768064322124,-9.338564989043444,12.645442311356708,0.3794228158346037,-5.356021043730945,15.614207197980184,2.288446193788109,-10.067079125381095,9.2868339724657,7.795380383003049,8.65837921319272,-29.762442288614164,7.085284754927611,-13.277015923890923,-40.39747931666035,-20.74401768103691,28.475963698445504,38.68352951747686,45.15311348728547,1577396453.0,-27.687206412464445,-51.12429541194143,8.870174
102349,1577396453.91,-0.8490072667563834,-1.27505837193931,8.736033091773056,1.94852978039253,2.4158662654225407,8.33882919683689,0.3976126610732657,0.8233717904439785,12.795956760611183,-2.929873582793445,10.844905201981708,1.4475380502096038,-10.574526903105944,15.095408369855184,-0.7022764624618902,-9.487245141006095,7.974578113090701,-6.608916491996951,8.823300722015436,-30.31021730006105,9.0337380625327,-13.62374974562475,-38.56815949854744,-15.302963863060016,28.092580944679067,38.44391529637284,45.10519064306467,1577396453.0,-27.687206412464445,-51.12429541194143,8.870174
102350,1577396453.92,-0.1510974828208365,3.4750377218106894,8.532525950659775,-5.545321415896531,5.238630022746761,12.741766049864234,2.830121547792016,-10.0295443350443,14.730471702017436,6.698422315644056,6.984431569169208,0.6083046517721038,-5.111880418730945,3.834422041730183,4.9129579125381095,-2.834413109756097,-5.788849621284299,-4.930449695121951,8.328536195547285,-29.397258947649576,9.565134419152278,-13.508171805046809,-37.95838622584312,-26.185071499013805,28.308233743672687,38.635606673256056,45.24895917572708,1577396453.0,-27.687206412464445,-51.12429541194143,8.870174
102351,1577396453.93,-4.050054886385289,-7.222255295767435,5.216556651343369,-1.072952714724657,-3.542104565876286,4.263897971250952,-10.411010733702124,5.344821625649057,6.3124586649080605,-4.821963426543445,19.695002858231707,3.705838831459604,-3.784365770293445,14.469798018292686,0.5184266625381093,-0.9270644769435972,-31.7745673947218,4.285858898628049,9.153143739660877,-29.57985061813187,7.97094534929356,-13.24812143874644,-38.03460788493116,-19.89385302197802,28.23634947734148,38.53976098481445,45.10519064306467,1577396453.0,-27.687206412464445,-51.12429541194143,8.870174
102352,1577396453.94,-0.8729492833579459,4.37525754602944,7.479077220191025,-2.5238389207793435,7.910559075481135,17.211740549375953,9.744575942323266,-1.2045170157083642,11.708989206900249,-8.392520067168444,13.072688405106708,1.6001259408346038,-1.9380522937309448,-3.459279130144817,3.417596584413109,-13.393495141006095,-33.4072578244093,18.07980421112805,8.98822223083816,-29.397258947649576,6.731020517181234,-13.103649013024016,-42.68412908930151,-25.84500563539025,28.38011801000389,38.635606673256056,45.24895917572708,1577396453.0,-27.687206412464445,-51.12429541194143,8.870174
102353,1577396453.95,-3.2001132970298203,3.362510243783346,11.290646263159775,0.1217539136933113,-0.0070658146555829,12.397001010801734,5.600212868592797,-13.874632201255238,10.164729136099467,-3.875918504668445,7.365901295731708,2.515653284584604,-3.830142137480945,10.456736494855184,-3.5404112280868905,-18.5509658441311,-14.3032539181593,6.879853039253049,9.318065248483594,-29.03207560668498,8.85660594365951,-13.392593864468866,-40.7023659530125,-18.023490772048465,28.23634947734148,38.635606673256056,45.15311348728547,1577396453.0,-27.687206412464445,-51.12429541194143,8.870174
102354,1577396453.96,-2.2448268346274767,0.7336768209317827,9.630267411841416,-7.797068077273484,1.132574175578791,10.202715189268533,2.395573946473657,5.992453174721322,7.460478360952982,-2.4873686999809443,-1.1179854230182915,1.5696083627096038,-2.456851121855945,2.964671065167683,4.4704530297256095,-12.127015648818595,-26.5408027462843,1.0052192501905486,8.65837921319272,-31.22317565247253,8.148077468166749,-13.565960775335776,-42.98901572565366,-25.16487390814314,28.284272321562284,38.65956809536646,45.24895917572708,1577396453.0,-27.687206412464445,-51.12429541194143,8.870174
102355,1577396453.97,-2.936751114412633,-1.7395334940096223,10.309023582495712,0.1385133253144051,0.4262846858326973,5.956598544981421,-3.356495542051734,9.12885734952601,-2.4024353780606886,0.6406830578315549,14.781672780106708,4.865506800209603,-13.931460496855944,14.546091963605184,0.5184266625381098,-2.468202172256097,-2.2793281369092986,14.69235303925305,10.142672792597187,-29.94503395909646,8.67947382478632,-12.699126221001222,-37.34861295313882,-19.38375422654269,28.092580944679067,38.58768382903526,45.15311348728547,1577396453.0,-27.687206412464445,-51.12429541194143,8.870174
102356,1577396453.98,-0.0301902989829459,0.9276071554044388,10.5340785385504,2.341178852658155,1.419878374797541,4.390790659239234,-9.363547507383764,-17.702960655845082,7.059449582876811,-15.075869676543444,-11.585514719893292,0.9592568002096036,-7.888980028105945,0.3554181354801829,4.2110536156631095,-5.733583031631097,32.3886406130907,5.781220226753049,8.65837921319272,-29.397258947649576,8.502341705913125,-12.699126221001222,-37.34861295313882,-19.38375422654269,28.284272321562284,38.58768382903526,45.24895917572708,1577396453.0,-27.687206412464445,-51.12429541194143,8.870174
102357,1577396453.99,-2.321441287752477,3.7791013326505336,10.833353746069932,-8.36808517322075,5.861122454387385,10.979633627989234,2.229176931092797,5.0658971322408535,9.77926266881431,13.732724073456556,11.882502858231708,5.506375940834603,6.912045362519055,-7.243458817644817,3.600702053163109,11.936094702743905,16.3974296755907,-2.3059379763719514,9.48298675730631,-29.57985061813187,7.616681111547183,-12.699126221001222,-38.56815949854744,-13.942700408565791,28.14050378889987,38.58768382903526,45.10519064306467,1577396453.0,-27.687206412464445,-51.12429541194143,8.870174
102358,1577396454.0,0.4725920496498665,-1.133800473990091,9.017351786841417,1.2661823072479994,0.4550151057545727,6.035607199766577,-1.708087699034156,2.395165180336557,7.600539158072123,0.1524018078315547,-1.987736399580792,1.951078089272104,0.7780121593940548,10.883982588605184,3.7685487328506095,3.162290991806403,6.9827568240282005,-1.6192924685594514,8.65837921319272,-29.397258947649576,9.210870181405893,-12.467970339845342,-36.1290664077302,-25.504939771766697,28.38011801000389,38.58768382903526,44.93746068829185,1577396454.0,-27.68719437928471,-51.12419997606533,9.427085
102359,1577396454.01,-2.014983475252477,-0.4155399759432164,13.648934898413682,3.1480248121308114,4.022375579387385,6.277421567442358,-5.104262753965797,-1.7982790274271143,-1.4926387472013138,-17.730898973418444,21.739680592606707,5.567411097084603,-2.609439012480945,5.879099776105183,5.5843446312881095,9.372618140243905,50.1193535037157,9.59591749237805,8.98822223083816,-29.762442288614164,8.85660594365951,-20.09611441798942,-35.82417977137804,-20.74401768103691,28.428040854224697,38.68352951747686,45.10519064306467,1577396454.0,-27.68719437928471,-51.12419997606533,9.427085
102360,1577396454.02,1.1070554895912728,1.7176937032560022,1.4624484482183688,-0.9963382615996564,-2.5090065495188645,-1.2691020653701406,-11.48720437994236,-24.562348412192737,5.768974888052592,5.737118604706555,0.9572098894817074,2.149442347084604,-5.264468309355945,2.552683760480183,6.0115907250381095,3.971006812118903,64.9814140505907,-4.655791491996951,9.64790826612903,-28.3017089247558,7.793813230420372,-12.58354828042328,-38.56815949854744,-91.47771731473654,28.284272321562284,38.635606673256056,45.29688201994789,1577396454.0,-27.68719437928471,-51.12419997606533,9.427085
102361,1577396454.03,-0.1115931554282584,2.34497453821694,9.824197746314072,-9.349707853884812,0.423890484172541,10.17757607183689,-3.394802768614234,7.984428955971322,8.383443100943216,0.9763764172065548,2.7882645769817067,1.7832314095846038,5.843930128144055,-3.978077958269817,6.4693543969131095,14.774229468368905,48.8376152224657,-17.83938524199695,8.328536195547283,-29.21466727716728,7.97094534929356,-13.392593864468866,-37.34861295313882,-105.0803518596788,28.40407943211429,38.49183814059364,45.24895917572708,1577396454.0,-27.68719437928471,-51.12419997606533,9.427085
102362,1577396454.04,-2.505794815584508,-2.2207680277010287,9.535696446265243,-2.596862071414109,0.007299395305354,9.120536038877905,3.6249964989638905,9.41616154874476,15.983836271109231,10.162167432831556,14.659602467606708,3.522733362709604,-1.2208892077934448,9.922678877667684,3.8295838891006095,12.2717880621189,14.4748222537157,2.8210151486280486,7.8337716690791295,-28.484300595238096,7.97094534929356,-12.381286884411884,-34.22352493052924,-90.79758558748944,28.23634947734148,38.58768382903526,45.29688201994789,1577396454.0,-27.68719437928471,-51.12419997606533,9.427085
102363,1577396454.05,-0.6981725621665397,0.1542800191739701,10.57956837009337,0.8424086134003426,0.9913162776295722,14.094489987852514,0.4694387108779532,6.710713672768197,11.416896604361186,-22.552676317168444,17.497737233231707,4.987577112709603,-4.928774949980945,7.191355635480183,7.232293850038109,-12.905213891006095,6.387664050590701,7.673310070503049,7.998693177901848,-29.397258947649576,7.793813230420372,-12.525759310134312,-35.366849816849815,-25.164873908143136,28.475963698445504,38.30014676371043,45.24895917572708,1577396454.0,-27.68719437928471,-51.12419997606533,9.427085
102364,1577396454.06,-3.319823380037633,-0.2814646829744663,12.083127012671492,-2.516656315798875,0.0456066218678535,15.34186905279392,-0.7827287573837646,1.311788929115853,11.639557358755717,-12.481875535918444,9.288508717606708,3.522733362709604,-4.837222215605945,15.400584151105184,4.4246766625381095,-10.189149437881095,-28.2192695431593,10.41989210175305,8.823300722015436,-28.849483936202684,9.0337380625327,-12.525759310134312,-4.26841290893015,-90.45751972386589,28.284272321562284,38.49183814059364,45.00934495462306,1577396454.0,-27.68719437928471,-51.12419997606533,9.427085
102365,1577396454.07,-4.083573709627476,2.3054702108243617,10.092348332251571,-5.619541667361375,-2.391690668171208,8.247849533750953,-20.534892453672825,-9.138901317466177,28.566563096060406,1.6935395031440552,8.495051686356707,2.530912073647104,-1.8159819812309448,6.001170088605183,5.0350282250381095,-15.682313500381095,-65.4507148556593,-3.831816882621952,8.82330072201544,-30.492808970543347,8.148077468166749,-13.103649013024016,-39.02548945307566,-17.683424908424907,28.26031089945188,38.58768382903526,45.10519064306467,1577396454.0,-27.68719437928471,-51.12419997606533,9.427085
102366,1577396454.08,-0.1594771886313834,3.929936037240377,8.166213096655868,-4.100420713992235,2.0459621089284004,16.402500388243137,9.246581997010765,24.89108397916468,5.567861948599467,8.819393995331556,1.7201493426067074,4.896024378334603,-4.715151903105945,4.643137862042683,3.265008693788109,-13.1340957269436,-69.4332588009718,12.57138135956555,8.493457704370002,-29.57985061813187,8.325209587039938,-12.699126221001222,-33.68997331691297,-18.023490772048465,28.14050378889987,38.56372240692485,45.20103633150627,1577396454.0,-27.68719437928471,-51.12419997606533,9.427085
102367,1577396454.09,0.9538265833412728,0.7049464010099077,7.9148219223394625,4.874244209103468,-0.2249381657298017,7.445791977598609,-1.5560558936142332,-36.42801183992712,-2.230052858529439,-1.1293364734184452,-14.637272532393292,0.8982216439596037,1.6325043468940548,17.903025557355182,2.227411037538109,-16.8724990472561,19.7238456912157,26.16696241425305,8.493457704370002,-29.57985061813187,8.325209587039938,-13.565960775335776,-40.24503599848427,-21.764215271907577,28.284272321562284,38.68352951747686,45.29688201994789,1577396454.0,-27.68719437928471,-51.12419997606533,9.427085
102368,1577396454.1,-1.2248969274009145,0.1710394307950639,5.920451939429307,-4.927617387576219,-1.991858990925114,0.7611809424423583,-12.760919663145485,1.6278235482564782,-2.6729801656583447,22.33868110470656,28.758723561356707,8.771756800209603,0.8390473156440549,7.252390791730183,7.445916896913109,4.032041968368903,38.7057792849657,-13.59744188262195,9.153143739660877,-28.484300595238096,9.388002300279082,-12.699126221001222,-43.446345680181885,-26.185071499013805,28.428040854224697,38.44391529637284,45.29688201994789,1577396454.0,-27.68719437928471,-51.12419997606533,9.427085
102369,1577396454.11,-0.2121496251548209,-0.6310181253572787,4.4611860275640725,-2.4963056016875464,1.1062379573170722,7.160881980040015,0.2491721581435783,1.1346180062642912,9.457242545523297,8.254818800019056,11.913020436356708,3.415921839272104,-2.624697801543445,9.144480635480184,3.463372951600609,15.293028296493905,43.4817802615282,0.2727973751905486,8.988222230838158,-29.397258947649576,8.148077468166749,-12.930282102157104,-41.00725258936466,-19.38375422654269,28.21238805523108,38.44391529637284,45.08122922095426,1577396454.0,-27.68719437928471,-51.12419997606533,9.427085
102370,1577396454.12,-1.4906533116782583,5.598694594369284,5.6307535385504,-1.5374278367949687,7.63283168290301,18.79191364507908,-1.342971945860327,2.324536231361947,16.535699753775248,-1.1293364734184452,12.096125905106708,4.163602503334603,-5.508608934355945,10.121043135480184,5.9505555687881095,6.839659155868903,4.190398425590701,-6.700469226371951,8.65837921319272,-30.127625629578755,7.793813230420372,-13.62374974562475,-43.446345680181885,-20.74401768103691,28.428040854224697,38.68352951747686,45.24895917572708,1577396454.0,-27.68719437928471,-51.12419997606533,9.427085
102371,1577396454.13,-2.381296329256384,0.3697581685880326,8.915598216284776,-3.459971769900437,-4.785892328327458,11.688317319395484,-4.627816623594702,-0.9459432364114893,18.972997043814317,11.993222120331556,10.570246998856708,3.187040003334604,8.651547315644056,12.318308760480184,6.5609071312881095,5.649473608993903,-31.0879218869093,-2.3669731326219514,8.65837921319272,-30.127625629578755,7.793813230420372,-13.62374974562475,-43.14145904382973,-20.74401768103691,28.14050378889987,38.58768382903526,45.29688201994789,1577396454.0,-27.68719437928471,-51.12419997606533,9.427085
102372,1577396454.14,-2.132299356600133,-1.04521501256431,8.870108384741807,-0.0482344041777813,-4.014959393757145,5.882378293516577,-3.56957948980564,8.034707190834604,15.788708835806498,-6.103701707793445,4.741389576981708,4.285672815834603,1.7850922375190548,23.976023604230186,-1.8009092749618902,-2.590272484756097,-50.9853828244093,4.133271008003049,8.493457704370002,-30.31021730006105,8.67947382478632,-13.62374974562475,-43.14145904382973,-23.46454459002536,28.284272321562284,38.635606673256056,45.24895917572708,1577396454.0,-27.68719437928471,-51.12419997606533,9.427085
102373,1577396454.15,-2.9846351476157578,-0.3030124979158726,14.151717247046491,-0.827547044558641,3.929001714641291,17.604389621641577,0.8165979516006096,10.0159090646139,14.789129642691265,-15.640444871855944,15.666682545731708,5.170682581459603,-7.446475145293444,3.468211104230183,5.6758973656631095,-37.2735000238186,-62.8872382931593,23.90866163300305,9.153143739660877,-29.21466727716728,8.67947382478632,-12.641337250712253,-39.78770604395605,-20.0638859537898,28.284272321562284,38.49183814059364,45.12915206517507,1577396454.0,-27.68719437928471,-51.12419997606533,9.427085
102374,1577396454.16,-0.8130942418540397,3.49419133509194,8.941934434546495,-1.415323552127,4.156450872356135,8.60697978277439,-7.45776298589939,-21.55523112703649,8.395414109243998,-1.8922759265434448,-6.000797923018292,4.255155237709603,1.9987152843940548,10.456736494855184,5.8590028344131095,-18.2152724847561,-55.9597480587843,14.23458936737805,9.318065248483594,-29.762442288614164,8.85660594365951,-12.467970339845342,-38.56815949854744,-26.185071499013805,28.38011801000389,38.44391529637284,45.24895917572708,1577396454.0,-27.68719437928471,-51.12419997606533,9.427085
102375,1577396454.17,-3.080403214022008,2.7807192403653773,15.260232615698838,-0.5414399461699689,-5.985387360065739,14.30757393560642,-4.034054611875953,10.900566578041634,4.600604477896342,18.55450141720656,-4.963200266768292,3.827909143959604,9.597592237519056,6.519968916730183,6.3167665062881095,0.2173447027439026,-44.3325507931593,4.621552258003049,9.318065248483594,-29.762442288614164,8.85660594365951,-12.467970339845342,-38.26327286219527,-26.185071499013805,28.475963698445504,38.58768382903526,45.10519064306467,1577396454.0,-27.68719437928471,-51.12419997606533,9.427085
102376,1577396454.18,-3.90281148428568,-1.5001133279939975,7.635897428931259,-2.7632590867949687,-3.4331683903391768,5.2431264502548585,0.3449402245498282,6.3970732552877285,5.857560349478374,2.5175141125190548,14.720637623856708,6.025174768959603,1.0526703625190548,-4.100148270769817,3.9669129906631095,-7.991883812881097,-0.9670722775342988,13.53268507050305,8.410996949958642,-29.67114645337302,9.122304121969297,-12.3523923992674,-37.04372631678666,-15.302963863060016,28.332195165783087,38.58768382903526,44.96142211040225,1577396454.0,-27.68719437928471,-51.12419997606533,9.427085
102377,1577396454.19,-1.8641487706626332,2.9267655416349085,4.629977244605088,-1.8666305650664528,2.909071807414729,9.90224288091892,-0.3445898535751708,-12.17714322420446,4.4737117899080605,7.934384229706555,8.708674733231707,6.666043909584603,-0.0459624499809452,4.032786299542683,4.4399354516006095,2.475645483993904,9.8056328005907,-8.85195848418445,9.153143739660877,-30.31021730006105,9.0337380625327,-12.3523923992674,-37.04372631678666,-15.302963863060016,28.14050378889987,38.58768382903526,45.27292059783749,1577396454.0,-27.68719437928471,-51.12419997606533,9.427085
102378,1577396454.2,0.7048296106850228,-1.0284556009432162,4.151136912573837,0.1600611402558113,-0.6295582462962078,11.40340732183689,10.335943752381858,31.088474976479134,22.279389536490097,6.744198682831555,-11.493961985518292,3.766873987709604,1.0831879406440548,1.1183575886051829,4.4551942406631095,17.3377060308689,-34.4143379025343,-0.2002250857469513,10.637437319065342,-29.762442288614164,8.85660594365951,-12.699126221001222,-36.7388396804345,-106.44061531417302,28.38011801000389,38.68352951747686,45.10519064306467,1577396454.0,-27.68719437928471,-51.12419997606533,9.427085
102379,1577396454.21,-3.5281189244712268,-1.8089653421541536,18.51874107517149,3.3299841383026862,-0.3039468205149579,15.128785105040016,-5.161723593809547,2.362843457924447,8.373866294302593,-2.411074754668445,-5.695622141768292,3.644803675209604,-0.6868315906059451,3.895457197980183,3.509149318788109,4.764463843368903,-19.9184882931593,8.92453077362805,10.637437319065342,-29.762442288614164,8.85660594365951,-12.58354828042328,-33.08020004420866,-102.35982495069037,28.38011801000389,38.635606673256056,45.24895917572708,1577396454.0,-27.68719437928471,-51.12419997606533,9.427085
102380,1577396454.22,-2.0365312901938832,2.531722267709127,13.352053892554306,2.50398456554878,3.414248357707698,16.055341147520483,0.3928242577529532,-9.845190807212273,0.5735572855135298,0.9458588390815548,0.4078934832317072,5.231717737709603,-6.210513231230945,3.437693526105183,3.203973537538109,-12.935731469131095,19.3271171755907,14.93649366425305,8.82330072201544,-29.21466727716728,9.742266538025463,-12.699126221001222,-33.68997331691297,-110.52140567765568,28.308233743672687,38.68352951747686,45.15311348728547,1577396454.0,-27.68719437928471,-51.12419997606533,9.427085
102381,1577396454.23,-2.235250027986852,-1.7036204691072787,9.370496531714464,1.5618662122772966,1.084690142375667,11.751763663389625,1.7910380272842032,13.955567896401009,20.887161271109235,-8.484072801543444,-0.7212569073932926,1.7221962533346038,9.643368604706556,5.634959151105184,2.044305568788109,13.5840439214939,-13.9217841915968,2.0733344845655486,8.328536195547285,-30.492808970543347,7.439548992673988,-13.161437983312986,-21.34206454465075,-106.44061531417302,28.38011801000389,38.58768382903526,44.98538353251266,1577396454.0,-27.68719437928471,-51.12419997606533,9.427085
102382,1577396454.24,-3.1642002721274767,-1.1361946756502477,5.872567906226181,1.543909699826124,4.589801372844416,16.400106186582985,5.834844631288109,-11.935328856528676,14.404860276236183,31.61602485470656,25.218684498856707,7.612088831459603,-3.524966356230945,-3.886525223894817,4.2720887719131095,-30.3612685785061,-17.8432929806593,4.346894054878049,7.8337716690791295,-29.94503395909646,9.388002300279082,-13.161437983312986,-36.1290664077302,-109.84127395040856,28.38011801000389,38.49183814059364,45.15311348728547,1577396454.0,-27.68719437928471,-51.12419997606533,9.427085
102383,1577396454.25,-2.517765823885289,3.388846462045065,9.521331236304308,-1.558975651736375,2.8755529841725416,17.975490878965797,-3.91434452886814,-9.105382494223988,8.163176548208842,5.767636182831555,7.579524342606708,4.285672815834603,7.400326612519055,-18.93169123951981,0.8236024437881098,-26.1193252191311,-31.9118964962843,3.0041206173780486,7.8337716690791295,-29.94503395909646,9.388002300279082,-13.161437983312986,-36.1290664077302,-109.84127395040856,28.38011801000389,38.68352951747686,45.15311348728547,1577396454.0,-27.68719437928471,-51.12419997606533,9.427085
102384,1577396454.26,-3.421576950594273,-0.1306299783846231,11.392399833716416,-2.6291837938262184,-1.4244331974680828,9.223486710264623,-4.474587717344702,2.18926383756312,5.551102536978373,-0.152773973418445,-7.831852610518292,4.606107386147103,0.5186127453315557,10.868723799542684,5.1723573266006095,5.252745093368904,-19.5370185665968,12.70871046112805,8.57591845878136,-29.853738123855308,7.882379289856963,-13.62374974562475,-43.29390236200581,-14.622832135812905,28.21238805523108,38.49183814059364,45.12915206517507,1577396454.0,-27.68719437928471,-51.12419997606533,9.427085
102385,1577396454.27,-1.0405433995688833,0.5780537130216263,8.977847459448839,-3.1104183275176247,3.1077905452076977,8.74105507574314,4.281007753846703,-4.623436986411489,9.487170066275247,7.934384229706555,-7.252018626143292,3.034452112709604,19.912533643769056,-35.624806473894814,1.4644715844131098,2.780821265243903,10.6296074099657,6.391571789253049,8.98822223083816,-30.127625629578755,9.565134419152278,-13.392593864468866,-38.56815949854744,-26.185071499013805,28.14050378889987,38.635606673256056,45.24895917572708,1577396454.0,-27.68719437928471,-51.12419997606533,9.427085
102386,1577396454.28,-0.9040739049399772,-0.5663746805330602,11.831735838355089,4.991560090451125,5.566635650188166,2.717243698790015,-1.2591748877548583,-2.449501878989614,5.510401108755717,12.267880323456556,-9.540836985518292,5.140165003334603,-15.487856981230944,17.262156416730182,4.1805360375381095,9.250547827743905,32.5717460818407,-4.686309070121951,8.493457704370002,-28.484300595238096,7.616681111547183,-13.334804894179896,-37.196169634962736,-20.40395181741336,28.38011801000389,38.58768382903526,44.96142211040225,1577396454.0,-27.68719437928471,-51.12419997606533,9.427085
102387,1577396454.29,1.2746496058022103,3.8078317525724086,5.9060867294683685,0.2797712232636238,2.3871358455006657,5.386778549864234,-3.385225961973609,6.983652662026009,3.978112046255717,15.167050245331556,-7.557194407393292,3.431180628334604,-1.1140776843559452,12.684519697980184,6.3472840844131095,22.0374130621189,51.9504081912157,8.77194288300305,8.493457704370002,-28.484300595238096,7.616681111547183,-12.930282102157102,-37.95838622584312,-26.185071499013805,28.61973223110792,38.30014676371043,45.24895917572708,1577396454.0,-27.68719437928471,-51.12419997606533,9.427085
102388,1577396454.3,-0.5593088658774776,0.2237118673185024,7.842995872534775,-3.313925468630906,0.5268411555592603,6.028424594786109,-6.380372238829078,1.7487307320943697,12.76722634068931,11.459164503144056,-5.298893626143292,4.026273401772103,12.069516065644056,-10.783497880144816,5.4622743187881095,25.7300400152439,48.7308036990282,-7.2192680544969505,8.493457704370002,-29.21466727716728,8.325209587039941,-13.363699379324384,-40.01637102122016,-23.294511658213583,28.35615658789349,38.41995387426245,45.10519064306467,1577396454.0,-27.68719437928471,-51.12419997606533,9.427085
102389,1577396454.31,-0.6526827306235709,6.360050722298971,10.9171508041754,-2.2149869066191874,4.805279522258479,15.851834006407202,-3.6988663794540777,2.7626751351705408,18.295437973990094,16.692929151581556,6.694514576981708,5.109647425209603,12.710385206269056,-0.9873553020198172,-0.5802061499618902,15.811827124618905,28.9401542849657,2.3022163205030486,9.318065248483594,-29.762442288614164,8.148077468166749,-13.565960775335776,-43.29390236200581,-24.484742180896028,28.14050378889987,38.39599245215204,45.29688201994789,1577396454.0,-27.68719437928471,-51.12419997606533,9.427085
102390,1577396454.32,-2.7763396031821643,-4.464134983267435,8.44633469089415,4.713832697872999,-4.177765106647771,5.686053757383765,-9.229472214415011,-7.628160069907583,15.884476902212748,-3.753848192168445,-0.1109053448932926,2.179959925209604,4.989437940644055,-1.4756365520198171,4.0584657250381095,8.029844702743903,3.915740222465701,-0.6274711794969513,9.64790826612903,-30.127625629578755,8.148077468166749,-13.161437983312986,-38.56815949854744,-20.74401768103691,28.14050378889987,38.58768382903526,45.24895917572708,1577396454.0,-27.68719437928471,-51.12419997606533,9.427085
102391,1577396454.33,-2.2567978429282585,-1.4163162698885288,7.505413438452744,-2.073729008669969,3.584236675578792,13.02428184576267,6.725487648866234,3.291793702065072,10.33471745397056,-11.139102098418444,4.893977467606708,6.269315393959603,-0.6868315906059451,0.4469708698551829,6.0115907250381095,4.398252905868903,-10.7632148556593,1.6918647580030486,9.977751283774465,-31.22317565247253,8.502341705913125,-12.699126221001222,-40.7023659530125,-22.784412862778247,28.14050378889987,38.39599245215204,45.10519064306467,1577396454.0,-27.68719437928471,-51.12419997606533,9.427085
102392,1577396454.34,-2.506991916414586,6.421102864632955,15.657670091284777,-1.3746221239043444,2.492480718547541,7.986881552793921,-9.10497372808689,-1.8270094473489893,1.4642003030916553,8.743100050019057,-9.922306712080792,2.332547815834604,9.719662550019056,1.7287091511051829,2.013787990663109,9.921934546493905,34.6011650271532,7.505463390815549,9.730369020540389,-30.401513135302203,8.590907765349723,-16.715459656084658,-41.54080420298093,-22.614379930966464,28.284272321562284,38.61164525114566,45.03330637673346,1577396454.0,-27.68719437928471,-51.12419997606533,9.427085
102393,1577396454.35,4.023193111661586,-2.13697096959556,4.716168504370712,-1.661926323123094,3.088636931926448,0.8904678320907958,2.9905330590224843,-15.086098241294302,2.3907563455721235,11.413388135956556,-36.54889362614329,0.4099403939596037,7.125668409394055,-1.2009783488948171,3.6312196312881095,22.8613876714939,65.4696953005907,-11.91897508574695,7.8337716690791295,-30.67540064102564,7.262416873800799,-13.62374974562475,-42.83657240747758,-22.10428113553113,28.14050378889987,38.68352951747686,45.15311348728547,1577396454.0,-27.68719437928471,-51.12419997606533,9.427085
102394,1577396454.36,0.5827253260170541,-1.10267585240806,8.398450657691026,0.4737015577362801,0.3879774592701973,4.390790659239234,7.601765456483422,16.730447620522103,1.4522292947908737,19.25640571408156,3.001887623856707,3.949979456459604,7.858090284394055,-0.7432146770198171,6.0115907250381095,36.4111923589939,83.7192070193407,-5.815459460746951,8.823300722015436,-29.57985061813187,7.97094534929356,-12.699126221001222,-35.51929313502589,-9.18177831783601,28.14050378889987,38.635606673256056,45.15311348728547,1577396454.0,-27.68719437928471,-51.12419997606533,9.427085
102395,1577396454.37,-1.260809952303258,1.27237219446694,7.439572892798447,-0.2277995286895001,0.8692119929616035,4.093909653379859,-8.779362302305639,-11.042291637290395,10.147969724478372,7.003598096894056,10.478694264481708,3.431180628334604,6.728939893769055,0.3554181354801829,1.5560243187881098,21.1829208746189,66.7819511599657,-9.69119188262195,9.153143739660877,-28.849483936202684,9.388002300279082,-20.15390338827839,-3.658639636225843,-24.484742180896028,28.428040854224697,38.635606673256056,45.15311348728547,1577396454.0,-27.68719437928471,-51.12419997606533,9.427085
102396,1577396454.38,-3.0971626256431017,0.8055028707364702,9.753568797339463,-3.7209397508574686,1.0403974116627763,16.04935564337009,5.632534591004906,8.948095124184213,20.59746287023033,-5.859561082793445,-2.613346751143293,1.7527138314596038,2.3649262218940548,-0.9568377238948168,5.2944276391006095,8.685972632431401,-17.4618232540968,-5.8917534060594505,11.462044863178935,-30.67540064102564,7.616681111547183,-20.67400412087912,-18.293198181129217,-46.24895745280361,28.284272321562284,38.65956809536646,45.12915206517507,1577396454.0,-27.68719437928471,-51.12419997606533,9.427085
102397,1577396454.39,-2.381296329256384,3.077600246224752,9.734415184058214,0.6173536573456551,1.939420135051447,13.309191843321264,-4.733161496641578,-12.770905235923207,-1.9140182393888137,4.607968214081555,-16.193669016768293,1.6916786752096038,-3.616519090605945,8.106882979230184,1.6475770531631098,-16.7504287347561,-20.4983222775343,27.69284132050305,10.80235882788806,-30.67540064102564,10.096530775771845,-20.905160002035004,-30.64110695339144,-79.91547795153564,28.23634947734148,38.635606673256056,45.24895917572708,1577396454.0,-27.68719437928471,-51.12419997606533,9.427085
102398,1577396454.4,-5.223213699861852,5.004932582650533,16.519582688941025,3.44251161633003,1.458185601360041,6.234325937559547,-5.575920481016578,-9.13650711580602,1.0332440042635298,-15.503115770293444,-9.876530344893292,1.935819300209604,-0.1985503406059451,-9.684865067644816,1.6170594750381098,-0.8507705316310974,-8.3218086056593,0.5932319455030487,10.472515810242625,-28.849483936202684,9.388002300279082,-20.905160002035004,-30.64110695339144,-79.91547795153564,28.284272321562284,38.49183814059364,45.29688201994789,1577396454.0,-27.68719437928471,-51.12419997606533,9.427085
102399,1577396454.41,-0.7843638219321646,-0.0408474161287636,4.937632157935166,1.977260200314405,2.5810661799733228,14.760078049375952,8.794077883241235,11.034641871010384,3.0587386087557173,1.4493988781440548,-11.982243235518292,2.652982386147104,-3.799624559355945,-7.518117020769817,1.3118836937881098,-6.466004906631097,26.5597831912157,-1.5429985232469514,9.64790826612903,-30.127625629578755,8.148077468166749,-21.020737942612943,-30.94599358974359,-69.71350204282896,28.284272321562284,38.44391529637284,45.15311348728547,1577396454.0,-27.68719437928471,-51.12419997606533,9.427085
102400,1577396454.42,-1.2991171788657585,3.556440578256002,14.850824131812118,0.540739204220656,3.940972722942073,5.162920694639625,0.5041546349502194,-2.45907868563024,7.7382057535311075,-6.683535692168445,-10.822575266768292,1.844266565834604,-1.739688035918445,-3.535573075457317,2.059564357850609,6.565000952743904,40.4300224490282,-3.633452624809451,9.48298675730631,-29.94503395909646,8.67947382478632,-13.565960775335778,-4.115969590754073,-80.59560967878276,28.284272321562284,38.49183814059364,44.96142211040225,1577396454.0,-27.68719437928471,-51.12419997606533,9.427085
102401,1577396454.43,1.061565658048304,6.173302992806783,6.698567478980087,1.287730122189405,1.1660929988209785,4.936668637754859,-11.324398667051732,6.559878968178354,4.782563804068217,11.993222120331556,-1.6062666730182926,0.8982216439596037,4.592709425019055,-5.748097489519817,0.3048036156631097,15.201475562118905,31.6257011599657,-5.296660632621951,10.307594301419906,-30.492808970543347,8.148077468166749,-13.508171805046809,-33.08020004420866,-20.0638859537898,28.23634947734148,38.68352951747686,45.15311348728547,1577396454.0,-27.68719437928471,-51.12419997606533,9.427085
102402,1577396454.44,1.94502607064596,-4.768198594107279,9.54527325290587,6.408927473263624,-4.65660543867902,3.0979217627548588,8.930547377870141,-7.348038475669302,11.237331479849466,-4.974551317168445,-16.468327219893293,-0.2309287466653963,1.6935395031440548,-4.130665848894817,-1.4041807593368902,6.381895483993903,27.4753105349657,-6.822539538871951,10.142672792597187,-28.484300595238096,7.97094534929356,-12.641337250712253,-29.87889036251105,1.3602634544942245,28.38011801000389,38.635606673256056,45.10519064306467,1577396454.0,-27.68719437928471,-51.12419997606533,9.427085
102403,1577396454.45,-0.5150161351645862,0.5948131246427212,11.720405461157824,1.327234449581984,3.1137760493580884,12.7872558814072,-11.661981101133764,5.663250446449838,6.175989170279155,-4.776187059355944,8.495051686356708,1.4780556283346038,-2.044863817168445,-7.212941239519816,0.5184266625381095,5.374815405868903,22.7756035037157,0.9289253048780486,10.80235882788806,-29.21466727716728,7.97094534929356,-13.392593864468868,-32.47042677150436,-1.7003293181177797,28.308233743672687,38.49183814059365,45.20103633150627,1577396454.0,-27.68719437928471,-51.12419997606533,9.427085
102404,1577396454.46,-0.5832508824790397,4.629042922006002,9.724838377417589,1.172808442501905,1.4150899714772285,4.283051584532203,1.6306265160537343,-14.624017320884144,5.989241440786967,-8.300967332793444,0.7435868426067074,-0.7497275747903963,-1.8770171374809448,5.146677901105183,-0.7327940405868902,1.6516708746189026,30.3744804568407,3.6449897580030486,10.80235882788806,-29.21466727716728,7.97094534929356,-13.62374974562475,-4.115969590754073,-3.740724499859112,28.38011801000389,38.49183814059364,45.10519064306467,1577396454.0,-27.68719437928471,-51.12419997606533,9.427085
102405,1577396454.47,1.1621221277748666,2.476655629525533,9.080798130835555,-0.3379328050566876,1.1660929988209785,12.34193437261814,1.2858614769912342,-3.711246153891958,13.291556504263529,-0.4579497546684451,-13.019840891768292,-1.0243857779153962,1.3273285656440548,-9.684865067644816,0.8236024437881098,-0.9728408441310974,22.5619804568407,-2.4890434451219514,10.142672792597187,-29.57985061813187,8.67947382478632,-20.96294897232397,-33.53752999873689,-10.882107635953789,28.23634947734148,38.49183814059364,45.10519064306467,1577396454.0,-27.68719437928471,-51.12419997606533,9.427085
102406,1577396454.48,-0.366575632234899,-2.5535620584627474,5.525408665503525,1.3308257520722178,-0.5936452213938642,7.800133823301734,0.4119778710342032,-2.351339610923208,12.501469956411968,-14.389224168730944,10.051448170731708,-0.0478232779153963,-7.553286668730945,4.383738447980183,-2.7469541968368905,-6.466004906631097,3.4579765505907014,-8.65359422637195,10.060212038185826,-28.39300475999695,8.590907765349723,-12.872493131868136,-32.927756726032584,-23.1244787264018,28.428040854224697,38.39599245215204,44.96142211040225,1577396454.0,-27.68719437928471,-51.12419997606533,9.427085
102407,1577396454.49,-0.9016797032798208,3.1661857076505333,11.90595608981993,0.0427452589081556,0.9398409419362138,9.828022629454075,-0.9587025794052496,5.960131452309213,11.129592405142436,-1.7702056140434452,-2.491276438643293,0.2573525033346037,-4.165835496855945,1.3624982136051829,-1.1752989233993905,-3.612611351943597,-4.1256416134718,6.3610542111280495,10.637437319065342,-29.397258947649576,8.85660594365951,-12.641337250712253,-33.53752999873689,-25.164873908143136,28.14050378889987,38.44391529637284,45.00934495462306,1577396454.0,-27.68719437928471,-51.12419997606533,9.427085
102408,1577396454.5,-2.474670194002477,5.684885854134908,13.438245152319933,2.4656773389862803,1.0392003108326973,12.87823554449314,-10.258978928282202,-8.056722167075552,12.393730881704936,-10.650820848418444,-8.198063548018293,-2.153536168540396,-8.163638231230944,3.712351729230183,-4.1507627905868905,-6.649110375381097,-6.856964855659299,-1.2683403201219514,10.637437319065342,-29.397258947649576,8.85660594365951,-13.62374974562475,-34.90951986232159,-24.824808044519585,28.428040854224697,38.44391529637284,45.00934495462306,1577396454.0,-27.68719437928471,-51.12419997606533,9.427085
102409,1577396454.51,-1.7731691075766958,1.801490761361471,6.392109666480088,-1.7744538011504376,0.5124759455983223,8.884707175352514,7.589794448182641,6.423409473549447,5.254221531118998,1.7698334484565548,-7.038395579268292,-2.519747106040396,-1.9075347156059448,3.773386885480183,-2.9300596655868905,-4.177186547256097,-7.894562511909299,-7.860137195121951,9.977751283774465,-29.03207560668498,9.210870181405893,-13.62374974562475,-36.1290664077302,-25.504939771766697,28.428040854224697,38.49183814059364,45.29688201994789,1577396454.0,-27.68719437928471,-51.12419997606533,9.427085
102410,1577396454.52,-0.4838915135825557,0.9407752645352984,6.0365707199468845,-3.701786137576218,3.950549529582698,7.045960300352515,0.9434906395888908,10.11766263517054,7.025930759634623,2.4107025890815548,5.214412037919208,-0.3224814810403963,-7.858462449980945,-2.177540848894817,-1.2821104468368902,2.628233374618903,5.472136706840701,1.9360053830030488,10.637437319065342,-29.945033959096463,8.32520958703994,-21.020737942612943,-33.68997331691297,-19.38375422654269,28.332195165783087,38.58768382903526,45.15311348728547,1577396454.0,-27.68719437928471,-51.12419997606533,9.427085
102411,1577396454.53,-0.9782941564048208,1.301102614388815,7.711314781226181,-0.4863733079863756,0.7111946833912919,5.889560898497046,0.3293779137588127,-4.70603694368688,5.822844425406108,-8.911318895293444,2.940852467606707,-0.7192099966653963,-4.898257371855944,3.834422041730183,-2.4570372046493905,-7.122132836318597,10.4465019412157,-1.0699760623094514,9.812829774951748,-29.57985061813187,7.262416873800799,-12.179025488400493,-33.53752999873689,-19.04368836291913,28.38011801000389,38.53976098481445,45.15311348728547,1577396454.0,-27.68719437928471,-51.12419997606533,9.427085
102412,1577396454.54,2.050370943692835,-0.7507282083650912,10.280293162573836,-1.1112599412871564,4.022375579387385,9.27735624761814,2.528452138612328,3.5886747079244468,10.69863610631431,-21.209902879668444,-8.381169016768293,-3.496309606040396,-8.255190965605944,-2.574269364519817,0.8846376000381098,-6.343934594131097,-4.537628918159299,-5.601836413871951,9.812829774951748,-29.57985061813187,7.262416873800799,-13.62374974562475,-4.420856227106227,-13.942700408565791,28.428040854224697,38.68352951747686,45.24895917572708,1577396454.0,-27.68719437928471,-51.12419997606533,9.427085
102413,1577396454.55,-0.4826944127524771,1.631502443490377,10.012142576636338,1.8264254957245611,-0.2584569889719891,12.710641428282202,8.114124611756859,1.5176902718892908,7.46167546178306,3.9365814953315534,2.238948170731707,-1.7262900747903962,-10.544009324980944,-1.7502947551448171,-4.0592100562118905,-4.634950219131097,3.4274589724657014,-7.402373523246951,10.637437319065342,-29.397258947649576,8.148077468166749,-20.789582061457065,-4.115969590754073,-14.622832135812905,28.428040854224697,38.58768382903526,45.00934495462306,1577396454.0,-27.68719437928471,-51.12419997606533,9.427085
102414,1577396454.56,-2.085612424227086,0.2703987996915488,10.586750975073835,0.1361191236542488,-0.8163059757883954,12.109696811582983,3.263472048280297,12.55017152188929,5.960511020865092,-12.054629442168444,8.113581959794208,-0.3682578482278961,-7.553286668730945,-3.062550614519817,-0.9769346655868902,1.4990829839939026,1.8710624880907007,-0.4138481326219513,9.812829774951748,-30.31021730006105,8.502341705913132,-20.03832544770045,-3.353752999873689,-75.49462172442942,28.40407943211429,38.58768382903526,45.15311348728547,1577396454.0,-27.68719437928471,-51.12419997606533,9.427085
102415,1577396454.57,0.4893514612709603,0.4176422017911576,4.606035228003525,-1.5769321641875471,0.6070469111744949,8.389107431700172,-1.2974821143173592,-4.08713581453649,10.164729136099467,-6.500430223418445,-7.709782298018292,-1.2685264029153962,-5.127139207793445,0.5690411823551829,-2.3044493140243905,-6.435487328506096,9.1495048709032,4.7588813595655495,9.977751283774465,-29.762442288614164,9.919398656898656,-12.179025488400493,-4.26841290893015,-82.97607072414765,28.23634947734148,38.49183814059364,45.08122922095426,1577396454.0,-27.68719437928471,-51.12419997606533,9.427085
102416,1577396454.58,-0.1379293736899771,-0.2024560281893101,9.02812569431212,-0.7521296922637188,-3.2105076359446456,5.38917275152439,-1.1466474097275146,5.812888050209604,20.306567368521343,-0.9462310046684452,-9.662907298018292,-2.184053746665396,-8.316226121855944,-4.466359208269817,-1.4652159155868902,-18.2152724847561,-16.2868964962843,-12.98709032012195,9.977751283774465,-29.762442288614164,9.919398656898656,-13.045860042735043,-4.420856227106227,-83.3161365877712,28.23634947734148,38.58768382903526,45.15311348728547,1577396454.0,-27.68719437928471,-51.12419997606533,9.427085
102417,1577396454.59,-0.6287407140220084,2.2204760518888147,12.48056448825743,-7.364914677615281,6.69430463212176,15.408906699278296,5.47092597894436,12.813533704506478,9.015512339224466,-5.768008348418445,1.7201493426067074,-0.6581748404153963,-8.285708543730944,-10.783497880144816,1.4034364281631098,5.527403296493903,-20.1626289181593,-5.662871570121951,11.132201845533496,-29.57985061813187,9.388002300279082,-13.565960775335776,-4.26841290893015,-74.13435826993519,28.23634947734148,38.68352951747686,45.24895917572708,1577396454.0,-27.68719437928471,-51.12419997606533,9.427085
102418,1577396454.6,1.5906842249428357,0.507424764047018,7.89686540988829,3.681931782345655,0.024058806926448,7.250664542295874,0.1713606041885005,-0.5796303824075836,8.45167784825767,-5.951113817168444,-0.0498701886432924,-0.7955039419778962,-7.919497606230944,13.065989424542684,-2.7316954077743905,-8.648011742568595,-13.2503974728468,5.3387153439405495,10.060212038185828,-29.671146453373016,9.122304121969297,-13.219226953601956,-3.658639636225843,-74.13435826993519,28.332195165783087,38.44391529637284,45.10519064306467,1577396454.0,-27.68719437928471,-51.12419997606533,9.427085
102419,1577396454.61,-0.0110366857016959,-0.4538472025057163,7.5389322616949315,0.885504243283155,2.5954313899342605,12.76331386480564,-7.24707323980564,-16.07729772859899,13.162269614615091,4.699520948456555,11.760432545731708,0.4099403939596037,-10.940737840605944,-1.9028826457698167,1.5255067406631098,-24.7155166253811,-29.1042793087843,-5.205107898246951,10.637437319065342,-30.127625629578755,9.210870181405893,-13.219226953601956,-3.658639636225843,-74.13435826993519,28.284272321562284,38.44391529637284,45.10519064306467,1577396454.0,-27.68719437928471,-51.12419997606533,9.427085
102420,1577396454.62,-2.6255048985923204,-1.8233305521150915,9.21966182712462,-1.798395817752,-3.363736542194645,13.737753940489233,-7.053142905332984,9.20547180265101,16.02334059850181,-17.028994676543444,14.232356373856708,-0.3835166372903963,-2.975649949980945,-4.283253739519817,-3.4183409155868905,1.7737411871189026,-55.4714668087843,-11.21707078887195,10.637437319065342,-30.127625629578755,9.210870181405893,-13.565960775335776,-30.793550271567515,-14.96289799943646,28.428040854224697,38.44391529637284,45.10519064306467,1577396454.0,-27.68719437928471,-51.12419997606533,9.427085
102421,1577396454.63,-4.616283579012242,1.4244039998868616,11.31219407810118,-2.844661943240281,-0.4571757267649579,15.739306528379858,9.043074855897483,25.10297082608851,25.37269808141197,-13.031191942168444,1.6285966082317076,1.6459023080221038,-3.952212449980945,0.9047345417301828,-1.5567686499618902,-18.4594131097561,-85.3786933712843,25.19039991425305,10.55497656465398,-30.036329794337608,8.768039884222912,-13.508171805046809,-31.250880226095745,-1.7003293181177797,28.23634947734148,38.44391529637284,45.24895917572708,1577396454.0,-27.68719437928471,-51.12419997606533,9.427085
102422,1577396454.64,-3.599944974275914,1.1742099264005326,14.750267662085555,-1.6463640123320784,1.1493335871998855,15.697407999327122,-8.65845511846775,-4.708431145347037,11.90531374303306,-7.080264207793445,-4.658024485518292,-1.1159385122903962,-3.326602098418445,-1.4908953410823171,-2.6554014624618905,-34.7710586175686,-108.9535224728468,8.23788526581555,10.637437319065342,-29.762442288614164,9.210870181405893,-17.322243844118844,-18.140754862953138,-7.1413831360946745,28.475963698445504,38.58768382903526,45.27292059783749,1577396454.0,-27.68719437928471,-51.12419997606533,9.427085
102423,1577396454.65,-1.5624793614829455,-2.7259445779939973,9.514148631323838,-4.934799992556687,1.1589103938405096,5.23594384527439,4.336074392030297,9.27490365079554,7.624481174673686,-8.117861864043444,-11.890690501143292,-0.2004111685403963,0.4423188000190549,-4.618947098894817,3.020868068788109,-35.5492568597561,-93.9541328244093,19.33102491425305,9.48298675730631,-29.21466727716728,9.742266538025468,-20.84737103174604,-33.53752999873689,-14.96289799943646,28.428040854224697,38.58768382903526,45.24895917572708,1577396454.0,-27.68719437928471,-51.12419997606533,9.427085
102424,1577396454.66,2.153321615079554,0.0513293477872513,9.109528550757432,0.0858408887909676,0.567542583781916,11.28848564214939,-11.080190097715796,-4.15656766268102,5.194366489615092,0.2439545422065548,-10.761540110518292,-0.0173056997903963,2.5480316906440548,-6.785695145769817,2.441034084413109,-21.8773818597561,-86.3247382931593,4.896210461128049,9.48298675730631,-29.21466727716728,9.742266538025468,-13.277015923890923,-4.420856227106227,-26.185071499013805,28.23634947734148,38.68352951747686,45.10519064306467,1577396454.0,-27.68719437928471,-51.12419997606533,9.427085
102425,1577396454.67,-0.9603376439536496,-2.3871650430818883,7.504216337622665,2.9014220411347176,-3.6869537663157392,13.926895871641577,11.274470803163108,23.814890332924445,1.5503915628572795,2.5327729015815548,4.741389576981708,2.103665979897104,4.226498487519055,-3.733937333269817,-2.8385069312118905,3.085997046493903,-59.6218574337843,15.21115186737805,9.64790826612903,-29.21466727716728,9.210870181405896,-13.62374974562475,-36.1290664077302,-90.79758558748944,28.26031089945188,38.58768382903526,44.91349926618145,1577396454.0,-27.68719437928471,-51.12419997606533,9.427085
102426,1577396454.68,-2.1155399449790395,8.519620619759909,12.470987681616808,-6.3030862413359845,4.465302886516292,12.546638614561498,-0.8808910254501711,-15.072930132163442,8.499561881460796,19.28692329220656,-14.026920969893292,1.2644325814596038,-1.6328765124809452,-14.003102372332314,2.349481350038109,-13.9580703363186,1.2301933474657014,2.592133312690549,9.64790826612903,-30.492808970543347,9.565134419152278,-13.045860042735043,-40.7023659530125,-56.79099922513384,28.044658100458264,38.68352951747686,45.20103633150627,1577396454.0,-27.68719437928471,-51.12419997606533,9.427085
102427,1577396454.69,-0.9399869298423208,1.6865690816739711,6.928410838355088,1.3212489454315928,-4.017353595417302,10.704300437071264,-5.018071494200171,25.6943386361471,12.886936423697122,19.22588813595656,-0.9959151105182926,2.149442347084604,10.879330518769056,5.268748213605183,-4.5169737280868905,20.0232529058689,-0.3872382931592988,-0.3222953982469513,10.142672792597187,-29.21466727716728,8.325209587039938,-12.930282102157102,-43.446345680181885,-24.14467631727247,28.284272321562284,38.58768382903526,45.15311348728547,1577396454.0,-27.68719437928471,-51.12419997606533,9.427085
102428,1577396454.7,-1.0309665929282583,-6.391467319693216,4.084099266089463,1.668408186154249,-1.244868072956364,-0.2802967797256094,8.865903933045923,11.724171949135384,14.991439682974466,-9.491152879668444,-15.796940501143292,1.0508095345846038,-5.905337449980945,5.238230635480183,-3.9981748999618905,10.929014624618905,-5.849884777534299,0.5321967892530487,10.142672792597187,-29.21466727716728,8.325209587039938,-12.699126221001222,-34.90951986232159,-24.824808044519585,28.092580944679067,38.49183814059364,45.29688201994789,1577396454.0,-27.68719437928471,-51.12419997606533,9.427085
102429,1577396454.71,0.008116927579554,1.4232068990567837,12.587106462134384,0.1564698377655774,3.4657236934010567,15.40651249761814,0.9877833703017814,4.524807557045541,7.959669407095561,3.463559034394055,-2.6743819073932924,1.6001259408346038,-1.0683013171684443,-7.411305497332316,2.822503810975609,4.108335913681404,3.091765613090701,1.5697944455030486,10.060212038185826,-29.12337144192613,8.41377564647653,-12.699126221001222,-33.68997331691297,-20.74401768103691,28.21238805523108,38.58768382903526,45.00934495462306,1577396454.0,-27.68719437928471,-51.12419997606533,9.427085
102430,1577396454.72,1.272255404142054,-2.2159796243807164,10.122275853003526,3.847131696896436,-0.7732103459055829,6.054760813047827,-0.624711447813452,-8.753434850181021,7.294081345572123,11.077694776581556,-13.050358469893292,-0.2614463247903963,1.9987152843940548,3.956492354230183,6.1641786156631095,7.266905249618903,30.6186210818407,15.63839796112805,9.977751283774465,-29.397258947649576,8.148077468166749,-12.58354828042328,-4.420856227106227,-20.0638859537898,28.284272321562284,38.77937520591847,45.24895917572708,1577396454.0,-27.68719437928471,-51.12419997606533,9.427085
102431,1577396454.73,-0.4108683629477896,5.35209182337319,10.33057139743712,1.9006457471894047,-1.577662103718083,13.20384697027439,-0.7683635474228271,-15.804358739341176,9.79841628209556,18.34087837033156,-8.320133860518293,1.905301722084604,4.653744581269055,-11.210743973894816,3.326043850038109,-0.3930068597560974,32.4496757693407,-17.50369188262195,9.318065248483594,-30.127625629578755,6.731020517181234,-13.62374974562475,-4.420856227106227,-19.38375422654269,28.284272321562284,38.77937520591847,45.15311348728547,1577396454.0,-27.68719437928471,-51.12419997606533,9.427085
102432,1577396454.74,-1.0980042394126333,1.7847313497403774,10.14382366794493,-0.8885991868926251,2.952167437297541,10.326016574766577,7.841185622499046,32.58245681241663,7.696307224478373,16.509823682831556,-6.183903391768292,-0.0173056997903963,8.559994581269056,-7.304493973894817,-4.5169737280868905,41.5991806402439,21.8295585818407,-6.059600085746951,9.977751283774465,-29.762442288614164,8.502341705913125,-20.96294897232397,-3.048866363521536,-81.61580726965343,28.38011801000389,38.635606673256056,45.29688201994789,1577396454.0,-27.68719437928471,-51.12419997606533,9.427085
102433,1577396454.75,0.8963657434975227,0.6534710653165493,7.868134989966416,4.434908204464796,0.2395369563405102,8.19158579473728,-7.047157401182593,-12.019125914634143,8.864677634634623,8.804135206269056,-9.281437571455792,0.2268349252096037,4.134945753144055,1.0878400104801829,2.883538967225609,5.863096655868904,26.0562431521532,-2.5348198123094514,9.895290529363104,-30.036329794337608,8.768039884222912,-17.091087962962966,-17.835868226600986,-102.01975908706676,28.332195165783087,38.63560667325606,45.22499775361668,1577396454.0,-27.68719437928471,-51.12419997606533,9.427085
102434,1577396454.76,0.0679719690834593,-0.3293487161775913,14.501270689429306,-0.8287441453887189,-0.3925322819407392,13.153568735411108,0.6083024071670157,2.575927405678353,13.212547849478373,-10.437197801543444,-11.860172923018292,-1.0549033560403962,0.9611176281440548,-9.837452958269816,0.9456727562881098,15.811827124618905,4.190398425590701,-1.970244616996952,9.977751283774465,-29.03207560668498,8.502341705913125,-12.699126221001222,-4.115969590754073,-87.39692695125387,28.23634947734148,38.68352951747686,45.00934495462306,1577396454.0,-27.68719437928471,-51.12419997606533,9.427085
102435,1577396454.77,-0.6957783605063834,-4.040361289419779,7.424010582007432,-0.0147155809355938,-0.0022774113352704,11.113708920957984,-11.554242026426731,1.8648495126119469,5.251827329458842,-4.028506395293445,7.487971608231708,1.6916786752096038,2.3649262218940548,4.994090010480183,-1.1295225562118902,11.905577124618905,28.1466972537157,5.659149914253049,10.637437319065342,-29.762442288614164,9.565134419152278,-13.161437983312986,-0.7622165908803841,-80.59560967878276,28.23634947734148,38.49183814059364,45.10519064306467,1577396454.0,-27.68719437928471,-51.12419997606533,9.427085
102436,1577396454.78,0.735954232267054,3.044081422982565,9.681742747534775,1.6899560010956551,1.5324058528248847,9.389883725645484,8.51635049066311,-4.6569558096536765,10.085720481314311,10.711483839081556,-0.4771162823932927,-0.2919639029153963,3.0973480968940548,5.787547041730183,0.7930848656631098,8.060362280868903,27.3837578005907,1.3561713986280486,10.967280336710775,-29.762442288614164,8.148077468166749,-13.508171805046809,-1.981763136288998,-80.59560967878276,28.35615658789349,38.68352951747686,45.29688201994789,1577396454.0,-27.68719437928471,-51.12419997606533,9.427085
102437,1577396454.79,-0.1403235753501334,-2.836077854361185,0.8806574448004002,-0.9364832200957504,-0.970731982868474,9.319254776670874,0.0109490929580314,0.949067377602182,11.121212699331888,22.06402290158156,2.544123951981707,1.5390907845846038,10.116391065644056,-1.9944353801448167,0.0454042016006097,11.096861304306405,17.7402031130907,-4.411650866996951,10.967280336710775,-30.127625629578755,8.148077468166749,-12.612442765567769,-18.36941984021725,-52.88024179346294,28.14050378889987,38.58768382903526,45.17707490939587,1577396454.0,-27.68719437928471,-51.12419997606533,9.427085
102438,1577396454.8,1.1357859095131475,1.301102614388815,12.820541123999618,0.8328318067597176,5.190745989543635,10.840769931700171,-1.486624045469702,-7.233116795981802,12.204588950552592,-1.1903716296684452,-10.608952219893292,-1.3905967154153962,0.0761078625190548,-2.116505692644817,-1.4041807593368902,-9.090516625381095,6.235076159965701,-13.75002977324695,10.80235882788806,-29.21466727716728,7.262416873800799,-13.045860042735043,-31.250880226095745,-1.7003293181177797,28.284272321562284,38.68352951747686,45.29688201994789,1577396454.0,-27.68719437928471,-51.12419997606533,9.427085
102439,1577396454.81,-2.457910782381383,3.381663857064596,14.295369346655868,-4.831849321169968,-0.6606828678782392,13.10089629888767,4.0679238060927965,10.440879859291634,11.998687607779154,7.201962354706555,-3.437321360518293,-0.6581748404153963,4.287533643769055,1.2709454792301829,0.6099793969131098,14.987852515243905,-1.9131171994092988,-2.7942192263719514,9.48298675730631,-29.21466727716728,8.325209587039938,-12.814704161579163,-31.250880226095745,-4.420856227106225,28.428040854224697,38.635606673256056,45.24895917572708,1577396454.0,-27.68719437928471,-51.12419997606533,9.427085
102440,1577396454.82,0.9298845667397104,-0.805794846548685,8.81743594821837,3.514337666134717,0.366429644328791,7.778586008360327,4.750271279237328,-2.6793452383646144,7.380272605337747,1.0679291515815548,-3.498356516768293,-0.4903281607278962,5.386166456269055,11.982615401105184,-1.4652159155868902,5.893614233993903,6.265593738090701,5.170868664253049,11.462044863178935,-29.21466727716728,7.262416873800799,-12.814704161579163,-31.250880226095745,-4.420856227106225,28.38011801000389,38.635606673256056,45.29688201994789,1577396454.0,-27.68719437928471,-51.12419997606533,9.427085
102441,1577396454.83,-1.0285723912681022,-2.0172608865877475,9.6530123276129,-0.1571705797148912,-1.4340100041087085,6.697603958799781,-4.40635297003025,-7.221145787681021,10.382601487173686,3.5093354015815548,10.417659108231708,0.8677040658346037,-0.5495024890434451,0.4011945026676828,0.6099793969131098,1.9415878668064028,7.9288017459032,-0.2154838748094514,9.48298675730631,-29.57985061813187,9.0337380625327,-16.859932081807084,-33.08020004420867,-11.902305226824456,28.428040854224697,38.58768382903526,45.17707490939587,1577396454.0,-27.68719437928471,-51.12419997606533,9.427085
102442,1577396454.84,-0.0948337438071646,4.638619728646627,10.311417784155868,-7.52532618884575,6.69430463212176,12.210253281309546,9.636836867616235,11.424896741615854,2.596657688345561,5.462460401581555,0.9572098894817074,-0.8107627310403963,-0.0459624499809451,2.308543135480183,0.5794618187881098,6.870176733993903,9.3783867068407,-1.4209282107469514,10.472515810242625,-29.57985061813187,6.908152636054422,-12.988071072446076,-36.891282998610585,-25.84500563539025,28.14050378889987,38.635606673256056,44.91349926618145,1577396454.0,-27.68719437928471,-51.12419997606533,9.427085
102443,1577396454.85,-2.6278991002524767,7.044792397103659,14.855612535132432,2.908604646115186,5.865910857707698,9.440161960508764,-15.212582163145484,-2.8469393545755515,8.450480747427592,18.58501899533156,2.757746998856707,0.7761513314596037,1.9376801281440548,13.386423994855184,-3.6929991187118905,8.365538062118903,21.6769706912157,6.940888195503049,9.812829774951748,-30.31021730006105,9.0337380625327,-13.392593864468866,-37.65349958949097,-83.99626831501831,28.428040854224697,38.58768382903526,45.34480486416869,1577396454.0,-27.68719437928471,-51.12419997606533,9.427085
102444,1577396454.86,0.0715632715736947,-3.612996293081888,7.270781675757432,0.2199161817597183,-3.522950952595036,5.862027579405249,-2.983000083067359,-5.14058454500524,18.59112187901939,-5.233950731230945,0.5147050066692076,-0.8717978872903962,7.842831495331556,-3.2151385051448167,0.6710145531631094,6.168272437118903,-5.117462902534299,-8.59255907012195,11.462044863178935,-28.484300595238096,8.67947382478632,-13.392593864468868,-39.78770604395605,-52.03007713440405,28.21238805523108,38.53976098481445,45.08122922095426,1577396454.0,-27.68719437928471,-51.12419997606533,9.427085
102445,1577396454.87,0.8724237268959603,-0.4490587991854038,8.633082420386337,-5.966700908084031,3.5818424739186354,10.833587326719702,-8.681200034239234,5.958934351479135,2.321324497427592,0.5186127453315549,17.009455983231707,2.057889612709604,0.8695648937690549,0.0502423542301829,1.4949891625381098,14.865782202743905,-10.6411445431593,2.3327338986280486,10.307594301419906,-29.03207560668498,8.85660594365951,-13.161437983312986,-36.1290664077302,-26.185071499013805,28.38011801000389,38.58768382903526,45.10519064306467,1577396454.0,-27.68719437928471,-51.12419997606533,9.427085
102446,1577396454.88,-2.946327921053258,6.300195680795064,15.389519505347277,-1.3315264940215314,-2.3126820133860515,11.391436313536108,1.1302383690810782,3.871190503822884,13.296344907583842,3.5093354015815548,-2.643864329268293,-1.5431846060403962,7.919125440644055,6.153757979230183,-1.8009092749618902,4.367735327743903,-0.8450019650342988,4.377411633003049,9.977751283774465,-28.3017089247558,7.793813230420372,-12.699126221001222,-35.21440649867374,-26.185071499013805,28.14050378889987,38.68352951747686,45.34480486416869,1577396454.0,-27.68719437928471,-51.12419997606533,9.427085
102447,1577396454.89,-1.5481141515220085,0.2237118673185013,14.49887648776915,2.149642719845655,-1.4771056339915205,9.579025656797826,9.584164431092798,-12.18911423250524,16.71287067662681,-0.7631255359184451,1.842219655106708,-1.6042197622903962,4.226498487519055,1.5456036823551829,-2.0450498999618905,2.597715796493903,-6.490753918159299,-6.639434070121951,9.318065248483594,-28.3017089247558,8.502341705913125,-13.103649013024016,-4.26841290893015,-21.764215271907577,28.428040854224697,38.58768382903526,45.00934495462306,1577396454.0,-27.68719437928471,-51.12419997606533,9.427085
102448,1577396454.9,-0.6251494115317741,1.8278269796231896,9.291487876929306,-2.090488420291062,2.352419921428401,9.98603993902439,-4.9965236792587655,-2.9606639334329743,7.131275632681498,5.111508253144055,-2.0029951886432924,-1.6347373404153962,0.259213331269055,-0.6058855754573171,-1.4804747046493905,-10.8452773675686,4.922820300590701,4.575775890815549,9.812829774951748,-30.67540064102564,8.325209587039938,-12.872493131868136,-4.26841290893015,-21.764215271907577,28.164465211010278,38.63560667325606,45.10519064306467,1577396454.0,-27.68719437928471,-51.12419997606533,9.427085
102449,1577396454.91,-2.819435233064977,3.1853393209317837,8.1973377182379,-4.257240922732469,-0.4140800968821455,6.045184006407203,3.5388052391982656,5.599804102455697,8.371472092642435,17.364315870331556,8.067805592606707,-0.0478232779153963,7.552914503144055,1.4235333698551829,-1.7398741187118902,6.442930640243903,4.129363269340701,-8.10427782012195,9.812829774951748,-30.67540064102564,8.325209587039938,-12.699126221001222,-4.420856227106227,-22.10428113553113,28.57180938688711,38.68352951747686,45.15311348728547,1577396454.0,-27.68719437928471,-51.12419997606533,9.427085
102450,1577396454.92,-0.3581959264243521,2.9171887349942835,6.878132603491807,4.213444550900342,5.193140191203791,8.999628855040013,5.35600429925686,26.683143921791636,8.500758982290874,2.5327729015815548,-14.271061594893292,-4.411836949790397,-4.806704637480945,0.0807599323551829,-3.7235166968368905,15.994932593368905,1.7489921755907012,-3.1604301638719514,10.142672792597187,-30.31021730006105,8.67947382478632,-12.699126221001222,-4.420856227106227,-11.222173499577346,28.284272321562284,38.68352951747686,44.91349926618145,1577396454.0,-27.68719437928471,-51.12419997606533,9.427085
102451,1577396454.93,1.1154351954018196,0.1075930868009242,6.350211137427353,4.505537153439405,2.147715679485041,7.953362729551734,-4.14418788824314,-17.509030321372425,12.77440894566978,9.979061964081556,-8.869450266768292,-1.878877965415396,-1.4497710437309452,0.9352521198551828,-6.8363096655868905,1.2854599371189026,8.4933769412157,-3.0993950076219514,10.7198980734767,-30.58410480578449,8.768039884222915,-12.699126221001222,-3.2013096816976128,-11.222173499577346,28.18842663312068,38.49183814059364,44.96142211040225,1577396454.0,-27.68719437928471,-51.12419997606533,9.427085
102452,1577396454.94,-2.7859164098227893,1.619531435189596,19.442902915991805,-4.025003361697312,-1.8697547062571456,12.357496683409154,-5.094685947325171,-2.0161513785013336,11.756873240103372,-4.821963426543445,-6.092350657393292,-3.435274449790396,3.4940766125190548,-7.914845536394816,1.4949891625381095,0.6445907964939028,0.4672538943407012,-5.601836413871951,9.977751283774465,-29.03207560668498,7.793813230420372,-12.554653795278796,-4.344634568018188,-50.49978074809806,28.23634947734148,38.46787671848324,45.20103633150627,1577396454.0,-27.68719437928471,-51.12419997606533,9.427085
102453,1577396454.95,-1.5217779332602897,-4.12894675084556,8.477459312476181,-1.8103668260527808,-5.559219464557927,13.534246799375952,4.206787502381859,14.084854786049446,3.844036753286967,-10.528750535918444,14.842707936356708,0.2878700814596037,5.355648878144055,4.322703291730183,-4.5780088843368905,2.231504858993903,12.9184257693407,5.018280773628049,9.977751283774465,-29.03207560668498,7.793813230420372,-13.450382834757836,-4.26841290893015,-77.53501690617075,28.044658100458264,38.44391529637284,44.96142211040225,1577396454.0,-27.68719437928471,-51.12419997606533,9.427085
102454,1577396454.96,2.42386640267721,2.9650727681974085,10.728008873023056,5.31956571789253,8.18828646805926,8.841611545469702,6.912235378358422,-9.598588036216176,9.60688014928306,-4.303164598418445,-8.045475657393293,-3.374239293540396,-11.245913621855944,-1.5366717082698171,0.5489442406631098,1.6821884527439026,20.8835136599657,-5.540801257621951,10.80235882788806,-29.94503395909646,9.388002300279082,-13.62374974562475,-1.981763136288998,-83.3161365877712,28.044658100458264,38.58768382903526,45.00934495462306,1577396454.0,-27.68719437928471,-51.12419997606533,9.427085
102455,1577396454.97,-0.2983408849204459,1.091609969125143,9.746386192358994,-0.0290807908965313,3.0982137385670727,18.269977683165013,-6.219960727598608,-4.554005138266958,19.559576450552598,9.033017042206556,-0.5381514386432915,-3.8167441763528966,-3.982730028105945,-6.755177567644817,-7.0804502905868905,6.381895483993903,6.723357409965701,-18.35818407012195,10.472515810242625,-29.945033959096463,8.148077468166749,-13.62374974562475,-31.250880226095745,-26.185071499013805,28.044658100458264,38.49183814059364,45.24895917572708,1577396454.0,-27.68719437928471,-51.12419997606533,9.427085
102456,1577396454.98,-0.9160449132407584,-0.8943803079744663,10.337754002417588,0.0367597547577651,-1.9535517643626144,12.836337015440405,3.265866249940453,13.560524622475228,9.681100400747903,-19.134707567168444,-7.465641673018292,-2.245088902915396,7.262997510956555,-5.519215653582317,-0.8243467749618903,4.077818335556403,-0.0210273556592994,2.7294624142530486,10.472515810242625,-29.57985061813187,9.0337380625327,-13.161437983312986,-32.47042677150436,-14.622832135812905,28.428040854224697,38.53976098481445,45.05726779884386,1577396454.0,-27.68719437928471,-51.12419997606533,9.427085
102457,1577396454.99,-5.455451260897008,1.3729286641935023,13.493311790503524,-3.1966095872832496,-1.6734301701243328,16.531787277891578,8.856327126405297,-0.2205001333841455,5.524766318716655,-3.479189989043445,12.401301686356708,1.3865028939596038,2.8226898937690548,-6.266896317644817,-4.5780088843368905,-18.6730361566311,-3.2864082150342986,-5.052520007621951,10.472515810242625,-29.57985061813187,9.0337380625327,-12.814704161579163,-31.250880226095745,-2.3804610453648904,28.092580944679067,38.68352951747686,45.10519064306467,1577396454.0,-27.68719437928471,-51.12419997606533,9.427085
102458,1577396455.0,1.1309975061928352,0.6426971578458451,6.5118197494879,5.43448739758003,0.4550151057545722,9.32763448248142,18.457075783631858,-3.598718675864614,7.966852012076029,-4.699893114043445,5.412776295731708,-0.9023154654153964,-3.097720262480945,12.287791182355184,-6.5921690405868905,-1.8578506097560967,-13.2046211056593,3.8280952267530486,9.812829774951748,-29.57985061813187,8.325209587039938,-21.020737942612943,-31.250880226095745,-4.420856227106225,28.38011801000389,38.68352951747686,45.15311348728547,1577396455.0,-27.68717952786984,-51.124099275489655,9.944851
102459,1577396455.01,-0.9675202489341176,1.7990965597013149,14.462963462866806,-3.2828008470488754,1.852031774455744,13.658745285704075,-3.411562180235327,-0.4192188711771148,12.41527869664634,-3.738589403105944,-14.881413157393292,-3.2521689810403966,-5.172915574980944,-4.771534989519816,-1.5720274390243905,-3.475282250381097,-16.8819892697218,-7.829619616996951,9.153143739660871,-30.127625629578752,7.97094534929356,-13.62374974562475,-33.68997331691297,-22.784412862778247,28.308233743672687,38.53976098481445,45.10519064306467,1577396455.0,-27.68717952786984,-51.124099275489655,9.944851
102460,1577396455.02,-0.9064681066001332,1.5644647970060024,10.440704673804309,-1.2908250657988751,-0.1938135441477704,9.12412734136814,3.445431374452172,16.009792920815073,9.638004770865091,-7.385439989043445,2.391536061356707,-0.8717978872903963,0.7169770031440549,4.353220869855183,-2.5028135718368905,7.541563452743903,-34.2922675900343,5.933808117378049,11.132201845533496,-29.21466727716728,7.262416873800799,-13.62374974562475,-33.08020004420866,-26.185071499013805,28.428040854224697,38.58768382903526,45.24895917572708,1577396455.0,-27.68717952786984,-51.124099275489655,9.944851
102461,1577396455.03,-0.3270713048423209,-1.804176938833841,12.73674406589415,2.2765354078339364,-4.848141571491521,0.624711447813452,-3.864066294004859,-14.157147997153675,5.55349673863853,-11.322207567168444,-12.653629954268292,-3.130098668540396,-2.395815965605945,9.480173994855184,-5.4325010718368905,-15.224549828506095,-6.887482433784299,2.7294624142530486,11.132201845533496,-29.21466727716728,7.262416873800799,-13.62374974562475,-33.08020004420866,-26.185071499013805,28.092580944679067,38.15637823104801,45.24895917572708,1577396455.0,-27.68717952786984,-51.124099275489655,9.944851
102462,1577396455.04,-4.342147488924351,0.8150796773770952,10.05523820651915,-7.18056114978325,1.182852410442072,10.029135568907202,0.9506732445693594,-1.068047521079458,5.7115140482088425,-3.509707567168445,22.807795826981707,3.522733362709604,-0.0459624499809451,-16.612355302019818,-0.1529600562118902,-3.719422875381097,2.5424492068407014,-4.716826648246951,11.297123354356218,-29.397258947649576,8.148077468166749,-13.277015923890923,-38.56815949854744,-26.185071499013805,28.428040854224697,38.44391529637284,45.00934495462306,1577396455.0,-27.68717952786984,-51.124099275489655,9.944851
102463,1577396455.05,0.1685284388100228,0.4104595968106899,10.937501518286728,-2.298783964724657,2.8839326899830886,6.757459000303687,-4.64218183355564,-5.590694457114615,8.92453267613853,-3.1740142077934426,-17.856877024580793,-2.0009482779153966,0.6406830578315548,-4.344288895769816,-2.6706602515243905,2.811338843368903,21.0208427615282,0.6390083126905486,10.307594301419906,-29.21466727716728,8.325209587039945,-12.58354828042328,-37.04372631678666,-26.185071499013805,28.21238805523108,38.61164525114566,45.03330637673346,1577396455.0,-27.68717952786984,-51.124099275489655,9.944851
102464,1577396455.06,-0.3581959264243521,5.21801653040444,8.3505666244879,1.4936314649628426,0.4957165339772285,7.249467441465796,4.166086074159203,4.855207386147103,7.997976633658061,17.150692823456556,-8.747379954268293,-2.245088902915396,-0.8699370593559451,-6.266896317644817,-0.4886534155868902,9.006407202743903,14.2917167849657,-10.78982469512195,10.142672792597187,-30.67540064102564,6.553888398308031,-20.905160002035004,-34.90951986232159,-25.504939771766697,28.38011801000389,38.635606673256056,45.10519064306467,1577396455.0,-27.68717952786984,-51.124099275489655,9.944851
102465,1577396455.07,3.0391762293373668,0.3649697652677201,9.945104930151963,2.477648347287061,0.9649800593678536,6.995682065489234,-4.223196543028297,4.208772937904915,9.444074436392434,4.394345167206555,-18.574040110518293,-3.313204137290396,3.4330414562690548,-8.921925614519816,-3.7235166968368905,7.175352515243903,11.8197929568407,-4.014922351371951,10.142672792597187,-30.67540064102564,6.553888398308031,-12.410181369556373,-34.452189907793354,-20.40395181741336,28.092580944679067,38.39599245215204,45.24895917572708,1577396455.0,-27.68717952786984,-51.124099275489655,9.944851
102466,1577396455.08,0.926293264249476,-1.959800046743997,7.99981608127501,1.1273186109589364,-1.101215973346989,9.51917061529392,-5.726755185606422,-6.09826520906774,6.2741514383455605,-2.609439012480945,5.3822587176067085,-1.2380088247903962,-3.311343309355945,0.4164532917301829,-0.8548643530868902,2.109434546493903,15.0546562380907,-7.341338366996951,10.884819582299418,-30.218921464819903,7.705247170983773,-12.58354828042328,-33.99485995326513,-24.824808044519585,28.284272321562284,38.44391529637284,45.44065055261029,1577396455.0,-27.68717952786984,-51.124099275489655,9.944851
102467,1577396455.09,0.8460875086342415,4.068799733529439,11.139811558569932,-0.8802194810820783,1.9705447566334795,9.31566347418064,0.7016762719131096,8.005976770912728,4.267810447134623,-4.821963426543445,2.696711842606707,-0.3835166372903963,-1.220889207793445,-3.016774247332317,-1.3126280249618902,6.854917944931404,29.5352470584032,0.8221137814405486,9.48298675730631,-29.94503395909646,8.325209587039938,-20.44284823972324,-3.2013096816976123,-20.0638859537898,28.428040854224697,38.515799562704046,45.12915206517507,1577396455.0,-27.68717952786984,-51.124099275489655,9.944851
102468,1577396455.1,-0.6191639073813834,1.80867336634194,11.355289707983994,1.6636197828339363,-0.8067291691477704,7.139334165098608,-17.04654063482517,-12.203479442466175,16.210088327993997,-6.866641160918445,-3.467838938643293,-4.625459996665397,3.0363129406440548,5.512888838605183,-4.2423155249618905,6.626036108993903,3.824187488090701,-7.768584460746951,10.967280336710775,-29.762442288614164,8.502341705913125,-20.789582061457065,-33.68997331691297,-77.87508276979432,28.284272321562284,38.39599245215204,45.15311348728547,1577396455.0,-27.68717952786984,-51.124099275489655,9.944851
102469,1577396455.11,-1.593603983064977,-2.721156174673685,8.81743594821837,-0.5845355760527814,-4.764344513386051,8.855976755430639,18.92873351068264,8.231031726967416,9.345912168326027,1.0068939953315548,4.802424733231708,-1.7262900747903962,0.3202484875190549,6.703074385480183,-0.8243467749618902,7.572081030868903,-12.0754707150343,-9.26394578887195,10.967280336710775,-29.762442288614164,8.502341705913125,-13.334804894179896,-4.26841290893015,-91.137651451113,28.38011801000389,38.58768382903526,45.10519064306467,1577396455.0,-27.68717952786984,-51.124099275489655,9.944851
102470,1577396455.12,0.1577545313393198,2.380887563119283,10.979400047339462,0.2318871900604988,11.65509047196551,15.861410813047828,-7.309322482969702,-1.5205516348489891,5.294922959341655,4.745297315644057,2.040583912919208,-1.1464560904153962,-8.316226121855944,4.017527510480183,0.5184266625381098,-1.5221572503810974,-12.9604804806593,9.96212842987805,10.225133547008545,-29.305963112408424,8.059511408730154,-13.392593864468866,-3.2013096816976128,-85.35653176951254,28.21238805523108,38.635606673256056,45.24895917572708,1577396455.0,-27.68717952786984,-51.124099275489655,9.944851
102471,1577396455.13,1.186064144376429,-2.0124724832674348,6.310706810034775,2.0466920484589366,-3.148258392780583,5.666900144102515,2.621826003358422,1.1334209054342133,4.010433768667826,-17.608828660918444,-5.970280344893292,-3.069063512290396,-0.7020903796684451,9.770090987042684,-5.020513767149391,-10.6774306878811,-9.9697578244093,-4.274321765434451,10.967280336710775,-30.127625629578755,7.439548992673988,-13.392593864468866,-3.2013096816976128,-85.35653176951254,28.23634947734148,38.65956809536646,45.12915206517507,1577396455.0,-27.68717952786984,-51.124099275489655,9.944851
102472,1577396455.14,-1.121946256014196,3.688121669564596,12.315364573706647,-3.88613966540825,6.96245521805926,13.586919235899389,0.0217230004287344,-4.661744212973989,8.486393772329937,11.413388135956556,2.940852467606707,-1.1464560904153962,-3.524966356230945,-11.485402177019816,0.9456727562881098,-4.146668969131097,3.885222644340701,5.659149914253049,9.977751283774465,-29.762442288614164,6.022492041688465,-13.392593864468866,-4.420856227106227,-90.79758558748944,28.284272321562284,38.49183814059364,45.00934495462306,1577396455.0,-27.68717952786984,-51.124099275489655,9.944851
102473,1577396455.15,0.1278270105873656,1.5836184102872524,8.238039146460556,2.946911872677686,4.465302886516292,9.86393565435642,-5.846465268614234,1.9270987557760093,8.718631333365092,-8.758731004668444,9.685237233231708,-1.5431846060403962,-3.128237840605945,7.008250166730183,-6.8973448218368905,-1.6137099847560974,5.289031238090701,-8.89773485137195,10.472515810242625,-28.849483936202684,7.616681111547183,-13.565960775335776,-31.098436907919663,-25.164873908143136,28.38011801000389,38.39599245215204,45.10519064306467,1577396455.0,-27.68717952786984,-51.124099275489655,9.944851
102474,1577396455.16,0.2008501612221322,-0.4490587991854038,6.631529832495713,0.5239797925995614,-2.769974530475896,5.659717539122046,12.246516677186548,11.111256324135384,9.717013425650247,-0.3053618640434452,0.6520341082317072,-0.9480918326028964,-1.7854644031059452,7.923777510480183,-0.2139952124618902,4.489805640243903,16.5500175662157,3.7365424923780486,10.637437319065342,-29.39725894764957,8.325209587039941,-12.641337250712253,-31.098436907919663,-12.922502817695126,28.332195165783087,38.58768382903526,45.10519064306467,1577396455.0,-27.68717952786984,-51.124099275489655,9.944851
102475,1577396455.17,2.2035998499428358,2.05767033899819,9.320218296851182,1.3296286512421396,3.732677178508479,13.0829397864365,-2.633446640684546,-6.74948806063024,12.317116428579936,1.1289643078315548,-18.970768626143293,-4.533907262290397,-4.562564012480945,-2.208058427019817,-1.7398741187118905,-1.9951797113185967,5.4263603396532005,-6.4715873904344505,9.48298675730631,-29.94503395909646,9.0337380625327,-13.450382834757836,-31.555766862447893,-3.4006586362355598,28.428040854224697,38.58768382903526,45.12915206517506,1577396455.0,-27.68717952786984,-51.124099275489655,9.944851
102476,1577396455.18,0.0679719690834593,-2.0938753397127474,9.23881544040587,0.9477534864472176,-2.542525372761052,7.47691659918064,-3.8137880591415776,5.755427210365854,5.474488083853373,2.1360443859565548,3.307063405106707,-2.550264684165396,-2.243228074980945,3.468211104230183,-0.7022764624618902,2.292540015243903,-1.2722480587842988,-6.090117663871951,11.132201845533496,-29.94503395909646,7.97094534929356,-13.161437983312986,-33.68997331691297,-4.420856227106225,28.284272321562284,38.68352951747686,45.00934495462306,1577396455.0,-27.68717952786984,-51.124099275489655,9.944851
102477,1577396455.19,0.9107309534584602,-0.2168212381502476,13.948210105933212,1.5486981031464364,1.8149216487233224,12.586142941954078,-0.8832852271103271,8.530306934486948,7.061843784536967,-4.638857957793445,10.631282155106708,0.1657997689596037,-4.074282762480945,-5.412404130144817,2.502069240663109,1.3159775152439026,13.2236015505907,2.6379096798780486,10.472515810242625,-28.849483936202684,6.908152636054422,-20.789582061457065,-4.115969590754073,-21.424149408284023,28.284272321562284,38.68352951747686,45.00934495462306,1577396455.0,-27.68717952786984,-51.124099275489655,9.944851
102478,1577396455.2,-0.4204451695884146,1.9092298360685025,9.407606657446884,2.508772968869093,2.397909752971369,15.618399344541968,0.1653751000381096,-2.256768645347037,14.902854221548685,-2.868838426543445,-0.1871992902057926,-1.4974082388528962,-3.997988817168445,2.4000958698551838,-3.1894590796493905,-5.016419945693597,-3.850983410346799,-4.075957507621951,10.472515810242625,-29.21466727716728,7.970945349293562,-13.565960775335778,-35.67173645320197,-23.124478726401804,28.35615658789349,38.61164525114566,45.10519064306467,1577396455.0,-27.68717952786984,-51.124099275489655,9.944851
102479,1577396455.21,0.9969222132240853,-3.8871323831697775,7.548509068335556,5.901356721310499,-0.2632453922923017,7.64929911871189,-4.034054611875953,-1.326621300376333,7.751373862661967,-4.944033739043445,2.422053639481707,-1.878877965415396,1.5714691906440548,4.017527510480183,-1.8009092749618902,1.9568466558689024,-3.8052070431592986,4.377411633003049,9.64790826612903,-29.762442288614164,6.731020517181234,-13.045860042735043,-38.56815949854744,-23.46454459002536,28.044658100458264,38.635606673256056,44.91349926618145,1577396455.0,-27.68717952786984,-51.124099275489655,9.944851
102480,1577396455.22,-2.7404265782798203,4.521303847298971,8.946722837866808,-2.2149869066191874,5.715076153117854,12.85189932623142,1.7934322289443592,5.015618897377572,6.513571604361186,15.899472120331556,13.957698170731708,1.0508095345846038,-5.142397996855945,-7.731740067644817,-1.8314268530868905,-2.895448266006097,0.7113945193407012,-0.9631645388719512,10.142672792597187,-28.849483936202684,9.0337380625327,-12.814704161579163,-38.56815949854744,-26.185071499013805,28.14050378889987,38.44391529637284,45.15311348728547,1577396455.0,-27.68717952786984,-51.124099275489655,9.944851
102481,1577396455.23,0.1529661280190072,0.6415000570157671,6.229303953589462,3.140842207150343,2.004063579875666,12.528682102110327,2.406347853944359,-10.814842479575551,9.755320652212747,3.310971143769055,-8.777897532393292,-1.878877965415396,5.416684034394055,-0.7432146770198171,-4.8526670874618905,-8.297059594131097,3.915740222465701,-2.0923149294969514,9.812829774951748,-29.94503395909646,8.325209587039938,-13.62374974562475,-36.1290664077302,-26.185071499013805,28.26031089945188,38.68352951747686,45.00934495462306,1577396455.0,-27.68717952786984,-51.124099275489655,9.944851
102482,1577396455.24,-3.446716068025914,0.4415842183927201,9.973835350073838,1.2434373914765149,0.1988355281178535,10.367915103819312,-2.046867233946265,10.840711536537729,6.4249861429354045,-2.411074754668445,10.478694264481708,-0.5055869497903963,-2.426333543730945,1.9881085651676829,-1.5720274390243905,2.323057593368903,0.8182060427782014,-0.7037651248094514,9.318065248483594,-30.127625629578755,7.793813230420372,-13.508171805046809,-34.90951986232159,-23.46454459002536,28.14050378889987,38.41995387426245,45.12915206517506,1577396455.0,-27.68717952786984,-51.124099275489655,9.944851
102483,1577396455.25,1.6026552332436166,-0.3030124979158726,8.659418638648056,-2.0138739671660626,0.5914846003834785,10.424178842832983,4.058346999452172,-12.134047594321643,9.65715838414634,-11.017031785918444,-8.381169016768293,-2.367159215415396,3.5551117687690548,-10.295216630144816,-3.9066221655868905,0.1257919683689026,0.8639824099657012,-2.0007621951219514,8.65837921319272,-30.85799231150793,8.148077468166749,-13.334804894179896,-3.353752999873689,-23.1244787264018,28.14050378889987,38.39599245215204,45.24895917572708,1577396455.0,-27.68717952786984,-51.124099275489655,9.944851
102484,1577396455.26,-1.335030203768102,1.16942152308022,11.8365242416754,1.9197993604706551,0.8835772029225409,9.689158933165016,-3.152988400938453,12.487922278725229,6.338794883169779,10.223202589081556,-2.064030344893293,-2.214571324790396,-3.006167528105945,5.787547041730183,-2.1671202124618905,4.825498999618903,9.5004570193407,-5.693389148246951,9.318065248483594,-29.762442288614164,8.148077468166749,-13.334804894179896,-3.353752999873689,-23.1244787264018,28.044658100458264,38.68352951747686,44.91349926618145,1577396455.0,-27.68717952786984,-51.124099275489655,9.944851
102485,1577396455.27,-0.0649062230552115,1.4818648397306111,10.931516014136337,2.0347210401581552,-0.0310078312571454,7.421849960997046,15.210538332459985,-1.3314097036966457,10.8087693826815,-3.906436082793445,-5.543034251143292,-2.412935582602896,-0.8394194812309451,-0.6821795207698171,-2.1976377905868905,3.330137671493903,12.5522148318407,2.6073921017530486,10.472515810242625,-31.040583981990235,8.67947382478632,-20.905160002035004,-4.115969590754073,-12.582436954071568,28.35615658789349,38.25222391948962,45.24895917572708,1577396455.0,-27.68717952786984,-51.124099275489655,9.944851
102486,1577396455.28,0.7527136438881478,0.6355145528653764,9.298670481909776,-1.9288798082305156,3.441781676799495,10.367915103819312,-2.3018497107529057,2.625008539711557,11.652725467886576,-6.439395067168445,-3.589909251143293,-2.885958043540396,-0.9614897937309452,-1.6740008098323167,-2.0145323218368905,1.0413193121189026,-6.5517890744093,-9.67593309355945,10.307594301419906,-29.762442288614164,9.210870181405893,-16.28204237891738,-32.01309681697612,-85.35653176951254,28.14050378889987,38.53976098481445,45.08122922095426,1577396455.0,-27.68717952786984,-51.124099275489655,9.944851
102487,1577396455.29,1.265072799161585,-0.6358065286775912,8.393662254370712,1.7857240675019053,-0.2201497624094892,4.4147326758407965,10.544239296815451,16.69453459561976,2.309353489126811,11.443905714081556,2.269465748856707,-1.2990439810403962,-3.616519090605945,11.830027510480184,-3.1436827124618905,10.715391577743905,16.5194999880907,4.377411633003049,10.637437319065342,-30.85799231150793,6.731020517181234,-13.334804894179896,-32.927756726032584,-89.77738799661877,28.092580944679067,38.635606673256056,45.24895917572708,1577396455.0,-27.68717952786984,-51.124099275489655,9.944851
102488,1577396455.3,2.0838897669350227,0.2356828756192826,8.257192759741807,6.356255036740187,-1.9559459660227705,3.8233648657822026,-7.345235507872046,-27.643685948813832,0.0252851053377485,-2.960391160918445,0.5909989519817074,-2.153536168540396,4.287533643769055,-7.121388505144817,-2.2586729468368905,-6.404969750381097,40.8725273318407,6.116913586128049,9.318065248483594,-29.762442288614164,7.439548992673988,-13.565960775335776,-30.48866363521536,-91.137651451113,28.23634947734148,38.58768382903526,45.15311348728547,1577396455.0,-27.68717952786984,-51.124099275489655,9.944851
102489,1577396455.31,1.391965487149866,1.2747663961270956,3.4185112045660246,-4.283577140994187,1.879565093547541,7.522406430723609,-7.61099189214939,-1.757577599204458,12.738495920767436,17.47112739376906,2.437312428544208,-2.535005895102896,-3.830142137480945,-4.832570145769817,-0.4581358374618902,-0.3319717035060974,18.1979667849657,-12.46829149199695,9.64790826612903,-29.762442288614164,8.502341705913125,-13.62374974562475,-3.81108295440192,-79.23534622428853,28.092580944679067,38.68352951747686,44.91349926618145,1577396455.0,-27.68717952786984,-51.124099275489655,9.944851
102490,1577396455.32,-0.3103118932212271,-1.0619744241854037,12.523660118140244,-1.7756509019805151,0.9554032527272284,5.665703043272436,4.528807625672876,1.6314148507467134,10.173108841910013,-13.214297410918444,-8.259098704268293,-5.510469762290397,-2.716250535918445,4.551585127667683,-3.0368711890243905,5.679991187118903,-18.2095039181593,-10.37783739043445,9.64790826612903,-29.762442288614164,8.502341705913125,-13.42148834961335,-17.30231661298472,-53.2203076570865,28.38011801000389,38.32410818582083,45.17707490939587,1577396455.0,-27.68717952786984,-51.124099275489655,9.944851
102491,1577396455.33,1.0567772547279914,4.198086623177877,9.6913195541754,1.7809356641815923,-1.015024713581364,14.171104440977514,-0.7803345557236083,22.65849093106898,7.200707480826029,5.065731885956555,9.715754811356708,-2.245088902915396,-5.783267137480945,-7.548634598894817,-1.6788389624618902,2.658750952743903,6.631804675590701,19.05636671112805,9.812829774951748,-30.67540064102564,8.67947382478632,-13.62374974562475,-30.64110695339144,-22.10428113553113,28.23634947734148,38.58768382903526,44.96142211040225,1577396455.0,-27.68717952786984,-51.124099275489655,9.944851
102492,1577396455.34,-0.7628160069907584,0.1949814473966264,9.107134349097276,-4.472719072146531,-0.6295582462962078,5.786610227110328,0.677734255311547,-33.557364049399766,10.696241904654157,-2.594180223418445,-0.8128096417682926,-2.824922887290396,10.635189893769056,-7.243458817644817,-1.8314268530868905,-10.616395531631095,9.5920097537157,-2.0923149294969514,8.98822223083816,-29.03207560668498,8.502341705913125,-13.62374974562475,-30.64110695339144,-22.10428113553113,28.092580944679067,38.30014676371043,44.96142211040225,1577396455.0,-27.68717952786984,-51.124099275489655,9.944851
102493,1577396455.35,0.2690849085365853,-0.4155399759432163,5.301550810278916,-3.3833573167754376,-0.1255787968333178,9.253414231016576,-2.7328060095810303,1.138209308754526,12.124383194937357,9.948544385956556,12.813288991044208,-1.0243857779153964,-0.702090379668445,0.1723126667301828,-2.9148008765243905,3.040220679306403,6.067229480278201,-10.42361375762195,9.812829774951748,-29.762442288614167,7.793813230420367,-13.62374974562475,-31.860653498800048,-24.14467631727247,28.38011801000389,38.515799562704046,45.15311348728547,1577396455.0,-27.68717952786984,-51.124099275489655,9.944851
102494,1577396455.36,1.183669942716273,2.8190264669278773,8.281134776343368,-0.4839791063262189,3.050329705363948,11.910978073790014,-1.6997079932236083,3.4474168099752283,-1.044923036752094,-2.838320848418445,-4.902165110518292,-4.350801793540397,-8.468814012480944,8.808787276105184,-1.3431456030868902,3.696348608993903,17.3739921755907,6.269501476753049,9.64790826612903,-30.127625629578755,8.502341705913125,-12.930282102157102,-4.420856227106227,-23.46454459002536,28.14050378889987,38.44391529637284,45.10519064306467,1577396455.0,-27.68717952786984,-51.124099275489655,9.944851
102495,1577396455.37,0.0751545740639281,1.6506560567716273,10.85250735935118,-2.0426043870879376,-1.2688100895579266,6.53838954839939,-2.1019338721298584,-11.643236253989617,9.937279978384623,5.981259229706555,-9.632389719893292,-4.198213902915397,1.5104340343940548,2.308543135480183,-2.2281553687118905,-1.8273330316310967,26.3156425662157,-4.045439929496951,8.823300722015436,-30.67540064102564,9.0337380625327,-13.392593864468866,-34.29974658961728,-16.663227317554238,28.23634947734148,38.635606673256056,45.00934495462306,1577396455.0,-27.68717952786984,-51.124099275489655,9.944851
102496,1577396455.38,1.1453627161537727,1.7440299215177206,7.362958439673447,1.0195795362519051,6.9313305964772285,9.25102002935642,6.708728237245141,8.084985425697885,0.0468329202791548,2.837948682831555,-2.140324290205793,-3.2979453482278966,-9.903140184355944,4.841502119855183,-2.7774717749618905,10.105040015243905,26.1020195193407,-10.72878953887195,9.64790826612903,-29.762442288614167,7.61668111154718,-13.565960775335776,-35.976623089554124,-20.40395181741336,28.284272321562284,38.39599245215204,45.10519064306467,1577396455.0,-27.68717952786984,-51.124099275489655,9.944851
102497,1577396455.39,-0.1187757604087271,-3.6644716287752472,7.64188293308165,0.2330842908905774,-2.3210617191965985,8.184403189756813,0.3640938378310783,0.0668040658346038,16.684140256704936,-2.777285692168445,10.997493092606708,-1.848360387290396,-0.656314012480945,2.781565596417683,-3.2962706030868905,1.2702011480564028,1.5048515505907003,-8.89773485137195,10.472515810242625,-28.484300595238096,8.325209587039938,-13.334804894179896,-36.58639636225843,-22.44434699915469,28.38011801000389,38.49183814059364,45.00934495462306,1577396455.0,-27.68717952786984,-51.124099275489655,9.944851
102498,1577396455.4,-0.7460565953696646,1.2125171529630328,10.59153937839415,-3.1152067308379374,6.861898748332698,7.771403403379859,0.0504534203506094,16.050494349037727,12.815110373892436,-9.063906785918444,6.541926686356708,-2.611299840415396,-10.208315965605944,11.097605635480184,0.3353211937881097,-9.212586937881095,-35.2383125119093,-9.84377977324695,10.472515810242625,-28.484300595238096,8.325209587039938,-12.525759310134312,-36.58639636225843,-23.80461045364892,28.428040854224697,38.58768382903526,44.96142211040225,1577396455.0,-27.68717952786984,-51.124099275489655,9.944851
102499,1577396455.41,-1.5792387731040396,2.953101759896627,7.0696687363043065,-0.4720080980254376,-6.306210382526676,10.496004892637671,7.661620497987328,2.4442463143697597,10.272468210806498,10.253720167206556,14.079768483231708,-1.2685264029153962,5.904965284394055,0.5690411823551829,-2.6859190405868905,-6.740663109756097,-40.1211250119093,9.50436475800305,9.977751283774465,-29.762442288614164,8.85660594365951,-12.12123651811152,-32.77531340785651,-23.46454459002536,28.044658100458264,38.635606673256056,44.81765357773984,1577396455.0,-27.68717952786984,-51.124099275489655,9.944851
102500,1577396455.42,-0.7197203771079459,0.4810885457852982,10.02890198825743,-6.548491911502,-0.3685902653391767,6.65331122808689,-7.0052588721298585,-5.502108995688833,6.676377317251811,-2.212710496855945,-2.292912180830792,-2.977510777915396,4.562191846894055,-10.264699052019816,1.891717678163109,-14.675233422256095,-27.3952949337843,12.80026319550305,9.318065248483594,-29.94503395909646,8.85660594365951,-12.12123651811152,-32.77531340785651,-23.46454459002536,28.332195165783087,38.58768382903526,45.15311348728547,1577396455.0,-27.68717952786984,-51.124099275489655,9.944851
102501,1577396455.43,-0.7867580235923208,-1.3277308084627475,8.429575279273056,-3.996272941775438,0.1940471247975415,8.927802805235327,7.195948275086938,6.167229895912729,1.4929307230135294,3.3872650890815548,3.368098561356707,-2.855440465415396,-2.411074754668445,-0.1786394817073162,-3.8150694312118905,0.3546738043064028,15.7565605349657,0.0286567501905485,9.153143739660877,-30.67540064102564,8.325209587039938,-12.612442765567769,-18.52186315839333,-20.573984749225133,28.428040854224697,38.58768382903526,45.12915206517506,1577396455.0,-27.68717952786984,-51.124099275489655,9.944851
102502,1577396455.44,3.2307123621498666,3.036898818002096,6.490271934546494,3.140842207150343,-4.036507208698552,-0.5005633324599844,-15.353840061094704,-31.96761414705602,7.940515793814311,-1.0683013171684452,-2.765934641768293,-2.184053746665396,0.9916352062690548,-6.877247880144817,-1.3431456030868902,-6.710145531631097,57.0773613162157,-0.8410942263719513,9.153143739660877,-30.67540064102564,8.325209587039938,-13.334804894179896,-32.927756726032584,-13.602634544942235,28.092580944679067,38.58768382903526,44.91349926618145,1577396455.0,-27.68717952786984,-51.124099275489655,9.944851
102503,1577396455.45,-1.5074127232993522,1.4567257222989711,10.754345091284774,-7.170984343142625,5.791690606242854,11.305245053770484,-5.69563056402439,-0.694552062095083,16.715264878286966,-2.472109910918445,1.872737233231708,-4.076143590415397,-7.583804246855945,-8.921925614519816,1.0372254906631098,9.891416968368905,28.1466972537157,-26.38430711699695,8.98822223083816,-30.85799231150793,8.148077468166749,-13.565960775335776,-33.53752999873689,-12.242371090448014,28.475963698445504,38.49183814059364,45.00934495462306,1577396455.0,-27.68717952786984,-51.124099275489655,9.944851
102504,1577396455.46,0.9382642725502572,0.3434219503263139,8.200929020728134,2.805653974728468,3.78295541337176,10.72105984869236,11.298412819764671,25.131701246010383,15.913207322134625,-0.717349168730945,-3.620426829268293,-3.8777793326028966,-1.6633940906059452,11.646922041730184,-4.0897276343368905,18.1311630621189,13.6203300662157,-5.052520007621951,9.400526002894953,-30.036329794337608,8.059511408730154,-13.565960775335776,-33.53752999873689,-12.242371090448014,28.332195165783087,38.635606673256056,45.10519064306467,1577396455.0,-27.68717952786984,-51.124099275489655,9.944851
102505,1577396455.47,-2.041319693514196,0.0058395162442826,12.937857005347274,2.948108973507765,-0.9647464787180828,10.163210861875951,-3.0883449561142338,1.3309425423971035,12.302751218618996,-23.376650926543444,8.189875905106707,-2.214571324790396,-5.600161668730945,-2.742116044207317,-2.9300596655868905,-1.4306045160060972,-16.9277656369093,-6.471587390434451,10.142672792597187,-30.31021730006105,8.325209587039938,-13.1325434981685,-16.997429976632564,-85.86663056494787,28.284272321562284,38.56372240692485,45.00934495462306,1577396455.0,-27.68717952786984,-51.124099275489655,9.944851
102506,1577396455.48,-0.930410123201696,-0.5496152689119663,8.515766539038681,-4.479901677127,-1.8242648747141763,12.408972019102515,0.7950501366592032,10.361871204506478,9.604485947622903,-0.0001860827934451,10.143000905106708,-1.878877965415396,1.8461273937690548,-8.738820145769816,0.4573915062881097,-4.268739281631097,-27.3647773556593,3.8280952267530486,10.142672792597187,-30.31021730006105,8.325209587039938,-13.62374974562475,-30.031333680687133,-75.15455586080586,28.428040854224697,38.58768382903526,44.96142211040225,1577396455.0,-27.68717952786984,-51.124099275489655,9.944851
102507,1577396455.49,0.4797746546303353,2.2468122701505338,10.505348118628524,-1.539822038455125,-1.723708404987614,12.164763449766577,3.3113560814834218,7.965275342690072,6.908614878286967,-10.589785692168444,0.8046219988567074,-3.252168981040396,3.890805128144055,2.583201338605183,-6.2869932593368905,-5.580995141006097,-12.4111640744093,11.70163038300305,9.64790826612903,-30.492808970543347,8.85660594365951,-13.508171805046809,-1.6768764999368446,-79.91547795153564,28.475963698445504,38.49183814059364,45.10519064306467,1577396455.0,-27.68717952786984,-51.124099275489655,9.944851
102508,1577396455.5,-0.6838073522056022,0.3745465719083461,8.62589981540587,-0.3415241075469225,-0.9575638737376148,10.306862961485328,-1.190940140440406,-12.483601036704458,11.148746018423685,7.201962354706556,0.3468583269817076,-2.7638877310403966,-1.480288621855945,-4.695241044207317,-3.6014463843368905,-4.161927758193596,-3.271149425971799,-1.237822741996951,9.647908266129033,-28.119117254273508,8.148077468166749,-13.508171805046809,-16.311435044840216,-52.71020886165117,28.284272321562284,38.46787671848324,45.20103633150627,1577396455.0,-27.68717952786984,-51.124099275489655,9.944851
102509,1577396455.51,-0.0565265172446646,0.2955379171231889,11.2619158432379,-2.739317070193406,1.2427074519459784,5.973357956602516,1.558800466249047,12.418490430580697,8.108109910025249,-6.561465379668445,-11.951725657393292,-6.822725621665397,3.2499359875190548,1.6371564167301829,-3.7540342749618905,3.085997046493903,-18.9114082150343,-17.44265672637195,10.307594301419906,-30.127625629578755,8.85660594365951,-12.930282102157102,-30.94599358974359,-4.420856227106225,28.044658100458264,38.635606673256056,45.00934495462306,1577396455.0,-27.68717952786984,-51.124099275489655,9.944851
102510,1577396455.52,0.218806673673304,-3.8464309549471225,6.076075047339463,3.389839179806593,-3.5935799015696457,6.263056357481421,2.286637770936547,15.080842676674449,10.734549131216657,8.422665479706556,4.314143483231708,-2.306124059165396,-4.501528856230945,14.515574385480184,-5.2188780249618905,0.7666611089939026,-13.2046211056593,16.43185499237805,10.307594301419906,-30.127625629578755,8.85660594365951,-13.450382834757836,-32.927756726032584,0.6801317272471106,28.092580944679067,38.49183814059364,45.10519064306467,1577396455.0,-27.68717952786984,-51.124099275489655,9.944851
102511,1577396455.53,-0.1917989110434925,2.3820846639493616,13.185656877173448,3.4951840528534674,2.6002197932545728,12.80162109136814,-5.291010483457984,-33.29639606844274,16.552459165396343,-1.8922759265434448,3.780085866044208,-3.206392613852896,-8.102603074980944,-9.166066239519816,-1.7093565405868902,-13.576600609756095,-18.9419257931593,1.3866889767530486,9.400526002894953,-30.036329794337608,8.059511408730154,-12.814704161579163,-32.31798345332828,-3.40065863623556,28.26031089945188,38.44391529637284,45.00934495462306,1577396455.0,-27.68717952786984,-51.124099275489655,9.944851
102512,1577396455.54,-0.7771812169516958,-0.5663746805330602,13.423879942358994,-1.6188306932402816,1.6952115657155105,11.943299796202124,1.1027050499892814,33.37613466275843,0.6393978311678268,-16.967959520293444,0.2247880144817073,-4.839083043540397,1.4036225109565548,3.575022627667683,-3.6624815405868905,10.7611679449314,-15.1882636837843,-9.58438035918445,9.318065248483594,-30.127625629578755,8.148077468166749,-12.843598646723647,-34.22352493052924,-24.31470924908425,28.092580944679067,38.44391529637284,45.03330637673346,1577396455.0,-27.68717952786984,-51.124099275489655,9.944851
102513,1577396455.55,2.282608504727992,-2.7762228128572786,10.416762657202744,2.053874653439405,-1.570479498737614,3.3445245337509526,-6.3109403906845465,-47.465281493247424,6.329218076529155,-12.756533739043444,-4.535954173018292,-3.282686559165396,4.928402784394055,-0.193898270769817,-2.8995420874618905,-14.766786156631095,30.4355156130907,12.28146436737805,9.48298675730631,-28.849483936202684,8.325209587039938,-12.641337250712253,-34.75707654414551,-25.84500563539025,28.23634947734148,38.635606673256056,45.10519064306467,1577396455.0,-27.68717952786984,-51.124099275489655,9.944851
102514,1577396455.56,0.1445864222084593,6.240340639291159,10.069603416480088,-1.0250686815215313,2.1788403010670723,10.606138169004858,3.7997732201552967,-10.06306315828649,13.346623142447124,18.09673774533156,14.384944264481708,-3.313204137290396,-4.165835496855945,-9.227101395769816,-2.7164366187118905,-2.956483422256097,-2.2793281369092986,-32.18264696074695,8.823300722015436,-28.119117254273505,7.97094534929356,-13.045860042735043,-36.1290664077302,-26.185071499013805,28.428040854224697,38.49183814059364,45.24895917572708,1577396455.0,-27.68717952786984,-51.124099275489655,9.944851
