,timestamp,acc_x_dashboard,acc_y_dashboard,acc_z_dashboard,acc_x_above_suspension,acc_y_above_suspension,acc_z_above_suspension,acc_x_below_suspension,acc_y_below_suspension,acc_z_below_suspension,gyro_x_dashboard,gyro_y_dashboard,gyro_z_dashboard,gyro_x_above_suspension,gyro_y_above_suspension,gyro_z_above_suspension,gyro_x_below_suspension,gyro_y_below_suspension,gyro_z_below_suspension,mag_x_dashboard,mag_y_dashboard,mag_z_dashboard,mag_x_above_suspension,mag_y_above_suspension,mag_z_above_suspension,temp_dashboard,temp_above_suspension,temp_below_suspension,timestamp_gps,latitude,longitude,speed
94526,1577396375.68,-1.951034932861328,3.772423845825196,12.028050155334473,0.5975576972775337,4.69573019751572,9.14678466439596,3.073185850016275,8.138290476481119,14.696407857259118,3.4427642822265625,-5.393028259277344,1.953887939453125,-2.542263124047256,1.0050331673971036,0.3526268935785062,-1.1885506766183034,-0.3567650204613095,23.849124000186013,-6.50405453921079,-19.938658997252745,-3.2840144230769246,30.646269821187605,-3.5061366722581666,-113.41944444444444,30.92002875370653,37.91676400994399,37.53338125617755,1577396375.0,-27.683996622850792,-51.12534524846964,9.068698
94527,1577396375.69,1.4331691137695313,-0.990840357055664,8.056069601135253,4.485741193371283,-2.055918484124904,12.630348079923303,0.0253671366373694,16.427016623942055,4.70779853108724,-3.8967132568359375,-3.653526306152344,1.923370361328125,-3.000026795922256,-4.732271520102897,5.082851502953506,-1.2801034109933034,-2.8592064267113093,-5.997067406063988,-5.460193934152267,-20.03360499247776,-2.6454560630341843,33.73974710413857,-2.8538321750938573,-8.724572649572671,31.15964297481056,37.91676400994399,37.24584419085272,1577396375.0,-27.683996622850792,-51.12534524846964,9.068698
94528,1577396375.7,-0.6438008264160155,2.38378688293457,6.791931124572753,-2.139014800281059,-4.4249810268495136,8.701463155606897,-0.5444528584798176,-9.116720888264974,4.615621767171223,-1.4705657958984375,-4.324913024902344,4.181671142578125,-0.3602562881097561,-3.0843223013528966,2.702480409203506,0.7035391671316966,-35.19258045014881,-9.445553734188987,-6.825242417690333,-18.41952307365253,-2.9191239316239352,33.73974710413857,-3.5061366722581666,-87.66118233618238,30.92002875370653,37.9886482762752,37.53338125617755,1577396375.0,-27.683996622850792,-51.12534524846964,9.068698
94529,1577396375.71,-0.8497021691894531,4.339849639282226,13.809336190490722,-0.9778269951052776,3.6877712985899382,13.73646924691549,-5.091041811116536,2.8566816141764324,23.31553383382161,6.7691802978515625,-4.904747009277344,3.815460205078125,-1.840358827172256,-10.378023473227897,6.089931581078506,-1.0359627859933034,-19.79646228608631,8.346194312686013,-6.825242417690333,-18.41952307365253,-2.9191239316239352,30.646269821187605,-6.115354660915408,-81.84480056980057,30.92002875370653,37.9646868541648,37.43753556773595,1577396375.0,-27.683996622850792,-51.12534524846964,9.068698
94530,1577396375.72,-0.0667982263183583,3.722145610961914,15.006437020568846,3.3484954047970645,6.709253793707126,5.675192257169398,-6.08463550008138,0.1081381083170566,14.89273239339193,4.8770904541015625,-1.6393661499023438,2.899932861328125,0.478977110327744,-2.931734410727896,3.099208924828506,-2.1956307547433034,1.5963599795386905,7.156008765811012,-6.825242417690333,-18.41952307365253,-2.9191239316239352,32.19300846266308,-7.746115903826182,-7.8936609686609795,30.92002875370653,37.772995477281576,37.43753556773595,1577396375.0,-27.683996622850792,-51.12534524846964,9.068698
94531,1577396375.73,-0.955047042236328,1.1100715997314452,14.810112484436036,0.3150419013790966,-0.8300872341249045,7.914967910245569,3.0253018168131502,6.892108512369791,8.260793794759115,-5.8956146240234375,-2.615928649902344,1.526641845703125,-0.8180199599847562,-6.120821324790397,3.251796815453506,-3.721509660993304,9.95817638578869,7.400149390811013,-5.058709086052835,-19.36898302590267,-3.1015691773504264,31.03295448155648,-7.583039779535106,-7.062749287749304,30.872105909485725,37.84487974361279,37.46149698984635,1577396375.0,-27.683996622850792,-51.12534524846964,9.068698
94532,1577396375.74,-0.1936909143066405,-1.7653645941162108,5.32548260772705,-4.114231169909965,-0.054365896234279,5.830815365079554,-5.122166432698568,-8.731254420979818,7.078058174641927,-11.831283569335938,-7.086753845214844,1.587677001953125,-4.159694764672256,-0.2767051138528963,1.0545311904535062,-2.5618416922433034,-9.84773181733631,-5.783444359188988,-6.343460599971017,-18.79930705455259,-2.189342948717949,31.03295448155648,-2.8538321750938573,-100.12485754985757,31.135681552700152,38.0605325426064,37.38961272351514,1577396375.0,-27.683996622850792,-51.12534524846964,9.068698
94533,1577396375.75,1.0321403356933594,0.427724126586914,8.501391109924315,-3.527651763171684,2.430815427007907,13.109188411954552,-1.8516869649251293,0.6731697001139316,14.047579207356774,-4.6749114990234375,-4.752159118652344,2.228546142578125,-5.777126405297256,5.552152308022103,1.2986718154535062,-3.4468514578683034,0.8944556826636905,3.799075172061012,-6.50405453921079,-18.039739092752487,-1.4595619658119638,31.03295448155648,-3.179984423676012,-114.25035612535616,31.111720130589752,37.91676400994399,37.43753556773595,1577396375.0,-27.683996622850792,-51.12534524846964,9.068698
94534,1577396375.76,1.1063605871582032,-0.0295683905029287,11.367250497131346,0.4634824043087837,1.1451291355040012,14.605564449552208,-0.2715138692220046,6.562905784098307,11.071586543782557,0.7572174072265625,0.4663467407226562,2.442169189453125,-5.044704530297256,-0.2156699576028963,1.7869530654535062,-3.1721932547433034,10.81266857328869,-2.029782249813988,-6.50405453921079,-18.039739092752487,-1.4595619658119638,31.03295448155648,-3.179984423676012,-106.77215099715102,31.20756581903136,37.62922694461916,37.58130410039836,1577396375.0,-27.683996622850792,-51.12534524846964,9.068698
94535,1577396375.77,0.5078101721191407,2.756085241088867,10.075578701477047,4.464193378429877,4.042113144293063,5.14367948861471,0.5353320902506506,-1.6204754903157546,3.0917124104817706,3.6106109619140634,0.4663467407226561,2.304840087890625,-2.084499452172256,0.0895058236471036,4.503017518578506,-4.057203020368304,20.91398693266369,6.209963843936012,-5.379896964532381,-20.508334968602824,-1.4595619658119638,31.03295448155648,-3.5061366722581666,-103.44850427350433,31.01587444214814,37.91676400994399,37.341689879294336,1577396375.0,-27.683996622850792,-51.12534524846964,9.068698
94536,1577396375.78,0.0193930334472656,-4.688684821166992,6.186198104553222,-2.93628395311309,-1.6345389919374038,5.369931545499476,-1.5643827657063796,5.7285265055338535,8.616332741292318,-12.304306030273438,-1.7004013061523438,2.075958251953125,-1.855617616234756,-1.9399131216653964,-0.0135840439214938,-2.3024422781808034,4.22087169828869,-2.731686546688988,-5.540490903772153,-20.3184429781528,-1.094671474358975,30.93628331646426,-2.813063144021087,-5.1931980056980285,31.20756581903136,38.0126096983856,37.341689879294336,1577396375.0,-27.683996622850792,-51.12534524846964,9.068698
94537,1577396375.79,1.0656591589355469,1.1603498345947263,7.368933724670409,3.449051874523627,0.8195177097227513,13.73646924691549,-3.1062486348470046,-8.855752907307943,0.8004614217122392,-4.3392181396484375,-0.4186630249023437,1.282501220703125,-4.983669374047256,-3.511568395102896,2.031093690453506,-2.1345955984933034,-19.61335681733631,3.463381812686012,-5.540490903772153,-20.3184429781528,-1.094671474358975,22.33254962325688,-3.4245986101126284,-4.985470085470089,31.063797286368946,37.91676400994399,37.38961272351514,1577396375.0,-27.683996622850792,-51.12534524846964,9.068698
94538,1577396375.8,-0.1793257043457021,0.264918413696289,10.232398910217285,-2.4143479911990275,0.165900656500095,4.612166720060023,-0.4510789937337233,18.62489374796549,8.232063374837239,-3.057479858398437,0.6799697875976562,0.580596923828125,7.223361875952744,-14.314791051352897,4.472499940453506,2.4735586983816966,-30.72175525483631,3.982180640811012,-5.540490903772153,-20.3184429781528,-1.094671474358975,22.33254962325688,-2.772294112948318,-3.323646723646737,31.111720130589752,38.10845538682721,37.43753556773595,1577396375.0,-27.683996622850792,-51.12534524846964,9.068698
94539,1577396375.81,0.0086191259765625,1.4093468072509767,7.234858431701659,-2.040852532214653,2.97190500220322,0.5946963343178353,-0.1877168111165358,1.6404271708170566,3.7357526570638018,1.6422271728515625,-0.967979431152344,1.145172119140625,-10.293727967797256,-2.077242223227896,-0.8680762314214938,1.4664786202566966,-58.00447009858631,-7.309323265438988,-4.978412116432949,-18.324577078427524,-2.8279013087606826,24.6526575854701,-3.4245986101126284,-6.647293447293474,31.20756581903136,37.9646868541648,37.43753556773595,1577396375.0,-27.683996622850792,-51.12534524846964,9.068698
94540,1577396375.82,-0.3924096520996083,-0.2282871282958984,10.495761092834472,1.1159023567013622,-0.4039193386170919,7.72223467660299,-3.1146283406575512,-2.9564400166829405,14.860410670979816,1.3065338134765625,-2.158164978027344,2.503204345703125,-4.007106874047256,-4.427095738852896,3.282314393578506,-0.8223397391183034,-34.70429920014881,13.198489234561013,-6.6646484784505615,-21.267902930402933,-2.736678685897437,27.649463703328856,-2.568448957584472,-7.685933048433073,31.063797286368946,37.9886482762752,37.46149698984635,1577396375.0,-27.683996622850792,-51.12534524846964,9.068698
94541,1577396375.83,-0.1553836877441396,-1.8443732489013671,9.509350008850095,-2.622643535632621,-0.4302555568788102,13.003843538907676,5.048402219645182,8.7631771097819,23.18145854085286,-3.454208374023437,-3.745079040527344,1.587677001953125,0.234836485327744,8.878568323647103,1.2681542373285062,-0.4561288016183034,15.02409435453869,2.761477515811012,-6.6646484784505615,-21.267902930402933,-2.736678685897437,31.419639141925344,-3.5061366722581666,-8.724572649572671,30.872105909485725,37.9646868541648,37.43753556773595,1577396375.0,-27.683996622850792,-51.12534524846964,9.068698
94542,1577396375.84,0.8358157995605469,-0.989643256225586,10.96981302154541,2.785858014660346,-2.709535537347561,15.955894185880334,-4.403905934651692,-5.309940248616536,18.90302017415364,-3.484725952148437,-1.7919540405273438,1.190948486328125,3.866428282202744,-8.638521520102897,5.021816346703506,-4.850660051618304,60.67839122953869,2.029055640811012,-6.6646484784505615,-21.267902930402933,-2.736678685897437,30.646269821187605,-2.2015276779295467,-101.78668091168092,31.063797286368946,38.0605325426064,37.38961272351514,1577396375.0,-27.683996622850792,-51.12534524846964,9.068698
94543,1577396375.85,-1.004128176269531,-0.6484695196533203,11.848485030822753,-0.5528562004275438,0.017460153570408,8.623651601651819,1.3673171671549476,8.12631946818034,15.648103017171229,-2.157211303710937,-3.531455993652344,1.602935791015625,2.050632383765244,-3.0232871451028966,1.6648827529535062,-1.6920907156808034,93.83573986235118,-6.698971702938987,-6.182866660731245,-19.179091035452643,-1.8244524572649532,30.646269821187605,-2.527679926511702,-104.27941595441597,31.063797286368946,37.82091832150238,37.29376703507353,1577396375.0,-27.683996622850792,-51.12534524846964,9.068698
94544,1577396375.86,0.1462857214355468,-0.3743334295654296,10.988966634826658,3.915921198254096,3.7715683566954072,14.026167647794397,0.7939058695475256,-8.489440053304037,0.5035804158528643,2.0389556884765625,-2.982139587402344,1.740264892578125,-4.312282655297256,-6.166597691977897,-0.1356543564214938,-2.6533944266183034,72.09196544828869,-13.656979515438987,-5.8616787822516985,-18.79930705455259,-1.4595619658119638,30.646269821187605,-3.5061366722581666,-115.08126780626785,31.20756581903136,37.772995477281576,37.341689879294336,1577396375.0,-27.683996622850792,-51.12534524846964,9.068698
94545,1577396375.87,-0.8568847741699218,6.259999370727539,13.095864095764158,-1.6841164848513714,1.940004086675876,12.048557076505334,-4.557134840901692,-11.242771962483722,-3.1810959391276032,2.4662017822265625,-0.6628036499023438,0.458526611328125,-1.321559999047256,-0.7649863638528964,3.465419862328506,-2.9890877859933034,30.58805919828869,4.195803687686012,-5.540490903772153,-20.3184429781528,-2.9191239316239352,31.419639141925344,-4.810745666586787,-106.77215099715102,31.20756581903136,37.9646868541648,37.341689879294336,1577396375.0,-27.683996622850792,-51.12534524846964,9.068698
94546,1577396375.88,0.1438915197753906,1.960013189086914,8.87488656890869,-2.658556560534965,-0.322516482171779,11.038203975919396,-1.806197133382161,3.869428916422526,1.7054696492513015,-2.843856811523437,-1.1816024780273438,1.068878173828125,-0.4365502334222559,-3.725191441977896,1.0240136123285062,6.562914167131696,-6.155104864211309,6.850832984561012,-5.540490903772153,-20.3184429781528,-2.9191239316239352,30.646269821187605,-4.810745666586787,-95.13938746438748,31.111720130589752,38.15637823104801,37.43753556773595,1577396375.0,-27.683996622850792,-51.12534524846964,9.068698
94547,1577396375.89,1.853351505126953,-1.1309011541748046,6.85178616607666,3.3999707404904247,-0.8396640407655298,10.252905831388146,-4.627763789876301,4.108849082438151,9.468668532307944,-7.879257202148437,-0.5102157592773438,0.916290283203125,-2.282863709984756,7.627347620522103,3.419643495141006,-0.2119881766183033,-18.65205310639881,3.188723609561012,-4.978412116432949,-17.565009116627422,-3.010346554487181,32.19300846266309,-5.9522785366243305,-91.81574074074076,31.039835864258546,37.91676400994399,37.50941983406716,1577396375.0,-27.683996622850792,-51.12534524846964,9.068698
94548,1577396375.9,1.537316885986328,0.3558980767822265,8.487025899963378,-2.45744362108184,-1.6273563869569352,11.481131283048304,0.3581611673990881,-7.445568129475911,12.637394429524743,0.5130767822265625,3.243446350097656,1.465606689453125,1.425022032202744,-1.5889609732278964,3.007656190453506,-2.1651131766183034,1.9015357607886905,4.012698218936012,-4.576927268333519,-19.55887501635269,-2.1893429487179423,33.15972011358526,-6.033816598769869,-88.07663817663818,31.01587444214814,38.0605325426064,37.341689879294336,1577396375.0,-27.683996622850792,-51.12534524846964,9.068698
94549,1577396375.91,1.228464871826172,-1.7342399725341795,11.44147074859619,1.9861946601681588,3.0341542453672825,10.092494320157678,1.3469664530436194,-0.1240994527180986,19.13286353352865,6.3724517822265625,4.006385803222656,2.655792236328125,-2.511745545922256,14.646390589272103,0.0169335342035061,6.013597760881696,22.92814708891369,11.214846656436013,-5.8616787822516985,-19.179091035452643,-0.7297809829059857,32.96637778340082,-4.158441169422477,-84.33753561253562,31.20756581903136,38.0605325426064,37.341689879294336,1577396375.0,-27.683996622850792,-51.12534524846964,9.068698
94550,1577396375.92,-0.6617573388671875,0.867060131225586,14.76701685455322,1.9287338203244089,-0.8636060573670915,17.121870394376426,-2.421506960042317,11.641007505289714,15.314111885579427,1.8711090087890625,4.204750061035156,1.175689697265625,-0.863796327172256,-4.671236363852897,2.366787049828506,-1.7989022391183034,42.52043224516369,-2.182370140438988,-5.540490903772154,-20.128550987702774,-2.006897702991455,32.96637778340082,-4.158441169422477,-84.33753561253562,31.063797286368946,37.9646868541648,37.10207565819032,1577396375.0,-27.683996622850792,-51.12534524846964,9.068698
94551,1577396375.93,0.8693346228027343,-0.817260736694336,9.585964461975095,-0.102746288318169,0.6794569126036106,8.332756099942836,-0.1039197530110676,2.71781791788737,3.6830802205403663,-4.0340423583984375,4.220008850097656,0.428009033203125,1.3182105087652438,7.383206995522103,1.7259179092035062,0.7035391671316967,23.75212169828869,-7.248288109188988,-6.182866660731244,-21.078010939952904,-3.2840144230769246,31.12962564664869,-5.259205008387251,-87.86891025641029,31.20756581903136,37.84487974361278,37.31772845718393,1577396375.0,-27.683996622850792,-51.12534524846964,9.068698
94552,1577396375.94,-2.676478035888672,2.65912007385254,9.760741183166504,-3.503709746570121,6.350123544683689,6.802861239102992,1.8617198099772128,-1.9628463277180983,0.1707863850911455,-2.416610717773437,3.701210021972656,1.679229736328125,1.394504454077744,-10.591646520102897,0.6578026748285062,2.5345938546316966,-35.08576892671131,-9.811764671688987,-6.182866660731244,-19.938658997252745,-1.824452457264953,25.23268457602341,-6.767659158079718,-101.78668091168092,31.063797286368946,37.91676400994399,37.38961272351514,1577396375.0,-27.683996622850792,-51.12534524846964,9.068698
94553,1577396375.95,-0.7874529260253905,2.762070745239258,7.546104647521972,0.1833608100705025,-2.5610950344178733,4.274584285977992,-3.0870950215657547,-19.490796681722003,5.20579247639974,-2.813339233398437,0.3137588500976562,-0.090789794921875,4.629367735327744,12.815335901772103,2.275234315453506,-0.7002694266183034,-42.80671619233631,10.757082984561013,-6.02227272149147,-20.88811894950288,-2.736678685897437,26.392738557130023,-6.767659158079718,-101.78668091168092,31.063797286368946,37.91676400994399,37.58130410039836,1577396375.0,-27.683996622850792,-51.12534524846964,9.068698
94554,1577396375.96,0.530555087890625,-1.833599341430664,5.533778152160644,-3.18528092576934,-3.638485781488186,12.438811947110803,-5.560305336507161,8.59079459025065,20.701065620930983,-0.8602142333984373,2.739906311035156,2.289581298828125,-4.525905702172256,-7.692476598227897,1.5733300185785062,-0.5781991141183034,-6.643386114211309,24.459475562686013,-6.744945448070448,-21.552740916077973,-3.740127537393159,27.746134868421063,-5.870740474478792,-88.90754985754987,31.063797286368946,37.91676400994399,37.43753556773595,1577396375.0,-27.683996622850792,-51.12534524846964,9.068698
94555,1577396375.97,-0.897586202392578,1.8187552911376952,18.628864132385253,3.775860401134957,3.522571384039158,12.710553835538535,1.445128721110026,9.518547733561196,14.108631349690755,9.943008422851562,2.205848693847656,2.136993408203125,1.1198462509527438,4.926541956459603,2.580410096703506,-0.9901864188058034,25.68998790922619,5.477541968936013,-6.6646484784505615,-20.508334968602828,-3.831350160256404,30.83961215137204,-3.4245986101126284,-98.4630341880342,31.20756581903136,37.89280258783359,37.173959924521526,1577396375.0,-27.683996622850792,-51.12534524846964,9.068698
94556,1577396375.98,-1.6996437585449218,-1.5235502264404297,13.024038045959472,-6.826861650866997,-5.855516518792872,3.292961605313929,-5.093436012776692,9.36412172648112,6.017426839192709,2.2525787353515625,2.114295959472656,1.984405517578125,15.341037657202744,-16.176363316977895,1.1460839248285062,2.4125235421316966,23.90470958891369,-15.854245140438987,-6.343460599971016,-18.98919904500261,-3.831350160256404,33.15972011358526,-2.772294112948318,-101.3712250712251,31.01587444214814,37.772995477281576,37.38961272351514,1577396375.0,-27.683996622850792,-51.12534524846964,9.068698
94557,1577396375.99,-2.075533419189453,-5.660730695190429,16.16762482574463,-3.20443453905059,-0.6840409328553727,13.255234713224084,2.218455857340494,-7.009823427327474,2.4452779622395826,-0.7381439208984375,-0.8459091186523438,3.571319580078125,-5.075222108422256,24.930814417397105,-1.6310156845464938,3.6942618233816966,-11.49568103608631,-16.678219749813987,-4.898115146813063,-21.83757890175301,-2.9191239316239352,32.19300846266308,-3.179984423676012,-2.0772792022792146,31.111720130589752,37.86884116572318,37.53338125617755,1577396375.0,-27.683996622850792,-51.12534524846964,9.068698
94558,1577396376.0,-1.5428235498046874,3.785591954956055,11.52526780670166,3.8656429633908154,2.76121525610947,16.28868821664205,-2.9147125020345044,-7.1079856953938805,-4.488330045572916,0.1010894775390626,-0.3881454467773437,1.404571533203125,-3.701931092797256,-7.845064488852897,2.061611268578506,3.2975333077566966,-63.49763416108631,-4.135495140438988,-5.781381812631812,-20.983064944727893,-2.827901308760686,32.19300846266308,-3.179984423676012,-2.0772792022792146,31.01587444214814,38.0605325426064,37.24584419085272,1577396376.0,-27.68406607696756,-51.12529994853794,8.919849
94559,1577396376.01,0.3641580725097655,1.82833209777832,6.80629633453369,-2.548423284167778,1.5305956027891576,0.6593397791420548,-0.9275251241048176,-0.3144384847005209,4.808355000813801,-0.0057220458984375,-3.195762634277344,2.594757080078125,4.598850157202744,-3.0995810904153966,3.358608338891006,5.449022565569196,-89.13239978608632,14.571780250186013,-5.219303025292609,-21.078010939952904,-4.378685897435892,31.419639141925344,-4.321517293713555,-2.908190883190899,31.111720130589752,37.9646868541648,37.413574145625546,1577396376.0,-27.68406607696756,-51.12529994853794,8.919849
94560,1577396376.02,-0.9526528405761716,0.236187993774414,7.333020699768065,-0.635456157702934,-2.051130080804592,6.841168465665492,0.4251988138834631,6.972314267985025,20.351512178548173,0.7572174072265625,-2.768516540527344,3.052520751953125,0.326389219702744,2.652982386147104,2.214199159203506,1.7716544015066966,-55.44099353608631,22.872561500186013,-5.540490903772153,-19.938658997252745,-2.9191239316239352,30.646269821187605,-2.8538321750938573,-0.4154558404558628,31.01587444214814,37.725072633060776,37.341689879294336,1577396376.0,-27.68406607696756,-51.12529994853794,8.919849
94561,1577396376.03,1.3266271398925782,-2.957677020874023,3.935648544006346,-1.5787716118044963,-4.660809890374905,5.991226876310023,-0.2930616841634108,3.15835102335612,25.76719633382161,-3.179550170898437,-3.256797790527344,3.052520751953125,1.974338438452744,-0.5513633169778964,3.984218690453506,1.2833731515066966,-4.934401739211309,-1.846676781063988,-6.6646484784505615,-20.88811894950288,-4.196240651709401,26.77942321749889,-3.3430605479670894,-8.724572649572671,31.20756581903136,37.772995477281576,37.43753556773595,1577396376.0,-27.68406607696756,-51.12529994853794,8.919849
94562,1577396376.04,1.2931083166503905,1.0250774407958985,9.53927752960205,3.984155945568549,0.8386713230040018,13.342623073819787,-0.7850701253255208,4.4679793314615885,19.03589836629232,3.0612945556640625,0.0085830688476562,2.976226806640625,-5.807643983422256,-2.4434531607278966,3.175502870141006,-2.7907235281808034,65.51542736235119,3.051394507998512,-5.8616787822516985,-21.078010939952904,-3.466459668803419,27.359450208052195,-3.016908299384934,-55.2556267806268,31.20756581903136,37.9646868541648,37.43753556773595,1577396376.0,-27.68406607696756,-51.12529994853794,8.919849
94563,1577396376.05,0.8908824377441407,0.542645806274414,10.615471175842284,-2.8117854667849653,9.47216250952744,13.825054708341272,-3.908306190999349,10.81261373087565,7.714915816243489,2.3746490478515625,0.7715225219726562,2.930450439453125,0.753635313452744,9.977201136147103,4.533535096703506,-0.1204354422433033,73.19059826078869,-18.997555687313987,-4.73752120757329,-21.267902930402933,-2.736678685897437,31.80632380229421,-2.2015276779295467,-114.25035612535616,31.20756581903136,37.9646868541648,37.341689879294336,1577396376.0,-27.68406607696756,-51.12529994853794,8.919849
94564,1577396376.06,0.8286331945800781,2.1180304986572263,11.070369491271972,2.216038019543159,-1.7374896633241226,16.25277519173971,0.6933493998209632,-3.8470830342610673,-7.363766239420572,-3.026962280273437,2.327919006347656,1.648712158203125,-2.511745545922256,21.268705042397105,3.373867127953506,-1.1275155203683034,18.80827404203869,-15.488034202938987,-4.0951454506142,-20.128550987702774,-3.831350160256404,31.419639141925344,-3.5061366722581666,-114.25035612535616,31.20756581903136,37.91676400994399,37.58130410039836,1577396376.0,-27.68406607696756,-51.12529994853794,8.919849
94565,1577396376.07,-0.5336675500488276,1.1256339105224609,10.486184286193849,3.652559015636908,2.1171750095274384,8.38782273812643,-4.554740639241536,-16.82365603230794,-4.837883487955728,-3.347396850585937,3.685951232910156,2.213287353515625,-1.931911561547256,-16.267916051352895,2.794033143578506,0.9171622140066966,-23.97737048921131,3.921145484561012,-5.058709086052835,-19.36898302590267,-3.831350160256404,31.61298147210978,-2.119989615784008,-111.34216524216524,31.01587444214814,37.91676400994399,37.341689879294336,1577396376.0,-27.68406607696756,-51.12529994853794,8.919849
94566,1577396376.08,-0.5312733483886708,-2.562633746948242,6.0305749966430655,-2.775872441882622,-2.1205619289491238,9.001935463956507,-0.3960123555501301,6.779581034342447,14.13616466878255,-2.965927124023437,1.7175674438476562,2.777862548828125,7.665866758765244,8.558133753334603,1.7716942763910062,1.4207022530691966,-17.26350330171131,16.112917945498513,-4.898115146813063,-20.698226959052853,-1.4595619658119638,31.032954481556477,-5.870740474478792,-105.11032763532764,31.20756581903136,37.84487974361278,37.341689879294336,1577396376.0,-27.68406607696756,-51.12529994853794,8.919849
94567,1577396376.09,0.2731784094238281,-0.5706579656982421,8.539698336486815,0.6789605537228461,2.1171750095274384,3.70715849252096,2.577586106363932,-19.97921382039388,23.75846114095052,0.8182525634765625,3.579139709472656,2.838897705078125,-11.361843202172256,0.4862343392721036,-0.0441016220464938,-2.4702889578683034,51.85881115141369,18.203372047061013,-4.898115146813063,-21.45779492085296,-2.9191239316239352,31.419639141925344,-4.810745666586787,-98.4630341880342,30.92002875370653,37.725072633060776,37.341689879294336,1577396376.0,-27.68406607696756,-51.12529994853794,8.919849
94568,1577396376.1,0.7280767248535156,2.0893000787353517,13.124594515686034,3.777057501965033,0.146747043218845,11.335084981778772,2.486606443277994,14.997678232828775,18.3691132039388,8.630752563476562,4.403114318847656,3.357696533203125,-3.824001405297256,3.354886683022104,1.7564354873285062,-4.637037004743304,97.66569591703868,16.158694312686013,-5.3798969645323815,-20.508334968602828,-2.371788194444441,30.646269821187605,-6.115354660915408,-8.724572649572671,31.01587444214814,37.91676400994399,37.24584419085272,1577396376.0,-27.68406607696756,-51.12529994853794,8.919849
94569,1577396376.11,2.2280440649414057,-0.1540668768310542,9.793062905578612,-4.12380797655059,3.927191464605564,7.7653303064858035,-2.1198375508626297,23.08289723917643,9.314242525227863,0.0095367431640625,6.630897521972656,2.014923095703125,-0.2534447646722559,-2.138277379477896,4.899746034203506,-0.4561288016183034,109.32341076078868,-16.952877952938987,-4.576927268333519,-20.698226959052853,-2.1893429487179423,33.73974710413857,-4.158441169422477,-88.49209401709405,31.01587444214814,37.725072633060776,37.43753556773595,1577396376.0,-27.68406607696756,-51.12529994853794,8.919849
94570,1577396376.12,0.9172186560058594,0.0231040460205078,11.530056210021971,2.3153973884396426,-1.3651913051698266,14.172213949063927,-0.1541979878743488,-11.592325404866536,-14.59904365641276,-2.202987670898437,9.255409240722656,1.557159423828125,-0.4518090224847561,16.813138636147105,2.488857362328506,1.5580313546316966,11.72819591703869,-28.58007521856399,-5.058709086052835,-18.98919904500261,-2.371788194444441,33.83641826923079,-5.6668953191149445,-87.45345441595441,30.92002875370653,37.94072543205439,37.29376703507353,1577396376.0,-27.68406607696756,-51.12529994853794,8.919849
94571,1577396376.13,1.228464871826172,4.627153838500977,8.305066573791503,-1.5428585869021527,4.061266757574313,4.638502938321742,-4.133361147054036,-13.534022951253254,-10.540871842447912,-2.111434936523437,11.574745178222656,1.740264892578125,1.516574766577744,1.7984901986471036,3.892665956078506,2.9923575265066966,-144.2776634579613,21.163577125186013,-4.416333329093746,-22.02747089220304,-4.56113114316239,31.03295448155648,-8.724572649572648,-5.400925925925935,31.111720130589752,37.91676400994399,37.38961272351514,1577396376.0,-27.68406607696756,-51.12529994853794,8.919849
94572,1577396376.14,-2.8775909753417968,2.625601250610352,3.2030228359985338,-6.661661736316216,1.2815986301329074,10.025456673673302,-0.6737397481282545,-0.9692526387532548,4.339091475423177,0.0858306884765625,11.696815490722656,0.885772705078125,4.141086485327744,5.002835901772103,2.671962831078506,4.762377057756696,-181.6616966610863,26.931399390811013,-3.45276969365511,-20.88811894950288,-3.466459668803416,30.646269821187605,-8.07226815240834,-5.400925925925935,31.063797286368946,38.0605325426064,37.38961272351514,1577396376.0,-27.68406607696756,-51.12529994853794,8.919849
94573,1577396376.15,-3.185245888671875,1.317170043334961,9.530897823791502,0.1522361884884712,0.1539296481993137,10.774841793302208,-0.2715138692220046,11.645795908610026,21.084137886555983,-2.904891967773437,4.830360412597656,1.847076416015625,-3.183132264672256,14.707425745522103,2.671962831078506,1.4969961983816966,-144.7049095517113,20.766848609561013,-3.2921757544153376,-20.3184429781528,-3.6489049145299135,30.646269821187605,-8.07226815240834,-5.400925925925935,31.20756581903136,37.725072633060776,37.38961272351514,1577396376.0,-27.68406607696756,-51.12529994853794,8.919849
94574,1577396376.16,-1.9151219079589843,-2.2896947576904294,12.638571578674314,0.8884531989865185,-0.5128555141542018,5.13769398446432,0.1103612955729168,5.104836973063149,35.63250427449544,-8.184432983398438,1.0156631469726562,1.740264892578125,-4.541164491234756,-2.4281943716653966,3.694301698266006,-4.179273332868304,0.2841041201636898,16.433352515811013,-5.058709086052835,-20.88811894950288,-3.466459668803416,31.51631030701756,-4.851514697659557,-104.48714387464386,31.063797286368946,38.084493964716806,37.341689879294336,1577396376.0,-27.68406607696756,-51.12529994853794,8.919849
94575,1577396376.17,0.7520187414550782,-4.9712006170654295,10.390416219787596,-4.554764275378715,-1.46455067406631,13.19298547006002,2.544067283121744,13.484542783610026,26.80149145100911,-8.275985717773438,0.1306533813476562,2.289581298828125,-0.3449974990472559,-0.1241172232278963,1.2986718154535062,-0.7918221609933034,110.54411388578868,-28.885250999813987,-5.540490903772153,-20.698226959052853,-3.2840144230769246,32.38635079284752,-3.261522485821551,-93.89301994301997,31.111720130589752,37.91676400994399,37.43753556773595,1577396376.0,-27.68406607696756,-51.12529994853794,8.919849
94576,1577396376.18,-0.0500388146972646,0.427724126586914,11.60188225982666,2.0388670966915963,1.8466302219297823,16.310236031583457,7.58386177775065,-22.88816883748372,16.9301980061849,0.2994537353515625,1.0766983032226562,2.838897705078125,-5.075222108422256,0.7303749642721036,0.5052147842035062,-8.726392473493304,153.6044166201637,-20.584469749813987,-4.576927268333519,-20.698226959052853,-4.743576388888881,31.80632380229421,-6.767659158079718,-93.47756410256412,31.01587444214814,37.9646868541648,37.24584419085272,1577396376.0,-27.68406607696756,-51.12529994853794,8.919849
94577,1577396376.19,-0.5995080957031245,1.2561179010009766,10.731589956359862,-2.962620171374809,0.2508948154356424,10.607247677091271,-5.039566475423177,2.291650022379557,-0.1727815531412758,-0.0209808349609375,1.809120178222656,1.618194580078125,5.850070860327744,-3.4657920279153966,2.595668885766006,-5.964551653180804,117.44108654203868,-1.007443382626488,-4.576927268333519,-21.45779492085296,-2.554233440170939,31.419639141925344,-6.68612109593418,-94.3084757834758,30.89606733159613,37.89280258783359,37.46149698984635,1577396376.0,-27.68406607696756,-51.12529994853794,8.919849
94578,1577396376.2,-0.9239224206542967,1.1579556329345702,7.074446920471191,2.8744434760861277,1.3007522434141574,11.45718926644674,1.928757456461588,3.2206002665201825,-8.359754130045571,-7.940292358398437,2.053260803222656,1.770782470703125,-16.427761170922256,16.111234339272105,1.0240136123285062,-9.336744035993304,35.04362560453869,-0.7785615466889881,-4.73752120757329,-20.508334968602828,-2.736678685897437,31.22629681174091,-6.033816598769869,-1.661823361823385,31.20756581903136,37.91676400994399,37.38961272351514,1577396376.0,-27.68406607696756,-51.12529994853794,8.919849
94579,1577396376.21,-2.1569362756347656,3.410899395141602,8.23084632232666,-2.026487322253715,1.755650558843845,21.385943551114707,-9.031897743733724,-10.998563393147784,3.118048628743489,-6.5975189208984375,3.762245178222656,1.526641845703125,-1.443630311547256,-6.227632848227897,4.136806581078506,-0.7613045828683034,-30.81330798921131,9.200686500186013,-3.773957572134656,-22.02747089220304,-2.736678685897437,31.22629681174091,-6.033816598769869,-1.661823361823385,31.20756581903136,38.0605325426064,37.341689879294336,1577396376.0,-27.68406607696756,-51.12529994853794,8.919849
94580,1577396376.22,-0.648589229736328,-0.1720233892822266,8.949106820373535,-4.734329399890433,4.238437680425876,4.114172774747523,-0.2954558858235671,1.9588559916178376,1.5211161214192703,-0.5397796630859373,3.258705139160156,2.320098876953125,3.103488829077744,2.714017542397104,4.808193299828506,0.4593985421316966,-57.33308337983631,15.365237281436013,-3.372472724035224,-20.983064944727893,-3.010346554487181,30.83961215137204,-6.033816598769869,-7.47820512820515,31.08775870847935,38.10845538682721,37.43753556773595,1577396376.0,-27.68406607696756,-51.12529994853794,8.919849
94581,1577396376.23,-3.0092720666503907,-4.106893817749023,14.25705190093994,-0.0680303642459033,-1.846425838861233,12.55493072762838,3.1426176981608065,3.973576688639323,7.435991322835288,-2.111434936523437,0.9241104125976562,2.747344970703125,-6.097560975609756,0.7303749642721034,1.6801415420160062,3.3127920968191966,-75.49104236421131,-3.219967796688988,-3.2921757544153376,-21.45779492085296,-3.2840144230769246,31.22629681174091,-6.849197220225257,-5.816381766381781,31.20756581903136,37.9646868541648,37.38961272351514,1577396376.0,-27.68406607696756,-51.12529994853794,8.919849
94582,1577396376.24,-2.1832724938964843,2.917693853149414,9.17655597808838,-3.87481100389434,3.5513018039610325,5.837997970060023,-2.2491244405110677,-20.64240768025716,13.401144759114588,-2.111434936523437,0.5884170532226562,2.869415283203125,4.873508360327744,-3.999849645102896,2.885585877953506,0.3983633858816966,-82.47956775483631,0.3811064220610119,-4.576927268333519,-22.217362882653063,-4.743576388888881,32.19300846266308,-8.398420400990494,-5.400925925925935,31.20756581903136,37.91676400994399,37.341689879294336,1577396376.0,-27.68406607696756,-51.12529994853794,8.919849
94583,1577396376.25,-0.5791573815917959,3.262458892211914,11.09670570953369,-0.7144648124880901,-1.7662200832459976,12.33825547738424,1.102757883707682,2.3012268290201816,16.764998091634116,5.5484771728515625,-3.989219665527344,1.648712158203125,-4.861599061547256,15.409330042397103,2.275234315453506,1.1613028390066966,-51.56526111421131,8.987063453311013,-4.576927268333519,-20.698226959052853,-4.378685897435892,55.58743041497977,-3.4245986101126284,-101.3712250712251,31.20756581903136,37.9646868541648,37.38961272351514,1577396376.0,-27.68406607696756,-51.12529994853794,8.919849
94584,1577396376.26,-0.7814674218749998,0.4516661431884766,8.81144022491455,-0.9658559868044964,-3.4158250270936548,17.006948714688928,-2.9530197285970043,13.161325559488931,19.28130403645833,-3.9424896240234375,-0.6933212280273438,2.793121337890625,0.295871641577744,-16.512056676352895,1.4817772842035062,-0.1509530203683033,-25.13703845796131,4.134768531436012,-4.576927268333519,-20.88811894950288,-3.4664596688034197,55.78077274516421,-3.5061366722581666,-105.11032763532766,31.01587444214814,38.0605325426064,37.58130410039836,1577396376.0,-27.68406607696756,-51.12529994853794,8.919849
94585,1577396376.27,0.7184999182128906,2.4699781427001954,7.819043636779784,-1.3800528740115283,1.685021609869236,11.417684939054162,-0.7072585713704426,-6.905675655110676,11.54563847249349,1.9779205322265625,-2.249717712402344,3.113555908203125,2.615207579077744,9.763578089272103,4.564052674828506,-3.0501229422433034,1.6116187686011902,12.389773414248513,-3.934551511374428,-20.3184429781528,-3.6489049145299135,43.21352128317591,-3.5061366722581666,-106.35669515669515,31.01587444214814,37.91676400994399,37.38961272351514,1577396376.0,-27.68406607696756,-51.12529994853794,8.919849
94586,1577396376.28,-2.456211483154297,0.2936488336181641,10.550827731018066,-0.2835085136599652,1.506653586187595,11.483525484708458,-1.6601508321126297,19.793264158121744,16.238273726399743,-0.9822845458984376,-0.9984970092773438,2.686309814453125,-10.171657655297256,-9.462496129477897,2.000576112328506,-1.5242440359933034,29.06218029203869,4.592532203311012,-2.81039393669602,-20.508334968602828,-3.831350160256404,30.646269821187605,-2.8538321750938573,-100.95576923076926,31.063797286368946,37.725072633060776,37.43753556773595,1577396376.0,-27.68406607696756,-51.12529994853794,8.919849
94587,1577396376.29,-1.9630059411621088,-0.5922057806396483,6.360974825744628,-6.0822649345584034,2.208154672613376,6.853139473966273,-7.825220107014974,-5.755261757405599,9.357338155110677,-4.3087005615234375,-1.3036727905273438,1.648712158203125,7.711643125952744,-4.549166051352897,3.007656190453506,-2.3177010672433034,35.62345958891369,0.3811064220610119,-3.934551511374428,-20.3184429781528,-4.013795405982902,33.93308943432301,-4.729207604441249,-94.72393162393163,30.728337376823312,37.91676400994399,37.38961272351514,1577396376.0,-27.68406607696756,-51.12529994853794,8.919849
94588,1577396376.3,-0.1338358728027334,-1.9928137518310547,5.216546432189941,-2.226403160876762,-2.713126839837795,9.999120455411584,1.4283693094889325,7.041746116129557,10.869276503499352,-5.6819915771484375,-1.0290145874023438,2.289581298828125,-5.166774842797256,0.4557167611471069,2.122646424828506,-0.6239754813058034,40.58256603422619,-3.616696312313988,-4.898115146813063,-21.078010939952904,-4.013795405982902,33.83641826923079,-5.177666946241712,-100.74804131054132,31.063797286368946,37.91676400994399,37.36565130140474,1577396376.0,-27.68406607696756,-51.12529994853794,8.919849
94589,1577396376.31,2.3980323828125,2.120424700317383,12.794194686584472,1.804235333996284,9.543988559332126,20.40192666879049,-3.793384511311848,-11.070389442952472,9.345367146809895,5.441665649414063,2.022743225097656,2.457427978515625,2.859348204077744,5.704740198647103,3.740078065453506,-1.7073495047433034,34.31120372953869,-3.555661156063988,-4.496630298713631,-21.742632906527994,-3.010346554487181,33.73974710413857,-5.626126288042175,-106.77215099715102,31.111720130589752,37.91676400994399,37.19792134663192,1577396376.0,-27.68406607696756,-51.12529994853794,8.919849
94590,1577396376.32,2.224452762451172,-0.3958812445068359,8.850944552307128,-1.5476469902224652,-3.681581411370998,9.01989197640768,-3.644944008382161,14.20998588663737,8.923987654622396,3.4732818603515625,3.945350646972656,1.862335205078125,8.108371641577744,7.963040979897103,2.061611268578506,-0.3950936453683034,13.92546154203869,5.324954078311012,-4.0951454506142,-20.128550987702774,-3.1015691773504264,35.67317040598292,-4.810745666586787,-85.1684472934473,31.111720130589752,37.91676400994399,37.341689879294336,1577396376.0,-27.68406607696756,-51.12529994853794,8.919849
94591,1577396376.33,0.8238447912597656,-2.071822406616211,9.511744210510251,-0.8964241386599652,-0.7247423610780289,14.380509493497522,-0.2044762227376296,-3.988340932210286,9.149042610677084,-2.386093139648437,7.851600646972656,2.747344970703125,-0.955349061547256,4.148343714272103,1.9395409560785064,-1.2495858328683034,-11.25154041108631,-2.914792015438988,-4.0951454506142,-20.128550987702774,-3.1015691773504264,31.03295448155648,-7.093811406661874,-81.84480056980057,31.01587444214814,37.772995477281576,37.341689879294336,1577396376.0,-27.68406607696756,-51.12529994853794,8.919849
94592,1577396376.34,0.2875436193847656,2.36463326965332,12.719974435119628,3.0827390205197207,2.811493490972752,9.680691634610804,-4.310532069905598,-13.787808327229817,13.42508677571615,-2.111434936523437,8.004188537597656,1.465606689453125,-1.107936952172256,12.662748011147103,3.740078065453506,-2.7144295828683034,-3.744216192336309,8.132571265811013,-3.45276969365511,-19.748767006802723,-1.6420072115384547,31.03295448155648,-8.398420400990494,-81.84480056980057,30.92002875370653,37.91676400994399,37.38961272351514,1577396376.0,-27.68406607696756,-51.12529994853794,8.919849
94593,1577396376.35,-1.7858350183105467,0.877834038696289,12.07353998687744,-1.893609130115044,1.8717693393614232,11.276427041104943,0.1307120096842449,13.464192069498695,13.824918452962242,1.7185211181640625,5.639076232910156,3.159332275390625,2.279514219702744,4.316190393959603,3.434902284203506,0.6119864327566966,14.15434337797619,11.153811500186013,-4.255739389853973,-20.3184429781528,-3.4664596688034197,33.06304894849305,-6.400737878424794,-46.73878205128207,31.15964297481056,37.91676400994399,37.341689879294336,1577396376.0,-27.68406607696756,-51.12529994853794,8.919849
94594,1577396376.36,-2.686054842529297,-1.5163676214599608,11.886792257385252,3.22399691846894,-2.0008518459413103,11.883357161954551,-3.0416051900227856,-9.04250063680013,9.31663672688802,1.4896392822265625,3.792762756347656,3.022003173828125,2.889865782202744,10.343412073647103,2.732997987328506,-0.3645760672433034,26.25456310453869,-1.175290062313988,-4.576927268333519,-20.698226959052853,-3.6489049145299135,34.51311642487631,-7.909192028117261,-87.66118233618238,31.111720130589752,38.10845538682721,37.341689879294336,1577396376.0,-27.68406607696756,-51.12529994853794,8.919849
94595,1577396376.37,0.3904942907714843,-1.0327388861083984,9.344150094299316,-5.119795867175591,-1.280197146234279,8.27290105843893,-1.9642144429524733,-1.823982631429036,12.42191628011068,-3.149032592773437,2.633094787597656,2.716827392578125,2.401584532202744,-9.706636754477897,4.838710877953506,0.7035391671316966,25.43058849516369,1.968020484561012,-4.576927268333519,-20.698226959052853,-3.6489049145299135,55.78077274516421,-7.419963655244028,-87.66118233618238,31.01587444214814,38.10845538682721,37.43753556773595,1577396376.0,-27.68406607696756,-51.12529994853794,8.919849
94596,1577396376.38,1.3266271398925782,-0.353982715454101,6.782354317932128,-1.2603427910037153,1.0158422458555638,10.616824483731897,-1.1884931050618484,5.174268821207682,9.505778658040365,-2.248764038085937,6.035804748535156,2.533721923828125,1.302951719702744,15.745023401772103,0.2915917373285062,1.0087149483816966,32.60221935453869,-8.133297874813987,-3.131581815175565,-21.078010939952904,-3.831350160256408,55.78077274516421,-7.419963655244028,-87.66118233618238,30.99191302003773,37.772995477281576,37.53338125617755,1577396376.0,-27.68406607696756,-51.12529994853794,8.919849
94597,1577396376.39,2.550064188232421,1.0166977349853514,11.01290865142822,0.9459140388302688,-1.5567274379823266,13.19298547006002,-0.520510841878255,2.402980399576823,8.003417116292317,2.9239654541015625,6.386756896972656,4.792022705078125,4.858249571265244,4.880765589272103,3.923183534203506,0.0626700265066966,15.13090587797619,5.996340797061013,-3.613363632894883,-21.078010939952904,-2.9191239316239352,43.21352128317591,-7.9091920281172605,-89.73846153846156,31.063797286368946,37.89280258783359,37.341689879294336,1577396376.0,-27.68406607696756,-51.12529994853794,8.919849
94598,1577396376.4,1.3409923498535157,6.856155584106445,13.634559469299315,4.835294635754096,6.153799008550877,13.765199666837365,-2.076741920979817,0.4265669291178379,14.4402282796224,9.546279907226562,18.776893615722656,5.066680908203125,-1.230007264672256,14.310697229897103,6.120449159203506,-0.8528573172433034,3.0612037295386907,-2.762204124813988,-3.613363632894883,-21.078010939952904,-2.9191239316239352,30.646269821187605,-7.419963655244028,-4.570014245014259,30.92002875370653,37.772995477281576,37.341689879294336,1577396376.0,-27.68406607696756,-51.12529994853794,8.919849
94599,1577396376.41,-0.1098938562011709,1.1483788262939452,13.500484176330565,-0.3505461601443402,3.405255502691501,10.674285323575646,0.6957436014811195,-16.83802124226888,16.09222742513021,0.0858306884765625,11.361122131347656,3.693389892578125,6.124729063452744,5.033353479897103,8.531337831078506,-1.890454973493304,16.15324474516369,26.260012672061013,-3.613363632894883,-21.078010939952904,-2.9191239316239352,30.646269821187605,-8.724572649572648,-8.724572649572671,31.111720130589752,37.91676400994399,37.24584419085272,1577396376.0,-27.68406607696756,-51.12529994853794,8.919849
94600,1577396376.42,-1.3069946862792967,-7.335474756469726,8.26316804473877,0.2408216499142525,-4.670386697015529,2.8189096766029915,-1.0496294087727858,27.962280222574865,15.730702974446617,-8.306503295898438,6.844520568847656,4.303741455078125,12.624973204077744,8.146146448647103,3.465419862328506,2.1073477608816966,42.64250255766369,14.541262672061013,-3.2921757544153376,-22.59714686355312,-2.9191239316239352,37.02656671727397,-5.707664350187715,4.985470085470055,31.11172013058975,37.9646868541648,37.43753556773595,1577396376.0,-27.68406607696756,-51.12529994853794,8.919849
94601,1577396376.43,-1.2974178796386715,6.786723735961914,10.69447983062744,-0.0524680534548877,1.3127232517149394,9.501126510099084,0.6143407450358075,-6.854200319417316,6.829061201985677,6.6776275634765625,6.051063537597656,1.343536376953125,0.417941954077744,7.886747034584603,2.092128846703506,3.511156354631696,38.78202892485119,-12.421017601376487,-1.686236362017612,-22.59714686355312,-1.094671474358975,41.18342681623933,-7.053042375589104,-6.855021367521381,31.01587444214814,37.9886482762752,37.31772845718393,1577396376.0,-27.68406607696756,-51.12529994853794,8.919849
94602,1577396376.44,-2.0803218225097653,4.45237711730957,15.40626869781494,0.4826360175900337,1.4755289646055636,13.932793783048302,-3.060758803304036,10.317013987223309,1.1691684773763018,15.253067016601562,9.835243225097656,2.686309814453125,7.681125547827744,5.582669886147103,0.7188378310785062,2.1378653390066966,-5.666823614211309,2.669924781436012,-1.686236362017612,-22.59714686355312,-1.094671474358975,44.56691759446695,-7.256887530952951,111.75762108262109,30.728337376823312,38.0605325426064,37.341689879294336,1577396376.0,-27.68406607696756,-51.12529994853794,8.919849
94603,1577396376.45,0.0409408483886718,-1.5762226629638671,5.048952315979003,-5.603424602527153,1.0230248508360325,5.289725789884241,-5.043157777913411,3.2301770731608075,-2.9249163614908844,-4.4918060302734375,11.849403381347656,2.930450439453125,5.605930235327744,2.256253870522104,4.869228456078506,3.4806387765066966,-35.81819080171131,-9.720211937313987,-1.686236362017612,-22.59714686355312,-1.094671474358975,44.56691759446695,-7.256887530952951,111.75762108262109,31.20756581903136,37.91676400994399,37.341689879294336,1577396376.0,-27.68406607696756,-51.12529994853794,8.919849
94604,1577396376.46,-0.0787692346191401,0.0841561883544921,9.019735769348143,3.293428766613471,-2.6305268825624046,2.0707216578041634,0.189369950358073,-9.632671346028644,8.094396779378256,0.7114410400390625,7.485389709472656,2.747344970703125,-1.458889100609756,13.303617151772103,3.770595643578506,2.8855460030691966,-47.64375232514881,10.970706031436013,-3.5330666632749965,-21.552740916077973,-1.9156750801281983,33.73974710413857,-4.892283728732326,108.0185185185185,31.08775870847935,38.0126096983856,37.24584419085272,1577396376.0,-27.68406607696756,-51.12529994853794,8.919849
94605,1577396376.47,-1.5990872888183592,-1.190756195678711,7.670603133850097,-2.8261506767459026,5.866494809332127,12.206574386075646,-7.600165150960286,8.569246775309244,14.497689119466148,3.1681060791015625,6.569862365722656,3.907012939453125,-0.711208436547256,-6.197115270102897,0.2000390029535061,3.3890860421316966,-31.05744861421131,14.937991187686013,-2.16801817973693,-21.647686911302984,-2.006897702991451,21.945864962888013,-1.4676851186196982,104.6948717948718,31.063797286368946,37.772995477281576,37.38961272351514,1577396376.0,-27.68406607696756,-51.12529994853794,8.919849
94606,1577396376.48,-2.784217110595703,6.073251641235351,16.639282552795407,-4.597859905261528,5.457086325445408,16.499377962735803,4.011712900797526,-3.480770180257161,24.2301188680013,10.156631469726562,5.135536193847656,3.022003173828125,0.814670469702744,12.327054651772103,-0.1356543564214938,3.0839102608816966,-1.2112572079613095,9.200686500186013,-3.613363632894883,-21.83757890175301,-1.4595619658119638,21.559180302519145,-2.4461418643661625,-61.48746438746439,31.01587444214814,37.772995477281576,37.38961272351514,1577396376.0,-27.68406607696756,-51.12529994853794,8.919849
94607,1577396376.49,-3.303758870849609,2.2616825982666016,14.53238509185791,-0.1566158256716839,-4.622502663812405,13.102005806974084,3.6310348368326815,5.878164109293619,12.807382747395836,9.546279907226562,13.833045959472656,1.251983642578125,5.880588438452744,9.946683558022103,5.296474549828506,-1.1275155203683034,17.98429943266369,7.613772437686012,-3.613363632894883,-21.83757890175301,-1.4595619658119638,21.559180302519145,-2.4461418643661625,-61.48746438746439,31.20756581903136,37.91676400994399,37.38961272351514,1577396376.0,-27.68406607696756,-51.12529994853794,8.919849
94608,1577396376.5,-2.4741679956054687,-3.6735433172607417,10.251552523498534,-1.1107051872439495,3.441168527593845,7.486405813077599,-1.1837047017415363,-0.471258693440755,8.454724129231773,-7.604598999023437,-1.6851425170898438,2.304840087890625,-0.3449974990472561,-1.2380088247903966,1.0545311904535062,1.2375967843191966,20.12052990141369,-6.378537132626488,-3.2118787847954517,-22.12241688742805,-1.915675080128202,23.202590109086835,-5.422281132678329,-78.31342592592594,31.08775870847935,37.86884116572319,37.29376703507353,1577396376.0,-27.68406607696756,-51.12529994853794,8.919849
94609,1577396376.51,-1.807382833251953,4.023815020141601,7.237252633361815,0.6262881171994087,-2.9465615017030298,16.765134347013145,-2.4382663716634108,-0.3467602071126299,10.221644954427086,-1.1959075927734375,1.3513565063476562,0.519561767578125,3.561252500952744,9.641507776772103,1.0850487685785062,2.0157950265066966,11.45353771391369,1.906985328311012,-2.81039393669602,-20.88811894950288,-1.2771167200854656,32.38635079284752,-6.033816598769869,-108.01851851851852,31.30341150747297,38.0605325426064,37.58130410039836,1577396376.0,-27.68406607696756,-51.12529994853794,8.919849
94610,1577396376.52,-1.6517597253417968,4.088458464965821,11.40316352203369,-5.232323345202935,5.536094980230565,3.0559356409584604,0.3581611673990881,4.949213865152994,7.913634554036458,7.654190063476562,2.327919006347656,1.984405517578125,1.577609922827744,-13.948580113852897,1.1460839248285062,3.7552969796316966,-0.2346947079613094,1.052493140811012,-2.649799997456247,-21.078010939952904,-1.094671474358975,31.61298147210978,-7.990730090262799,-7.47820512820515,31.20756581903136,37.91676400994399,37.53338125617755,1577396376.0,-27.68406607696756,-51.12529994853794,8.919849
94611,1577396376.53,-1.883997286376953,-2.581787360229492,9.20169509552002,-0.0177521293826214,0.1802658664610325,12.994266732267052,0.0924047831217444,-10.12707398885091,5.873774739583333,-1.7604827880859375,-1.837730407714844,2.442169189453125,5.789035704077744,14.188626917397103,2.427822206078506,0.4288809640066966,-2.7981712704613093,3.402346656436012,-3.6133636328948833,-20.88811894950288,-1.2771167200854694,31.61298147210978,-7.990730090262799,-7.47820512820515,31.135681552700152,37.86884116572318,37.341689879294336,1577396376.0,-27.68406607696756,-51.12529994853794,8.919849
94612,1577396376.54,-2.0348319909667967,-2.7613524847412108,3.1216199795532216,-2.463429125232231,-2.302521255120998,7.190721908048303,-2.1258230550130204,3.4636117350260416,9.911595839436847,-4.4612884521484375,-2.737998962402344,3.113555908203125,1.470798399390244,-9.431978551352897,0.0779686904535061,3.236498151506696,3.5189674014136907,12.786501929873513,-2.9709878759357924,-21.45779492085296,-2.554233440170939,46.11365623594244,-6.68612109593418,-87.2457264957265,31.01587444214814,38.132416808937606,37.29376703507353,1577396376.0,-27.68406607696756,-51.12529994853794,8.919849
94613,1577396376.55,-1.9534291345214845,6.46350651184082,13.23472779205322,2.682907343273627,8.112255966558688,16.983006698087365,-3.5635411519368483,3.823939084879557,9.168196223958333,11.896133422851562,-1.1510848999023438,1.648712158203125,-0.619655702172256,8.024076136147103,0.6272850967035062,4.335130964006696,-2.2488548642113093,-4.562741234188988,-3.773957572134656,-21.647686911302984,-1.2771167200854656,33.73974710413857,-7.419963655244028,-73.53568376068378,31.063797286368946,37.772995477281576,37.19792134663192,1577396376.0,-27.68406607696756,-51.12529994853794,8.919849
94614,1577396376.56,-0.6198588098144531,4.579269805297852,16.79011725738525,-0.4415258232302777,-1.280197146234279,11.313537166837364,-3.194834096272786,-6.461551247151693,3.587312154134114,19.31190490722656,-5.515098571777344,1.435089111328125,8.199924375952744,-7.570406285727897,1.2986718154535062,3.9994376046316966,-20.52888416108631,-1.236325218563988,-3.45276969365511,-20.508334968602828,-0.9122262286324764,33.73974710413857,-7.419963655244028,-73.53568376068378,31.111720130589752,37.91676400994399,37.341689879294336,1577396376.0,-27.68406607696756,-51.12529994853794,8.919849
94615,1577396376.57,0.5365405920410157,-5.3291337652587885,6.750032595520019,-4.190845623034965,-8.821932375726465,8.344727108243616,0.3557669657389319,6.261236374918619,12.876814595540369,-3.6067962646484375,4.570960998535156,4.257965087890625,8.260959532202744,-4.884859410727897,5.204921815453506,5.952562604631696,-31.48469470796131,-5.081540062313988,-2.9709878759357924,-21.647686911302984,-1.6420072115384587,30.83961215137204,-7.990730090262799,-87.24572649572652,31.08775870847935,37.91676400994399,37.24584419085272,1577396376.0,-27.68406607696756,-51.12529994853794,8.919849
94616,1577396376.58,-1.635000313720703,-0.1516726751708974,6.952342635803221,0.9722502570919872,1.1642827487852516,13.26959992318502,-0.6581774373372394,-7.013414729817708,13.197637618001306,7.1964263916015625,-2.219200134277344,3.815460205078125,8.657688047827744,0.3031288705221036,1.1460839248285062,7.051195417131696,-22.84822009858631,6.759280250186013,-3.131581815175565,-20.88811894950288,-3.1015691773504264,31.419639141925344,-8.316882338844955,-84.33753561253562,31.20756581903136,37.74903405517118,37.341689879294336,1577396376.0,-27.68406607696756,-51.12529994853794,8.919849
94617,1577396376.59,-1.386003341064453,4.066910650024414,13.87397963531494,-0.0297231376834027,4.798680868902439,7.657591231778772,1.0045956156412756,13.599464463297526,13.853648872884117,13.025283813476562,-5.820274353027344,3.510284423828125,3.134006407202744,-11.598726598227897,-2.180332090796494,7.081712995256696,-2.3404075985863093,6.789797828311012,-4.0951454506142,-21.647686911302984,-2.006897702991451,33.73974710413857,-6.441506909497563,-88.49209401709405,31.20756581903136,38.0605325426064,37.341689879294336,1577396376.0,-27.68406607696756,-51.12529994853794,8.919849
94618,1577396376.6,-1.098699141845703,4.591240813598633,12.866020736389158,-6.072688127917778,4.2815333103086886,11.957577413419395,-2.4646025899251294,-6.949968385823568,6.797936580403646,15.588760375976562,-3.134727478027344,1.801300048828125,6.277316954077744,-9.737154332602897,1.6954003310785062,2.9008047921316966,-7.253737676711309,4.653567359561012,-2.9709878759357924,-21.83757890175301,-2.554233440170939,33.73974710413857,-6.441506909497563,-88.49209401709405,31.20756581903136,38.0605325426064,37.38961272351514,1577396376.0,-27.68406607696756,-51.12529994853794,8.919849
94619,1577396376.61,1.6175226416015624,0.2278082879638676,4.312735305480956,-0.4235693107791063,-1.0300030727479514,5.954116750577601,-0.4965688252766926,6.540160868326822,-1.1974998636881504,-1.8825531005859373,0.954627990722656,3.342437744140625,2.294773008765244,1.4170204720846034,2.198940370141006,6.593431745256696,-35.74189685639881,-1.4499482654389877,-3.131581815175565,-21.83757890175301,-2.006897702991451,32.38635079284752,-6.849197220225257,-61.48746438746441,30.99191302003773,37.9886482762752,37.48545841195675,1577396376.0,-27.68406607696756,-51.12529994853794,8.919849
94620,1577396376.62,0.9483432775878906,0.3774458917236328,3.866216695861816,-1.3800528740115277,0.4148976291563449,6.125302169278773,-0.3265805074055983,-12.50212203572591,2.201069392903645,4.6024322509765625,-0.9679794311523438,3.784942626953125,11.099094297827744,0.3336464486471036,3.099208924828506,6.593431745256696,-63.13142322358631,-4.806881859188988,-2.007424240497157,-21.45779492085296,-0.7297809829059857,31.419639141925344,-7.256887530952951,-8.724572649572671,31.20756581903136,37.91676400994399,37.341689879294336,1577396376.0,-27.68406607696756,-51.12529994853794,8.919849
94621,1577396376.63,-0.447476290283202,-0.6065709906005858,7.371327926330565,-3.819744365710746,2.7827630710508764,3.64969765267721,-2.6178314961751297,-6.064113771565755,5.143543233235677,4.2667388916015625,-14.792442321777344,4.700469970703125,-3.244167420922256,-7.997652379477897,-1.9056738876714936,5.555834089006696,-78.75642322358631,4.958743140811012,-2.9709878759357924,-22.217362882653063,-1.4595619658119638,30.646269821187605,-3.3430605479670894,-2.0772792022792146,31.01587444214814,37.91676400994399,37.24584419085272,1577396376.0,-27.68406607696756,-51.12529994853794,8.919849
94622,1577396376.64,-1.520078634033203,3.1906328424072266,13.37598569000244,-0.3146331352419965,1.6287578708555637,11.313537166837364,1.1697955301920568,1.6523981791178377,13.101869551595057,7.532119750976562,9.072303771972656,4.303741455078125,-2.023464295922256,6.009915979897103,3.068691346703506,3.4806387765066966,-73.20222400483631,6.972903297061012,-1.686236362017612,-21.83757890175301,-1.4595619658119638,30.83961215137204,-6.033816598769869,1.6618233618233518,31.20756581903136,37.9646868541648,37.341689879294336,1577396376.0,-27.68406607696756,-51.12529994853794,8.919849
94623,1577396376.65,-0.1709459985351552,4.034588927612305,12.353661581115722,-0.4427229240603558,3.457927939214939,9.12643395028463,0.690955198160807,-1.0997366292317712,25.40208058064778,6.7386627197265625,-1.5478134155273438,2.243804931640625,5.163425352515244,-3.5268271841653966,5.037075135766006,0.3678458077566965,-12.94526599702381,14.709109351748513,-2.81039393669602,-21.83757890175301,-1.4595619658119638,32.289679627755305,-8.03149912133557,-8.516844729344749,31.08775870847935,37.86884116572319,37.43753556773594,1577396376.0,-27.68406607696756,-51.12529994853794,8.919849
94624,1577396376.66,2.279519400634765,-2.4620772772216792,7.989031954650878,5.376384210949409,0.9559872043516576,11.095664815763149,-1.1310322652180982,-3.3251470723470047,21.27088561604817,-12.945175170898438,-10.275840759277344,2.594757080078125,-7.730251405297256,-8.150240270102897,0.9934960342035062,-3.1416756766183034,65.62223888578869,10.726565406436013,-3.2921757544153376,-22.976930844453165,-2.9191239316239352,31.80632380229421,-8.561496525281571,-2.0772792022792146,30.872105909485725,37.91676400994399,37.38961272351514,1577396376.0,-27.68406607696756,-51.12529994853794,8.919849
94625,1577396376.67,3.3760637609863275,-3.568198444213867,7.119936752014159,0.5257316474728463,-3.063877383050686,13.95913000131002,-3.0320283833821606,9.256382651774087,9.809842268880212,-14.196395874023438,-0.0829696655273437,2.838897705078125,9.023898985327744,9.580472620522103,5.052333924828506,-2.5008065359933034,86.22160412016369,-3.281002952938988,-2.3286121189767024,-22.59714686355312,-2.1893429487179423,31.80632380229421,-8.561496525281571,-2.0772792022792146,31.01587444214814,37.725072633060776,37.43753556773595,1577396376.0,-27.68406607696756,-51.12529994853794,8.919849
94626,1577396376.68,1.4954183569335937,1.5446192010498048,9.54646013458252,-3.791013945788871,1.298358041754001,9.948842220548302,2.553644089762369,12.469401279703776,3.783636690266927,3.885269165039062,4.662513732910156,2.579498291015625,0.173801329077744,0.5777870736471036,1.5733300185785062,0.2762930733816966,70.16935802641369,-35.29394240606399,-3.773957572134656,-22.40725487310309,-0.1824452457264983,31.22629681174091,-3.4245986101126284,-6.647293447293474,31.135681552700152,38.0605325426064,37.43753556773595,1577396376.0,-27.68406607696756,-51.12529994853794,8.919849
94627,1577396376.69,-0.2272097375488271,8.457876494750977,13.469359554748534,1.9550700385861275,4.713686709966892,12.113200521329553,-3.300178969319661,-15.170459785970053,-5.09885146891276,18.67103576660156,-13.693809509277344,1.190948486328125,-0.4212914443597562,3.049710901772104,2.977138612328506,-0.3645760672433034,-10.41230701264881,4.760378882998513,-3.45276969365511,-20.88811894950288,-0.5473357371794875,32.19300846266308,-6.767659158079718,-105.11032763532766,30.872105909485725,37.9646868541648,37.36565130140474,1577396376.0,-27.68406607696756,-51.12529994853794,8.919849
94628,1577396376.7,-0.4594472985839833,1.1340136163330077,5.355410128479003,-3.4199126884646525,-9.329503127679592,-1.995829861971226,-0.0368821065266921,25.034171592203773,8.751605135091145,-2.599716186523437,21.462440490722656,1.068878173828125,6.948703672827744,16.965726526772105,1.0850487685785062,2.2904532296316966,-52.11457752046131,7.003420875186012,-3.45276969365511,-20.128550987702774,-0.9122262286324764,32.19300846266308,-7.093811406661874,-100.12485754985757,30.92002875370653,37.9646868541648,37.341689879294336,1577396376.0,-27.68406607696756,-51.12529994853794,8.919849
94629,1577396376.71,1.0656591589355469,-6.951205390014648,4.5677177822875965,-0.1230970024294964,-0.466168581781154,12.12038312631002,-3.8364801411946607,-6.49507007039388,4.731740547688801,-20.97129821777344,6.417274475097656,3.632354736328125,-17.709499452172256,-4.243990270102897,0.8409081435785062,-0.6697518484933034,-62.97883533296131,5.660647437686012,-3.773957572134656,-21.647686911302984,-0.9122262286324764,32.19300846266308,-7.093811406661874,-100.12485754985757,30.92002875370653,37.91676400994399,37.341689879294336,1577396376.0,-27.68406607696756,-51.12529994853794,8.919849
94630,1577396376.72,-0.2403778466796874,3.0194474237060547,6.267600960998534,-0.4199780082888715,5.016553219976658,5.050305623868616,-0.3481283223470046,-4.788004286702473,8.035738838704427,-1.165390014648438,5.211830139160156,1.068878173828125,-1.413112733422256,5.430081995522103,2.397304627953506,0.6730215890066966,-66.39680408296131,12.191409156436013,-1.8468303012573843,-21.267902930402933,-0.5473357371794875,33.73974710413857,-5.789202412333252,-106.77215099715102,31.08775870847935,37.86884116572318,37.341689879294336,1577396376.0,-27.68406607696756,-51.12529994853794,8.919849
94631,1577396376.73,-0.4115632653808583,0.178727153930664,5.79115483062744,-1.625458544177544,1.3354681674864235,3.868767104581507,3.1306466898600256,3.607263834635417,11.198479231770836,-1.3790130615234375,-3.867149353027344,3.418731689453125,-5.548244569359756,-0.9786094107278964,1.6801415420160062,-0.9138924734933034,-49.04756091889881,-1.831417992001488,-3.45276969365511,-22.78703885400314,-0.1824452457264983,33.73974710413857,-6.359968847352024,-47.77742165242167,31.063797286368946,38.0126096983856,37.38961272351514,1577396376.0,-27.68406607696756,-51.12529994853794,8.919849
94632,1577396376.74,-3.3181240808105468,5.450759209594726,17.94172825592041,0.6023461005978462,2.8306471042540013,6.029534102872523,2.0293139261881508,-3.23895581258138,16.748238680013024,10.522842407226562,5.318641662597656,2.381134033203125,-4.464870545922256,10.587552698647103,6.242519471703506,-3.782544817243304,-5.605788457961309,15.212649390811013,-4.416333329093746,-21.267902930402933,-1.6420072115384547,33.73974710413857,-6.930735282370796,-7.8936609686609795,30.92002875370653,37.9646868541648,37.341689879294336,1577396376.0,-27.68406607696756,-51.12529994853794,8.919849
94633,1577396376.75,-3.861607857666016,-2.0694282049560546,12.95460619781494,-3.429489495105277,-3.660033596429592,10.36543330941549,1.9694588846842445,1.597331540934244,18.608533369954426,-9.710311889648438,-3.806114196777344,2.167510986328125,1.089328672827744,-10.103365270102897,4.106289002953506,-5.186353410993304,22.07365490141369,0.4421415783110119,-2.81039393669602,-20.88811894950288,-0.5473357371794875,33.73974710413857,-6.441506909497563,-8.724572649572671,31.111720130589752,38.0605325426064,37.43753556773595,1577396376.0,-27.68406607696756,-51.12529994853794,8.919849
94634,1577396376.76,-1.249533846435546,-0.8998606939697265,10.805810207824706,-1.3273804374880902,0.5633381320860325,13.34142597298971,-4.377569716389973,5.868587302652994,13.27185786946615,-9.679794311523438,-1.822471618652344,2.121734619140625,0.997775938452744,1.981595667397104,2.214199159203506,-2.6533944266183034,39.22453380766369,5.141848609561012,-2.649799997456247,-21.078010939952904,-1.824452457264953,30.646269821187605,-5.9522785366243305,-75.19750712250713,31.25548866325217,37.725072633060776,37.341689879294336,1577396376.0,-27.68406607696756,-51.12529994853794,8.919849
94635,1577396376.77,0.1199495031738281,2.175491338500976,14.934610970764158,1.8150092414669872,0.8207148105528292,11.309945864347132,0.6861667948404948,6.040969822184244,2.025095570882162,1.0623931884765625,-4.019737243652344,1.190948486328125,-4.876857850609756,0.0589882455221038,2.488857362328506,-1.0817391531808034,6.00615001860119,-6.729489281063987,-2.649799997456247,-21.078010939952904,-1.824452457264953,32.19300846266308,-3.9953650451314,-7.8936609686609795,31.111720130589752,37.84487974361279,37.36565130140474,1577396376.0,-27.68406607696756,-51.12529994853794,8.919849
94636,1577396376.78,0.4288015173339843,2.922482256469727,10.51012630279541,-2.644191350574028,3.9774696994688448,5.924189229825648,-0.4438963887532545,-10.194111635335284,0.3527457112630205,0.2079010009765625,-1.3341903686523438,1.862335205078125,2.004856016577744,-13.277193395102897,4.564052674828506,-1.5852791922433034,-38.93098377046131,-2.060299827938988,-3.613363632894883,-22.217362882653063,-1.824452457264953,32.19300846266308,-3.9953650451314,-7.8936609686609795,31.01587444214814,37.91676400994399,37.38961272351514,1577396376.0,-27.68406607696756,-51.12529994853794,8.919849
94637,1577396376.79,-0.3469198205566396,0.8251616021728515,6.202957516174315,-2.529269670886528,-2.276185036859279,5.876305196622523,2.8146120707194004,-3.0976979146321613,6.139531123860677,-9.435653686523438,-1.7919540405273438,0.000762939453125,1.760715391577744,15.439847620522103,4.838710877953506,-2.7449471609933034,-49.00178455171131,6.148928687686012,-3.773957572134656,-20.128550987702774,-0.5473357371794875,32.19300846266308,-3.5061366722581666,-88.49209401709405,31.20756581903136,37.86884116572318,37.38961272351514,1577396376.0,-27.68406607696756,-51.12529994853794,8.919849
94638,1577396376.8,-1.4865598107910154,-0.462918890991211,3.1718982144165038,-0.7336184257693407,1.5557347202207985,5.1544533960854135,-0.9825917622884108,-2.221420107014973,12.061588930257162,-8.596420288085938,-3.333091735839844,1.023101806640625,-7.379299256859756,-9.737154332602897,2.549892518578506,-5.522046770368304,-19.84223865327381,9.597415015811013,-3.613363632894883,-21.078010939952904,-1.094671474358975,31.51631030701756,-7.705346872753415,-99.08621794871796,30.92002875370653,37.86884116572319,37.38961272351514,1577396376.0,-27.68406607696756,-51.12529994853794,8.919849
94639,1577396376.81,-1.0388441003417968,3.511455864868164,9.820596224670409,4.172100775890814,-0.4422265651795914,13.87054453988424,-0.3122152974446608,5.365804954020182,16.836824141438804,-1.6841888427734375,-3.928184509277344,0.611114501953125,-8.432155702172256,9.092191370522103,1.2071190810785062,-8.390699114118304,22.13469005766369,7.369631812686012,-3.613363632894883,-21.078010939952904,-1.094671474358975,30.646269821187605,-3.5061366722581666,-114.25035612535616,31.01587444214814,38.0605325426064,37.53338125617755,1577396376.0,-27.68406607696756,-51.12529994853794,8.919849
94640,1577396376.82,-1.6014814904785155,1.8570625177001951,13.289794430236816,-5.684827458972466,-0.7343191677186539,10.018274068692834,2.2352152689615883,-0.2485979390462236,17.330029683430993,-0.8296966552734375,-0.8764266967773438,-0.273895263671875,-6.295925233422256,-18.70932230135289,3.495937440453506,-9.825025285993304,55.39885021391369,1.601809547061012,-3.773957572134656,-22.40725487310309,-1.2771167200854656,32.19300846266308,-6.60458303378864,-115.08126780626785,31.01587444214814,37.9646868541648,37.43753556773595,1577396376.0,-27.68406607696756,-51.12529994853794,8.919849
94641,1577396376.83,1.6091429357910156,-0.2546233465576171,9.188526986389158,-0.2380186821169964,-3.150068642816311,20.526425155118616,-4.332079884847005,8.38728744913737,16.233485323079428,-11.938095092773438,-5.148887634277344,-1.036834716796875,-2.664333436547256,8.603910120522103,1.4207421279535062,-8.909497942243304,76.70011974516369,-8.133297874813987,-4.255739389853973,-21.45779492085296,-0.3648904914529891,30.646269821187605,-3.5061366722581666,-95.13938746438748,30.92002875370653,37.772995477281576,37.43753556773595,1577396376.0,-27.68406607696756,-51.12529994853794,8.919849
94642,1577396376.84,1.761174741210937,-0.1289277593994141,11.974180617980956,4.039222583752142,3.174215042486423,10.979546035245567,-0.4989630269368483,3.1906727457682296,2.840321236165365,-8.169174194335938,-0.9069442749023438,-0.014495849609375,-9.301906678734756,0.0132118783346033,2.137905213891006,-5.979810442243304,48.79179454985119,-16.373043968563987,-3.45276969365511,-20.88811894950288,-1.6420072115384547,30.646269821187605,-3.5061366722581666,-4.570014245014259,30.92002875370653,37.725072633060776,37.38961272351514,1577396376.0,-27.68406607696756,-51.12529994853794,8.919849
94643,1577396376.85,1.5109806677246094,3.18823864074707,8.803060519104003,2.3572959174923773,0.6184047702696263,10.861033053067834,-1.7559188985188796,-10.581972304280598,-4.026249125162759,-5.6209564208984375,1.3818740844726562,-0.823211669921875,-3.824001405297256,6.589749964272103,1.4817772842035062,-4.820142473493304,-32.64436267671131,0.1064482189360119,-3.45276969365511,-20.88811894950288,-1.6420072115384547,30.646269821187605,-3.5061366722581666,-4.570014245014259,31.111720130589752,37.9646868541648,37.58130410039836,1577396376.0,-27.68406607696756,-51.12529994853794,8.919849
94644,1577396376.86,-0.9670180505371092,0.5258863946533203,5.460755001525878,-8.629695500964653,0.5370019138243137,3.1157906824623667,-2.869222670491536,0.6181030619303378,-6.255250870768228,-7.543563842773437,0.8630752563476562,-1.464080810546875,2.035373594702744,-9.035250035727897,1.6038475967035062,-4.453931535993304,-73.99568103608631,10.390872047061013,-3.934551511374428,-21.45779492085296,-0.3648904914529891,32.38635079284752,-5.870740474478792,-8.309116809116826,30.92002875370653,37.772995477281576,37.38961272351514,1577396376.0,-27.68406607696756,-51.12529994853794,8.919849
94645,1577396376.87,-3.5264196252441407,1.4177265130615233,4.242106356506347,-7.439777275866997,0.0437963718321262,6.989608968595179,-2.56037065633138,3.381011777750651,5.222551888020833,-10.488510131835938,-1.654624938964844,-2.028656005859375,-6.479030702172256,-4.579683629477897,0.1390038467035061,-4.667554582868304,-94.44245837983632,12.313479468936013,-2.81039393669602,-21.83757890175301,-0.9122262286324764,31.61298147210978,-7.175349468807411,-8.309116809116826,30.89606733159613,37.725072633060776,37.341689879294336,1577396376.0,-27.68406607696756,-51.12529994853794,8.919849
94646,1577396376.88,-1.012507882080078,1.0478223565673828,6.521386336975096,-0.0057811210818407,0.5501700229551733,1.9809390955483048,1.4271722086588534,1.8343575052897136,18.537904420979817,-9.008407592773438,-5.179405212402344,-0.579071044921875,-12.765651795922256,-9.294649449790397,2.900844667016006,-7.536206926618304,-51.24482654389881,4.043215797061012,-3.131581815175565,-22.02747089220304,-1.2771167200854656,32.19300846266309,-7.583039779535105,1.2463675213675056,31.20756581903136,37.86884116572319,37.38961272351514,1577396376.0,-27.68406607696756,-51.12529994853794,8.919849
94647,1577396376.89,1.1350910070800782,1.8187552911376952,11.82454301422119,-0.5229286796755902,-2.704747134027248,20.36361944222799,5.208813730875651,1.1520100321451816,29.06161781819661,-7.207870483398437,-5.118370056152344,-0.243377685546875,-11.789089295922256,8.054593714272103,3.648525331078506,-12.907300676618304,48.04411388578869,6.270999000186012,-3.131581815175565,-22.02747089220304,-1.2771167200854656,32.96637778340082,-7.746115903826182,1.2463675213675056,31.063797286368946,37.9646868541648,37.38961272351514,1577396376.0,-27.68406607696756,-51.12529994853794,8.919849
94648,1577396376.9,3.5125332556152338,-2.313636774291992,11.137407137756346,-2.4191363945193403,-0.7319249660584977,24.778527303556118,0.3414017557779943,14.135765635172524,17.69873673909505,-6.8721771240234375,-1.7919540405273438,0.702667236328125,-2.877956483422256,-17.793794957602895,0.2305565810785061,-9.916578020368304,92.08097912016368,-11.124020531063987,-3.45276969365511,-20.508334968602828,-0.1824452457264983,31.80632380229421,-2.5276799265117016,-2.0772792022792146,30.92002875370653,37.9646868541648,37.58130410039836,1577396376.0,-27.68406607696756,-51.12529994853794,8.919849
94649,1577396376.91,-0.4953603234863276,-0.2151190191650385,11.929887887268066,-0.8030502739138714,4.434762216558688,8.18910400033346,3.67652466837565,-2.1567766621907545,12.194467122395835,-7.3146820068359375,-3.394126892089844,0.412750244140625,-10.659938905297256,5.765775354897103,3.770595643578506,-8.878980364118304,98.39811779203868,-15.488034202938987,-2.890690906315906,-21.17295693517792,-0.2736678685897437,30.646269821187605,-6.930735282370796,-94.3084757834758,31.20756581903136,38.0605325426064,37.341689879294336,1577396376.0,-27.68406607696756,-51.12529994853794,8.919849
94650,1577396376.92,-0.8425195642089842,-1.0662577093505858,8.721657662658691,1.907186005383003,2.5601023166563457,8.720616768888146,-0.8425309651692702,-5.223748988850912,-1.4093867106119786,-3.9424896240234375,-3.378868103027344,0.489044189453125,-2.969509217797256,-7.295748082602897,0.9934960342035062,-7.200513567243304,44.15312267485119,0.7320585704985119,-4.898115146813063,-21.45779492085296,-1.094671474358975,30.646269821187605,-7.012273344516335,-94.72393162393163,31.20756581903136,37.84487974361278,37.43753556773594,1577396376.0,-27.68406607696756,-51.12529994853794,8.919849
94651,1577396376.93,-1.376426534423828,2.6136302423095703,10.82137251861572,-1.3297746391482466,1.181042160406345,10.006303060392051,-1.6673334370930983,-1.108116335042317,7.475495650227865,-1.8062591552734373,-4.691123962402344,-0.426483154296875,-11.148220155297256,7.871488245522103,0.5662499404535062,-5.888257707868304,-3.0117943173363093,12.618655250186013,-4.898115146813063,-21.45779492085296,-1.094671474358975,32.19300846266308,-3.5061366722581666,-88.49209401709405,31.01587444214814,37.9646868541648,37.38961272351514,1577396376.0,-27.68406607696756,-51.12529994853794,8.919849
94652,1577396376.94,-0.7204152795410155,0.5689820245361328,8.408017245178222,-3.202040337390434,-3.667216201410061,16.568809810880335,-1.770284108479817,5.693810581461588,9.663795967610676,-6.4449310302734375,-3.958702087402344,-0.823211669921875,0.814670469702744,-10.896822301352897,1.4207421279535062,-3.5078866141183034,-7.223220098586309,11.855715797061013,-2.4892060582164746,-20.128550987702774,-0.9122262286324764,30.646269821187605,-3.5061366722581666,-85.1684472934473,31.111720130589752,37.91676400994399,37.341689879294336,1577396376.0,-27.68406607696756,-51.12529994853794,8.919849
94653,1577396376.95,1.7216704138183594,-1.7354370733642577,7.627507503967284,1.375673236828315,-0.5116584133241228,3.053541439298304,-0.6258557149251296,11.73916977335612,9.845755293782554,-7.238388061523437,-1.868247985839844,0.138092041015625,-5.258327577172256,-4.243990270102897,2.183681581078506,-2.9890877859933034,-3.1643822079613093,-2.121334984188988,-3.773957572134655,-20.508334968602824,-0.5473357371794837,31.03295448155648,-6.115354660915408,-84.33753561253562,31.01587444214814,37.725072633060776,37.341689879294336,1577396376.0,-27.68406607696756,-51.12529994853794,8.919849
94654,1577396376.96,2.487814945068359,-1.439753168334961,8.329008590393066,-1.0233168266482466,-1.3580087001893573,12.080878798917444,-0.9059773091634112,-1.877852168782552,8.459512532552083,-2.294540405273437,0.1001358032226562,1.282501220703125,-2.465969178734756,4.712918909584603,2.305751893578506,-3.1874520438058034,-9.23738025483631,-11.047726585751487,-2.649799997456247,-21.078010939952904,-0.3648904914529891,34.51311642487631,-6.767659158079718,-7.062749287749304,30.92002875370653,37.91676400994399,37.36565130140474,1577396376.0,-27.68406607696756,-51.12529994853794,8.919849
94655,1577396376.97,0.8166621862792969,2.276047808227539,8.920376400451659,3.650164813976752,4.022959531011813,8.615271895841273,-2.2036346089680983,-4.27325092976888,7.516197078450521,2.9239654541015625,1.2292861938476562,2.411651611328125,-7.577663514672256,-6.105562535727897,0.2915917373285062,-3.0806405203683034,-22.45149158296131,0.2895536876860119,-2.649799997456247,-21.078010939952904,-0.3648904914529891,31.419639141925344,-6.767659158079718,-8.724572649572671,31.20756581903136,37.725072633060776,37.24584419085272,1577396376.0,-27.68406607696756,-51.12529994853794,8.919849
94656,1577396376.98,-1.7810466149902342,7.176978606567382,12.81334829986572,-1.2699195976443405,5.323011032476658,10.351068099454553,1.4930127543131506,-4.562949330647786,8.045315645345053,6.1588287353515625,2.572059631347656,0.702667236328125,-2.938991639672256,-5.556246129477897,3.618007752953506,-3.1721932547433034,-30.44709705171131,12.191409156436013,-4.0951454506142,-22.40725487310309,-0.1824452457264983,32.96637778340082,-7.419963655244028,-75.19750712250713,30.92002875370653,37.91676400994399,37.24584419085272,1577396376.0,-27.68406607696756,-51.12529994853794,8.919849
94657,1577396376.99,-2.429875264892578,-1.903031189575195,11.947844399719235,-0.2703404045291063,-2.495254488763576,7.360710225919398,3.099522068277994,3.452837827555338,10.481415834554037,-9.618759155273438,-3.119468688964844,0.473785400390625,-2.237087342797256,-2.3976767935403966,1.0392724013910062,-2.3482186453683034,-38.50373767671131,8.880251929873513,-2.81039393669602,-19.938658997252748,-0.7297809829059783,31.61298147210978,-7.9091920281172605,-38.63739316239318,31.08775870847935,37.91676400994399,37.38961272351514,1577396376.0,-27.68406607696756,-51.12529994853794,8.919849
94658,1577396377.0,-1.2638990563964845,-0.5898115789794921,9.193315389709472,-3.558776384753715,1.3390594699766574,10.542604232267053,-1.3920002461751295,-5.697800917561849,15.845624654134117,-9.130477905273438,-6.552696228027344,0.092315673828125,-2.176052186547256,-9.859224645102897,2.671962831078506,-2.4702889578683034,-11.52619861421131,5.019778297061012,-3.2921757544153376,-19.938658997252745,-0.7297809829059857,31.03295448155648,-7.746115903826182,-78.52115384615387,31.01587444214814,38.0605325426064,37.38961272351514,1577396377.0,-27.68413073550213,-51.12525366133191,8.480912
94659,1577396377.01,-0.5528211633300771,-1.9808427435302731,8.283518758850096,0.7412097968869087,2.943174582281345,8.086153328946741,6.1162161600748695,1.7577430521647128,16.09941003011068,-0.8296966552734375,-8.963584899902344,1.160430908203125,-5.197292420922256,0.8524452767721036,-1.3868750595464938,-1.2495858328683034,7.944016229538691,6.728762672061012,-3.2921757544153376,-19.938658997252745,-0.7297809829059857,31.80632380229421,-3.5061366722581666,-80.18297720797722,31.063797286368946,37.91676400994399,37.341689879294336,1577396377.0,-27.68413073550213,-51.12525366133191,8.480912
94660,1577396377.02,0.1869871496582031,0.3343502618408203,10.610682772521972,0.0875927436642525,1.1044277072813449,9.424512056974086,-2.356863515218098,17.947334678141274,11.806606453450524,7.287979125976562,-6.949424743652344,1.831817626953125,-0.711208436547256,-13.551851598227897,-0.0746192001714938,-0.3035409109933034,8.15763927641369,-12.985592796688987,-4.416333329093746,-21.267902930402933,-0.5473357371794875,32.57969312303195,-3.179984423676012,-88.49209401709405,31.20756581903136,37.86884116572318,37.10207565819032,1577396377.0,-27.68413073550213,-51.12525366133191,8.480912
94661,1577396377.03,0.549708701171875,2.5358186883544924,6.475896505432128,-2.198869841784966,-1.0778871059510768,6.458096200040491,-3.471364388020833,-10.386844868977864,5.894125453694664,-3.316879272460937,-3.989219665527344,0.504302978515625,-0.2534447646722562,-1.5584433951028966,0.9629784560785062,-0.3798348563058034,-2.4929954892113098,-1.1905488513764872,-3.2921757544153376,-19.55887501635269,0.9122262286324804,32.57969312303195,-3.179984423676012,-101.78668091168096,31.039835864258546,37.91676400994399,37.29376703507353,1577396377.0,-27.68413073550213,-51.12525366133191,8.480912
94662,1577396377.04,1.1470620153808593,-3.065416095581054,4.574900387268065,-2.007333708972465,-0.0854905178163102,12.422052535489708,-4.928236098225911,8.753600303141274,17.856754048665362,-7.543563842773437,-9.787559509277344,1.984405517578125,-0.802761170922256,-21.73056253572789,0.5052147842035062,-5.064283098493304,28.81803966703869,6.026858375186012,-2.81039393669602,-21.647686911302984,1.2771167200854732,30.83961215137204,-3.4245986101126284,-89.73846153846154,31.111720130589752,37.9646868541648,37.38961272351514,1577396377.0,-27.68413073550213,-51.12525366133191,8.480912
94663,1577396377.05,1.0656591589355469,-1.0423156927490234,8.793483712463377,1.062032819347846,3.7332611301329073,9.328743990567837,-0.6306441182454421,-12.42550758260091,20.344329573567705,-2.386093139648437,-2.829551696777344,-0.273895263671875,-4.281765077172256,4.514554651772103,-0.5323828720464938,-5.888257707868304,55.70402599516369,2.578372047061012,-2.81039393669602,-21.647686911302984,1.2771167200854732,30.646269821187605,-2.8538321750938573,-98.4630341880342,31.063797286368946,37.91676400994399,37.38961272351514,1577396377.0,-27.68413073550213,-51.12525366133191,8.480912
94664,1577396377.06,1.578018314208984,1.0849324822998043,13.02523514678955,3.9638052314572207,-0.648127907953029,17.670142574552212,1.6821546854654943,7.218917038981119,21.749725948079423,2.2830963134765625,0.3137588500976562,-0.014495849609375,-7.577663514672256,-0.3377402701028963,1.3597069717035062,-6.437574114118304,87.35075451078869,5.782717750186012,-3.8542545417545417,-20.793172954277864,-0.0912226228632491,30.646269821187605,-3.5061366722581666,1.2463675213675056,31.063797286368946,38.0605325426064,37.38961272351514,1577396377.0,-27.68413073550213,-51.12525366133191,8.480912
94665,1577396377.07,-0.332554610595702,2.5322273858642577,12.784617879943848,0.5927692939572212,3.726078525152439,14.346990670255334,-1.5272726399739578,10.11590104777018,7.104394392903647,5.1822662353515625,1.7480850219726562,-0.670623779296875,-0.558620545922256,1.6611610970846036,1.4665184951410062,-3.0653817313058034,81.18620372953868,-11.398678734188987,-3.131581815175565,-22.02747089220304,0.5473357371794949,32.38635079284752,-3.5061366722581666,5.40092592592591,31.01587444214814,37.84487974361278,37.341689879294336,1577396377.0,-27.68413073550213,-51.12525366133191,8.480912
94666,1577396377.08,-1.3907917443847655,-3.094146515502929,12.538015108947754,0.6550185371212837,-2.508422597894436,12.553733626798303,2.400415183512369,-10.852517091878251,1.279301753743489,-10.625839233398438,-2.829551696777344,-1.036834716796875,2.737277891577744,3.965238245522104,-0.5323828720464938,6.562914167131696,20.73088146391369,-10.788327171688987,-2.9709878759357924,-19.55887501635269,0.0,32.96637778340082,-3.5061366722581666,-7.062749287749304,31.063797286368946,37.91676400994399,37.341689879294336,1577396377.0,-27.68413073550213,-51.12525366133191,8.480912
94667,1577396377.09,-0.4378994836425771,-0.0535104071044912,7.546104647521972,1.90239760206269,-1.2778029445741226,6.833985860685023,-2.5962836812337238,-5.534995204671224,-0.9688536051432284,-9.710311889648438,-3.073692321777344,-1.616668701171875,-2.298122499047256,-5.739351598227897,-0.4713477157964938,1.9852774483816968,-28.98225330171131,-5.234127952938988,-2.9709878759357924,-19.55887501635269,0.0,32.96637778340082,-2.8538321750938573,-8.724572649572671,31.111720130589752,37.86884116572318,37.38961272351514,1577396377.0,-27.68413073550213,-51.12525366133191,8.480912
94668,1577396377.1,1.314656131591797,2.0701464654541017,3.707002285461425,-3.467796721667778,0.2640629245665012,9.38381062875143,-3.795778712972005,-4.376201601155598,2.778071993001302,-2.126693725585937,-10.306358337402344,-1.509857177734375,7.284397032202744,-6.990572301352897,0.6272850967035062,1.6495840890066966,-32.61384509858631,5.385989234561012,-2.649799997456247,-20.88811894950288,2.006897702991451,31.80632380229421,-3.5061366722581666,-7.062749287749304,31.039835864258546,37.9646868541648,37.24584419085272,1577396377.0,-27.68413073550213,-51.12525366133191,8.480912
94669,1577396377.11,2.588371414794921,0.5378574029541016,4.045781820373534,0.2647636665158155,1.1032306064512674,9.662735122159631,-1.2854582722981764,3.2361625773111973,13.944628535970056,1.9779205322265625,-12.412071228027344,-0.670623779296875,-4.327541444359756,2.912381800209604,-0.0441016220464938,-1.2953622000558034,-10.25971912202381,9.566897437686013,-2.4892060582164746,-20.88811894950288,0.5473357371794949,31.419639141925344,-7.909192028117261,-8.724572649572671,30.92002875370653,38.036571120496,37.48545841195676,1577396377.0,-27.68413073550213,-51.12525366133191,8.480912
94670,1577396377.12,1.441548819580078,0.7269993341064452,8.685744637756347,1.962252643566596,-2.90825427514053,7.11650165658346,1.7204619120279945,-2.1041042256673173,12.227985945638023,9.271621704101562,8.858680725097656,-0.395965576171875,-3.366237733422256,1.3102089486471036,0.4136620498285062,-3.3858163016183034,8.18815685453869,-2.975827171688988,-3.131581815175565,-19.36898302590267,0.1824452457264983,33.73974710413857,-2.8538321750938573,-90.1539173789174,31.20756581903136,37.86884116572318,37.10207565819032,1577396377.0,-27.68413073550213,-51.12525366133191,8.480912
94671,1577396377.13,2.7104756994628905,-0.941759223022461,13.174872750549316,1.4355282783322212,0.0821035983946262,11.792377498868616,0.1498656229654944,4.67148647257487,11.74435721028646,1.2149810791015625,4.708290100097656,-0.304412841796875,-5.136257264672256,-4.030367223227897,1.2376366592035062,-2.3787362234933034,14.77995372953869,-4.593258812313988,-3.131581815175565,-19.36898302590267,0.1824452457264983,30.646269821187605,-2.8538321750938573,-100.12485754985757,31.111720130589752,37.86884116572318,37.53338125617755,1577396377.0,-27.68413073550213,-51.12525366133191,8.480912
94672,1577396377.14,-0.1051054528808593,0.3355473626708984,14.26902290924072,1.2224443305783148,2.6510819797422824,16.396427291349084,-2.265883852132161,11.140619358317055,16.41305044759115,-3.377914428710937,3.640174865722656,-0.792694091796875,1.394504454077744,8.848050745522103,1.1460839248285062,-1.0359627859933034,21.61589122953869,-5.020504906063988,-3.0512848455556787,-20.983064944727893,1.0034488514957296,30.646269821187605,-2.8538321750938573,-100.12485754985757,31.08775870847935,37.9646868541648,37.58130410039836,1577396377.0,-27.68413073550213,-51.12525366133191,8.480912
94673,1577396377.15,-0.8856151940917968,0.6671442926025389,12.312960152893066,1.4702442024044866,0.8721901462461887,11.020247463468223,-0.8030266377766926,-3.73694975789388,7.763996950276693,-3.9424896240234375,2.877235412597656,-1.128387451171875,0.540012266577744,5.277494104897103,-0.5018652939214938,-0.5934579031808034,6.54020763578869,-1.617794945126488,-3.131581815175565,-18.98919904500261,0.912226228632484,31.419639141925344,-3.5061366722581666,-95.13938746438748,30.92002875370653,37.9886482762752,37.31772845718393,1577396377.0,-27.68413073550213,-51.12525366133191,8.480912
94674,1577396377.16,-0.6246472131347656,-0.0056263739013662,10.335349581604005,0.5496736640744088,2.426027023687595,6.783707625821742,2.295070310465494,2.8183743876139324,7.724492622884115,-1.4705657958984375,1.3513565063476562,-0.823211669921875,2.645725157202744,-3.023287145102896,-1.9667090439214936,1.1918204171316966,-11.40412830171131,-0.961667015438988,-3.131581815175565,-19.36898302590267,1.6420072115384623,33.73974710413857,-3.0169082993849345,-113.41944444444444,31.01587444214814,37.91676400994399,37.341689879294336,1577396377.0,-27.68413073550213,-51.12525366133191,8.480912
94675,1577396377.17,-0.2750937707519521,-0.7717709051513671,4.919665426330566,-3.12782008592559,-1.6991824367616226,6.252194857267054,1.8305951883951816,-7.459933339436849,5.950389192708333,-6.8721771240234375,0.4663467407226562,-1.464080810546875,0.997775938452744,4.209378870522103,0.6272850967035062,1.2528555733816966,-11.86189197358631,2.547854468936012,-3.131581815175565,-19.36898302590267,1.6420072115384623,36.446539726720665,-6.115354660915408,-75.19750712250713,30.92002875370653,37.91676400994399,37.43753556773595,1577396377.0,-27.68413073550213,-51.12525366133191,8.480912
94676,1577396377.18,1.182975040283203,-0.1361103643798828,5.455966598205566,-2.063597447986137,-0.9198697963807642,6.696319265226038,-0.0620212239583333,6.313908811442056,7.394092793782552,-0.1888275146484375,2.388954162597656,-0.762176513671875,-0.4518090224847559,1.8595253548971036,-0.4103125595464938,1.1765616280691966,-7.65046619233631,-1.4652070545014877,-2.248315149356816,-20.223496982927784,2.4630108173076937,35.28648574561405,-5.789202412333253,5.400925925925918,31.135681552700152,37.86884116572319,37.413574145625546,1577396377.0,-27.68413073550213,-51.12525366133191,8.480912
94677,1577396377.19,0.7496245397949219,0.7365761407470702,8.843761947326659,5.405114630871283,-0.6265800930116228,7.554640560392054,-2.09350133260091,-12.899559511311848,9.826601680501303,3.6563873291015625,4.677772521972656,-0.609588623046875,-2.145534608422256,11.869290979897103,1.4817772842035062,-2.9890877859933034,1.1996314639136905,-2.182370140438988,-3.131581815175565,-20.508334968602828,2.371788194444441,34.51311642487631,-6.115354660915408,5.400925925925918,31.25548866325217,37.9646868541648,37.341689879294336,1577396377.0,-27.68413073550213,-51.12525366133191,8.480912
94678,1577396377.2,1.709699405517578,2.3813926812744137,9.13585454986572,-0.0943665825076214,-0.4158903469178727,9.584923568204555,-1.5739595723470046,2.7657019510904948,11.74435721028646,3.6563873291015625,2.877235412597656,1.038360595703125,-0.619655702172256,-3.938814488852896,2.794033143578506,-1.7073495047433034,12.85734630766369,12.069338843936013,-3.2921757544153376,-19.938658997252745,1.094671474358975,32.57969312303195,-6.767659158079718,-8.724572649572671,31.20756581903136,38.0605325426064,37.43753556773595,1577396377.0,-27.68413073550213,-51.12525366133191,8.480912
94679,1577396377.21,0.5676652136230468,1.950436382446289,11.49893158843994,-3.2666837822146526,3.69974230689072,11.643936995938928,1.552867795817057,13.288218247477214,10.37247965901693,1.3980865478515625,3.945350646972656,0.153350830078125,-4.403835389672256,6.223539026772103,-0.1356543564214938,-0.6087166922433034,14.16960216703869,-1.388913109188988,-3.2921757544153376,-19.938658997252745,1.094671474358975,32.57969312303195,-6.767659158079718,-8.724572649572671,31.111720130589752,37.9646868541648,37.43753556773595,1577396377.0,-27.68413073550213,-51.12525366133191,8.480912
94680,1577396377.22,-0.1721430993652338,0.317590850219727,11.424711336975095,1.545661554699409,-0.3237135830018571,10.713789650968224,-0.9454816365559888,-2.615266280110677,6.879339436848959,-4.2934417724609375,1.809120178222656,-0.197601318359375,1.135105040015244,0.6693398080221034,2.504116151391006,-0.0594002859933033,-10.87007068452381,-7.339840843563988,-3.0512848455556787,-20.223496982927784,1.5507845886752132,31.419639141925344,-3.3430605479670894,-83.0911680911681,31.063797286368946,37.820918321502376,37.24584419085272,1577396377.0,-27.68413073550213,-51.12525366133191,8.480912
94681,1577396377.23,-0.1098938562011709,-2.0981586248779296,10.210851095275878,-0.6234851494021527,-0.1357687526795915,6.209099227384241,0.0301555399576819,-8.163828627522786,17.82084102376302,-5.5904388427734375,2.083778381347656,-0.395965576171875,-0.4975853896722559,14.554837854897103,-2.027744200171494,-1.1885506766183034,-6.185622442336309,1.296633765811012,-2.16801817973693,-20.128550987702774,1.2771167200854732,26.972765547683327,-2.772294112948318,-87.24572649572652,31.063797286368946,37.9646868541648,37.38961272351514,1577396377.0,-27.68413073550213,-51.12525366133191,8.480912
94682,1577396377.24,0.7376535314941406,1.5793351251220702,8.630677999572754,4.610239679699409,-0.2770266506288102,17.282281905606897,-0.5516354634602858,-5.149528737386068,21.04343645833333,-1.2874603271484375,3.243446350097656,-0.365447998046875,-8.737331483422256,1.5238319955221036,1.3291893935785062,-3.4468514578683034,23.84367443266369,16.097659156436013,-2.16801817973693,-21.267902930402933,0.1824452457264983,32.57969312303195,-3.5061366722581666,-88.49209401709405,31.01587444214814,37.91676400994399,37.53338125617755,1577396377.0,-27.68413073550213,-51.12525366133191,8.480912
94683,1577396377.25,1.3745111730957031,1.0047267266845703,10.224019204406735,-4.35365133592559,2.78036886939072,11.114818429044396,-1.569171169026692,4.185463535563151,23.6172032430013,0.8792877197265625,5.074501037597656,-0.243377685546875,8.718723204077744,-3.450533238852896,2.732997987328506,-3.965650285993304,66.35466076078869,16.067141578311013,-2.16801817973693,-21.267902930402933,0.1824452457264983,30.646269821187605,-3.5061366722581666,-111.7576210826211,30.99191302003773,37.91676400994399,37.341689879294336,1577396377.0,-27.68413073550213,-51.12525366133191,8.480912
94684,1577396377.26,1.3481749548339843,0.1547851373291015,7.795101620178221,2.8313478462033146,-0.8468466457459985,10.917296792081506,-0.6402209248860676,9.404823154703776,15.35122201131185,-4.3392181396484375,5.013465881347656,0.183868408203125,-2.176052186547256,8.939603479897103,-0.5018652939214938,-5.369458879743304,115.51847912016368,-3.708249046688988,-3.45276969365511,-20.508334968602828,1.6420072115384623,31.032954481556477,-2.8538321750938573,-90.56937321937323,31.111720130589752,37.820918321502376,37.43753556773594,1577396377.0,-27.68413073550213,-51.12525366133191,8.480912
94685,1577396377.27,0.1127668981933593,-2.332790387573242,8.910799593811035,-3.5515937797732464,-0.8636060573670915,4.162056807950648,0.0421265482584631,2.6148672465006517,-2.314394938151041,-5.6514739990234375,7.271766662597656,-0.334930419921875,-1.199489686547256,-3.084322301352896,0.9019432998285062,-1.7378670828683034,99.67985607328868,-17.166500999813987,-2.9709878759357924,-19.938658997252745,0.7297809829059857,32.57969312303195,-2.690756050802779,-2.0772792022792146,31.111720130589752,37.9646868541648,37.341689879294336,1577396377.0,-27.68413073550213,-51.12525366133191,8.480912
94686,1577396377.28,-0.5528211633300771,-1.3894749334716796,10.330561178283691,-0.2835085136599652,2.1243576145079075,10.216992806485802,3.154588706461588,8.066464426676431,-7.809087748209635,1.3370513916015625,7.271766662597656,0.428009033203125,-4.434352967797256,14.676908167397103,-3.462070372046494,1.0087149483816966,40.32316662016369,-22.842770531063987,-4.0951454506142,-21.647686911302984,0.912226228632484,31.80632380229421,-3.5061366722581666,7.062749287749271,30.92002875370653,37.9646868541648,37.43753556773595,1577396377.0,-27.68413073550213,-51.12525366133191,8.480912
94687,1577396377.29,-0.6162675073242182,2.6363751580810546,10.182120675354003,4.600662873058783,1.4970767795469695,4.743847811368616,-1.3512988179524734,-8.04651274617513,-9.291098575846354,2.6493072509765625,7.363319396972656,-0.746917724609375,-3.885036561547256,4.331449183022103,1.2376366592035062,0.1237051827566966,-46.98762439546131,-16.067868187313987,-3.2921757544153376,-20.3184429781528,1.094671474358975,30.83961215137204,-3.4245986101126284,-7.47820512820515,30.89606733159613,37.91676400994399,37.53338125617755,1577396377.0,-27.68413073550213,-51.12525366133191,8.480912
94688,1577396377.3,-2.918292403564453,-0.5299565374755859,3.423289388732909,-3.576732897204887,-0.0507745937440446,5.859545785001429,-1.7906348225911453,0.1117294108072923,3.161144258626302,-3.362655639648437,2.511024475097656,-0.212860107421875,4.980319883765244,-4.472872106040397,0.7951317763910062,2.7329581124441966,-102.91108630952382,16.234988257998513,-2.9709878759357924,-20.3184429781528,1.824452457264953,31.51631030701756,-3.873057951913092,-7.685933048433073,31.20756581903136,37.9886482762752,37.461496989846346,1577396377.0,-27.68413073550213,-51.12525366133191,8.480912
94689,1577396377.31,-1.8696320764160157,-2.134071649780273,6.504626925354003,1.57678617628144,-1.021623366937404,12.077287496427209,0.3294307474772131,2.411360105387369,13.990118367513023,-2.141952514648437,0.8020401000976562,-0.365447998046875,-4.953151795922256,10.862210901772103,-0.3797949814214938,3.8773672921316966,-98.74543689546132,9.139651343936013,-2.9709878759357924,-21.078010939952904,0.0,32.19300846266308,-3.3430605479670894,-8.724572649572671,31.20756581903136,37.9646868541648,37.341689879294336,1577396377.0,-27.68413073550213,-51.12525366133191,8.480912
94690,1577396377.32,-2.523249129638672,2.412517302856445,13.984112911682129,1.3684906318478465,1.5018651828672822,12.546551021817834,-0.0967371480305983,-5.027424452718099,22.50389947102864,0.7266998291015625,0.5578994750976562,-0.029754638671875,0.540012266577744,-8.821626988852897,2.244716737328506,1.9242422921316968,-69.50959705171131,19.881838843936013,-3.131581815175565,-21.267902930402933,1.6420072115384623,30.646269821187605,-2.8538321750938573,-8.724572649572671,31.20756581903136,37.91676400994399,37.53338125617755,1577396377.0,-27.68413073550213,-51.12525366133191,8.480912
94691,1577396377.33,0.2731784094238281,-0.3731363287353514,5.807914242248534,-0.6474271660037157,-0.9486002163026388,8.262127150968228,-1.9642144429524733,15.694390915934244,10.549650581868493,-4.9037933349609375,-1.0290145874023438,-1.052093505859375,2.538913633765244,1.7527138314596038,0.7798729873285062,3.602709089006696,-31.36262439546131,-13.138180687313987,-2.007424240497157,-21.45779492085296,1.094671474358975,30.646269821187605,-2.8538321750938573,-2.0772792022792226,31.15964297481056,37.91676400994399,37.29376703507353,1577396377.0,-27.68413073550213,-51.12525366133191,8.480912
94692,1577396377.34,0.2300827795410156,-0.0343567938232412,7.261194649963378,-3.1780983207888718,1.142734933843845,7.853915767911585,-1.9761854512532544,-21.315178346761066,5.28240692952474,-1.0738372802734375,-0.2660751342773437,0.336456298828125,2.554172422827744,0.5167519173971036,0.6883202529535062,1.0697501046316966,-29.37898181733631,-9.231930687313987,-2.81039393669602,-20.508334968602828,1.2771167200854732,31.22629681174091,-3.4245986101126284,-94.72393162393163,31.01587444214814,37.91676400994399,37.24584419085272,1577396377.0,-27.68413073550213,-51.12525366133191,8.480912
94693,1577396377.35,-2.5400085412597657,2.185068145141601,11.367250497131346,-1.1526037162966838,-1.7566432766053726,3.321692025235804,-4.298561061604817,-5.305151845296224,3.88419315999349,2.2525787353515625,-0.7238388061523438,-0.548553466796875,2.248996641577744,5.308011683022103,0.9019432998285062,0.0016348702566966,-34.87214587983631,5.630129859561012,-3.773957572134656,-19.748767006802723,0.1824452457264983,30.646269821187605,-2.8538321750938573,-108.43397435897435,31.111720130589752,37.9646868541648,37.341689879294336,1577396377.0,-27.68413073550213,-51.12525366133191,8.480912
94694,1577396377.36,-1.3931859460449216,0.4732139581298828,9.904393282775878,-0.5037750663943402,0.0725267917540012,6.211493429044398,-3.225958717854817,1.1807404520670566,8.102776485188802,2.0389556884765625,-0.1440048217773437,0.794219970703125,-4.495388124047256,-9.035250035727897,-0.3797949814214938,-0.5781991141183034,-30.05036853608631,6.362551734561012,-3.2921757544153376,-20.3184429781528,1.4595619658119638,30.646269821187605,-3.5061366722581666,-101.78668091168092,31.20756581903136,37.91676400994399,37.53338125617755,1577396377.0,-27.68413073550213,-51.12525366133191,8.480912
94695,1577396377.37,-1.1681309899902343,2.3837868829345705,9.2136661038208,-2.1198611869998096,1.374972494879002,8.488379207852992,0.8322130961100263,3.2481335856119795,8.12432430013021,0.5435943603515625,0.4358291625976562,0.443267822265625,-0.8943139052972561,3.8279091439596034,0.5662499404535062,-0.8528573172433034,-35.94026111421131,11.169070289248513,-4.0951454506142,-20.508334968602828,1.2771167200854732,31.419639141925344,-3.0169082993849345,-93.47756410256412,31.039835864258546,37.84487974361279,37.48545841195675,1577396377.0,-27.68413073550213,-51.12525366133191,8.480912
94696,1577396377.38,-0.7946355310058593,1.6008829400634763,6.744047091369628,-1.047258843249809,-0.207594802484279,4.827644869474085,3.681313071695963,8.368133835856119,3.9919322347005206,-6.3228607177734375,-2.799034118652344,0.794219970703125,-6.723171327172256,-16.664644566977895,2.519374940453506,0.4899161202566966,-45.76692127046131,-7.156735374813988,-3.934551511374428,-20.698226959052853,1.4595619658119638,30.646269821187605,-2.8538321750938573,-88.49209401709405,31.063797286368946,37.772995477281576,37.58130410039836,1577396377.0,-27.68413073550213,-51.12525366133191,8.480912
94697,1577396377.39,-0.6605602380371093,-0.721492670288086,10.309013363342284,-2.3712523613162158,3.766779953375095,7.578582576993616,-0.4606558003743483,-0.6292760030110673,12.730768294270836,-10.046005249023438,-3.195762634277344,0.702667236328125,-4.373317811547256,-5.067964879477897,2.366787049828506,-2.0125252859933034,-44.21052478608631,-5.691891624813988,-3.773957572134656,-19.748767006802723,1.6420072115384623,30.646269821187605,-2.8538321750938573,-88.49209401709405,31.111720130589752,38.0605325426064,37.341689879294336,1577396377.0,-27.68413073550213,-51.12525366133191,8.480912
94698,1577396377.4,1.4810531469726562,0.5462371087646484,5.872557687072753,2.4147567573361277,-0.025635476312404,12.177843966153771,-2.670503932698567,-13.512475136311847,25.71452389729817,-4.3849945068359375,-2.127647399902344,0.138092041015625,1.730197813452744,6.803373011147103,2.946621034203506,-3.843579973493304,-5.361647832961309,6.850832984561012,-3.5330666632749965,-19.843713002027734,0.8210036057692349,32.38635079284752,-6.523044971643102,0.8309116809116759,31.111720130589752,37.9646868541648,37.43753556773595,1577396377.0,-27.68413073550213,-51.12525366133191,8.480912
94699,1577396377.41,1.8126500769042968,0.0039504327392578,12.298594942932128,2.2531481452755804,0.9775350192930636,13.171437655118616,-0.9095686116536456,7.618748716227214,21.74374044392903,0.9098052978515624,3.670692443847656,0.641632080078125,-7.745510194359756,-4.717012731040397,-0.0288428329839938,-8.085523332868304,86.13005138578868,12.023562476748513,-4.416333329093746,-20.128550987702774,0.5473357371794949,32.86970661830861,-5.014590821950634,-38.42966524216526,31.063797286368946,37.94072543205439,37.29376703507353,1577396377.0,-27.68413073550213,-51.12525366133191,8.480912
94700,1577396377.42,1.7719486486816405,0.600106646118164,8.254788338928222,-2.675315972156059,-0.1142209377381852,10.935253304532678,0.2408452860514319,7.376934348551432,7.619147749837239,0.2384185791015625,3.640174865722656,0.855255126953125,1.852268125952744,9.672025354897103,3.984218690453506,-6.132398332868304,137.5216529482887,-9.415036156063987,-5.219303025292609,-19.938658997252745,2.5542334401709463,34.31977409469187,-3.4245986101126284,-2.492735042735061,31.01587444214814,37.86884116572318,37.62922694461916,1577396377.0,-27.68413073550213,-51.12525366133191,8.480912
94701,1577396377.43,0.0888248815917968,-0.2354697332763671,8.803060519104003,-0.415189604968559,-3.006416543206936,11.23931691537252,-2.263489650472005,7.185398215738932,-1.1986969645182284,-4.9800872802734375,4.738807678222656,0.702667236328125,-3.366237733422256,8.603910120522103,2.305751893578506,-6.284986223493304,99.31364513578868,-21.835690452938987,-3.45276969365511,-19.748767006802723,1.2771167200854732,34.31977409469187,-3.4245986101126284,-2.492735042735061,31.20756581903136,37.9646868541648,37.341689879294336,1577396377.0,-27.68413073550213,-51.12525366133191,8.480912
94702,1577396377.44,0.468305844726563,0.9999383233642578,13.038403255920407,2.766704401379096,0.2927933444883762,12.831461019376428,-1.2411655415852858,-0.9979830586751298,-15.369976590983068,-2.416610717773437,5.303382873535156,0.916290283203125,0.356906797827744,0.7608925423971036,3.831630799828506,-1.7378670828683034,26.77336193266369,-19.485836937313987,-3.2921757544153376,-20.128550987702774,1.0946714743589747,30.646269821187605,-3.3430605479670894,-81.84480056980057,31.23152724114176,37.9646868541648,37.58130410039836,1577396377.0,-27.68413073550213,-51.12525366133191,8.480912
94703,1577396377.45,0.7017405065917969,3.702991997680664,9.229228414611816,2.146606171398627,3.2520265964415014,4.073471346524866,-0.848516469319661,-11.664151454671222,-3.7952086649576806,-4.4612884521484375,6.875038146972656,-0.457000732421875,-1.2605248427972562,9.137967737709603,2.366787049828506,3.022875104631696,-71.47798084077382,7.110232398623513,-2.9709878759357924,-20.3184429781528,1.4595619658119638,31.322967976833127,-5.34074307053279,-85.37617521367522,31.20756581903136,37.94072543205439,37.46149698984635,1577396377.0,-27.68413073550213,-51.12525366133191,8.480912
94704,1577396377.46,-1.7714698083496092,0.5019443780517578,4.828685763244628,-4.837280071277153,1.556931821050876,6.96327275033346,2.955869968668619,1.084972385660807,8.337408247884115,-7.268905639648437,2.846717834472656,0.580596923828125,-5.441433045922256,-7.265230504477897,1.3291893935785062,0.5814688546316966,-88.30842517671131,23.574465797061013,-2.3286121189767024,-21.45779492085296,1.4595619658119638,30.646269821187605,-7.583039779535106,-85.99935897435897,31.25548866325217,37.9646868541648,37.43753556773595,1577396377.0,-27.68413073550213,-51.12525366133191,8.480912
94705,1577396377.47,-2.334107198486328,-1.585799469604492,5.781578023986816,-2.759113030261528,-1.3520231960389664,7.025521993497523,2.670959971110025,8.990626267496744,15.857595662434898,-5.7125091552734375,1.961708068847656,0.580596923828125,-0.2839623427972559,3.568509729897104,1.1155663467035062,-0.9749276297433034,-54.15925525483631,9.688967750186013,-2.81039393669602,-20.88811894950288,1.6420072115384623,32.19300846266308,-3.5061366722581666,-114.25035612535616,31.111720130589752,37.62922694461916,37.38961272351514,1577396377.0,-27.68413073550213,-51.12525366133191,8.480912
94706,1577396377.48,-2.075533419189453,-1.7126921575927732,12.162125448303222,-1.3716731682009808,-0.6062293789002955,7.223043630460414,-0.3744645406087233,2.6256411539713542,18.527130513509118,-2.279281616210937,0.2985000610351562,1.602935791015625,-6.494289491234756,-2.199312535727896,2.427822206078506,-3.1264168875558034,-1.1654808407738102,-3.830319359188988,-3.5330666632749965,-20.793172954277864,1.733229834401715,30.83961215137204,-2.6907560508027792,-113.41944444444448,31.111720130589752,37.91676400994399,37.29376703507353,1577396377.0,-27.68413073550213,-51.12525366133191,8.480912
94707,1577396377.49,-1.2064382165527343,0.3080140435791015,14.666460384826658,-2.596307317370903,2.9072615573790013,16.753163338712366,-0.8772468892415358,8.085618039957682,10.075598653157556,3.2901763916015625,-1.822471618652344,1.435089111328125,1.363986875952744,-0.2461875357278963,1.3291893935785062,-1.7683846609933034,11.85026622953869,-7.889157249813988,-3.613363632894883,-20.698226959052853,2.9191239316239352,30.646269821187605,-3.0169082993849345,-5.400925925925935,31.01587444214814,37.91676400994399,37.38961272351514,1577396377.0,-27.68413073550213,-51.12525366133191,8.480912
94708,1577396377.5,0.8358157995605469,3.145143010864258,10.68250882232666,1.1865313056759712,2.663052988043064,10.568940450528771,-1.6577566304524731,-2.221420107014973,11.627041328938803,-6.4449310302734375,-0.6017684936523438,-0.121307373046875,1.730197813452744,4.423001917397103,4.228359315453506,-3.660474504743304,7.547287713913691,-8.316403343563987,-4.255739389853973,-19.55887501635269,2.5542334401709463,30.646269821187605,-3.0169082993849345,-5.400925925925935,31.20756581903136,38.0605325426064,37.19792134663192,1577396377.0,-27.68413073550213,-51.12525366133191,8.480912
94709,1577396377.51,1.7623718420410155,2.156337725219726,5.16626819732666,-1.3010442192263716,1.0804856906797824,8.459648787931116,-0.6928933614095045,-8.786321059163411,7.099605989583333,-10.168075561523438,0.5884170532226562,-0.121307373046875,0.967258360327744,-5.525728551352897,2.458339784203506,-3.965650285993304,4.159836542038691,3.249758765811012,-5.058709086052835,-21.267902930402933,1.2771167200854732,30.83961215137204,-3.261522485821551,-0.8309116809117091,30.92002875370653,37.91676400994399,37.24584419085272,1577396377.0,-27.68413073550213,-51.12525366133191,8.480912
94710,1577396377.52,1.6594211706542967,-0.2258929266357421,6.135919869689941,1.154209583263862,-0.0699282070252951,10.021865371183068,-1.9211188130696608,4.647544455973307,9.63745974934896,-7.665634155273437,-0.8153915405273438,0.305938720703125,-3.503566834984756,0.9897743783346036,1.0392724013910062,-3.675733293805804,9.63774181547619,9.902590797061013,-4.73752120757329,-20.508334968602828,2.006897702991451,30.83961215137204,-3.098446361530473,7.062749287749279,30.872105909485725,38.0126096983856,37.413574145625546,1577396377.0,-27.68413073550213,-51.12525366133191,8.480912
94711,1577396377.53,0.0864306799316411,-1.624106696166992,8.024944979553222,-3.192463530749809,-2.613767470941311,8.988767354825649,2.0676211527506507,-6.325081752522786,7.353391365559895,-0.2346038818359375,8.187294006347656,0.580596923828125,-1.535183045922256,-0.2767051138528963,1.8174706435785064,-2.4092538016183034,8.49333263578869,-3.860836937313988,-5.058709086052836,-20.3184429781528,0.7297809829059895,30.83961215137204,-3.0984463615304736,0.8309116809116759,31.063797286368946,37.91676400994399,37.19792134663192,1577396377.0,-27.68413073550213,-51.12525366133191,8.480912
94712,1577396377.54,0.3928884924316406,-0.1468842718505849,8.348162203674315,0.2480042548947212,1.3989145114805637,11.64872539925924,-0.6857107564290358,-0.2174733174641923,5.727728438313802,-2.264022827148437,4.708290100097656,0.916290283203125,-9.256130311547256,2.408841761147104,0.2000390029535061,-2.9890877859933034,-5.270095098586309,-4.166012718563988,-4.73752120757329,-19.748767006802723,0.912226228632484,32.38635079284752,-3.4245986101126284,-0.8309116809117091,31.063797286368946,38.0605325426064,37.19792134663192,1577396377.0,-27.68413073550213,-51.12525366133191,8.480912
94713,1577396377.55,-0.3756502404785146,1.3782221856689452,12.832501913146972,1.2966645820431588,1.2049841770079075,15.366920577481896,-4.971331728108724,8.451930893961588,4.63118407796224,-1.7147064208984375,3.060340881347656,0.000762939453125,-5.716091249047256,1.0965859017721036,2.214199159203506,-2.5923592703683034,-19.43025134858631,-12.344723656063987,-2.649799997456247,-18.41952307365253,0.7297809829059857,26.006053896761152,-2.8538321750938573,-2.0772792022792146,31.063797286368946,37.86884116572318,37.53338125617755,1577396377.0,-27.68413073550213,-51.12525366133191,8.480912
94714,1577396377.56,-0.3373430139160146,2.2736536065673825,10.258735128479003,-1.3106210258669966,0.1587180515196267,9.277268654874474,-0.5145253377278639,-3.953625008138021,7.547321700032552,-5.9413909912109375,3.075599670410156,0.519561767578125,-1.077419374047256,4.514554651772103,2.748256776391006,-2.5923592703683034,-32.85798572358631,4.241580054873513,-3.693660602514769,-20.413388973377813,1.0034488514957294,31.12962564664869,-2.813063144021088,-45.49241452991454,31.01587444214814,37.82091832150238,37.29376703507353,1577396377.0,-27.68413073550213,-51.12525366133191,8.480912
94715,1577396377.57,0.1103726965332031,-0.4892551092529296,9.96664252593994,-0.3026621269412152,1.315117453375095,6.616113509610804,-4.253071230061848,-2.420138844807942,5.476337263997396,-9.923934936523438,2.022743225097656,0.580596923828125,-2.725368592797256,2.103665979897104,2.794033143578506,-5.064283098493304,-40.27375720796131,8.407229468936013,-4.416333329093746,-19.36898302590267,2.736678685897437,32.19300846266308,-3.179984423676012,-100.12485754985757,31.063797286368946,37.9646868541648,37.341689879294336,1577396377.0,-27.68413073550213,-51.12525366133191,8.480912
94716,1577396377.58,-0.9119514123535156,0.9137470635986328,8.846156148986815,0.494607025890815,-1.308927566156154,8.66794433236471,4.550408274332681,1.645215574137369,10.252769576009118,-6.1397552490234375,2.694129943847656,1.038360595703125,-5.899196717797256,4.972318323647103,0.5662499404535062,-2.0735604422433034,-37.98493884858631,13.259524390811013,-4.416333329093746,-19.36898302590267,2.736678685897437,23.685945934547927,-3.179984423676012,-101.78668091168092,31.01587444214814,37.725072633060776,37.38961272351514,1577396377.0,-27.68413073550213,-51.12525366133191,8.480912
94717,1577396377.59,-3.519237020263672,2.809954778442383,13.191632162170407,0.4299635810665962,1.8011403903868135,7.741388289884242,1.095575278727213,8.545304758707681,12.340513423665367,-0.2498626708984375,0.8325576782226562,0.641632080078125,-3.091579530297256,1.951078089272104,2.885585877953506,-4.148755754743304,-30.05036853608631,2.151125953311012,-3.773957572134656,-20.128550987702774,1.2771167200854732,31.419639141925344,-2.8538321750938573,-95.13938746438748,30.92002875370653,37.91676400994399,37.53338125617755,1577396377.0,-27.68413073550213,-51.12525366133191,8.480912
94718,1577396377.6,-1.7128118676757813,-1.1141417425537108,7.838197250061034,-2.338930638904106,1.115201614752048,4.94615785165182,1.798273465983072,-1.6049131795247398,12.24354825642904,-9.344100952148438,-1.868247985839844,-0.090789794921875,-8.615261170922256,-2.2603476919778966,0.9019432998285062,-5.918775285993304,2.51188732328869,1.342410132998512,-4.336036359473859,-21.552740916077973,1.5507845886752132,31.61298147210978,-2.772294112948318,-93.0621082621083,30.96795159792733,37.91676400994399,37.413574145625546,1577396377.0,-27.68413073550213,-51.12525366133191,8.480912
94719,1577396377.61,-1.4865598107910154,3.770029644165039,11.860456039123534,-2.3568871513552776,-0.1621049709413102,12.481907576993615,-4.456578371175129,7.228493845621744,16.56627935384115,-4.2476654052734375,-2.890586853027344,-0.701141357421875,-3.518825624047256,-9.889742223227897,2.458339784203506,-7.353101457868304,35.16569591703869,-5.874997093563988,-2.9709878759357924,-20.3184429781528,0.7297809829059857,30.83961215137204,-2.772294112948318,-99.7094017094017,31.01587444214814,38.0605325426064,37.43753556773595,1577396377.0,-27.68413073550213,-51.12525366133191,8.480912
94720,1577396377.62,1.285925711669922,0.5546168145751953,9.921152694396971,-4.461390410632621,3.750020541754001,7.027916195157679,-2.028857887776692,-12.971385561116534,13.530431648763024,-7.848739624023437,0.1306533813476562,0.214385986328125,-6.692653749047256,-0.6123984732278964,-0.8070410751714938,-8.787427629743304,48.92912365141369,-3.189450218563988,-2.9709878759357924,-20.3184429781528,0.7297809829059857,30.646269821187605,-3.5061366722581666,-88.49209401709405,31.111720130589752,37.86884116572318,37.341689879294336,1577396377.0,-27.68413073550213,-51.12525366133191,8.480912
94721,1577396377.63,3.292266702880859,-1.4780603948974609,9.363303707580563,2.809800031261909,0.0844978000547826,13.938779287198694,-0.5803658833821613,5.823097471110026,15.593036378987632,-7.421493530273437,1.3513565063476562,0.031280517578125,-7.638698670922256,1.1118446908346034,3.694301698266006,-9.702954973493304,81.12516857328869,10.818118140811013,-2.9709878759357924,-21.45779492085296,1.094671474358975,30.742940986279823,-5.585357256969406,-79.14433760683764,31.111720130589752,37.70111121095037,37.55734267828795,1577396377.0,-27.68413073550213,-51.12525366133191,8.480912
94722,1577396377.64,-0.814986245117187,-1.6013617803955076,9.562022445373534,-1.870864214343559,-1.3256869777772478,8.505138619474085,2.541673081461588,5.056952939860025,11.44508200276693,-3.164291381835937,3.945350646972656,0.138092041015625,3.805393125952744,16.202787073647105,1.3597069717035062,-7.902417864118304,100.44279552641368,-9.598141624813987,-4.657224237953405,-19.843713002027734,0.8210036057692349,32.57969312303195,-7.419963655244028,-8.724572649572671,31.01587444214814,37.9646868541648,37.38961272351514,1577396377.0,-27.68413073550213,-51.12525366133191,8.480912
94723,1577396377.65,-0.2128445275878896,-0.5084087225341797,8.305066573791503,2.24716264112519,0.9272567844297824,13.566480929044396,-2.1102607442220047,3.0290641337076822,-1.1220825113932285,-2.325057983398437,2.083778381347656,-0.121307373046875,-9.988552186547256,11.381009729897103,-4.286044981421494,-3.0806405203683034,54.75798107328869,-7.553463890438988,-4.898115146813063,-21.45779492085296,1.094671474358975,33.93308943432301,-8.64303458742711,-0.8309116809117091,31.01587444214814,37.725072633060776,37.341689879294336,1577396377.0,-27.68413073550213,-51.12525366133191,8.480912
94724,1577396377.66,0.3450044592285156,2.5657462091064454,10.194091683654785,-2.7303826103396527,0.0054891452696262,12.967930514005332,0.4946306620279944,-1.8910202779134109,-1.395021500651041,-2.294540405273437,4.891395568847656,-2.135467529296875,0.265354063452744,-1.7110312857278964,4.167324159203506,-3.2637459891183034,9.89714122953869,-15.243893577938987,-4.898115146813063,-21.45779492085296,1.094671474358975,33.73974710413857,-7.419963655244028,-81.01388888888891,31.20756581903136,37.91676400994399,37.58130410039836,1577396377.0,-27.68413073550213,-51.12525366133191,8.480912
94725,1577396377.67,0.5940014318847656,-1.9066224920654296,9.538080428771972,-0.4989866630740277,3.1490759250547824,4.655262349942835,-5.196386684163411,-6.791951076253255,-2.3646731730143222,-3.9119720458984375,3.884315490722656,-1.403045654296875,-2.298122499047256,3.690580042397104,-0.7154883407964938,-1.7073495047433034,-39.72444080171131,-4.562741234188988,-4.898115146813063,-21.45779492085296,1.094671474358975,30.646269821187605,-7.419963655244028,-79.35206552706556,30.92002875370653,37.9646868541648,37.19792134663192,1577396377.0,-27.68413073550213,-51.12525366133191,8.480912
94726,1577396377.68,-1.4087482568359373,2.4412477227783205,8.86291556060791,0.7005083686642531,-0.4410294643495138,7.393031948331506,0.4922364603678384,-0.181560292561849,11.53247036336263,-2.828598022460937,1.809120178222656,-0.807952880859375,-1.7793236709222562,0.9897743783346034,2.015834901391006,-0.5781991141183034,-47.46064685639881,10.924929664248513,-3.934551511374428,-21.078010939952907,1.4595619658119678,31.61298147210978,-5.381512101605559,-83.0911680911681,31.01587444214814,37.91676400994399,37.48545841195676,1577396377.0,-27.68413073550213,-51.12525366133191,8.480912
94727,1577396377.69,-1.6996437585449218,-2.6536134100341795,6.3681574307250965,-0.7312242241091839,1.28638703345322,6.972849556974086,-1.4350958760579422,-3.7920163960774738,19.1735649617513,-1.2264251708984375,0.0696182250976562,0.458526611328125,-5.899196717797256,9.763578089272103,-2.271884825171494,-3.2027108328683034,-10.36653064546131,13.320559547061013,-4.255739389853973,-20.3184429781528,0.7297809829059857,31.419639141925344,-7.093811406661874,-110.92670940170945,31.20756581903136,38.0605325426064,37.341689879294336,1577396377.0,-27.68413073550213,-51.12525366133191,8.480912
94728,1577396377.7,0.0768538732910156,-0.702339057006836,9.322602279357907,4.184071784191596,-3.6839756130311545,19.73633860726705,1.1099404886881508,2.181516746012369,23.818316182454424,-2.538681030273437,-0.5102157592773438,-0.273895263671875,-5.685573670922256,-2.382418004477896,2.763515565453506,-3.3858163016183034,37.17985607328869,3.188723609561012,-4.255739389853973,-20.3184429781528,0.7297809829059857,31.61298147210978,-5.707664350187715,-91.40028490028492,31.20756581903136,37.91676400994399,37.53338125617755,1577396377.0,-27.68413073550213,-51.12525366133191,8.480912
