,timestamp,acc_x_dashboard,acc_y_dashboard,acc_z_dashboard,acc_x_above_suspension,acc_y_above_suspension,acc_z_above_suspension,acc_x_below_suspension,acc_y_below_suspension,acc_z_below_suspension,gyro_x_dashboard,gyro_y_dashboard,gyro_z_dashboard,gyro_x_above_suspension,gyro_y_above_suspension,gyro_z_above_suspension,gyro_x_below_suspension,gyro_y_below_suspension,gyro_z_below_suspension,mag_x_dashboard,mag_y_dashboard,mag_z_dashboard,mag_x_above_suspension,mag_y_above_suspension,mag_z_above_suspension,temp_dashboard,temp_above_suspension,temp_below_suspension,timestamp_gps,latitude,longitude,speed
17101,1577397228.74,0.6677194849526009,0.0154747180473514,11.036043354909012,0.7077493688071647,-1.664378919945693,9.747437305282968,-8.105306942227992,-8.798165544612234,17.993009427698645,-4.9190986447218,0.8902200838414647,-0.6667346489138719,1.2761557974466462,-3.0063536108993905,-0.43487548828125,-5.925992640053353,9.420999666539634,-11.012007550495428,-17.42059789490345,5.203862608745423,-2.4023543622176438,24.969743880458168,20.97458485958485,-54.26706444597069,29.74591907029682,36.19154161799503,37.43753556773595,1577397227.999,-27.717114879391563,-51.1062919868641,6.2906933
17102,1577397228.75,1.2794380091225228,0.5398048816215698,7.981042036549637,0.5605059667075557,-0.0051971694574122,12.122485352157966,4.313417069002477,9.926885639469797,9.027921311243569,-2.2488105587842986,9.618247427591465,1.652601288586128,0.0554526724466463,-7.66028427496189,0.72479248046875,5.563875524009148,-2.1909388100228657,-8.555342511432926,-16.757857757597343,4.199608421092795,-1.5499060401404114,23.27824510145939,16.999562728937725,-55.78503158625229,29.62611195974481,36.14361877377422,37.60526552250876,1577397227.999,-27.717114879391563,-51.1062919868641,6.2906933
17103,1577397228.76,-1.0261781896079458,1.1599031116020384,13.083085774342605,3.1833538854087267,-1.6284658950433497,16.817514807724372,0.0708917272056021,7.592539020817453,9.953280252893958,-5.544708996284299,-9.851967416158535,-0.4531116020388719,1.6118491568216462,2.425775295350609,-5.89752197265625,0.3301108755716463,-4.678121427210366,23.07612721512957,-16.757857757597343,4.199608421092795,-1.5499060401404114,21.58674632246061,15.730938644688644,-55.68383377690018,29.72195764818641,36.047773085332615,37.58130410039836,1577397227.999,-27.717114879391563,-51.1062919868641,6.2906933
17104,1577397228.77,-0.3414365148032584,-4.255781043671398,7.954705818287918,0.1259583653891959,0.9045994614019628,7.91826723692359,-5.826026961759242,-9.844431670100516,9.316422611292396,-5.697296886909299,-2.0394674161585367,-1.521226836413872,-6.780484827553353,2.914056545350609,-0.95367431640625,-9.069303186928352,-0.8023890053353658,5.284379168254573,-16.947212082541945,5.842933455433458,-3.564783892322956,21.425651200651203,16.23838827838828,-17.026270604395606,29.67403480396561,36.047773085332615,37.43753556773595,1577397227.999,-27.717114879391563,-51.1062919868641,6.2906933
17105,1577397228.78,0.8221454920326791,1.135961095000476,9.8820381547137,3.2360263219321643,1.2565471054449315,5.435480115341559,1.868937173982946,1.7411101633955792,13.238124930628333,3.702117175590701,-4.541908822408536,-0.2242297661013719,0.3606284536966463,-2.7316954077743905,-1.01470947265625,-0.2497231088033537,0.3572789634146341,8.336136980754572,-16.947212082541945,6.025525125915752,-3.0998120802808296,24.32536339322053,12.85539072039072,-17.026270604395606,29.76988049240722,36.14361877377422,37.43753556773595,1577397227.999,-27.717114879391563,-51.1062919868641,6.2906933
17106,1577397228.79,2.076707161954554,1.473543529082507,7.772746492116043,1.429601169344274,1.8347468063726655,8.21754244444312,-1.1345888086830695,-6.572755101497,8.6376664406381,9.2868339724657,-6.372963509908536,-1.032945586413872,-5.163053186928353,-1.1142637671493905,-0.09918212890625,-3.454068811928354,-10.522237638147866,-5.518843487995428,-17.325920732431147,4.38220009157509,-4.494727516407208,23.92262558869702,12.09421626984127,-8.424456809466575,29.67403480396561,36.16758019588463,37.55734267828795,1577397227.999,-27.717114879391563,-51.1062919868641,6.2906933
17107,1577397228.8,1.9857274988686164,3.666632249785632,11.184483857838698,-0.9250961634193978,5.7169447983160255,11.67237544004859,4.557625638338414,7.939698261540109,2.627023172815834,-4.842804699409299,-5.793129525533536,-0.6667346489138719,1.5813315786966462,1.1135194359756098,-0.09918212890625,1.9475425161966464,-21.645894864710368,-6.281782941120427,-17.325920732431147,4.38220009157509,-4.494727516407208,23.519887784173505,9.64154304029304,-10.347215187156593,29.67403480396561,36.19154161799503,37.341689879294336,1577397227.999,-27.717114879391563,-51.1062919868641,6.2906933
17108,1577397228.81,1.435061117032679,1.442418907500476,8.93632849895198,4.737190762850133,-3.641989491234756,9.041147815536872,-4.001645296720179,-7.138983794123952,8.667593961390052,4.434539050590701,3.545249380716464,-0.1784533989138719,0.5437339224466463,4.7451112328506095,-4.00543212890625,-12.914518030678352,-25.002828458460368,-1.215864972370427,-16.379149107708137,6.75589180784493,-2.169868456196577,23.036602418745275,12.85539072039072,-7.311280906593407,29.67403480396561,36.19154161799503,37.725072633060776,1577397227.999,-27.717114879391563,-51.1062919868641,6.2906933
17109,1577397228.82,0.4953369654213509,-2.3140834972846798,10.63381747600276,0.875343485018102,-0.9916082534417874,10.233460242294685,3.905205685945836,8.262915485661201,8.75857362447599,-9.4662177853468,2.843345083841464,-0.4073352348513719,-5.941251429115853,-7.004156345274391,0.09918212890625,-4.155973108803353,-11.163106778772866,2.5683147151295733,-17.515275057375753,5.842933455433455,-2.78983087225275,-2.416426827141113,14.208589743589744,-10.549610805860803,29.67403480396561,36.16758019588463,37.53338125617755,1577397227.999,-27.717114879391563,-51.1062919868641,6.2906933
17110,1577397228.83,-2.601562881990758,1.416082689238757,12.381584687916824,-4.796520247892054,0.878263243140244,16.23093540098609,-1.6912406946693976,7.982793891422922,8.50957665181974,-0.2956855587842987,25.273765005716463,0.3098278510861281,-0.3107582650533537,1.3881776391006098,-4.34112548828125,-0.7380043588033537,10.580667635289634,16.179154558879574,-17.893983707264958,4.929975103021979,-3.4097932883089155,-3.382997557997558,12.85539072039072,-13.787940705128204,29.96157186929044,36.14361877377422,37.58130410039836,1577397227.999,-27.717114879391563,-51.1062919868641,6.2906933
17111,1577397228.84,0.2212008753334603,-3.0969874401557727,11.13899402629573,1.8066879308188832,-2.5167147109613186,2.409209216904059,1.392491043611852,-13.797258611018483,10.41296697164396,-19.4607246212843,0.5240091463414634,-0.8498401176638719,-0.4938637338033537,2.853021389100609,0.20599365234375,-4.247525843178353,12.991556307164634,3.789017840129573,-17.893983707264958,4.929975103021979,-3.4097932883089155,-3.382997557997558,13.53199023199023,-17.026270604395606,29.72195764818641,35.99985024111181,37.38961272351514,1577397227.999,-27.717114879391563,-51.1062919868641,6.2906933
17112,1577397228.85,1.388374184659632,3.4188323779594603,10.236380000416824,0.2025728185141959,4.225357164038681,7.135363294052496,1.9694936437095083,1.0060902537276106,9.871877396448646,14.7189628787157,-12.812172494283535,-1.567003203601372,-4.033902796303353,-9.56763290777439,2.37274169921875,0.8183921255716463,6.765970369664634,-1.612593487995427,-16.757857757597343,5.842933455433455,-3.564783892322956,-2.5775219489505203,7.611744505494505,-16.823874985691393,29.76988049240722,35.95192739689101,37.62922694461916,1577397227.999,-27.717114879391563,-51.1062919868641,6.2906933
17113,1577397228.86,1.5739248133217414,-0.674055360077648,4.3059424882097925,1.7264821752036488,0.3335823654546971,5.3061932256931215,-1.462594436124476,-7.822528368098562,7.164035318811927,13.8034355349657,-8.142983041158537,-1.490709258288872,0.5742515005716464,1.7696473656631095,-0.83160400390625,0.0249350943216463,5.301126619664634,-12.736250714557926,-17.515275057375753,6.39070846688034,-4.649718120421247,22.714412175126466,11.502191697191698,-36.86104123740842,29.67403480396561,36.02381166322221,37.653188366729566,1577397227.999,-27.717114879391563,-51.1062919868641,6.2906933
17114,1577397228.87,1.3081684290443978,-1.612582410858898,7.162225068776199,0.7412681920493521,-3.383415711937881,6.92227934629859,-1.645750863126429,2.5838691477705797,6.098615580042396,6.387664050590701,2.751792349466464,0.981214569836128,2.740999547446646,-5.997076267149391,-0.37384033203125,3.839632359946646,4.171976229039634,-10.432173566120428,-15.621731807929724,5.660341784951164,-4.0297557043650745,25.13083900226757,7.611744505494505,-15.609501273466115,29.67403480396561,35.95192739689101,37.62922694461916,1577397227.999,-27.717114879391563,-51.1062919868641,6.2906933
17115,1577397228.88,0.8580585169350228,-1.6939852673042104,6.736057173268387,1.0094187779868522,-1.8008484145745995,10.401054358505622,-6.367116536954554,-1.031375359065358,14.672251725061926,-14.5779121212843,-1.7953267911585369,-1.704332305163872,-2.416471155678354,-4.288091892149391,-1.10626220703125,-0.3412758431783537,-14.718404630335366,-5.640913800495427,-15.43237748298512,5.477750114468864,-2.324859060210617,-3.060807314378743,8.79579365079365,-10.14481956845238,29.86572618084883,36.28738730643664,37.62922694461916,1577397227.999,-27.717114879391563,-51.1062919868641,6.2906933
17116,1577397228.89,-1.1446911717856805,0.701413493682117,12.853242414967603,-1.9354492640053351,0.3970287094488367,16.233329602646247,4.390031522127477,9.053002033512763,16.05610028463224,-7.360504894721799,4.109824576028964,-1.124498320788872,0.8183921255716463,2.425775295350609,-3.51715087890625,-8.153775843178353,-29.641500333460368,-1.521040753620427,-15.811086132874326,5.112566773504274,-2.324859060210617,-3.060807314378743,9.134093406593406,-10.549610805860803,29.67403480396561,36.19154161799503,37.43753556773595,1577397227.999,-27.717114879391563,-51.1062919868641,6.2906933
17117,1577397228.9,-0.8633724767173209,-0.8488320812690542,13.490100056569169,2.0544878026450557,1.005155931128525,15.02425776426734,4.510938705965367,5.035531647770577,13.232139426477945,-14.3032539181593,2.995932974466464,-1.277086211413872,-0.5548988900533536,0.4573915062881094,-3.25775146484375,-8.901456507240852,-37.66762338033537,2.8887492854420733,-16.757857757597343,5.660341784951164,-2.7898308722527494,-3.382997557997558,12.85539072039072,-10.14481956845238,29.62611195974481,36.21550304010543,37.48545841195676,1577397227.999,-27.717114879391563,-51.1062919868641,6.2906933
17118,1577397228.91,0.6282151575600228,-2.974883155487804,13.470946443287918,2.972664139314977,0.2294345932378992,9.402672266220463,-0.0129053308998656,10.8294996653487,7.841594388636146,-3.2558906369092986,-3.1381002286585367,-1.856920195788872,0.8794272818216463,-1.3278868140243902,1.24359130859375,-6.597379358803353,-15.603414395960366,30.30879323075457,-16.18979478276353,6.208116796398045,-2.324859060210617,-3.382997557997558,12.85539072039072,-10.14481956845238,29.72195764818641,36.14361877377422,37.43753556773595,1577397227.999,-27.717114879391563,-51.1062919868641,6.2906933
17119,1577397228.92,-0.6455001256431021,1.5429753772270385,10.284264033619948,-0.5659659143959603,1.2254224838629002,10.37711234190406,-12.477119173673303,-14.51551910906536,8.878283707483803,2.8171074099657014,-0.0863424161585365,0.1267223823361281,-1.3178383431783538,-7.4924375952743905,-0.58746337890625,-7.757047327553353,-8.218160489710366,13.676713152629572,-17.515275057375753,4.929975103021979,-3.4097932883089155,25.13083900226757,13.024540598290596,-15.609501273466115,29.62611195974481,35.95192739689101,37.341689879294336,1577397227.999,-27.717114879391563,-51.1062919868641,6.2906933
17120,1577397228.93,1.0843105738197885,2.013436003447741,9.437913746754717,-2.000092708829554,2.666731883276962,6.706801196884528,8.994081314607945,-7.332914128596609,4.109034000452553,12.4301445193407,-15.680824838033535,-1.139757109851372,3.564974156821646,-8.98779892339939,-1.83868408203125,-6.017545374428353,1.333841463414634,-6.739546612995427,-17.42059789490345,5.203862608745421,-3.332297986301892,25.453029245886388,13.024540598290596,-16.014292510874544,29.69799622607601,36.28738730643664,37.38961272351514,1577397227.999,-27.717114879391563,-51.1062919868641,6.2906933
17121,1577397228.94,1.3943596888100227,-1.421046278046398,5.953153230397293,0.6742305455649771,0.8016487900152439,8.656878449081795,0.6933841588462272,-2.789916478450124,9.753364414270912,8.2797538943407,-6.800209603658536,-1.032945586413872,-1.4856850228658538,-0.4276182593368903,-0.74005126953125,8.905550328696647,-1.1228235756478655,-9.867598370807928,-17.136566407486544,4.564791762057388,-3.4097932883089155,13.773632914704342,13.278265415140414,-11.055599852621338,29.72195764818641,36.02381166322221,37.60526552250876,1577397227.999,-27.717114879391563,-51.1062919868641,6.2906933
17122,1577397228.95,0.9394613733803352,-1.6868026623237418,14.423838704030103,5.283068741365758,-1.2621530410394437,14.126432141708747,-3.091848665860804,7.0945450755049535,14.643521305140052,-7.772492199409299,-7.593666634908536,-2.619859648913872,-2.355435999428354,-0.3513243140243902,-1.35040283203125,0.4216636099466463,-18.594137052210368,-13.087202862995428,-15.243023158040518,5.660341784951164,-3.719774496336995,3.22190243618815,14.039439865689864,-58.51737243875915,29.67403480396561,36.19154161799503,37.58130410039836,1577397227.999,-27.717114879391563,-51.1062919868641,6.2906933
17123,1577397228.96,0.6234267542397103,-0.7937654430854605,12.879578633229324,2.4315745641196647,-1.843944044457412,15.067353394150151,5.340529581209508,10.00110589093464,6.63252255025724,-6.979035168159299,9.007895865091465,-0.2700061332888719,-3.148893030678354,2.883538967225609,-2.02178955078125,3.412386266196646,-11.361471036585366,5.955765887004573,-17.325920732431147,4.38220009157509,-3.564783892322956,-2.094236583522298,16.23838827838828,-55.076646920787546,30.009494713511245,36.047773085332615,37.53338125617755,1577397227.999,-27.717114879391563,-51.1062919868641,6.2906933
17124,1577397228.97,0.1649371363197884,1.3981261767875857,12.993303212086746,2.812252628084508,3.195850450171493,12.455279382919684,1.131523062654821,-5.518109270198171,13.625985599573646,-9.7866523556593,10.167563833841465,-0.3463000786013719,-6.200650843178353,0.8693788109756098,-0.28228759765625,0.3606284536966463,4.446634432164634,6.444047137004573,-17.325920732431147,4.38220009157509,-3.564783892322956,0.9665707308564444,15.730938644688644,-67.01798842433608,29.67403480396561,35.95192739689101,37.38961272351514,1577397227.999,-27.717114879391563,-51.1062919868641,6.2906933
17125,1577397228.98,0.6760991907631478,1.894923021270007,6.786335408131667,1.2356708348716177,0.8208024032964938,11.278529266952887,2.706907755037633,-3.3717074818680928,8.139672495325598,11.8808281130907,2.171958365091464,0.5844860542111281,-0.9821449838033538,0.5947206078506097,-2.22015380859375,-5.193570765053353,7.528909822789634,1.286576433879573,-17.704629382320356,4.747383432539684,-3.2548026842948694,-2.658069509855224,17.676162240537238,-68.53595556461767,29.67403480396561,36.02381166322221,37.58130410039836,1577397227.999,-27.717114879391563,-51.1062919868641,6.2906933
17126,1577397228.99,0.4223138147865853,-6.245362623261242,8.402421528737136,2.589591873689977,-1.755358583031631,5.703630701279059,-6.38866435189596,-0.3155090626786394,12.936455521448648,-15.8291328244093,-10.584389291158535,-2.711412383288872,0.8183921255716463,-2.3349668921493905,-2.17437744140625,0.2080405630716463,8.505472322789634,9.190629168254572,-17.136566407486544,5.295158443986569,-3.4097932883089155,24.00317314960172,18.26818681318681,-55.8862293956044,29.62611195974481,35.99985024111181,37.341689879294336,1577397227.999,-27.717114879391563,-51.1062919868641,6.2906933
17127,1577397229.0,-0.3534075231040396,2.438406798125476,8.213279597584792,-3.508439754727992,4.124800694312119,13.312403577255624,4.969428323885289,-8.403122270686453,6.278180704554115,14.2917167849657,-2.9855123380335367,-0.1784533989138719,0.0859702505716463,-10.84937118902439,3.56292724609375,-1.8671547494283536,6.308206697789634,-3.1995075504954267,-17.136566407486544,4.929975103021979,-3.4097932883089155,24.32536339322053,15.561788766788766,-55.8862293956044,29.86572618084883,35.95192739689101,37.58130410039836,1577397228.999,-27.71714193129252,-51.10634916619607,6.2393765
17128,1577397229.01,1.4673828394447883,2.5162183520805543,10.023296052662918,2.120328348299352,-0.2781361587152247,8.087058453964607,4.402002530428258,4.392688502018625,7.231072965296303,8.1729423709032,-11.377846322408535,-2.635118437976372,-2.0502602181783534,5.7369325219131095,-4.20379638671875,5.777498570884148,7.315286775914634,-11.561323956745428,-17.136566407486544,4.929975103021979,-3.4097932883089155,24.647553636839355,14.5468894993895,-64.79163661858975,29.626111959744808,35.99985024111181,37.67714978883997,1577397228.999,-27.71714193129252,-51.10634916619607,6.2393765
17129,1577397229.02,2.502875057462367,-2.587022486542492,8.366508503834792,3.1234988439048204,0.2701360214605555,8.428232190536871,-2.3975301844154915,1.211991596501048,6.2949401161752085,-8.4743964962843,-8.356606088033537,-1.795885039538872,-2.782682093178354,-7.3398497046493905,2.18963623046875,2.557894078696646,12.137064119664634,4.643510027629573,-17.136566407486544,4.929975103021979,-3.719774496336995,24.647553636839355,14.5468894993895,-64.79163661858975,29.86572618084883,36.33531015065744,37.58130410039836,1577397228.999,-27.71714193129252,-51.10634916619607,6.2393765
17130,1577397229.03,0.9442497767006478,-1.5790635876167105,11.852466121022292,4.392425723787633,-2.6819146255121,8.540759668564215,-1.3943596888100227,-10.670431242854423,7.061084647425209,-12.9299629025343,4.247153677591464,-1.673814727038872,-0.5243813119283537,5.9047792016006095,-4.52423095703125,-5.651334436928353,11.435159822789634,2.1410686213795733,-16.18979478276353,5.477750114468864,-4.184746308379115,23.036602418745275,18.60648656898657,-55.8862293956044,29.86572618084883,36.14361877377422,37.53338125617755,1577397228.999,-27.71714193129252,-51.10634916619607,6.2393765
17131,1577397229.04,1.5571654017006478,0.2489093799125858,10.714023231617997,-1.636174056485804,-1.3196138808831934,3.192113159775152,0.6957783605063834,6.354736762516672,10.484793021448644,0.1925956912157014,4.903281607278965,0.035169647961128,-4.796842249428353,1.7849061547256098,-1.13677978515625,0.2385581411966463,1.303323885289634,-3.809859112995426,-17.136566407486548,5.660341784951161,-2.4798496642246635,17.237178033606607,15.90008852258852,-15.407105654761905,29.841764758738428,36.047773085332615,37.341689879294336,1577397228.999,-27.71714193129252,-51.10634916619607,6.2393765
17132,1577397229.05,0.9131251551186166,8.464612376738756,14.842823994557447,0.3354510106528677,5.549350682105088,15.83469502623023,0.158280087801305,0.7977947092940152,11.999125571497474,15.0546562380907,-11.408363900533535,-2.314683867663872,-0.3565346322408537,1.1135194359756095,-2.22015380859375,6.708284703696648,0.3572789634146343,-1.902510480182927,-16.56850343265274,5.842933455433458,-2.9448214762667897,20.45908046979476,14.716039377289375,-12.37117137419872,29.62611195974481,36.11965735166382,37.50941983406715,1577397228.999,-27.71714193129252,-51.10634916619607,6.2393765
17133,1577397229.06,-0.9423811315024772,-2.5391384533393664,11.031254951588698,3.5353015294516954,-1.1352603530511622,9.273385376572028,4.782680594393102,8.15038800763386,17.74161825338224,-14.8830879025343,11.266196646341465,-1.734849883288872,-8.550504358803353,-1.4499571265243902,0.38909912109375,-1.6535317025533538,-6.783834317835366,-2.9858845036204267,-17.136566407486544,6.39070846688034,-2.7898308722527494,25.6141243676958,13.193690476190474,-17.026270604395606,29.817803336628028,36.047773085332615,37.38961272351514,1577397228.999,-27.71714193129252,-51.10634916619607,6.2393765
17134,1577397229.07,-2.4626991857016955,-5.357113807343273,6.534944233815262,-0.4989282679115853,-3.7353633559808497,12.574989465927498,-1.1932467493568977,-7.548392278010671,12.890965689905675,-18.8808906369093,23.198569693216463,2.079847382336128,8.569856969321647,-14.54199814214939,-1.41143798828125,-7.512906702553353,-24.697652677210368,-0.7886188786204268,-17.325920732431147,5.477750114468864,-2.014877852182537,26.258504854933427,15.561788766788766,-4.882533482142857,29.86572618084883,36.14361877377422,37.341689879294336,1577397228.999,-27.71714193129252,-51.10634916619607,6.2393765
17135,1577397229.08,0.8017947779213503,-0.4609714123237417,8.609519972340651,-3.465344124845179,0.1743679550543054,15.256495325302495,1.1961665074790395,-1.3881114064286393,12.752101993616614,-11.5414130978468,0.4782327791539646,-0.7125110161013719,-0.7685219369283537,-5.051031345274391,-0.03814697265625,-4.735807093178353,-30.801168302210368,-12.263228253620428,-17.136566407486548,5.842933455433458,-2.9448214762667897,23.68098290598291,13.870289987789988,-7.311280906593407,29.67403480396561,36.14361877377422,37.38961272351514,1577397228.999,-27.71714193129252,-51.10634916619607,6.2393765
17136,1577397229.09,1.1525453211342416,0.7576772326957885,12.972952497975417,1.5229750340903674,-0.3499622085199122,10.12212986509742,6.00970894522318,18.37243199567097,5.889122934778724,9.8666679568407,-9.638344369283535,-0.7888049614138719,0.1164878286966463,-0.1834776343368904,-1.96075439453125,-2.309659632240854,-23.537984708460364,14.149735613567072,-16.947212082541945,5.842933455433458,-2.63484026823871,-3.382997557997558,13.870289987789988,-5.692115956959706,29.817803336628028,36.16758019588463,37.55734267828795,1577397228.999,-27.71714193129252,-51.10634916619607,6.2393765
17137,1577397229.1,0.7144064173256478,-0.4082989758003042,10.317782856862136,0.9232275182212272,0.3778750961675867,6.608638928818121,-6.065447127774866,-24.84410507097942,10.855894278772864,5.990935534965701,-5.213295541158536,-1.551744414538872,-1.4399086556783538,-5.264654392149391,-1.25885009765625,-10.900357874428352,11.679300447789634,8.091996355754572,-16.757857757597343,6.025525125915753,-3.099812080280829,-3.382997557997558,13.193690476190474,-10.549610805860803,29.96157186929044,36.19154161799503,37.58130410039836,1577397228.999,-27.71714193129252,-51.10634916619607,6.2393765
17138,1577397229.11,1.080719271329554,0.8654163074028197,9.283487739674635,-0.7622904505287728,0.8615038315191502,8.152898999618902,4.038083878084508,-3.590776933772389,5.440210123499427,4.068328113090701,-2.1615377286585367,0.004652069836128,2.893587438071646,-3.8303282202743913,-1.01470947265625,-4.186490686928353,13.510355135289634,1.591752215129573,-16.757857757597343,6.025525125915753,-2.7898308722527494,-1.4498560962846678,12.85539072039072,-16.216688129578753,29.62611195974481,35.99985024111181,37.43753556773595,1577397228.999,-27.71714193129252,-51.10634916619607,6.2393765
17139,1577397229.12,0.6054702417885379,1.5417782763969603,7.769155189625808,-0.5611775110756478,-0.6444490127191309,9.314086804794684,2.2280674230063835,-6.46381892595989,11.416137467249428,9.2868339724657,-3.702675423971036,-0.5141467582888719,2.039095250571646,-7.9502012671493905,0.60272216796875,3.961702672446646,24.252542635289632,-6.617476300495427,-16.852534920069644,5.569045949710014,-3.332297986301892,-3.382997557997558,8.79579365079365,-12.978358230311354,29.67403480396561,36.047773085332615,37.341689879294336,1577397228.999,-27.71714193129252,-51.10634916619607,6.2393765
17140,1577397229.13,-0.7867580235923208,-2.838413660858898,10.791834785573071,-1.2040206568276008,0.6292662704839934,10.253810956406014,0.2600336583579456,6.3367802500655,8.845961985071693,-8.3218086056593,1.5921243807164631,-0.3005237114138719,4.282137242759147,-6.348028415586891,-1.89971923828125,11.682649938071648,8.047708650914634,-12.217451886432928,-17.325920732431147,5.112566773504274,-3.2548026842948694,-1.4498560962846678,9.810692918192917,-12.978358230311354,29.86572618084883,36.14361877377422,37.50941983406716,1577397228.999,-27.71714193129252,-51.10634916619607,6.2393765
17141,1577397229.14,1.5523769983803353,2.170256212187976,7.878091365162918,2.2879224645102894,0.0426868637457117,8.73469000303687,-3.022416817716273,0.6302005930830793,5.241491385706459,-1.1501777462842986,-4.694496713033536,0.035169647961128,1.0320151724466462,3.066644435975609,-0.25177001953125,1.5202964224466462,20.773538729039632,1.042435808879573,-16.379149107708137,4.929975103021979,-4.0297557043650745,22.392221931507645,8.457493894993894,-62.36288919413919,29.72195764818641,36.14361877377422,37.53338125617755,1577397228.999,-27.71714193129252,-51.10634916619607,6.2393765
17142,1577397229.15,2.1006491785561163,-0.5711046886909292,11.833312507741043,2.7021193517173203,-2.3658800063714747,4.286263318466559,0.1546887853110709,-8.173278911311453,3.97017030416349,5.197478503715701,-10.279213509908535,-1.338121367663872,1.7644370474466462,-0.6870176733993902,0.20599365234375,1.5508140005716462,32.43125357278964,-0.2087848942454268,-16.18979478276353,5.112566773504274,-2.63484026823871,23.68098290598291,8.457493894993894,-15.81189689217033,29.86572618084883,36.19154161799503,37.38961272351514,1577397228.999,-27.71714193129252,-51.10634916619607,6.2393765
17143,1577397229.16,3.4114745874916634,2.798734147978992,9.622267274586743,0.108001852938024,4.4432295151129,10.878697589706794,2.14067906241068,4.419024720280344,10.01552949605802,7.1200859255907005,-5.487953744283536,0.203016327648628,1.7339194693216462,-1.5415098608993905,0.77056884765625,8.096834508384145,23.74900259622714,-4.359175519245428,-16.852534920069644,5.386454279227719,-3.332297986301892,11.357206087563233,10.40271749084249,-11.662786708733972,29.79384191451763,36.047773085332615,37.43753556773594,1577397228.999,-27.71714193129252,-51.10634916619607,6.2393765
17144,1577397229.17,-0.9998419713462272,-0.3915395641792105,13.655299971119948,4.8449298375571646,-4.307577552758193,6.010088513779059,-3.185222530606898,-9.58585789080364,16.202146585901772,-6.368683605659299,-2.4972310880335367,-1.490709258288872,1.9780600943216464,2.730951076600609,-0.49591064453125,-1.5009438119283538,-9.316793302210366,-10.706831769245428,-17.515275057375753,6.025525125915753,-2.7898308722527494,-3.060807314378743,8.79579365079365,-10.549610805860803,29.86572618084883,35.856081708449395,37.725072633060776,1577397228.999,-27.71714193129252,-51.10634916619607,6.2393765
17145,1577397229.18,-1.6726126378501334,-3.4992133190620227,7.358549604909012,-3.7957439539467415,-5.301171241723036,3.7164433233493703,2.7523975865806016,10.6762707590987,3.747509549768959,-3.9883125119092986,14.745200552591465,1.011732147961128,2.588411656821646,-1.6635801733993902,1.64031982421875,3.259798375571646,-18.960347989710368,-9.272505597370428,-17.515275057375753,6.025525125915753,-2.7898308722527494,-1.772046339903483,9.472393162393162,-10.549610805860803,29.338574894419985,36.33531015065744,37.62922694461916,1577397228.999,-27.71714193129252,-51.10634916619607,6.2393765
17146,1577397229.19,0.9442497767006478,-2.551109461640148,5.388121638600418,-1.5451943933998664,-1.527909425316787,9.64927503721656,6.377218900057164,18.60107825421589,13.673869632776771,-12.5332343869093,14.989341177591465,0.7981091010861281,4.907747594321647,-8.40796493902439,0.48065185546875,3.564974156821646,-9.744039395960366,22.61836354325457,-18.08333803220956,5.842933455433458,-2.014877852182537,-3.382997557997558,12.85539072039072,-13.787940705128204,29.67403480396561,36.047773085332615,37.53338125617755,1577397228.999,-27.71714193129252,-51.10634916619607,6.2393765
17147,1577397229.2,0.8999570459877572,2.297148900176257,10.547626216237136,-1.385979982999476,3.0641693588629,12.200296906113044,-3.079877657560023,-15.507915697200126,12.675487540491616,3.198577136528201,0.0815042635289635,-0.6362170707888719,1.7796958365091462,-0.1529600562118902,0.81634521484375,-7.1924721322408525,-15.908590177210368,-10.523726300495424,-17.609952219848054,4.656087597298537,-3.0223167782738094,11.196110965753824,13.616565170940168,-14.496325370592947,29.74591907029682,36.02381166322221,37.60526552250876,1577397228.999,-27.71714193129252,-51.10634916619607,6.2393765
17148,1577397229.21,0.1158560022865843,3.2189165393364134,15.11576298381526,0.4324161778891959,-0.9963966567620997,7.721942700790778,0.6143755040610709,1.5591508372237042,14.265237442835364,6.509734363090701,-13.880287728658535,-2.070543242663872,3.107210484946646,3.280267482850609,-3.05938720703125,4.175325719321647,-14.016500333460366,-19.709517316120422,-17.325920732431147,3.6518334096459095,-3.2548026842948694,25.6141243676958,14.20858974358974,-12.168775755494504,29.96157186929044,35.99985024111181,37.58130410039836,1577397228.999,-27.71714193129252,-51.10634916619607,6.2393765
17149,1577397229.22,1.6864522913490851,-4.155224573944835,7.858937751881668,0.3318597081626334,-3.5629808364496,9.962915454697027,5.151387650057164,12.096032343571355,9.622880423792395,-1.3638007931592986,-4.145180306783536,-0.1479358207888719,-1.5314613900533538,-2.4875547827743905,0.14495849609375,-2.202848108803354,-27.474752286585368,-2.4670856754954267,-17.325920732431147,3.6518334096459095,-3.2548026842948694,-3.060807314378743,18.26818681318681,-9.33523709363553,29.96157186929044,35.99985024111181,37.58130410039836,1577397228.999,-27.71714193129252,-51.10634916619607,6.2393765
17150,1577397229.23,0.9011541468178352,-0.8620001903999142,10.152582942311357,4.971822525545446,-2.5238973159417872,15.74012406065406,3.118710440584508,12.960339142887763,5.160088529261146,5.502654284965701,11.022056021341465,0.3861217963986281,-3.576139124428354,4.1042420922256095,0.84686279296875,1.7949546255716462,-15.542379239710366,24.99873463700457,-17.231243569958846,5.021270938263127,-3.642279194329972,-3.382997557997558,18.26818681318681,-15.81189689217033,29.62611195974481,36.19154161799503,37.53338125617755,1577397228.999,-27.71714193129252,-51.10634916619607,6.2393765
17151,1577397229.24,1.617020443204554,-0.9374175426948356,9.93231638957698,2.0880066258872425,-1.1987066970453029,8.170855512070075,-2.937422658780726,-18.35222726946575,10.293256888636146,-6.551789074409299,-5.884682259908536,-2.314683867663872,1.5813315786966464,2.013787990663109,-1.65557861328125,-11.312345179115852,14.776834627477134,11.189530535442072,-17.325920732431147,5.842933455433458,-2.014877852182537,-1.4498560962846678,15.900088522588518,-32.81312886332418,29.62611195974481,36.26342588432624,37.38961272351514,1577397228.999,-27.71714193129252,-51.10634916619607,6.2393765
17152,1577397229.25,0.486957259610804,0.8318974841606323,8.977029927174636,-2.6920169886147103,2.12564230808165,10.20472982237281,2.845771451326696,4.31966535138386,11.569366373499427,8.6459648318407,-1.4291158536585369,-1.490709258288872,-0.4938637338033537,-5.051031345274391,1.02996826171875,7.959505406821647,7.864603182164634,-15.620161847370428,-16.18979478276353,5.842933455433458,-3.564783892322956,0.4832853654282225,13.53199023199023,-55.8862293956044,29.62611195974481,35.95192739689101,37.341689879294336,1577397228.999,-27.71714193129252,-51.10634916619607,6.2393765
17153,1577397229.26,1.578713216642054,1.7081752917778197,12.015271833912918,1.0525144078696649,3.7034212021246176,13.757725086044683,-5.203534530118617,5.942934076969797,14.98349794088224,-0.9975898556592988,-6.617104134908536,-2.558824492663872,2.588411656821646,3.9516542016006095,-2.81524658203125,-3.972867640053354,2.1578160727896343,-4.633833722370427,-16.18979478276353,5.842933455433458,-3.564783892322956,-3.382997557997558,18.26818681318681,-55.8862293956044,29.67403480396561,36.19154161799503,37.43753556773595,1577397228.999,-27.71714193129252,-51.10634916619607,6.2393765
17154,1577397229.27,0.4079486048256478,1.0521640368950071,10.74993625652034,4.92393849234232,-1.415381947289443,9.383518652939216,3.154623465486852,-8.11102966814739,6.759415238245521,2.4661552615282014,4.582847036966464,-1.612779570788872,-1.8976723275533536,8.40722060785061,-2.11334228515625,2.222200719321646,9.634622713414634,-5.030562237995427,-17.704629382320356,6.025525125915753,-2.9448214762667893,26.902885342171054,18.26818681318681,-68.839548992674,29.578189115524005,36.19154161799503,37.58130410039836,1577397228.999,-27.71714193129252,-51.10634916619607,6.2393765
17155,1577397229.28,0.9203077600990852,-2.625329713104992,5.752040290944168,2.2998934728110707,-0.2278579238519434,10.081428436874765,1.1973636083091177,-1.2157288868973894,10.969618857630287,-11.3125312619093,10.381186880716465,-1.673814727038872,-0.3870522103658537,-0.7480528296493902,-1.09100341796875,-0.5243813119283538,9.878763338414634,-4.435469464557927,-17.325920732431147,4.0170167506105,-3.2548026842948694,27.547265829408687,18.26818681318681,-55.48143815819597,29.817803336628028,36.16758019588463,37.50941983406716,1577397228.999,-27.71714193129252,-51.10634916619607,6.2393765
17156,1577397229.29,-1.133917264314977,1.365804454375476,7.528537922780105,-1.9857274988686164,2.350697264136337,17.18143346006812,-1.1262091028725227,-6.506914555842702,15.210947098597083,5.533171863090701,5.681479849466464,1.103284882336128,-0.4328285775533537,-1.9992735327743905,-1.04522705078125,0.8183921255716463,-11.453023770960366,-17.420698956745426,-16.56850343265274,4.0170167506105,-1.084934228098292,27.547265829408687,18.26818681318681,-55.48143815819597,29.86572618084883,35.95192739689101,37.43753556773595,1577397228.999,-27.71714193129252,-51.10634916619607,6.2393765
17157,1577397229.3,-1.4355866734946643,2.7807776355278198,12.28102821819026,2.254403641268102,0.8543212265386815,13.755330884384527,4.581567654939977,6.697107599919016,15.94117860494474,1.9320976443407007,-7.746254525533536,-3.626939727038872,6.006380406821647,6.6066834984756095,-5.83648681640625,-2.965787561928354,-18.136373380335368,-20.136763409870422,-16.56850343265274,4.0170167506105,-1.084934228098292,26.58069509855224,19.62138583638584,-55.8862293956044,29.62611195974481,36.19154161799503,37.62922694461916,1577397228.999,-27.71714193129252,-51.10634916619607,6.2393765
17158,1577397229.31,1.4793538477455697,-3.136491767548351,10.069982985035963,2.3166528844321643,-1.7613440871820218,9.803701044296638,2.497415109773961,8.599300818913155,7.314870023401771,-7.5283515744092995,0.0662454744664631,-2.040025664538872,1.6728843130716462,-1.1142637671493905,-0.96893310546875,-5.4987465463033525,-30.679097989710368,18.65107838700457,-16.852534920069644,5.203862608745423,-3.4872885903159325,8.5380414558986,17.422437423687423,-54.26706444597069,29.69799622607601,36.047773085332615,37.50941983406716,1577397228.999,-27.71714193129252,-51.10634916619607,6.2393765
17159,1577397229.32,-1.2320795323813831,1.6195898303520384,11.20842587444026,0.1091989537681021,1.088952989233994,12.220647620224373,0.0589207189048209,-0.9403956959794206,0.4387228554330207,12.8879081912157,13.738120474466465,-0.5141467582888719,-0.4938637338033537,-3.8303282202743913,-1.59454345703125,-15.325406702553352,1.333841463414634,22.40474049637957,-16.379149107708137,5.295158443986569,-2.4798496642246697,20.45908046979476,12.85539072039072,-17.026270604395606,29.72195764818641,35.99985024111181,37.725072633060776,1577397228.999,-27.71714193129252,-51.10634916619607,6.2393765
17160,1577397229.33,-0.0397671056235709,0.6882453845512573,7.751198677174637,0.7388739903891959,3.3802039780035247,5.069167261337653,-2.474144637540492,-10.43579948015911,4.322117948206459,-9.7256171994093,-10.584389291158535,0.4929333198361281,0.5132163443216463,-2.1823790015243905,-5.25665283203125,-2.202848108803354,33.98765005716464,11.937211199504572,-15.811086132874326,4.38220009157509,-2.324859060210617,19.814699982557126,14.5468894993895,-13.787940705128204,29.62611195974481,35.99985024111181,37.38961272351514,1577397228.999,-27.71714193129252,-51.10634916619607,6.2393765
17161,1577397229.34,-0.2552452550376334,6.147025169707507,6.812671626393387,-5.29690839486471,3.660325572241806,8.040371521591558,3.4874174962485704,-11.924992912776297,1.961435111292396,22.0431816287157,-16.443764291158537,-1.521226836413872,0.5132163443216463,-11.12402939214939,-0.19073486328125,5.945345250571647,47.87314810403964,-14.643599347370428,-15.811086132874326,4.38220009157509,-2.324859060210617,19.814699982557126,14.5468894993895,-13.787940705128204,29.72195764818641,36.19154161799503,37.58130410039836,1577397228.999,-27.71714193129252,-51.10634916619607,6.2393765
17162,1577397229.35,1.032835238126429,-0.1856382214057735,6.740845576588699,-0.5982876368080698,0.1935215683355565,4.909952850937262,2.029348685213414,7.392623182194406,9.688720969446694,2.344084949028201,-7.151161752096037,-2.619859648913872,-1.6077553353658538,0.9151551781631098,-2.02178955078125,22.363802281821645,31.82090201028964,-19.740034894245422,-17.041889245014247,4.838679267780831,-2.4023543622176406,20.781270713413576,8.795793650793652,-12.573566992902933,29.86572618084883,36.16758019588463,37.60526552250876,1577397228.999,-27.71714193129252,-51.10634916619607,6.2393765
17163,1577397229.36,1.6768754847084602,-2.876720887421398,9.441505049244949,3.080403214022008,-2.418552442894912,12.888629883407964,-4.523581258634241,-3.9666665944169206,19.053640763147865,-9.2983711056593,-0.4830709317835365,-1.124498320788872,-1.3483559213033538,-9.44556259527439,-0.12969970703125,3.412386266196646,-2.8470667397103657,-7.899214581745427,-17.325920732431147,5.842933455433458,-2.63484026823871,-3.060807314378743,11.840491452991452,-9.33523709363553,29.5302662713032,36.19154161799503,37.725072633060776,1577397228.999,-27.71714193129252,-51.10634916619607,6.2393765
17164,1577397229.37,1.8157391809975227,0.7888018542778198,10.5715682328387,-2.8045444666420543,2.034662644995713,14.277266846298591,-4.322468319181117,-3.212493071467702,14.016240470179117,-5.056427746284299,8.885825552591463,1.164320038586128,1.2151206411966462,-4.654302829649391,0.57220458984375,-5.468228968178353,-22.347799161585368,-8.234907941120428,-15.811086132874326,6.573300137362635,-2.014877852182537,-3.060807314378743,11.840491452991452,-9.33523709363553,29.72195764818641,36.19154161799503,37.58130410039836,1577397228.999,-27.71714193129252,-51.10634916619607,6.2393765
17165,1577397229.38,-0.0924395421470084,2.245673564482898,12.176880445973463,1.229685330721227,-0.0267449843988185,12.122485352157966,0.6742305455649771,7.372272468083079,13.791185514124429,-0.7992255978467986,-0.2389303067835365,-0.987169219226372,2.344271031821646,2.791986232850609,-2.38800048828125,-4.735807093178353,-33.547750333460364,1.347611590129573,-15.811086132874326,6.573300137362635,-2.014877852182537,-3.382997557997558,10.487292429792427,-13.787940705128204,29.626111959744808,36.14361877377422,37.53338125617755,1577397228.999,-27.71714193129252,-51.10634916619607,6.2393765
17166,1577397229.39,-0.2528510533774771,-1.708350477265148,9.59952235881526,2.6530382176841174,0.8219995041265721,15.106857721542733,2.1933514989341174,9.20383673810261,11.361070829065833,2.9086601443407014,-1.1239400724085369,-1.246568633288872,-3.621915491615853,-2.9910948218368905,-2.03704833984375,-11.556485804115852,-37.66762338033537,16.24018971512957,-16.56850343265274,6.208116796398045,-2.014877852182537,-1.772046339903483,9.134093406593406,-14.597523179945052,29.72195764818641,36.095695929553415,37.58130410039836,1577397228.999,-27.71714193129252,-51.10634916619607,6.2393765
17167,1577397229.4,-0.2049670201743521,-1.4641419079292104,9.02012555705745,1.4044620519126334,-1.1161067397699125,9.321269409775152,-5.857151583341273,-7.404740178401296,5.509641971643958,-2.4013984494092986,4.674399771341464,0.7675915229611281,2.985140172446646,4.1957948266006095,-2.78472900390625,-18.529752405678355,-25.155416349085368,12.547562762004572,-17.893983707264958,5.295158443986569,-4.0297557043650745,-3.382997557997558,7.4425946275946275,-16.62147936698718,29.86572618084883,36.14361877377422,37.38961272351514,1577397228.999,-27.71714193129252,-51.10634916619607,6.2393765
17168,1577397229.41,0.7311658289467415,0.4584020251762573,10.62902907268245,3.8345767369712265,-0.3068665786370997,2.19133686582984,7.480945865389195,-1.3043143483231705,1.0683978920541144,-1.1806953244092986,-8.722817025533537,-1.307603789538872,-3.850797327553354,6.0268495141006095,-1.38092041015625,-3.515103968178354,-5.685201505335366,5.986283465129573,-17.515275057375753,5.295158443986569,-3.719774496336995,23.68098290598291,7.4425946275946275,-64.79163661858975,29.86572618084883,35.95192739689101,37.725072633060776,1577397228.999,-27.71714193129252,-51.10634916619607,6.2393765
17169,1577397229.42,2.2814114038979136,2.7508501147758677,7.528537922780105,-0.965797591642054,3.107264988745712,6.735531616806402,-4.461332015470179,-4.716051714045826,8.119321781214271,10.5075370974657,-3.6568990567835367,0.2945690620236281,-3.423551233803354,-12.22266220464939,3.34930419921875,-0.8295570931783537,14.700540682164634,0.4931194026295732,-17.704629382320356,5.112566773504274,-3.2548026842948694,23.68098290598291,7.4425946275946275,-64.79163661858975,29.721957648186415,36.28738730643664,37.62922694461916,1577397228.999,-27.71714193129252,-51.10634916619607,6.2393765
17170,1577397229.43,0.1038849939858031,5.783106517363757,11.376019990651198,0.1606742894614615,4.989107493628525,8.968124664902106,3.0373075841391954,-3.6230986561844993,9.573799289759194,13.7118828005907,-14.215981088033535,-1.856920195788872,2.237459508384146,0.9914491234756097,-1.44195556640625,4.266878453696647,11.847147127477134,-14.155318097370428,-17.893983707264958,4.564791762057388,-3.4097932883089155,24.164268271411125,9.64154304029304,-37.67062371222527,29.96157186929044,36.14361877377422,37.341689879294336,1577397228.999,-27.71714193129252,-51.10634916619607,6.2393765
17171,1577397229.44,-1.5816329747641955,-5.759339686249524,6.633106501881668,-0.8341165003334603,-8.020984327660537,7.001288001083746,-2.69919959359518,7.183130536930735,8.784909842737708,-6.429718761909299,6.017173208841464,-0.1784533989138719,-9.832242640053352,4.5009706078506095,-4.85992431640625,6.006380406821647,7.834085604039634,-2.6501911442454267,-16.947212082541945,5.477750114468864,-1.7048966441544575,24.969743880458168,11.502191697191696,-13.787940705128204,30.05741755773205,35.95192739689101,37.58130410039836,1577397228.999,-27.71714193129252,-51.10634916619607,6.2393765
17172,1577397229.45,0.3840065882240853,-5.529496326874523,7.2699641434832305,3.3461595982993515,-0.6947272475824122,14.748924573349372,3.463475479647008,-1.112778215510671,11.830334354456458,-17.1719062619093,13.036216177591465,0.8286266792111281,-6.292203577553353,-15.76270126714939,4.66156005859375,-1.3483559213033538,10.275491854039634,1.683304949504573,-17.515275057375753,5.660341784951164,-3.099812080280829,24.969743880458168,11.502191697191696,-13.787940705128204,29.96157186929044,36.19154161799503,37.341689879294336,1577397228.999,-27.71714193129252,-51.10634916619607,6.2393765
17173,1577397229.46,0.8472846094643196,1.5860710071098507,11.044423060719556,1.1877868016684927,3.386189482153916,12.86708206846656,3.2013103978598987,4.255021906559641,11.653163431604897,-13.6318671994093,5.238974966653964,0.4166393745236281,-5.422452600990853,3.7227723656631095,-1.54876708984375,-0.0513588509908536,13.205179354039634,2.8124553401295733,-16.757857757597343,4.929975103021979,-3.719774496336995,26.339052415838133,9.5569681013431,-14.496325370592947,29.841764758738428,36.14361877377422,37.60526552250876,1577397228.999,-27.71714193129252,-51.10634916619607,6.2393765
17174,1577397229.47,-0.3797437413657584,5.682550047637195,12.752685945241042,0.4060799596274771,2.484772557105088,5.21760776426734,-4.195575631192836,-6.303407414729421,7.446551114710365,13.2541191287157,-6.342445931783536,-0.3310412895388719,4.755159703696647,-5.844488376524391,-1.35040283203125,-2.782682093178354,16.775735994664632,-5.091597394245427,-16.00044045781893,5.660341784951164,-3.4097932883089155,-3.060807314378743,10.487292429792427,-15.81189689217033,29.62611195974481,36.28738730643664,37.58130410039836,1577397228.999,-27.71714193129252,-51.10634916619607,6.2393765
17175,1577397229.48,0.9131251551186166,3.704939476348132,9.49178328410823,-0.5013224695717415,0.8854458481207127,5.040436841415778,-2.409501192716273,1.384374116032298,7.362754056604897,14.6274101443407,-16.138588509908537,-2.436754180163872,-1.7450844369283538,-6.180181735899391,-1.35040283203125,9.485384313071648,13.540872713414634,-11.042525128620428,-17.325920732431147,5.842933455433458,-3.2548026842948694,25.29193412407698,12.85539072039072,-16.62147936698718,29.67403480396561,35.99985024111181,37.341689879294336,1577397228.999,-27.71714193129252,-51.10634916619607,6.2393765
17176,1577397229.49,2.4621736292397105,-3.760181300019054,5.1127884476824494,2.2520094396079458,-0.8814749770745997,8.035583118271246,0.6431059239829459,6.567820710270579,6.972499185999427,-0.0820625119092987,-10.431801400533535,-2.253648711413872,0.8794272818216463,1.2661073266006098,-1.35040283203125,2.069612828696646,9.848245760289634,-4.939009503620427,-17.515275057375753,6.75589180784493,-3.099812080280829,27.708360951218097,13.362840354090354,-16.419083748282965,29.62611195974481,36.19154161799503,37.58130410039836,1577397228.999,-27.71714193129252,-51.10634916619607,6.2393765
17177,1577397229.5,1.6505392664467415,-3.6476538219917103,7.085610615651199,2.132299356600133,-3.112870924340225,5.308587427353277,-3.3647876551186164,-8.599446806819264,9.25656756978849,-7.772492199409299,-2.1615377286585367,-1.032945586413872,-1.0431801400533538,-5.051031345274391,-1.28936767578125,-7.116178186928353,-1.626363614710366,2.4157268245045733,-18.46204668209877,4.747383432539684,-2.9448214762667897,-3.060807314378743,12.85539072039072,-17.026270604395606,29.86572618084883,36.38323299487824,37.43753556773595,1577397228.999,-27.71714193129252,-51.10634916619607,6.2393765
17178,1577397229.51,1.071142464688929,0.264471690703601,7.703314643971511,-1.1429685144936166,2.592511631812118,10.152057385849371,-1.4901277552162728,-2.676191899592702,13.388959635218177,3.0612480349657014,12.364829458841465,1.408460663586128,-4.491666468178353,-6.760015720274391,2.83050537109375,1.9780600943216464,-14.016500333460366,-7.075239972370427,-15.243023158040518,5.660341784951164,-3.4097932883089155,-2.738617070759928,18.60648656898657,-12.978358230311354,29.72195764818641,36.19154161799503,37.58130410039836,1577397228.999,-27.71714193129252,-51.10634916619607,6.2393765
17179,1577397229.52,0.7072238123451791,3.714516282988757,11.902744355885574,-1.6313856531654916,0.9309356796636814,13.45366147520484,-0.4318906214272103,2.840048725407298,15.802314908655676,7.364226550590701,-10.706459603658535,-2.162095977038872,2.130647984946646,3.9516542016006095,-3.33404541015625,-1.1042152963033538,-26.437154630335368,0.7372600276295732,-16.757857757597343,4.929975103021979,-2.7898308722527494,-1.9331414617128904,16.069238400488402,-54.46946006467491,29.86572618084883,36.14361877377422,37.38961272351514,1577397228.999,-27.71714193129252,-51.10634916619607,6.2393765
17180,1577397229.53,0.6353977625404915,1.2149697497856322,12.695225105397292,-1.3225336390053353,-0.6444490127191309,9.326057813095463,-3.889117818692836,-10.292147380549736,12.974762748011146,-6.338166027534299,-6.067787728658536,-2.528306914538872,3.259798375571646,-3.3115293921493905,-0.37384033203125,-13.738492640053352,-33.608785489710364,-9.516646222370428,-16.947212082541945,4.747383432539684,-2.63484026823871,-3.2219024361881505,15.730938644688644,-54.87425130208334,29.86572618084883,36.14361877377422,37.53338125617755,1577397228.999,-27.71714193129252,-51.10634916619607,6.2393765
17181,1577397229.54,0.4127370081459603,-2.764193409394054,11.883590742604325,2.098780533357946,0.2437998031988367,16.79836119444312,3.432350858064977,14.013787873356511,12.036235697229897,-5.666779308784299,9.618247427591465,-0.3615588676638719,-0.5548988900533537,-3.4946348608993905,1.33514404296875,0.6963218130716463,-32.143941739710364,16.026566668254574,-17.136566407486544,6.025525125915753,-4.339736912393161,-1.6109512180940753,17.084137667887667,-65.39882347470238,29.817803336628028,36.28738730643664,37.38961272351514,1577397228.999,-27.71714193129252,-51.10634916619607,6.2393765
17182,1577397229.55,-0.2169380284751334,-3.195149708222179,14.19638954631526,3.23842052359232,0.1839447616949304,9.785744531845468,-4.672021761563929,-6.619442033870046,13.841463748987708,-26.1135566525343,-4.908119759908536,0.7370739448361281,-3.331998499428354,8.10204482660061,-0.06866455078125,-17.400602015053355,-15.115133145960366,19.53608815262957,-16.56850343265274,5.477750114468864,-3.564783892322956,-3.2219024361881505,17.76073717948718,-67.82757089915293,29.62611195974481,36.28738730643664,37.341689879294336,1577397228.999,-27.71714193129252,-51.10634916619607,6.2393765
17183,1577397229.56,-1.8378125524009143,5.088788035918445,12.592274434010571,0.7388739903891959,4.062551451148056,15.603654566025153,2.7404265782798203,-7.584305302913014,14.1263737465463,-1.7605293087842986,8.641684927591463,1.896741913586128,-1.5619789681783538,-6.668462985899391,-0.52642822265625,-14.867643030678352,-27.352681974085368,-8.265425519245428,-18.272692357154163,6.39070846688034,-2.4798496642246697,-1.6109512180940753,15.730938644688644,-64.58924099988553,29.62611195974481,36.047773085332615,37.58130410039836,1577397228.999,-27.71714193129252,-51.10634916619607,6.2393765
17184,1577397229.57,-1.0357549962485708,0.733735216094226,7.255598933522292,-1.4853393518959603,0.5957474472418054,13.47281508848609,11.038729532381383,1.4921131907393292,9.59415000387052,4.159880847465701,-3.7179342130335367,0.920179413586128,-0.3107582650533537,-0.1682188452743902,0.14495849609375,-2.111295374428354,-29.366842130335368,-11.317183331745428,-18.46204668209877,5.477750114468864,-3.2548026842948694,-3.382997557997558,-3.382997557997557,-68.839548992674,29.67403480396561,36.28738730643664,37.38961272351514,1577397228.999,-27.71714193129252,-51.10634916619607,6.2393765
17185,1577397229.58,-1.2153201207602895,0.3841817737114135,10.497347981373856,1.7611980992759146,-0.7138808608636622,11.89024779112281,6.240749405428258,1.6381594920088605,5.351624662073646,-0.1736152462842987,-17.023598275533537,-1.978990508288872,1.2761557974466462,0.3200624047256097,-1.62506103515625,-11.846402796303352,-34.554830411585364,-0.6360309879954268,-15.811086132874326,5.112566773504274,-2.324859060210617,26.258504854933427,18.26818681318681,-51.83831702152015,29.67403480396561,36.047773085332615,37.58130410039836,1577397228.999,-27.71714193129252,-51.10634916619607,6.2393765
17186,1577397229.59,0.726377425626429,-3.1915584057319446,10.43749293986995,0.8394304601157584,-4.063368983422256,8.059525134872809,1.3302418004477896,-7.100676567561452,1.3150006630502082,-21.0476386837843,3.636802115091464,1.637342499523628,0.7878745474466463,-11.06299423589939,1.30462646484375,-11.052945765053352,-7.882467130335366,8.214066668254572,-18.178015194681866,5.386454279227719,-3.177307382287853,25.775219489505204,20.467135225885222,-55.68383377690018,29.65007338185521,36.14361877377422,37.38961272351514,1577397228.999,-27.71714193129252,-51.10634916619607,6.2393765
17187,1577397229.6,-0.0613149205649771,1.9930852893364133,11.069562178151198,-1.0483975489174446,0.802845890845322,10.226277637314215,-1.110646792081507,-4.178553441340749,10.045457016809976,2.1152031130907014,0.6155618807164634,1.286390351086128,-0.6311928353658538,-9.52185654058689,0.81634521484375,-4.979947718178353,9.512552400914634,9.434769793254572,-16.947212082541945,5.842933455433458,-2.014877852182537,18.68703412989128,15.730938644688644,-55.68383377690018,29.72195764818641,36.14361877377422,37.43753556773594,1577397228.999,-27.71714193129252,-51.10634916619607,6.2393765
17188,1577397229.61,1.9569970789467412,6.968236339141101,10.842113020436354,-0.735954232267054,4.596458421362899,9.575054785751716,6.707618729158726,4.094610395329173,7.6476640541634895,17.5876152224657,-19.403969369283537,0.7675915229611281,1.0014975943216462,-6.576910251524391,-0.92315673828125,3.442903844321646,20.437845369664632,-4.450728253620427,-16.947212082541945,5.842933455433458,-2.014877852182537,18.68703412989128,13.362840354090354,-15.204710036057692,29.817803336628028,36.19154161799503,37.58130410039836,1577397228.999,-27.71714193129252,-51.10634916619607,6.2393765
17189,1577397229.62,1.425484310392054,2.6179719226371945,13.116604597584791,1.4714996983970083,-0.6683910293206935,7.379571863388434,-7.753359298185023,-0.3059322560380134,11.193476712854896,12.7048027224657,-22.150551400533537,-3.199693633288872,2.344271031821646,-4.074468845274391,-1.71661376953125,2.161165563071646,21.994241854039632,2.6293498713795733,-16.757857757597343,4.199608421092795,-2.7898308722527494,22.55331705331705,13.024540598290596,-5.894511575663921,29.86572618084883,35.99985024111181,37.43753556773595,1577397228.999,-27.71714193129252,-51.10634916619607,6.2393765
17190,1577397229.63,2.109028884366664,-4.535902637909679,7.196940992848464,0.6047986974204459,-3.596499659691787,5.452239526962653,5.587132352205602,-7.636977739436452,10.161575797327552,-2.630280285346799,0.1730569979039637,0.4929333198361281,0.6047690786966463,-5.813970798399391,1.39617919921875,1.3982261099466462,4.080423494664634,-3.5962360661204267,-17.893983707264958,5.477750114468862,-4.029755704365078,22.714412175126466,12.85539072039072,-17.026270604395606,29.69799622607601,36.14361877377422,37.725072633060776,1577397228.999,-27.71714193129252,-51.10634916619607,6.2393765
17191,1577397229.64,-0.2480626500571646,0.417700596953601,8.677754719655105,-0.1266299097572884,-0.3631303176507716,8.17444681456031,-1.8181333826576795,9.978360975163154,9.864694791468176,-1.0891425900342986,14.897788443216465,2.446058319836128,-2.7063881478658534,-3.784551853086891,0.87738037109375,7.7611411490091475,-13.299337247522866,-4.343916730182928,-18.08333803220956,6.208116796398045,-3.2548026842948694,24.164268271411128,13.024540598290596,-7.108885287889194,29.72195764818641,36.02381166322221,37.48545841195676,1577397228.999,-27.71714193129252,-51.10634916619607,6.2393765
17192,1577397229.65,1.2124003626381477,3.707333678008288,9.29306454631526,-2.6513155603920544,1.1775384506597752,10.527947046493903,0.2959466832602896,-10.988860063655205,8.430567997034583,6.998015613090701,3.575766958841464,1.347425507336128,-0.2802406869283537,-7.2482969702743905,1.02996826171875,-8.733609827553353,2.4629918540396343,5.040238543254573,-18.08333803220956,6.208116796398045,-3.2548026842948694,-3.382997557997558,18.26818681318681,-6.90648966918498,29.817803336628028,36.047773085332615,37.58130410039836,1577397228.999,-27.71714193129252,-51.10634916619607,6.2393765
17193,1577397229.66,-0.1139873570884146,7.313001378203601,14.895496431080886,-7.238605941251427,2.8774216293707124,14.64118549864234,2.3166528844321643,-4.8597038136552015,2.8664433388314587,9.5004570193407,-22.882973275533537,-1.643297148913872,1.1235679068216462,-10.60523056402439,2.09808349609375,-8.245328577553353,-8.126607755335366,-12.232710675495428,-18.08333803220956,6.208116796398045,-3.2548026842948694,-3.382997557997558,18.26818681318681,-10.549610805860803,29.62611195974481,36.047773085332615,37.62922694461916,1577397228.999,-27.71714193129252,-51.10634916619607,6.2393765
17194,1577397229.67,0.4797746546303353,-6.974397028778819,7.325030781666824,3.664588419100133,-4.791206288109756,11.796873926376716,8.769026358553258,15.761555085270576,13.491910306604897,-15.4324043087843,1.6989359041539638,-0.7125110161013719,2.649446813071646,7.8884217797256095,-2.66265869140625,7.043978063071647,3.1038609946646343,2.7819377620045733,-18.272692357154163,5.477750114468862,-3.4097932883089155,-3.382997557997558,18.26818681318681,-10.14481956845238,29.76988049240722,36.19154161799503,37.24584419085272,1577397228.999,-27.71714193129252,-51.10634916619607,6.2393765
17195,1577397229.68,-0.0086424840415396,1.2820073962700071,9.297852949635574,1.3146794896567735,-1.997172950707412,5.72158721373023,0.01462798819193,-5.415158598811454,4.347257065638099,-13.5403144650343,-3.4432760099085367,2.751234101086128,-9.603360804115852,-6.760015720274391,1.99127197265625,-2.6148354134908534,11.587747713414632,12.196610613567072,-16.18979478276353,5.842933455433458,-2.63484026823871,-3.382997557997558,18.26818681318681,-10.14481956845238,29.67403480396561,35.999850241111815,37.58130410039836,1577397228.999,-27.71714193129252,-51.10634916619607,6.2393765
17196,1577397229.69,1.2267655725990854,8.517284813262195,10.289052436940262,-1.3345046473061164,4.9412234604254,12.053053504013434,2.477064395662633,-1.5221866993973894,6.062702555140053,19.8153984255907,-4.175697884908536,2.476575897961128,2.557894078696646,2.883538967225609,-4.06646728515625,-2.935269983803354,28.036722322789632,0.9814006526295732,-16.18979478276353,5.842933455433458,-2.63484026823871,-2.5775219489505203,8.626643772893773,-60.13653738839285,29.5302662713032,35.856081708449395,37.43753556773595,1577397228.999,-27.71714193129252,-51.10634916619607,6.2393765
17197,1577397229.7,-0.2336974400962271,7.451865074492663,9.45347605754573,-1.5715306116615853,3.535827085913681,9.029176807236093,8.699594510408726,-4.917164653498952,7.963698673304115,29.6420585818407,-15.070473275533535,-0.5751819145388719,-4.155973108803353,-6.515875095274391,1.42669677734375,8.722444859946647,35.23887076028964,-11.103560284870428,-16.18979478276353,5.842933455433458,-2.63484026823871,21.264556078841792,9.303243284493284,-65.39882347470238,29.817803336628028,35.95192739689101,37.43753556773595,1577397228.999,-27.71714193129252,-51.10634916619607,6.2393765
17198,1577397229.71,3.102622573331508,-1.872353290985852,9.334963075367996,1.344607010408727,-1.9169671950921772,6.74391132261695,-2.6369503504311167,1.1305887400557353,10.658372641809974,6.6012870974657005,-21.235024056783537,-2.467271758288872,3.626009313071647,-1.2058165015243905,-0.72479248046875,9.943147984946645,20.23948111185213,-15.192915753620426,-17.041889245014247,5.751637620192309,-2.867326174259769,23.036602418745275,8.11919413919414,-38.68260180574634,29.76988049240722,36.02381166322221,37.50941983406716,1577397228.999,-27.71714193129252,-51.10634916619607,6.2393765
17199,1577397229.72,4.32007411752096,-6.709837745331554,2.15594939738948,3.880066568514196,-5.083298890648818,6.089097168564215,-4.09023075814596,-4.0169448292802015,17.284325736292395,-14.7610175900343,15.416587271341465,1.469495819836128,-2.355435999428354,-2.1213438452743905,4.44793701171875,-3.759244593178354,-11.056295255335366,-7.533003644245427,-17.893983707264958,4.564791762057388,-2.7898308722527494,22.392221931507645,8.457493894993894,-12.978358230311354,29.62611195974481,36.28738730643664,37.43753556773595,1577397228.999,-27.71714193129252,-51.10634916619607,6.2393765
17200,1577397229.73,1.2890148157631478,-0.6046235119331167,14.48369374553401,4.662970511385289,-0.903022792016006,12.476827197861091,5.062802188631383,10.420091181461984,16.953925907190833,-14.5473945431593,13.036216177591465,1.377943085461128,3.412386266196646,-5.539312595274391,0.05340576171875,3.320833531821646,-23.782125333460368,-7.746626691120427,-17.704629382320356,5.842933455433458,-4.184746308379115,25.6141243676958,7.780894383394383,-17.026270604395606,29.67403480396561,35.99985024111181,37.725072633060776,1577397228.999,-27.71714193129252,-51.10634916619607,6.2393765
17201,1577397229.74,0.5396296961342415,4.873309886504382,11.955416792409013,-1.7343363245522103,5.494284043921494,19.98025520079078,8.491298965975133,11.329887812321358,5.033195841272865,16.3974296755907,8.519614615091463,1.713636444836128,-2.355435999428354,-1.2363340796493902,-0.74005126953125,-1.3178383431783538,-4.830709317835366,26.37202565262957,-17.704629382320356,5.842933455433458,-4.184746308379115,-3.2219024361881505,10.318142551892551,-15.204710036057692,29.96157186929044,36.19154161799503,37.58130410039836,1577397228.999,-27.71714193129252,-51.10634916619607,6.2393765
17202,1577397229.75,-0.2779901708091177,1.3634102527153205,9.72162664348323,0.1546887853110709,-1.4884050979242094,8.285777191757575,-1.4290756128822886,-7.025259215266531,4.905106052454506,7.1353447146532005,-5.884682259908536,-1.704332305163872,1.7796958365091462,8.72765517816311,-1.41143798828125,-7.497647913490852,13.647684236852134,9.892533465129572,-17.799306544792657,5.386454279227719,-3.177307382287853,-1.772046339903483,12.85539072039072,-15.002314417353482,29.67403480396561,36.11965735166382,37.50941983406716,1577397228.999,-27.71714193129252,-51.10634916619607,6.2393765
17203,1577397229.76,2.603431527188929,-5.883838172577648,5.725704072682449,6.492140579744664,-2.296448158226944,4.669335584091559,1.4643170934165397,-4.383257683284108,4.750680045374428,-11.4040839962843,2.843345083841464,0.4624157417111281,-2.538541468178354,-1.5415098608993902,1.36566162109375,4.999300328696647,34.84214224466464,7.420609637004573,-16.757857757597343,5.660341784951164,-2.7898308722527494,-3.382997557997558,11.163891941391942,-15.00231441735348,29.72195764818641,36.14361877377422,37.62922694461916,1577397228.999,-27.71714193129252,-51.10634916619607,6.2393765
17204,1577397229.77,-0.930410123201696,1.9859026843559449,9.056038581959792,-2.3137331263100225,4.974742283667588,11.320427796005625,3.3317943883384142,-3.834985503108327,11.341917215784584,1.7489921755907014,5.284751333841464,3.361585663586128,-2.172330530678354,-4.318609470274391,-1.38092041015625,14.581819859946648,36.18491568216464,-9.821822003620428,-17.325920732431147,4.38220009157509,-4.804708724435287,-3.382997557997558,11.163891941391942,-15.00231441735348,29.67403480396561,35.95192739689101,37.53338125617755,1577397228.999,-27.71714193129252,-51.10634916619607,6.2393765
17205,1577397229.78,1.7343363245522103,5.107941649199695,9.259545723073074,-3.829262777188929,6.444782103003525,7.973333875107183,0.0924395421470083,-12.784511308772393,8.502394046839271,18.6557304568407,-10.981117806783535,-0.971910430163872,-1.5619789681783538,5.3859803734756095,2.22015380859375,10.217806188071648,31.729349275914632,-18.427779034870422,-17.041889245014247,5.203862608745421,-4.262241610386141,-3.382997557997558,11.163891941391942,-17.026270604395606,29.69799622607601,36.047773085332615,37.38961272351514,1577397228.999,-27.71714193129252,-51.10634916619607,6.2393765
17206,1577397229.79,-0.0014598790610709,-0.4801250256049917,10.459040754811356,-0.7395455347572879,-2.894998573266006,7.046777832626715,2.6925425450766958,8.746544221012766,12.95321493306974,-17.9043281369093,-12.629067025533535,-2.619859648913872,4.297396031821647,-4.806890720274391,0.89263916015625,-7.299283655678353,-4.586568692835367,-25.55363352705793,-16.947212082541945,5.477750114468864,-3.874765100351035,-3.382997557997558,13.870289987789985,-15.407105654761905,29.67403480396561,36.02381166322221,37.653188366729566,1577397228.999,-27.71714193129252,-51.10634916619607,6.2393765
17207,1577397229.8,1.6864522913490851,-3.312465589569835,16.130904487721512,2.3046818761313834,-3.105688319359756,15.728153052353278,4.6222690831626325,20.928242267887768,6.024395328577553,-18.6672675900343,-0.3915181974085365,-0.4225940239138719,1.9170249380716464,6.2099549828506095,1.06048583984375,2.466341344321646,-16.579976895960368,13.341019793254572,-16.947212082541945,4.38220009157509,-3.874765100351035,-3.382997557997558,14.20858974358974,-13.787940705128204,29.67403480396561,36.047773085332615,37.58130410039836,1577397228.999,-27.71714193129252,-51.10634916619607,6.2393765
17208,1577397229.81,0.5539949060951791,-1.899886610077648,6.089622725026199,1.679795242830602,0.1360607284918054,9.838416968368904,0.4635407994712271,0.4626064768721418,7.427397501429115,-1.3027656369092986,25.395835318216463,2.964857147961128,-6.109098108803353,10.29931045160061,-3.85284423828125,-0.5854164681783537,-13.955465177210366,34.062455340129574,-16.947212082541945,5.842933455433458,-3.564783892322956,-3.382997557997558,16.914987789987787,-60.743724244505486,29.72195764818641,36.047773085332615,37.58130410039836,1577397228.999,-27.71714193129252,-51.10634916619607,6.2393765
17209,1577397229.82,0.9777685999428352,1.1395523974907107,9.133850135914871,4.404396732088414,0.1600027450933679,9.09382025206031,4.686912527986852,5.71787912091511,5.040378446253333,-0.3262031369092995,5.940879263528965,1.728895233898628,-2.416471155678354,-0.8396055640243902,2.34222412109375,-16.301969202553355,15.951761385289634,25.36494557450457,-17.041889245014247,4.838679267780831,-3.332297986301892,0.1610951218094073,15.561788766788766,-55.8862293956044,29.86572618084883,35.99985024111181,37.43753556773595,1577397228.999,-27.71714193129252,-51.10634916619607,6.2393765
17210,1577397229.83,-0.3821379430259146,4.356162327910632,4.044974507252761,-0.0200879358803353,3.678282084692978,6.277041998886481,-0.0691690699135384,-9.334466716487237,8.988416983850989,18.2895195193407,0.7071146150914634,1.835706757336128,-1.9587074838033536,1.1440370141006095,-0.90789794921875,-2.6300942025533534,22.787698885289632,1.7901164729420729,-19.030109656932574,4.929975103021979,-2.169868456196577,12.162681696610266,18.35276175213675,-62.261691384787085,29.96157186929044,36.16758019588463,37.58130410039836,1577397228.999,-27.71714193129252,-51.10634916619607,6.2393765
17211,1577397229.84,2.543576485685023,-1.698773670624523,6.1446893632097925,-0.209229867032679,-2.0450569839105373,5.287039612411872,6.815357803865758,-6.607471025569264,12.742525186975987,5.960417956840701,-13.330971322408535,-2.772447539538872,0.1775229849466463,3.219232326600609,1.73187255859375,3.076692906821646,1.425394197789634,-13.239790753620428,-17.515275057375753,7.486258489774114,-3.4097932883089155,24.969743880458168,18.944786324786325,-55.8862293956044,29.62611195974481,36.19154161799503,37.53338125617755,1577397228.999,-27.71714193129252,-51.10634916619607,6.2393765
17212,1577397229.85,0.5827253260170541,-2.263805262421398,7.437558259694168,-0.9681917933022104,0.5119503891363367,9.282962183212652,-11.20100968881002,-1.7927314869950457,11.03785360494474,-1.2112129025342986,1.988852896341464,1.072767304211128,1.2151206411966462,-5.203619235899391,2.98309326171875,14.154573766196648,-11.971822599085366,-18.549849347370422,-18.08333803220956,4.38220009157509,-4.804708724435287,24.969743880458168,18.944786324786325,-55.8862293956044,29.72195764818641,36.19154161799503,37.725072633060776,1577397228.999,-27.71714193129252,-51.10634916619607,6.2393765
17213,1577397229.86,0.903548348477991,0.2165876575004765,12.14695292522151,4.658182108064977,-1.8846454726800683,10.379506543564217,0.8921028966391958,7.951669269840891,9.110521268518958,-1.9131171994092984,5.208457388528964,1.423719452648628,0.5742515005716463,2.242669826600609,0.48065185546875,-4.400113733803353,-8.004537442835366,-15.345503644245428,-18.08333803220956,4.38220009157509,-4.804708724435287,24.969743880458168,18.26818681318681,-55.076646920787546,29.65007338185521,35.99985024111181,37.62922694461916,1577397228.999,-27.71714193129252,-51.10634916619607,6.2393765
17214,1577397229.87,1.358446663907679,0.9683669787895384,10.078362690846513,-0.3397138575111947,0.9129791672125096,11.523934937118904,0.0589207189048206,1.8620173472334691,9.4421181984506,-9.7866523556593,10.533774771341465,1.591566132336128,-1.1957680306783538,0.3200624047256097,1.67083740234375,0.3453696646341462,6.430277010289634,8.656571551067072,-18.08333803220956,6.208116796398045,-3.2548026842948694,27.063980463980464,21.48203449328449,-55.68383377690018,29.817803336628028,35.9040045526702,37.50941983406716,1577397228.999,-27.71714193129252,-51.10634916619607,6.2393765
17215,1577397229.88,-0.2720046666587271,2.7352878039848507,11.098292598073074,-0.1206444056068968,-0.8288025405511622,11.804056531357183,1.9431574254477892,4.264598713200266,11.660346036585365,4.434539050590701,5.528891958841464,0.4624157417111281,3.656526891196646,8.71239638910061,-1.62506103515625,-4.766324671303353,8.810648104039634,11.052201433879572,-17.325920732431147,5.842933455433458,-2.9448214762667897,27.063980463980464,21.48203449328449,-55.68383377690018,29.67403480396561,35.99985024111181,37.341689879294336,1577397228.999,-27.71714193129252,-51.10634916619607,6.2393765
17216,1577397229.89,0.908336751798304,-2.0219908947456164,9.458264460866042,1.8856965856040395,-2.665155213891006,7.805739758896246,-2.7686314417397107,-7.921887736995045,12.266079056604896,-5.178498058784299,-3.3822408536585367,-0.2394885551638719,2.191683141196646,-0.4123594702743902,0.99945068359375,-9.984830530678352,14.273294588414634,16.911576433879574,-17.704629382320356,5.842933455433458,-2.63484026823871,25.6141243676958,20.97458485958485,-55.076646920787546,29.62611195974481,36.28738730643664,37.58130410039836,1577397228.999,-27.71714193129252,-51.10634916619607,6.2393765
17217,1577397229.9,-0.2552452550376334,0.0944833728325077,10.951049195973464,-1.4326669153725229,1.060222569312119,9.199165125107184,-0.7910208704506478,-10.31369519549114,12.495922415979896,-1.8978584103467984,2.522910513528964,1.255872772961128,0.7878745474466463,-9.07935165777439,3.56292724609375,-14.928678186928352,0.5403844321646342,5.375931902629573,-18.65140100704337,6.025525125915753,-1.5499060401404114,25.936314611314607,18.26818681318681,-55.076646920787546,29.62611195974481,36.047773085332615,37.58130410039836,1577397228.999,-27.71714193129252,-51.10634916619607,6.2393765
17218,1577397229.91,1.626597249845179,1.6315608386528195,5.998643061940261,-0.6306093592201791,0.812422697485947,7.197612537216559,3.86450425772318,4.762592658512766,8.897437320765052,6.662322253715701,0.6155618807164634,1.133802460461128,-2.035001429115854,8.65136123285061,0.29754638671875,4.770418492759148,4.004129549352134,-4.206587628620427,-17.893983707264958,5.295158443986569,-2.7898308722527494,23.439340223268797,13.278265415140414,-16.520281557635073,29.86572618084883,36.19154161799503,37.55734267828795,1577397228.999,-27.71714193129252,-51.10634916619607,6.2393765
17219,1577397229.92,0.1781052454506478,1.7488767200004758,9.12786463176448,1.6558532262290395,3.4185112045660246,7.53519497129859,-3.3432398401772105,-2.680980302913014,3.441051737268959,1.2301933474657014,-0.8187642911585366,0.5539684760861281,-7.055143030678353,3.280267482850609,2.49481201171875,2.710481969321646,16.379007479039632,-1.460005597370427,-17.893983707264958,6.025525125915753,-3.4097932883089155,24.48645851502995,13.362840354090354,-9.132841474931318,29.62611195974481,36.047773085332615,37.725072633060776,1577397228.999,-27.71714193129252,-51.10634916619607,6.2393765
17220,1577397229.93,0.9203077600990852,4.454324595977038,8.368902705494948,-0.2164124720131478,2.714615916480087,11.957285437607185,5.350106387850133,-2.0489110646317643,6.8408180946908335,3.0307304568407014,1.2564310213414631,-0.3920764457888719,-3.240445765053354,2.578363185975609,0.20599365234375,-1.3178383431783538,18.820413729039632,-4.816939191120427,-17.136566407486544,4.929975103021979,-2.7898308722527494,24.48645851502995,13.362840354090354,-9.132841474931318,29.72195764818641,35.95192739689101,37.725072633060776,1577397228.999,-27.71714193129252,-51.10634916619607,6.2393765
17221,1577397229.94,0.247537093595179,-2.7821499218452264,8.76394597942073,1.4296011693442736,-4.3770094009027245,8.78017983457984,-1.042412044767054,2.7047763316084694,14.76562558980802,-8.5354316525343,2.797568716653964,0.401380585461128,-2.813199671303354,3.463372951600609,0.57220458984375,-1.0279213509908538,2.2493688071646343,-1.292158917682927,-16.947212082541945,5.477750114468864,-3.2548026842948694,-3.2219024361881505,12.85539072039072,-10.347215187156593,29.578189115524005,36.07173450744301,37.48545841195676,1577397228.999,-27.71714193129252,-51.10634916619607,6.2393765
17222,1577397229.95,-0.9256217198813832,-3.62850020871046,9.388832612721512,-2.265849093106897,-0.3092607802972559,13.231000720810307,2.469881790682164,-0.6099958668778581,10.27170907369474,-24.0688789181593,16.606772818216463,2.385023163586128,-5.407193811928353,-4.440679782774391,2.31170654296875,-8.397916468178353,-12.154928067835366,6.352494402629573,-17.893983707264958,4.929975103021979,-3.4097932883089155,-2.416426827141113,11.163891941391942,-11.76398451808608,29.67403480396561,36.33531015065744,37.58130410039836,1577397228.999,-27.71714193129252,-51.10634916619607,6.2393765
17223,1577397229.96,-0.0876511388266959,5.699309459258289,11.615440156666825,-3.015234212735804,4.301971617163681,14.988344739364996,-1.6385682581459602,-3.234040886409108,12.72337157369474,-2.7676093869092986,12.608970083841465,2.690198944836128,-0.0666176400533536,-4.867925876524391,1.60980224609375,-8.184293421303353,-14.199605802210366,4.887650652629573,-16.947212082541945,5.112566773504274,-2.63484026823871,-2.738617070759928,10.487292429792427,-13.787940705128204,29.62611195974481,35.856081708449395,37.58130410039836,1577397228.999,-27.71714193129252,-51.10634916619607,6.2393765
17224,1577397229.97,-1.5696619664634146,1.83626508059618,11.471788057057449,-1.8324985926186168,-3.201456385766006,9.713918482040778,-1.9593912806068976,3.7953351878096417,10.740972599085366,-1.6232002072217986,-2.069984994283536,-0.8650989067263719,4.144808141196647,0.5031678734756098,-2.08282470703125,-3.972867640053354,-12.643209317835366,0.7372600276295732,-16.757857757597343,5.112566773504274,-3.409793288308912,-3.2219024361881505,13.362840354090354,-13.585545086423991,29.79384191451762,36.047773085332615,37.58130410039836,1577397228.999,-27.71714193129252,-51.10634916619607,6.2393765
17225,1577397229.98,0.5851195276772103,-1.2821825817573351,9.4606586625262,-3.275005092862757,1.5414571030035251,10.10776465513648,3.44312476553568,-1.3869143055985609,8.164811612757239,-9.0542304806593,1.3479837557164631,1.072767304211128,0.0401938833841463,-9.46082138433689,1.47247314453125,-5.742887171303353,-5.151143888147866,1.942704363567073,-16.00044045781893,4.929975103021979,-4.0297557043650745,10.310087795802083,9.47239316239316,-16.823874985691393,29.72195764818641,36.19154161799503,37.62922694461916,1577397228.999,-27.71714193129252,-51.10634916619607,6.2393765
17226,1577397229.99,0.870029525235804,3.1830035144340694,9.486994880787918,2.7978874181235707,-1.5781876601800684,5.722784314560309,-5.988832674649866,-4.285095415217702,8.18396522603849,-0.1430976681592987,-6.433998666158536,1.286390351086128,-0.8295570931783537,11.45897842035061,-1.53350830078125,-5.132535608803353,2.3104039634146343,0.9203654963795732,-16.757857757597343,4.929975103021979,-3.719774496336995,23.19769754055468,10.318142551892551,-16.823874985691393,29.4823434270824,36.14361877377422,37.43753556773595,1577397228.999,-27.71714193129252,-51.10634916619607,6.2393765
17227,1577397230.0,2.885947323087367,-4.021149280976085,6.6881731400652615,-0.1182502039467406,-2.444888661156631,0.7332680547946839,4.054843289705602,3.350013679020579,6.342824149378334,-6.643341808784299,-8.783852181783537,0.3403454292111281,-4.613736780678353,1.1440370141006098,1.39617919921875,-0.5854164681783537,3.8362828696646334,-1.612593487995427,-17.136566407486544,3.4692417391636146,-4.0297557043650745,22.55331705331705,13.024540598290596,-16.823874985691393,29.62611195974481,36.19154161799503,37.53338125617755,1577397229.999,-27.717163758896024,-51.10640663553983,6.3625126
17228,1577397230.01,1.129800405362757,3.708530778838367,10.497347981373856,0.3486191197837271,5.032203123511338,11.425772669052495,4.059631693025914,-0.6171784718583269,8.861524295862708,11.7740165896532,-3.1533590177210367,0.7828503120236281,-3.362516077553354,-10.36108993902439,3.77655029296875,-0.2192055306783537,8.841165682164634,1.317094012004573,-17.893983707264958,4.929975103021977,-2.944821476266786,22.55331705331705,13.024540598290596,-16.823874985691393,29.69799622607601,36.28738730643664,37.62922694461916,1577397229.999,-27.717163758896024,-51.10640663553983,6.3625126
17229,1577397230.02,-0.0948337438071646,-1.5024491344917104,5.979489448659011,1.124340457674352,0.3072461471929784,8.642513239120857,-1.90073333993307,-1.0182072499344983,7.823637876184974,0.0400078005907013,2.232993521341464,-0.4225940239138719,-6.872037561928353,9.18541885003811,-3.02886962890625,-4.293302210365853,14.319070955602132,0.3100139338795731,-18.84075533198797,5.477750114468864,-3.564783892322956,-3.141354875283447,12.094216269841269,-13.281951658367674,29.72195764818641,36.07173450744301,37.55734267828795,1577397229.999,-27.717163758896024,-51.10640663553983,6.3625126
17230,1577397230.03,-1.610363394686071,-2.778558619354992,9.934710591237137,-1.0831134729897105,0.0881766952886805,11.780114514755622,1.5864213780845082,3.0674978831221416,9.689918070276772,-26.9070136837843,4.796470083841464,2.049329804211128,-5.254605921303353,-9.59815048589939,4.38690185546875,2.191683141196646,16.775735994664632,-0.7581013004954268,-18.84075533198797,5.477750114468864,-3.564783892322956,-3.382997557997558,10.148992673992671,-13.787940705128204,29.817803336628028,36.047773085332615,37.38961272351514,1577397229.999,-27.717163758896024,-51.10640663553983,6.3625126
17231,1577397230.04,-0.4659350011313833,1.2652479846489133,11.155753437916824,0.9112565099204458,-0.539104139672256,11.528723340439216,-0.3193631433998665,-0.7177349415848894,6.917432547815833,-16.8362129025343,10.442222036966465,1.469495819836128,-4.217008265053353,3.6464784203506095,-5.04302978515625,5.090853063071647,25.564798494664632,2.2631389338795733,-17.893983707264958,3.834425080128205,-2.7898308722527494,-3.382997557997558,10.148992673992671,-17.026270604395606,29.62611195974481,36.14361877377422,37.58130410039836,1577397229.999,-27.717163758896024,-51.10640663553983,6.3625126
17232,1577397230.05,1.0064990198647104,0.959987272978992,9.02012555705745,1.7707749059165396,-1.3770747207269434,4.015718530868902,1.5792387731040396,-3.188551054866139,10.434514786585364,-8.2302558712843,4.445517935403964,0.7218151557736281,-6.749967249428353,-0.4733946265243902,2.12860107421875,2.832552281821646,26.297220369664632,-5.244185284870427,-17.42059789490345,5.751637620192307,-3.332297986301892,-3.382997557997558,10.487292429792427,-16.216688129578753,29.74591907029682,35.99985024111181,37.58130410039836,1577397229.999,-27.717163758896024,-51.10640663553983,6.3625126
17233,1577397230.06,0.984951204923304,3.8629567859184446,9.640223787037918,-1.120223598722132,4.431258506812119,12.01833757994117,0.7532392003501333,2.9429993967940167,10.153196091517003,4.617644519340701,-14.612709603658535,-0.1174182426638719,-4.079679163490853,-1.4041807593368905,-0.37384033203125,8.279939977134148,26.541360994664632,-11.851240948932928,-17.515275057375753,4.929975103021979,-2.7898308722527494,10.954468283039713,15.05433913308913,-13.585545086423991,29.86572618084883,35.97588881900141,37.46149698984635,1577397229.999,-27.717163758896024,-51.10640663553983,6.3625126
17234,1577397230.07,2.833274886563929,-0.9876957775581168,7.416010444752762,4.864083450838415,-1.9277411025628808,5.059590454697028,-5.122131673673304,-0.9499725026200456,11.215024527796302,5.990935534965701,-14.643227181783535,-0.8498401176638719,-3.331998499428354,6.1489198266006095,0.63323974609375,1.1846030630716462,17.325052400914632,-0.0867145817454267,-17.515275057375753,4.929975103021979,-2.7898308722527494,-2.094236583522298,18.26818681318681,-10.549610805860803,30.009494713511245,36.14361877377422,37.58130410039836,1577397229.999,-27.717163758896024,-51.10640663553983,6.3625126
17235,1577397230.08,1.933055062345179,-4.555056251190929,8.842954634205887,3.1833538854087267,-2.3179959731683497,4.118669202255621,-1.8037681726967412,-4.977019695002858,9.665976053675209,-6.307648449409299,1.927817740091464,1.347425507336128,-3.484586390053354,-4.501714939024391,1.33514404296875,-7.177213343178353,8.139261385289634,-1.612593487995427,-18.08333803220956,5.112566773504274,-3.2548026842948694,-3.382997557997558,15.561788766788766,-17.026270604395606,29.86572618084883,36.38323299487824,37.58130410039836,1577397229.999,-27.717163758896024,-51.10640663553983,6.3625126
17236,1577397230.09,1.0531859522377574,-0.3699917492378047,7.550085737721512,0.0325845006431021,-0.5438925429925685,6.970163379501715,3.29588136343607,2.5946430552412822,10.084961344202553,-10.9463203244093,8.534873404153965,1.332166718273628,-4.552701624428353,-0.9921934546493902,-0.09918212890625,-5.163053186928353,-12.063375333460368,3.3770305354420733,-18.08333803220956,5.112566773504274,-3.4097932883089124,-3.382997557997558,15.561788766788766,-55.8862293956044,29.65007338185521,36.095695929553415,37.48545841195676,1577397229.999,-27.717163758896024,-51.10640663553983,6.3625126
17237,1577397230.1,-0.3965031529868521,2.993861583281726,6.807883223073074,0.2313032384360709,1.5342744980230565,14.198258191513434,0.5497320592368521,-0.2939612477372322,18.12229631734708,5.502654284965701,1.4395364900914631,0.5844860542111281,-7.024625452553353,-2.2739317358993905,0.66375732421875,-17.461637171303355,-42.64198861471037,7.969926043254573,-16.947212082541945,5.112566773504274,-2.324859060210617,-3.382997557997558,15.561788766788766,-55.8862293956044,29.62611195974481,36.33531015065744,37.62922694461916,1577397229.999,-27.717163758896024,-51.10640663553983,6.3625126
17238,1577397230.11,-0.0493439122641959,1.4208710925590695,12.084703682057448,-1.2363423792397104,-0.4672780898675684,10.307680493759529,1.131523062654821,-3.0664467701981706,15.34023398824552,-11.1599433712843,-10.950600228658535,-1.399156523913872,-4.155973108803353,-0.1682188452743902,-1.07574462890625,-18.865445765053355,-59.51820931783536,3.819535418254573,-16.947212082541945,5.112566773504274,-2.324859060210617,-0.8054756090470375,16.23838827838828,-55.48143815819597,29.817803336628028,35.95192739689101,37.58130410039836,1577397229.999,-27.717163758896024,-51.10640663553983,6.3625126
17239,1577397230.12,-0.7987290318931021,0.1591268176567265,12.48573246013362,-2.0791013636147104,1.09134719089415,13.333951392197028,1.2248969274009145,-1.194181071955983,12.62042090230802,-11.2514961056593,2.049888052591464,0.920179413586128,-4.369596155678353,-8.83521103277439,2.00653076171875,-19.231656702553355,-65.59120736471037,-5.732466534870427,-17.42059789490345,4.656087597298536,-3.332297986301892,26.258504854933427,18.944786324786325,-68.839548992674,29.65007338185521,35.95192739689101,37.43753556773595,1577397229.999,-27.717163758896024,-51.10640663553983,6.3625126
17240,1577397230.13,0.3385167566811166,-1.7155330822456167,9.769510676686355,0.3809408421958365,-2.0259033706292877,12.868279169296638,-0.5492065027748667,3.3428310740401086,4.5304134926400526,-9.3899238400343,-0.4830709317835365,1.530530976086128,-4.873136194740853,-0.9921934546493903,0.08392333984375,-17.44637838224085,-25.872579435022868,16.85054127762957,-17.893983707264958,4.199608421092795,-3.4097932883089155,24.969743880458168,19.28308608058608,-62.3628891941392,29.72195764818641,36.14361877377422,37.58130410039836,1577397229.999,-27.717163758896024,-51.10640663553983,6.3625126
17241,1577397230.14,0.4606210413490853,1.3634102527153196,14.871554414479323,-2.7686314417397107,3.859044310034775,11.492810315536872,0.1499003819907584,-10.510019731623954,1.7938409950814582,-4.629181652534299,-5.548988900533536,2.354505585461128,-2.721646936928354,-8.16382431402439,3.28826904296875,-9.984830530678352,14.120706697789634,1.530717058879573,-18.272692357154163,4.929975103021979,-3.099812080280829,22.55331705331705,18.775636446886445,-55.68383377690018,29.86572618084883,35.99985024111181,37.62922694461916,1577397229.999,-27.717163758896024,-51.10640663553983,6.3625126
17242,1577397230.15,2.4717504358803355,4.188568211699694,6.685778938405106,1.708525662752477,0.5287098007574305,6.103462378525153,0.9974477696860709,3.127352924626048,3.43386913228849,13.1320488162157,-5.060707650533536,1.194837616711128,-2.111295374428354,9.20067763910061,-1.86920166015625,5.426546422446647,30.935892244664632,4.338334246379573,-18.272692357154163,4.929975103021979,-3.099812080280829,27.547265829408687,20.97458485958485,-55.8862293956044,29.86572618084883,36.14361877377422,37.62922694461916,1577397229.999,-27.717163758896024,-51.10640663553983,6.3625126
17243,1577397230.16,1.9701651880776008,-1.9956546764838976,2.048210322682449,5.5967091588462266,1.1727500473394628,0.9176215826267152,4.859295047518102,-2.6833745045731705,11.131227469690833,7.7609550662157,-6.678139291158536,1.393201874523628,-8.367398890053353,6.5151307641006095,-1.74713134765625,1.7034018911966462,24.588235994664632,-0.2698200504954268,-17.325920732431147,4.564791762057388,-4.184746308379122,24.00317314960172,18.26818681318681,-55.48143815819597,29.602150537634408,36.047773085332615,37.772995477281576,1577397229.999,-27.717163758896024,-51.10640663553983,6.3625126
17244,1577397230.17,0.1350096155678343,-3.805671131562023,9.245180513112135,2.25560074209818,-1.0502661941156153,11.07981052915992,2.6853599400962267,-2.239250096614188,12.743722287806069,-16.3784492306593,-0.1473775724085365,0.1267223823361281,-7.1466957650533525,-3.052129978086891,1.19781494140625,0.5895102896341462,-3.5337122475228657,-7.121016339557928,-17.325920732431147,6.208116796398045,-2.324859060210617,19.331414617128907,16.407538156288155,-55.27904253949176,29.72195764818641,36.14361877377422,37.50941983406716,1577397229.999,-27.717163758896024,-51.10640663553983,6.3625126
17245,1577397230.18,-1.2488389440024772,-0.9781189709174916,13.83965349895198,-0.5851195276772103,1.7545410507574315,10.525552844833747,-7.772512911466273,3.950958295719798,11.923708219202553,-16.6531074337843,-6.647621713033536,2.842786835461128,-6.475309046303353,-4.043951267149391,1.42669677734375,-2.324918421303354,0.5098668540396342,4.155228777629573,-18.46204668209877,5.112566773504274,-3.2548026842948694,19.331414617128907,16.069238400488402,-8.728050237522895,29.72195764818641,35.95192739689101,37.58130410039836,1577397229.999,-27.717163758896024,-51.10640663553983,6.3625126
17246,1577397230.19,-2.819435233064977,6.7551523913871945,15.951339363209792,-3.860387398770961,2.9971317123785246,12.000381067489997,-2.9697443811928355,-6.755911528498952,9.768926725061927,-1.3638007931592986,13.921225943216465,3.178480194836128,-0.7990395150533537,-11.09351181402439,2.73895263671875,-6.536344202553353,1.333841463414634,0.9508830745045732,-18.46204668209877,5.112566773504274,-3.2548026842948694,22.55331705331705,8.964943528693528,-7.513676525297618,29.86572618084883,36.14361877377422,37.53338125617755,1577397229.999,-27.717163758896024,-51.10640663553983,6.3625126
17247,1577397230.2,1.7774319544350228,0.7768308459770389,8.212082496754714,-0.7503194422279915,2.302813230933213,10.987633765243904,-2.912283541349085,0.1058704295088605,15.19418768697599,-11.1141670040968,-1.6732564786585362,0.6607799995236281,-2.691129358803354,-2.6096250952743905,0.29754638671875,-4.400113733803353,1.242288729039634,-1.704146222370427,-18.272692357154163,5.660341784951159,-4.184746308379121,23.036602418745275,10.825592185592186,-9.33523709363553,29.74591907029682,35.99985024111181,37.58130410039836,1577397229.999,-27.717163758896024,-51.10640663553983,6.3625126
17248,1577397230.21,1.4111191004311163,-1.806512745331554,8.40002732707698,2.7883106114829457,-2.480801686058975,6.0950826727146055,2.706907755037633,-0.2819902394364519,9.943703446253334,-4.110382824409299,-10.004555306783535,0.1877575385861281,-1.4093910775533538,-4.9747373999618905,1.13677978515625,-15.111783655678355,3.4395543540396343,5.406449480754573,-16.757857757597343,4.929975103021979,-2.7898308722527494,24.00317314960172,11.840491452991452,-9.537632712339745,29.86572618084883,36.11965735166383,37.58130410039836,1577397229.999,-27.717163758896024,-51.10640663553983,6.3625126
17249,1577397230.22,0.6330035608803353,-3.5327321423042104,6.774364399830887,-0.1517690271889281,0.1791563583746179,7.475339929794684,-1.0088932215248665,1.937434699528392,6.9892585976205215,-1.4553535275342986,0.9512552400914634,3.392103241711128,-2.019742640053354,-7.5229551733993905,1.91497802734375,-0.1581703744283537,-2.5113733803353657,1.347611590129573,-16.56850343265274,5.477750114468864,-3.2548026842948694,22.392221931507645,10.825592185592186,-10.14481956845238,29.817803336628028,35.856081708449395,37.58130410039836,1577397229.999,-27.717163758896024,-51.10640663553983,6.3625126
17250,1577397230.23,3.166068917325648,2.440800999785632,6.997025154225418,2.1634239781821645,2.0370568466558687,8.495269837021246,1.3134823888266958,0.4506354685713605,13.197423502405677,13.3761894412157,-2.8329244474085367,1.988294647961128,-2.813199671303354,-3.0673887671493905,0.57220458984375,-5.681852015053353,2.0662633384146343,0.3405315120045732,-16.56850343265274,5.477750114468864,-3.2548026842948694,-3.2219024361881505,11.671341575091573,-8.728050237522895,29.86572618084883,36.047773085332615,37.62922694461916,1577397229.999,-27.717163758896024,-51.10640663553983,6.3625126
17251,1577397230.24,-0.117578659578649,1.7728187366020385,9.74078025676448,-0.0021314234291634,-0.3679187209710842,11.939328925156012,1.3589722203696646,0.4195108469893293,14.37058231588224,-0.4787910275342995,-9.424721322408535,-0.3157825004763719,-3.3319984994283534,-4.349127048399391,0.14495849609375,1.1540854849466462,-7.134786466272866,-4.237105206745427,-16.095117620291234,5.021270938263126,-3.0223167782738094,-2.094236583522298,10.148992673992671,-13.38314946771978,29.67403480396561,35.999850241111815,37.50941983406716,1577397229.999,-27.717163758896024,-51.10640663553983,6.3625126
17252,1577397230.25,1.5906842249428352,-3.1592366833198358,12.240326789967606,0.1187757604087271,-0.8671097671136622,10.446544190048591,-0.2355660852943978,8.018706916325266,11.22220713277677,-22.8176582150343,-6.983315072408536,-0.0869006645388719,-3.179410608803354,4.6840760766006095,0.41961669921875,-1.1957680306783538,-18.807760099085368,6.779740496379573,-15.811086132874326,4.747383432539684,-4.184746308379115,-3.2219024361881505,10.318142551892551,-15.204710036057692,29.5302662713032,36.047773085332615,37.58130410039836,1577397229.999,-27.717163758896024,-51.10640663553983,6.3625126
17253,1577397230.26,2.7015937952553357,-0.0707165417182729,8.658601106373855,2.7045135533774767,-3.345108485375381,9.163252100204842,-4.116566976407679,-7.210809843928639,14.653098111780675,5.441619128715701,11.144126333841465,2.079847382336128,-5.437711390053353,0.1369569359756097,2.52532958984375,-18.346646936928355,-25.246969083460368,14.561722918254572,-16.757857757597343,4.564791762057388,-2.7898308722527494,-2.738617070759928,8.79579365079365,-16.62147936698718,29.817803336628028,36.28738730643664,37.62922694461916,1577397229.999,-27.717163758896024,-51.10640663553983,6.3625126
17254,1577397230.27,-0.4204451695884146,-0.1976092297065542,18.029506404225412,-1.1453627161537727,-0.203915907250381,12.622873499130622,-4.480485628751429,-8.467765715510671,10.465639408167396,-22.6345527462843,-1.6122213224085369,1.805189179211128,-2.508023890053354,-10.78833603277439,2.76947021484375,-17.614225061928355,-32.327047208460364,-6.861616925495427,-17.325920732431147,5.112566773504274,-4.184746308379115,24.32536339322053,8.11919413919414,-63.98205414377289,29.86572618084883,36.19154161799503,37.58130410039836,1577397229.999,-27.717163758896024,-51.10640663553983,6.3625126
17255,1577397230.28,0.640186165860804,1.6100130237114134,11.232367891041823,0.7975319310630239,2.58532902683165,11.540694348739995,4.813805215975133,9.357065644352607,12.258896451624429,0.1315605349657014,-2.3293844083460367,0.7675915229611281,-1.2262856088033538,2.517328029725609,-0.41961669921875,-3.011563929115854,-25.765767911585368,2.9192668635670733,-17.041889245014247,5.203862608745421,-4.107251006372095,24.16426827141113,9.64154304029304,-14.597523179945052,29.74591907029682,35.95192739689101,37.50941983406716,1577397229.999,-27.717163758896024,-51.10640663553983,6.3625126
17256,1577397230.29,0.9705859949623664,2.517415452910632,9.87485554973323,4.035689676424352,-0.242223133812881,13.216635510849372,-6.115725362638147,-6.236369768245046,9.431344290979895,6.662322253715701,-3.6568990567835367,-0.1174182426638719,-3.423551233803354,-3.9523985327743913,0.93841552734375,-14.562467249428352,-17.922750333460368,9.984086199504572,-18.08333803220956,3.6518334096459095,-2.9448214762667897,25.29193412407698,11.840491452991452,-8.930445856227106,29.67403480396561,36.19154161799503,37.38961272351514,1577397229.999,-27.717163758896024,-51.10640663553983,6.3625126
17257,1577397230.3,-0.4180509679282584,-0.3915395641792105,8.040897078053543,-1.741518929532679,0.9237530746832128,11.401830652450936,0.2265148351157584,-9.35601453142864,6.47929364400724,-0.0210273556592986,9.007895865091465,2.079847382336128,3.015657750571646,-6.515875095274391,0.26702880859375,-13.860562952553352,-16.915670255335368,-6.647993878620427,-18.46204668209877,6.938483478327229,-3.2548026842948694,-3.2219024361881505,13.024540598290596,-13.585545086423991,29.72195764818641,36.047773085332615,37.58130410039836,1577397229.999,-27.717163758896024,-51.10640663553983,6.3625126
17258,1577397230.31,0.7778527613197884,-2.1584603893745227,8.064839094655104,-0.946643978360804,-2.148007655297256,6.153740613388434,7.622203763338414,11.5190297434737,2.53364930806974,-5.6972968869093,-7.395302377096036,1.042249726086128,0.3301108755716463,5.2639100609756095,-1.01470947265625,5.670687047446647,-7.180562833460366,-5.732466534870427,-17.136566407486544,5.660341784951164,-3.719774496336995,-3.2219024361881505,13.701140109890108,-10.752006424565018,29.74591907029682,36.28738730643664,37.58130410039836,1577397229.999,-27.717163758896024,-51.10640663553983,6.3625126
17259,1577397230.32,1.4685799402748665,-0.0276209118354604,12.314547041432448,2.1083573399985704,-0.5235418288812405,9.682793860458748,2.024560281893102,0.1070675303389359,8.853144590052162,1.8100273318407007,-12.506996713033535,-0.8193225395388719,-1.7603432259908538,-9.27771591558689,1.91497802734375,-1.5924965463033536,2.7529088462271343,9.831498308879572,-16.947212082541945,4.747383432539684,-4.184746308379115,-3.3024499970928543,13.785715048840048,-12.674764802255034,29.817803336628028,36.14361877377422,37.50941983406716,1577397229.999,-27.717163758896024,-51.10640663553983,6.3625126
17260,1577397230.33,-0.3605901280845084,1.8063375598442255,11.77106326457698,-3.383941268399867,3.7704588486089934,11.624491406845468,1.6821894444907584,-6.181303130061452,12.649151322229896,0.1010429568407013,0.8597025057164634,2.079847382336128,-3.698209436928354,-1.6330625952743902,1.60980224609375,-5.956510218178353,-1.443258145960366,-3.2605427067454267,-17.325920732431147,5.477750114468864,-2.9448214762667897,-3.382997557997558,13.870289987789988,-14.19273194253663,29.96157186929044,36.19154161799503,37.58130410039836,1577397229.999,-27.717163758896024,-51.10640663553983,6.3625126
17261,1577397230.34,-0.1546887853110709,0.456007823516101,13.193219050709793,-0.1924704554115853,-1.2932776626214746,11.598155188583748,-5.555482174161585,6.108133991520578,12.709006363733804,-9.1457832150343,-1.6427389005335369,1.164320038586128,-3.942350061928354,5.7827088891006095,-0.34332275390625,1.7034018911966462,-0.3141077553353658,1.408646746379573,-17.515275057375753,4.564791762057388,-3.719774496336995,26.58069509855224,14.5468894993895,-13.787940705128204,29.72195764818641,36.047773085332615,37.58130410039836,1577397229.999,-27.717163758896024,-51.10640663553983,6.3625126
17262,1577397230.35,0.3552761683022103,-1.259437665985851,11.265886714284012,0.5952218907798209,-1.8726744643792872,9.187194116806404,-0.9250961634193978,-3.8158318898270767,11.799209732874427,-7.1011054806593,3.499473013528964,2.278211640148628,3.534456578696646,-7.156744235899391,0.69427490234375,-0.2192055306783537,-9.713521817835366,3.2091838557545733,-16.18979478276353,5.477750114468864,-3.2548026842948694,-3.382997557997558,15.561788766788766,-8.930445856227106,29.67403480396561,35.99985024111181,37.772995477281576,1577397229.999,-27.717163758896024,-51.10640663553983,6.3625126
17263,1577397230.36,1.9833332972084603,5.641848619414539,11.593892341725418,1.957522635408727,1.4013963058843846,12.857505261825937,2.0580791051352887,3.76421056622761,7.863142203577552,19.5407402224657,-5.548988900533536,0.981214569836128,-0.9211098275533536,-0.6107237280868902,1.19781494140625,-1.7450844369283538,-10.110250333460366,-3.0164020817454267,-17.704629382320356,4.0170167506105,-3.564783892322956,0.0,16.069238400488402,-35.44427190647894,29.67403480396561,36.23946446221584,37.58130410039836,1577397229.999,-27.717163758896024,-51.10640663553983,6.3625126
17264,1577397230.37,0.9179135584389292,1.2867957995903196,8.076810102955886,3.935133206697789,1.1535964340582128,5.607862634872808,1.0237839879477897,-4.134260710627858,3.7858167763314583,10.1718437380907,-12.903725228658535,0.2793102729611281,1.3677085318216462,4.4094178734756095,-1.93023681640625,1.5508140005716462,14.181741854039634,-2.5586384098704267,-17.704629382320356,6.573300137362635,-2.63484026823871,-3.060807314378743,14.20858974358974,-55.8862293956044,29.86572618084883,36.14361877377422,37.53338125617755,1577397229.999,-27.717163758896024,-51.10640663553983,6.3625126
17265,1577397230.38,2.668074972013148,-1.854396778534679,4.509449629323074,1.5600851598227896,-0.654025819359756,6.177682629989996,-0.9586149866615852,5.004407026188547,2.490553678186928,-0.6008613400342987,-6.952797494283536,0.5844860542111281,-2.202848108803354,-4.318609470274391,3.89862060546875,5.212923375571647,23.367532869664632,6.108353777629573,-17.893983707264958,4.929975103021979,-4.0297557043650745,-0.8054756090470375,12.85539072039072,-55.8862293956044,29.72195764818641,35.99985024111181,37.62922694461916,1577397229.999,-27.717163758896024,-51.10640663553983,6.3625126
17266,1577397230.39,1.5906842249428352,0.5278338733207889,7.636276997487136,0.9208333165610708,0.923753074683212,11.024743890976325,1.0836390294516958,-6.338123338801688,8.379092661341224,1.9168388552782012,-7.166420541158536,-0.2242297661013719,-0.4633461556783537,-0.1834776343368902,0.48065185546875,1.5965903677591464,19.491800447789632,-1.368452862995427,-19.030109656932574,4.929975103021979,-3.719774496336995,12.726514622943192,16.0692384004884,-68.839548992674,29.67403480396561,36.07173450744301,37.653188366729566,1577397229.999,-27.717163758896024,-51.10640663553983,6.3625126
17267,1577397230.4,-1.3302418004477896,-0.7099683849799917,13.643328962819169,1.5888155797446646,-0.6995156509027247,13.168751477646246,2.8002816197837266,5.322835846989329,10.321987308558022,-15.0051582150343,4.430259146341464,1.652601288586128,-2.355435999428354,2.791986232850609,1.21307373046875,10.339876500571648,28.952249666539632,0.4015666682545732,-17.325920732431147,5.842933455433458,-3.2548026842948694,28.19164631664632,18.60648656898657,-68.02996651785715,29.62611195974481,36.047773085332615,37.38961272351514,1577397229.999,-27.717163758896024,-51.10640663553983,6.3625126
17268,1577397230.41,1.664904476407679,-1.852002576874523,8.677754719655105,-1.4781567469154917,2.539839195288681,11.01636418516578,0.8059116368735709,-3.5261334889481706,10.73139579244474,-15.4324043087843,10.869468130716465,2.781751679211128,-1.3483559213033538,-1.0227110327743902,3.10516357421875,4.755159703696647,25.931009432164632,3.3617717463795733,-18.272692357154163,4.199608421092795,-4.0297557043650745,24.647553636839355,18.26818681318681,-55.076646920787546,29.67403480396561,36.14361877377422,37.53338125617755,1577397229.999,-27.717163758896024,-51.10640663553983,6.3625126
17269,1577397230.42,1.6720870813881477,2.172650413848132,10.593116047780104,3.130681448885289,-0.807254725609756,7.379571863388434,-2.414289596036585,-6.44466531267864,13.207000309046302,-7.558869152534299,1.3174661775914631,1.896741913586128,2.710481969321646,4.8976991234756095,1.02996826171875,1.0320151724466462,16.836771150914632,-5.335738019245427,-16.56850343265274,6.208116796398045,-3.2548026842948694,24.647553636839355,18.26818681318681,-55.8862293956044,29.86572618084883,36.047773085332615,37.62922694461916,1577397229.999,-27.717163758896024,-51.10640663553983,6.3625126
17270,1577397230.43,2.0838897669350227,-3.1688134899604603,10.284264033619948,1.8773168797934925,-0.6408577102288966,9.261414368271248,0.5281842442954459,2.154109949772532,9.014753202112708,3.702117175590701,-5.548988900533536,-0.5751819145388719,1.3371909536966462,-2.685919040586891,1.18255615234375,10.110994664634148,14.822610994664632,-6.846358136432928,-16.947212082541945,4.38220009157509,-3.564783892322956,23.842078027792315,18.43733669108669,-55.8862293956044,29.62611195974481,36.11965735166382,37.50941983406716,1577397229.999,-27.717163758896024,-51.10640663553983,6.3625126
17271,1577397230.44,0.5647688135658822,1.607618822051257,9.039279170338698,-1.971362288907679,4.115223887671493,12.421760559677496,0.8394304601157584,1.709985541813548,10.530282852991617,8.5238945193407,4.506553091653964,1.759412812023628,-0.0055824838033536,-3.1284239233993905,3.37982177734375,7.623812047446647,0.9676305259146342,-1.673628644245427,-16.947212082541945,4.747383432539684,-3.2548026842948694,22.392221931507645,18.26818681318681,-55.8862293956044,29.76988049240722,36.19154161799503,37.58130410039836,1577397229.999,-27.717163758896024,-51.10640663553983,6.3625126
17272,1577397230.45,2.9841095911537727,-0.7458814098823354,4.899704499928542,6.382007303377477,-0.002802967797256,7.896719421982183,2.5680440587485704,4.4489522410322975,9.29487479635099,10.1413261599657,-8.051430306783537,0.6150036323361281,-0.0361000619283536,13.16796279535061,-2.66265869140625,4.846712438071647,-2.9996546303353657,1.256058855754573,-16.947212082541945,4.747383432539684,-3.2548026842948694,20.620175591604163,16.407538156288155,-16.823874985691393,29.62611195974481,35.99985024111181,37.53338125617755,1577397229.999,-27.717163758896024,-51.10640663553983,6.3625126
17273,1577397230.46,2.1988114466225226,0.0777239612114135,5.222921724049637,3.3317943883384142,-3.258917225609756,6.498505652450934,2.235250027986852,-1.950748796565358,3.991718119104896,0.4062187380907013,-9.851967416158535,-0.6362170707888719,-3.667691858803354,0.3200624047256097,1.94549560546875,-5.590299280678353,9.878763338414634,12.181351824504572,-18.46204668209877,6.208116796398045,-2.9448214762667897,19.975795104366533,16.069238400488402,-16.823874985691393,29.817803336628028,36.19154161799503,37.43753556773595,1577397229.999,-27.717163758896024,-51.10640663553983,6.3625126
17274,1577397230.47,1.5858958216225227,-0.4322409924018672,8.366508503834792,0.5856450841391959,0.8519270248785247,9.41943167784156,2.410026749178258,-3.64823777361614,9.342758829554114,-4.2782295040968,2.049888052591464,-0.5294055473513719,-1.6077553353658538,-1.2058165015243905,1.09100341796875,-5.6208168588033525,9.268411775914634,0.7525188166920735,-18.556723844571067,5.569045949710014,-4.107251006372098,24.32536339322053,14.37773962148962,-17.026270604395606,29.67403480396561,36.095695929553415,37.653188366729566,1577397229.999,-27.717163758896024,-51.10640663553983,6.3625126
17275,1577397230.48,0.1014907923256468,3.204551329375476,12.637764265553542,3.918373795076696,-1.3387674941644434,7.875171607040778,3.4922058995688827,5.787310969059641,12.05299510885099,0.4977714724657013,0.0052103182164634,1.286390351086128,-1.6230141244283538,3.524408107850609,0.35858154296875,7.806917516196647,7.467874666539634,1.011918230754573,-17.515275057375753,5.295158443986569,-3.099812080280829,24.32536339322053,14.20858974358974,-6.90648966918498,29.67403480396561,36.28738730643664,37.58130410039836,1577397229.999,-27.717163758896024,-51.10640663553983,6.3625126
17276,1577397230.49,-0.6215581090415396,3.946753844023913,13.097450984303542,-1.214794564298304,2.0609988632574314,16.530210608505623,-2.648921358731898,-5.192497844416921,13.455997281702553,0.2841484255907013,3.8504251619664633,-1.643297148913872,0.0859702505716463,-8.95728134527439,0.54168701171875,0.2995932974466463,-0.6192835365853658,-2.1619098942454267,-17.515275057375753,5.295158443986569,-3.099812080280829,-2.738617070759928,14.20858974358974,-12.573566992902933,29.67403480396561,36.14361877377422,37.58130410039836,1577397229.999,-27.717163758896024,-51.10640663553983,6.3625126
17277,1577397230.5,-0.7077493688071647,-5.189519691132336,8.883656062428543,-3.024811019376429,-1.058645899926162,10.755396204208749,0.7316913854087271,-1.280372331721608,10.74336680074552,-15.8901679806593,2.294028677591464,0.035169647961128,1.7644370474466462,2.608880764100609,-0.58746337890625,-0.6769692025533537,-11.758199552210366,-12.415816144245428,-17.515275057375753,5.295158443986569,-3.719774496336995,-2.738617070759928,12.85539072039072,-9.33523709363553,29.62611195974481,35.99985024111181,37.58130410039836,1577397229.999,-27.717163758896024,-51.10640663553983,6.3625126
17278,1577397230.51,-0.3007350865806021,3.643887334014148,10.12385252238948,-0.084731380704554,-0.0746290176019437,11.533511743759528,-2.1102259851967418,2.237907007877999,17.99181232686857,-1.0738838009717997,1.4700540682164631,1.591566132336128,-1.3636147103658538,-3.8761045874618905,1.15203857421875,-3.606656702553353,-28.13088021627287,-0.7123249333079269,-17.136566407486548,6.025525125915752,-3.719774496336996,-2.577521948950521,12.178791208791209,-10.549610805860803,29.76988049240722,36.16758019588463,37.60526552250876,1577397229.999,-27.717163758896024,-51.10640663553983,6.3625126
17279,1577397230.52,0.4941398645912728,-1.2366927502143668,9.273910933034012,-0.726377425626429,1.8957989487066504,13.499151306747809,1.9240038121665397,-0.4232481373856706,7.527953971155678,-1.0281074337842986,-9.546791634908535,-1.246568633288872,-2.416471155678354,0.7778260766006098,-2.32696533203125,-17.034391077553355,-44.07631478658536,-6.464888409870427,-18.08333803220956,7.303666819291819,-2.9448214762667897,-3.060807314378743,10.487292429792427,-10.549610805860803,29.817803336628028,36.047773085332615,37.43753556773595,1577397229.999,-27.717163758896024,-51.10640663553983,6.3625126
17280,1577397230.53,0.2403544886147103,-3.482453907440929,7.459106074635573,0.9830825597251334,-2.62445378566835,6.508082459091559,0.2624278600181021,15.871688361637764,15.9651206215463,-9.1457832150343,-1.9479146817835369,0.1572399604611281,-0.7685219369283537,-0.9921934546493902,0.08392333984375,-9.588102015053352,-50.91225228658536,10.716508074504572,-18.08333803220956,7.303666819291819,-2.9448214762667897,-3.382997557997558,12.85539072039072,-10.549610805860803,29.62611195974481,35.95192739689101,37.43753556773595,1577397229.999,-27.717163758896024,-51.10640663553983,6.3625126
17281,1577397230.54,-1.1578592809165396,-1.9884720715034288,9.704867231862137,0.0421613072837271,-4.230963099633193,9.972492261337653,1.677401041170446,1.978136127751048,9.105732865198648,-7.070587902534299,9.770835318216465,3.666761444836128,-0.0971352181783536,-6.210699314024391,1.94549560546875,-16.332486780678355,-57.53456673971037,30.82759205887957,-16.757857757597343,4.199608421092795,-3.4097932883089155,-2.416426827141113,12.85539072039072,-10.549610805860803,29.62611195974481,36.19154161799503,37.58130410039836,1577397229.999,-27.717163758896024,-51.10640663553983,6.3625126
17282,1577397230.55,-0.3079176915610709,-2.553503663300304,5.930408314625809,-0.3480935633217416,-1.6907151382074126,11.573016071152107,-0.1050820948158824,-6.557192790705985,9.053060428675208,-3.8662421994092986,-2.893959603658536,1.210096405773628,1.3677085318216462,-5.508795017149391,0.72479248046875,-17.934659632240855,-53.68935189596037,3.834794207317073,-16.56850343265274,4.929975103021979,-2.4798496642246635,10.793373161230305,12.85539072039072,-36.45625,29.74591907029682,36.02381166322221,37.413574145625546,1577397229.999,-27.717163758896024,-51.10640663553983,6.3625126
17283,1577397230.56,0.3768239832436165,5.447918284941882,16.06147263957698,0.2528510533774771,7.349790330542588,20.229252173447023,7.538406705232945,13.130327460758856,5.796946170862709,5.105925769340701,-18.610512338033537,-0.0258655082888719,1.6423667349466462,-10.63574814214939,0.63323974609375,-8.611539515053353,-25.246969083460368,10.594437762004572,-17.325920732431147,6.573300137362635,-3.2548026842948694,22.392221931507645,8.79579365079365,-12.978358230311354,29.86572618084883,35.95192739689101,37.43753556773595,1577397229.999,-27.717163758896024,-51.10640663553983,6.3625126
17284,1577397230.57,0.180499447110804,9.6880494250786,14.043160640065262,-0.7383484339272103,3.497519859351181,16.592459851669684,1.354183817049352,-5.309813725764577,7.6476640541634895,14.8105156130907,-22.425209603658537,0.920179413586128,4.114290563071647,-4.776373142149391,-3.54766845703125,-10.656217249428352,-9.530416349085366,-10.432173566120428,-17.325920732431147,6.573300137362635,-3.2548026842948694,25.936314611314607,12.85539072039072,-10.549610805860803,29.72195764818641,36.047773085332615,37.58130410039836,1577397229.999,-27.717163758896024,-51.10640663553983,6.3625126
17285,1577397230.58,-1.0453318028891958,-2.5319558483588978,11.32334755412776,3.683742032381383,-2.784865296898819,9.639698230575934,1.2464447423423208,4.848783918278391,7.669211869104896,10.4159843630907,-6.464516244283536,-0.7888049614138719,1.2456382193216462,2.639398342225609,-0.86212158203125,7.532259313071647,-7.272115567835366,-15.406538800495428,-17.136566407486544,5.660341784951164,-2.7898308722527494,-2.416426827141113,10.487292429792427,-13.787940705128204,29.62611195974481,36.047773085332615,37.58130410039836,1577397229.999,-27.717163758896024,-51.10640663553983,6.3625126
17286,1577397230.59,0.7778527613197884,-5.755748383759288,8.216870900075026,1.4583315892661486,-2.499955299340225,9.196770923447028,-0.5204760828529915,-4.477828648860281,9.37747475362638,-30.4928291134718,-0.2694478849085362,1.881483124523628,-1.2720619759908538,-14.99976181402439,1.25885009765625,1.3829673208841462,13.647684236852132,7.237504168254572,-17.23124356995885,5.751637620192309,-3.797269798344015,-1.6109512180940753,12.347941086691083,-15.407105654761905,29.67403480396561,36.047773085332615,37.653188366729566,1577397229.999,-27.717163758896024,-51.10640663553983,6.3625126
17287,1577397230.6,0.0655777674233031,3.3960874621879755,10.79422898723323,2.137087759920446,6.507031346167588,16.417683130478277,7.526435696932164,14.420802155583075,1.812994608362708,14.2001640505907,-15.711342416158535,0.5539684760861281,6.464144078696647,-6.454839939024391,-3.42559814453125,15.649935094321648,37.55820669778964,9.221146746379572,-17.136566407486544,4.929975103021979,-3.719774496336995,-3.060807314378743,14.20858974358974,-62.36288919413919,29.5302662713032,36.28738730643664,37.38961272351514,1577397229.999,-27.717163758896024,-51.10640663553983,6.3625126
17288,1577397230.61,2.735112618497523,8.083934312773913,12.695225105397292,5.493758487459508,5.412881187476182,7.489705139755621,-6.759765609220179,-2.206928374202077,3.6206168617806775,29.6725761599657,-25.202309213033537,0.5539684760861281,0.8183921255716463,4.5925233422256095,-3.85284423828125,8.783480016196647,59.01206411966464,10.197709246379572,-17.136566407486544,4.929975103021979,-3.719774496336995,27.063980463980464,15.730938644688644,-16.014292510874544,29.62611195974481,36.047773085332615,37.58130410039836,1577397229.999,-27.717163758896024,-51.10640663553983,6.3625126
17289,1577397230.62,2.338872243741663,-2.2003589184272574,8.282711445729324,6.880001248689976,-3.292436048851944,0.8314303228610901,3.082797415682164,-22.02852391863567,9.065031436975987,3.9615165896532014,-16.733681283346037,-2.329942656726372,-5.102018030678353,-4.379644626524391,-4.09698486328125,10.889192906821648,66.58042349466463,-13.300825909870428,-17.704629382320356,4.929975103021979,-3.4097932883089124,25.936314611314607,18.26818681318681,-9.740028331043955,29.72195764818641,35.99985024111181,37.43753556773595,1577397229.999,-27.717163758896024,-51.10640663553983,6.3625126
17290,1577397230.63,2.850034298185023,-0.1162063732612417,3.750487703053542,2.0449109960044303,2.118459703101181,9.17043470518531,-5.4944300318276,6.601339533512766,11.058204319056069,1.4438163943407014,-2.5582662442835367,3.331068085461128,0.3606284536966466,-4.471197360899391,0.38909912109375,23.630281774009145,38.702615877477136,-30.360152081745422,-17.704629382320356,5.842933455433458,-2.63484026823871,25.936314611314607,18.26818681318681,-9.740028331043955,29.67403480396561,36.02381166322221,37.653188366729566,1577397229.999,-27.717163758896024,-51.10640663553983,6.3625126
17291,1577397230.64,3.587448409513148,2.9627369616996946,9.18532547160823,2.3908731358970083,-0.6755736343011622,9.160857898544684,7.749096451326695,11.631557221501044,9.397825467737707,13.5898124880907,-10.492836556783535,-0.6056994926638719,0.7573569693216463,-8.25537704839939,3.68499755859375,8.752962438071647,-5.105367520960366,-10.279585675495428,-16.56850343265274,5.477750114468864,-3.874765100351035,28.513836560265133,18.26818681318681,-17.026270604395606,29.67403480396561,36.28738730643664,37.62922694461916,1577397229.999,-27.717163758896024,-51.10640663553983,6.3625126
17292,1577397230.65,2.991292196134242,1.212575548125476,13.473340644948074,6.219201590486851,-0.7761301040277248,10.252613855575934,3.030124979158727,10.678664960758857,12.086513932093178,8.3407890505907,4.918540396341464,-0.6667346489138719,0.2995932974466463,-2.2434141577743905,-0.34332275390625,-3.667691858803354,-4.739156583460366,5.162308855754573,-16.56850343265274,5.477750114468864,-3.874765100351035,28.674931682074543,-3.21384768009768,-16.823874985691393,29.62611195974481,36.047773085332615,37.58130410039836,1577397229.999,-27.717163758896024,-51.10640663553983,6.3625126
17293,1577397230.66,0.0069198267494759,2.297148900176257,11.316164949147293,-2.2514838831459603,3.054592552222275,9.52238234922828,-1.3847828821693977,-3.231646684748952,9.804839749964271,-9.6798408322218,4.689658560403964,-0.5751819145388719,-5.193570765053353,-2.5180723608993905,-0.22125244140625,-3.820279749428354,-7.027974942835366,14.195511980754572,-17.136566407486548,5.295158443986569,-3.099812080280826,-3.382997557997558,17.253287545787547,-55.48143815819597,29.841764758738428,36.047773085332615,37.38961272351514,1577397229.999,-27.717163758896024,-51.10640663553983,6.3625126
17294,1577397230.67,-1.229685330721227,-2.543926856659679,8.115117329518386,0.7269029820884146,-1.6308600967035063,12.881447278427498,-1.6972261988197883,-3.2112959706376243,16.67500141378263,-6.887482433784299,13.982261099466465,0.7065563667111281,0.8336509146341463,-3.372564548399391,-1.51824951171875,-13.540128382240852,-23.614278653772864,3.1939250666920733,-17.515275057375753,5.295158443986569,-3.099812080280829,-3.382997557997558,6.935144993894995,-55.48143815819597,29.67403480396561,36.07173450744302,37.60526552250876,1577397229.999,-27.717163758896024,-51.10640663553983,6.3625126
17295,1577397230.68,0.7910208704506478,-3.3004945812690543,9.02491396037776,-0.9035483484779916,1.1392312240972753,14.325150879501717,4.164976566072789,6.342765754215891,9.986799076136146,-18.1789863400343,-2.8634420255335367,0.6150036323361281,-0.6464516244283537,-7.3703672827743905,1.82342529296875,-10.839322718178352,-43.98476205221037,13.981888933879572,-17.325920732431147,5.112566773504274,-2.63484026823871,28.19164631664632,-3.382997557997557,-53.86227320856226,29.62611195974481,36.047773085332615,37.62922694461916,1577397229.999,-27.717163758896024,-51.10640663553983,6.3625126
17296,1577397230.69,-0.4108683629477896,-0.0156499035346792,11.864437129323074,2.649446915193883,1.9652307968511813,7.551954382919684,2.618322293611852,-6.047227837092702,4.240715091761146,-11.2514961056593,1.958335318216464,0.981214569836128,1.9475425161966464,-1.9687559546493905,-0.49591064453125,-19.719937952553355,-37.94228158346037,10.899613543254572,-17.325920732431147,5.477750114468864,-2.63484026823871,28.513836560265133,17.253287545787547,-54.26706444597069,29.67403480396561,35.856081708449395,37.725072633060776,1577397229.999,-27.717163758896024,-51.10640663553983,6.3625126
17297,1577397230.7,1.4649886377846322,2.2097605395805537,8.687331526295731,0.6299378148520866,1.486390464819931,7.239511066269293,-2.198811446622523,-1.4743026661942644,3.2674721169076304,6.372405261528201,-14.643227181783535,-0.6056994926638719,-0.8295570931783538,-5.7071592749618905,-1.45721435546875,-1.4399086556783538,-1.8552454506478655,5.024979754192073,-16.852534920069644,5.751637620192309,-3.0223167782738125,27.950003633932205,19.029361263736263,-54.16586663661859,29.67403480396561,36.19154161799503,37.50941983406715,1577397229.999,-27.717163758896024,-51.10640663553983,6.3625126
17298,1577397230.71,2.440625814298304,0.0011095080864135,9.719232441823074,0.2121496251548209,-0.4553070815667872,8.054736731552497,7.77782687124857,-13.560232646663016,8.380289762171302,8.1271660037157,-12.171303353658535,-0.5446643364138719,-4.155973108803353,0.9304139672256098,1.06048583984375,-2.965787561928354,14.120706697789634,-10.157515362995428,-15.811086132874326,6.573300137362635,-2.9448214762667897,27.8694560730275,19.62138583638584,-55.48143815819597,29.62611195974481,35.76023602000779,37.53338125617755,1577397229.999,-27.717163758896024,-51.10640663553983,6.3625126
17299,1577397230.72,1.9498144739662728,0.1926456408989135,10.90196806194026,2.187365994783727,0.8950226547613377,8.873553699325935,7.1744880528891954,6.2493918894697975,9.797657144983802,-12.1670234494093,-4.358803353658536,-0.4225940239138719,-4.339078577553353,-0.9921934546493902,-0.25177001953125,9.882112828696648,15.066751619664634,-11.622359112995428,-17.325920732431147,5.842933455433458,-3.564783892322956,23.036602418745275,18.944786324786325,-55.48143815819597,29.67403480396561,36.19154161799503,37.43753556773595,1577397229.999,-27.717163758896024,-51.10640663553983,6.3625126
17300,1577397230.73,3.6712454676186166,2.170256212187976,10.466223359791824,4.756344376131383,3.535827085913681,12.294867871689217,2.0868095250571645,11.971533857243232,15.737671463831456,-3.2558906369092986,-3.6263814786585367,-0.6362170707888719,-2.874234827553354,-4.227056735899391,-1.13677978515625,5.457064000571647,10.183939119664634,6.077836199504573,-16.947212082541945,7.303666819291819,-3.874765100351035,19.814699982557126,16.914987789987787,-17.026270604395606,29.86572618084883,35.99985024111181,37.58130410039836,1577397229.999,-27.717163758896024,-51.10640663553983,6.3625126
17301,1577397230.74,-1.3493954137290396,0.0226573230278202,13.097450984303542,-0.5168847803627566,-1.348344300805069,10.272964569687264,-2.3197186304604136,-3.5009943715165304,13.280023459681068,-9.6950996212843,5.116904654153963,0.172498749523628,-0.3412758431783538,-6.3175108374618905,-1.94549560546875,-6.170133265053353,-5.761495450647866,-1.627852277057927,-16.852534920069644,6.664595972603786,-3.0223167782738063,18.76758169079598,16.322963217338216,-16.520281557635073,29.67403480396561,36.095695929553415,37.55734267828795,1577397229.999,-27.717163758896024,-51.10640663553983,6.3625126
17302,1577397230.75,0.879606331876429,-2.5223790417182728,8.040897078053543,-0.0847313807045531,-0.5271331313714748,9.92460822813453,6.978163516756383,9.397767072575263,9.838358573206458,-10.9768379025343,0.0662454744664634,0.7065563667111281,-0.6464516244283537,-2.4265196265243905,-3.48663330078125,-9.252408655678352,3.5921422446646343,1.591752215129573,-18.08333803220956,4.747383432539684,-2.9448214762667897,17.398273155416014,14.377739621489622,-16.014292510874544,29.817803336628028,35.99985024111181,37.725072633060776,1577397229.999,-27.717163758896024,-51.10640663553983,6.3625126
