,timestamp,acc_x_dashboard,acc_y_dashboard,acc_z_dashboard,acc_x_above_suspension,acc_y_above_suspension,acc_z_above_suspension,acc_x_below_suspension,acc_y_below_suspension,acc_z_below_suspension,gyro_x_dashboard,gyro_y_dashboard,gyro_z_dashboard,gyro_x_above_suspension,gyro_y_above_suspension,gyro_z_above_suspension,gyro_x_below_suspension,gyro_y_below_suspension,gyro_z_below_suspension,mag_x_dashboard,mag_y_dashboard,mag_z_dashboard,mag_x_above_suspension,mag_y_above_suspension,mag_z_above_suspension,temp_dashboard,temp_above_suspension,temp_below_suspension,timestamp_gps,latitude,longitude,speed
64416,1577399649.56,1.963070175840796,2.898560678175018,15.189282493330792,0.988046148532774,1.1148220461961695,14.716340072706272,10.846434262457125,17.16373972584794,6.60799658203125,3.3746114591272867,-23.800361447217988,-7.102408060213414,7.254809868044969,7.197682450457317,-5.728372713414634,8.746449540301068,10.583644959984756,-2.660611780678354,-26.532458600427347,-18.3029890491453,-0.9769104737854758,-5.943380837912087,-41.97505229145854,-41.053728272929,27.08620121604217,34.46631922604607,39.546140713451344,1577399649.0,-27.687163163074587,-51.12272427502155,9.529376
64417,1577399649.57,1.5608442969345455,0.300851876905487,9.440804307295636,0.2242958189429303,-3.161222118842893,6.980674508741425,9.792985531988377,-7.613853255109088,24.408885925292967,14.116798959127289,-8.511054806592988,-1.7313143102134143,5.667895805544969,-11.509592940167684,-2.1883336509146343,3.833119462176067,4.449611756859756,-11.846402796303352,-24.24061832264957,-20.143513087606834,-0.2254408785658824,-5.327045250422654,-40.69197209040959,-41.4962126215131,27.3258154371462,34.41839638182526,39.546140713451344,1577399649.0,-27.687163163074587,-51.12272427502155,9.529376
64418,1577399649.58,-0.6968878685927969,-2.776894357225371,10.094421360518291,0.2123248106421495,1.9539897280809355,14.576279275587131,4.961486581793063,4.9066243266780205,12.357671868896484,-12.814963736185216,13.278495974657012,-2.4789949742759143,-1.4274411085175305,-0.8894757526676829,-2.4019566977896343,-0.1799420612614319,3.824001405297256,-9.847501429115852,-24.24061832264957,-20.348015758547007,-0.5260287166537204,-12.928517496125668,-47.29067026723276,-2.70508472897295,26.918471261269357,34.562164914487674,39.498217869230544,1577399649.0,-27.687163163074587,-51.12272427502155,9.529376
64419,1577399649.59,1.0772155615829833,3.367824203565643,11.313070005537822,-0.7022602235375374,-0.1493164303663294,11.168133212354707,-12.96390124779678,5.250192264910442,4.496310717773437,2.4285665372522867,5.862724490282012,-0.1444002477134145,9.391040336794967,-1.7439679401676829,-1.2422887290396345,4.718129227801067,19.55581292873476,15.375276891196648,-25.47468616452992,-19.530005074786324,-0.0751469595219649,-6.55971642540152,-48.02385895354645,-0.4926629860524088,26.89450983915896,34.562164914487674,40.121214844101,1577399649.0,-27.687163163074587,-51.12272427502155,9.529376
64420,1577399649.6,-0.2611431664443594,-1.176370547410918,15.17731148503001,6.173886944431211,-0.4485916378858606,4.110026718214081,10.037194101324312,-1.1758449909489328,15.672444067382813,-8.405173697122713,-22.457588009717988,-6.369986185213414,4.874438774294969,1.7045183879573171,-4.629739900914634,9.845082352801068,26.30019769435976,-10.228971155678352,-25.47468616452992,-19.530005074786324,-0.0751469595219649,-8.614168383699631,-47.65726461038961,-1.6726212489433638,27.038278371821367,34.46631922604607,39.498217869230544,1577399649.0,-27.687163163074587,-51.12272427502155,9.529376
64421,1577399649.61,2.2348120642685303,2.7130100495129086,9.18941313297923,3.1691638609351176,4.969486719047732,13.093071347120334,7.954238656988376,-0.7233408771794015,-5.97592734375,9.478127084127289,-7.549751095655488,-5.225577005525914,-4.982738960080031,5.275075028582317,-5.301126619664634,15.185658524676068,45.98403558498475,-15.569547327553352,-24.9457999465812,-19.93901041666666,0.5260287166537111,-3.2725932921245406,-43.25813249250749,-2.852579511834319,27.134124060262977,34.8017791355917,40.0732919998802,1577399649.0,-27.687163163074587,-51.12272427502155,9.529376
64422,1577399649.62,0.3613492651962646,-0.1995362700671683,8.351442551924542,1.8164399229468369,0.7939990237352326,6.426416824415253,-2.543138521966702,-8.693638203839557,2.9735984619140625,8.440529427877287,2.5363084746570124,-1.3345857945884143,5.423755180544969,8.036915848894816,-4.202493807164634,23.547474930926068,81.79641351467225,-18.30087056974085,-24.41691372863248,-19.530005074786324,-0.9769104737854758,-3.067148096294731,-44.907807036713294,4.964643979818259,27.18204690448378,34.514242070266874,39.47425644712014,1577399649.0,-27.687163163074587,-51.12272427502155,9.529376
64423,1577399649.63,4.632605026915015,-0.6592229888171682,4.829571909834698,4.15078654159918,-6.280866882026486,5.529788302686737,1.5138361911680636,10.637146000262003,1.2497732666015624,5.846535287252286,0.3085252715320121,-5.881704935213414,8.628100883669969,5.854909012957317,-1.9441930259146345,40.820424149676064,93.19472894435977,-17.095426233803355,-24.24061832264957,-18.507491720085472,-0.8266165547415584,-3.067148096294731,-44.907807036713294,4.964643979818259,27.18204690448378,34.562164914487674,39.546140713451344,1577399649.0,-27.687163163074587,-51.12272427502155,9.529376
64424,1577399649.64,4.017295200254859,-4.911325137254669,6.790423069502667,4.730183343356993,-0.824481298530392,0.5809734711437682,-5.561029714593655,-17.619221992902055,10.55842932128906,3.1304708341272867,9.189140505907012,-4.691519388338414,-0.4966549757050305,2.009694169207317,-3.5005895102896343,28.949086259051068,107.78213128810977,-2.721646936928354,-24.24061832264957,-18.507491720085472,-0.8266165547415584,-3.067148096294731,-44.54121269355643,-2.115105597527472,27.18204690448378,34.70593344715009,39.498217869230544,1577399649.0,-27.687163163074587,-51.12272427502155,9.529376
64425,1577399649.65,1.897229630186499,5.066510281446503,10.55530518009837,-6.252019671779726,11.555935486137576,10.179327926710178,-3.638485781488186,-3.268377241925495,5.607220288085937,8.364235482564787,8.578788943407012,-4.966177591463415,-6.539135444455031,1.6740008098323171,-2.4935094321646343,24.920765946551068,93.37783441310977,-15.783170374428352,-23.35914129273504,-21.166026442307693,-0.2254408785658824,-8.203277992040011,-48.02385895354645,-2.2626003803888417,27.206008326594183,34.46631922604607,39.498217869230544,1577399649.0,-27.687163163074587,-51.12272427502155,9.529376
64426,1577399649.66,1.7236500098251708,0.4708401947765807,8.995482798506574,3.1129001219214456,-0.5204176876905487,1.6715323273449398,-1.3041391628358423,4.444543406267863,15.368380456542967,8.837257943502287,-8.450019650342988,-5.698599466463414,3.302783500857468,17.375294755144818,-3.2259313071646343,20.358388016863568,49.73769769435975,-16.210416468178355,-26.00357238247863,-19.32550240384615,0.0751469595219524,-4.094374075443786,-48.02385895354645,-2.852579511834319,27.038278371821367,34.65801060292928,39.45029502500974,1577399649.0,-27.687163163074587,-51.12272427502155,9.529376
64427,1577399649.67,1.582392111875952,-5.251301772996856,14.846911655928448,6.128397112888242,-2.2586080929639856,12.786613534620331,7.808192355718844,2.185614139910441,26.76956876220703,-23.02309361899772,19.59563464653201,-10.245718607088415,-8.827953803830031,2.986256669207317,-5.209573885289634,5.481068680926067,-9.222263243140244,-10.778287561928352,-24.064322916666665,-19.530005074786324,-1.277498311873317,-1.629031725486053,-43.62472683566433,-1.6726212489433638,26.990355527600563,34.562164914487674,39.64198640189295,1577399649.0,-27.687163163074587,-51.12272427502155,9.529376
64428,1577399649.68,1.8457542944931395,0.1811417938976744,5.875838035322979,2.7669379820288675,6.099549902641482,19.96443011176877,-0.3105454738709977,-2.53096313059737,10.766724865722656,10.973488412252289,23.04412097465701,0.2828458460365854,-5.318432319455031,7.808034012957317,-2.3104039634146343,-4.254038740948933,-41.57089605564025,-0.0055824838033536,-24.064322916666665,-19.530005074786324,-1.277498311873317,10.081344436813186,-44.907807036713294,0.8347900596999165,27.038278371821367,34.562164914487674,39.498217869230544,1577399649.0,-27.687163163074587,-51.12272427502155,9.529376
64429,1577399649.69,-0.8177950524306875,2.581328958204315,12.480243314863994,-0.1360315309105847,-2.606964434516721,10.31579742133908,0.7369177524473602,-5.772712178448932,21.55260334472656,0.2618184903772867,9.830009646532012,-6.934561380525914,9.024829399294967,5.748097489519816,-3.698953768102134,-26.95911686594893,-82.40341558689025,1.0167563833841484,-24.41691372863248,-19.530005074786324,-1.277498311873317,10.081344436813186,-44.54121269355644,-0.935147334636517,27.110162638152573,34.514242070266874,39.57010213556175,1577399649.0,-27.687163163074587,-51.12272427502155,9.529376
64430,1577399649.7,0.5241549780868896,0.8898254853039244,6.347495762373761,-6.22328925185785,5.963080408012575,14.160885287550022,11.172045688238375,28.452400553484654,11.183315954589844,7.006203256002286,14.712822146532012,-0.9073397008384144,2.646655571169969,-4.704173018292683,-1.0286656821646345,-14.538462569073932,-88.84262457126525,24.042269078696645,-24.76950454059829,-20.34801575854701,-0.6763226356976347,9.875899240983376,-44.35791552197802,-2.852579511834319,27.038278371821367,34.70593344715009,39.45029502500974,1577399649.0,-27.687163163074587,-51.12272427502155,9.529376
64431,1577399649.71,0.9359576636337644,-0.2953043364734183,13.060837217451883,3.55702452988043,-2.071860363471798,13.72753478706174,-5.635249966058499,-20.264814827374718,5.91846650390625,5.571877084127286,-11.013496212842988,-10.032095560213415,7.407397758669969,13.057057450457316,-6.582864900914634,-35.107310225323936,-76.33041754001525,25.964876500571645,-24.41691372863248,-20.34801575854701,-0.9769104737854758,9.875899240983376,-47.29067026723276,-35.59642130705832,27.18204690448378,34.562164914487674,39.45029502500974,1577399649.0,-27.687163163074587,-51.12272427502155,9.529376
64432,1577399649.72,-4.530004726502953,0.2936692719250182,14.581155271651104,-6.019782110744569,-8.342274511421017,10.466632125928928,6.026906320562595,-14.602527901105182,16.591817504882812,-1.5387186189977131,15.017997927782012,0.1302579554115854,3.7147708055449695,4.512135575457317,-3.8362828696646334,-19.11609928782393,-87.68295660251525,-12.578824671303352,-24.41691372863248,-20.34801575854701,-0.9769104737854758,-1.4235865296562409,-47.10737309565434,-36.62888478708791,27.038278371821367,34.41839638182526,39.35444933656812,1577399649.0,-27.687163163074587,-51.12272427502155,9.529376
64433,1577399649.73,-1.035667403504906,0.4840083039074405,6.8251389935749325,0.1919740965308209,5.086802600395388,8.502189663770721,6.547645181646579,12.237669810076454,1.255758770751953,-1.080954947122715,3.0551073027820124,-3.8828035680259134,-1.6410641553925305,7.273976395769816,-3.1801549399771343,-11.379893233136432,-32.52243414157775,3.198763219321646,-24.505061431623933,-20.450267094017093,-0.4508817571317617,10.90312522013243,-39.04229754620379,-36.62888478708791,27.038278371821367,34.53820349237728,39.42633360289933,1577399649.0,-27.687163163074587,-51.12272427502155,9.529376
64434,1577399649.74,-1.781461220643578,5.587249142530487,8.485517844893291,-5.3398288392601945,1.330300195610232,6.978280307081269,-6.588142226800686,-7.903551655987995,3.928884924316406,6.945168099752286,0.8273240996570121,-2.4332186070884143,3.409595024294969,-8.549387862042684,-2.6460973227896343,-6.695444990948933,0.5128441787347561,-8.275846155678353,-23.35914129273504,-20.34801575854701,-0.6763226356976347,10.90312522013243,-39.04229754620379,-36.62888478708791,27.18204690448378,34.562164914487674,39.45029502500974,1577399649.0,-27.687163163074587,-51.12272427502155,9.529376
64435,1577399649.75,-0.4550735009170157,-0.637675173875762,10.362571946455793,-2.454815838771913,1.780410107719607,9.959061373975803,11.543146945562594,20.072694742937784,10.78827268066406,-2.3321756502477133,-17.757880978467988,-7.773794778963414,0.4493899461699695,-7.328684737042683,-0.1436559165396341,9.814564774676068,-6.506198790015244,-0.6464516244283537,-23.71173210470085,-20.75702110042735,-0.6763226356976347,-9.8468395586785,-39.22559471778221,-40.90623349006763,27.229969748704587,34.46631922604607,39.546140713451344,1577399649.0,-27.687163163074587,-51.12272427502155,9.529376
64436,1577399649.76,-1.0105282860732656,0.124878054884003,8.384961375166728,-1.327146856838319,3.2121427004930445,19.820778012159398,-1.9960634426209976,0.4785483562190349,4.565742565917969,-2.454245962747712,-2.743232540967988,-3.3487459508384143,-5.318432319455031,3.169362137957317,-7.559427400914634,2.551381180926067,-11.114353086890244,1.7034018911966462,-24.41691372863248,-19.530005074786324,1.4277922309172282,-8.819613579529443,-39.04229754620379,-36.92387435281065,27.08620121604217,34.61008775870848,39.30652649234732,1577399649.0,-27.687163163074587,-51.12272427502155,9.529376
64437,1577399649.77,-1.858075673768578,3.0637605927258,12.754379404951884,2.365909203952696,-0.1912149594190647,10.245168472364472,0.2030107822325173,-2.812281825665729,11.959037292480469,-5.475486197122714,-1.278388790967988,-0.1749178258384145,-2.724438178830031,-4.536326338605183,-2.981790682164634,0.6287737590510671,-1.7607153915777438,-4.217008265053353,-25.298390758547008,-20.143513087606834,-0.2254408785658824,-13.133962691955478,-49.306939154595405,-3.442558643279797,26.89450983915896,34.61008775870848,39.35444933656812,1577399649.0,-27.687163163074587,-51.12272427502155,9.529376
64438,1577399649.78,-0.5819661889052969,4.567319235303924,9.357007249190168,-1.5617786195336312,-0.6664639889600794,17.62290088813596,-2.132532937249904,1.979712797137004,9.0788126953125,0.2618184903772865,-9.640205197217988,-3.6539217320884143,4.416675102419969,-4.765208174542683,-5.789407869664634,-2.270396162823933,10.217434022484756,9.912630406821648,-25.827276976495725,-18.3029890491453,0.8266165547415459,-5.943380837912087,-44.1746183503996,-0.9351473346365172,27.038278371821367,34.46631922604607,39.64198640189295,1577399649.0,-27.687163163074587,-51.12272427502155,9.529376
64439,1577399649.79,-0.3090271996474844,-3.2497491851062303,12.87169528629954,-0.0390663636742561,0.583309277641482,5.953561996534393,-1.1197856350038102,0.71796852223466,18.23423984375,-9.747947134622711,-19.131171994092988,-6.125845560213414,-3.670483100705032,4.206959794207317,-5.575784822789634,0.5677386028010671,2.771144959984756,-15.020230921303352,-24.24061832264957,-21.779534455128204,0.0751469595219524,-2.2453673129754868,-44.1746183503996,-3.2950638604184275,27.08620121604217,34.70593344715009,39.30652649234732,1577399649.0,-27.687163163074587,-51.12272427502155,9.529376
64440,1577399649.8,-0.7842762291885,2.32275517890744,7.779228355147198,-3.97034548965082,3.35579480010242,7.603166940382049,5.821004977789157,8.719390470476847,12.109871997070313,4.747902474752288,3.787529177782013,-2.0822664586509143,-1.0764889600800305,-14.927561690167684,-0.0215856040396341,1.9410296184260671,8.203273866234756,-0.5548988900533537,-25.122095352564106,-18.3029890491453,-1.277498311873317,-1.4235865296562409,-43.80802400724276,-3.8850429918639056,27.062239793931766,34.46631922604607,39.21068080390571,1577399649.0,-27.687163163074587,-51.12272427502155,9.529376
64441,1577399649.81,0.912015647032202,-2.071801968309356,8.911685740401106,-2.2094101686058973,-0.0942497921827361,6.170237246778534,1.2444885044004852,7.631225815935831,5.777208605957031,-5.719626822122714,-15.469062619092988,-5.240835794588414,-0.6187252882050311,0.5143328410823171,-6.018289705602134,-0.2867535846989328,-11.617893125952744,-11.037686975990852,-24.24061832264957,-20.96152377136752,1.2774983118733108,-1.629031725486052,-47.29067026723277,-4.032537774725275,27.18204690448378,34.63404918081888,39.42633360289933,1577399649.0,-27.687163163074587,-51.12272427502155,9.529376
64442,1577399649.82,1.8289948828720457,-0.9513155913562308,10.410455979658916,7.588860125583555,-1.6193562497022669,8.546482394483611,3.7691741550352513,-14.413385969952838,13.929465258789062,-6.085837759622714,-6.527412228467988,-5.210318216463414,-3.639965522580032,-2.140696455792683,-4.019388338414634,-17.010386397198932,-18.652194883765244,2.893587438071646,-25.298390758547008,-19.32550240384615,-0.5260287166537173,-6.148826033741899,-50.9566136988012,-4.032537774725275,26.990355527600563,34.562164914487674,39.35444933656812,1577399649.0,-27.687163163074587,-51.12272427502155,9.529376
64443,1577399649.83,0.6414708594345458,1.7086424530773618,9.97471127751048,0.164440777439024,0.5880976809617945,11.68528077094846,9.328510409918062,0.631777262469035,8.836998327636719,3.0694356778772867,3.2076951934070124,-2.9825350133384143,-9.224682319455033,-8.091624190167684,-5.453714510289634,-4.040415694073933,-39.70932379001525,-2.477506311928354,-23.71173210470085,-21.16602644230769,0.2254408785658761,-5.327045250422654,-50.9566136988012,-1.6726212489433638,27.18204690448378,34.8017791355917,40.121214844101,1577399649.0,-27.687163163074587,-51.12272427502155,9.529376
64444,1577399649.84,-1.294241182801781,-0.1971420684070124,11.127519376875714,-0.1144837159691785,0.0170805850145294,8.655418570020723,-0.6457337062928741,5.231038651629192,13.91031164550781,-6.024802603372714,-6.573188595655488,-4.310049661775914,6.278247368044969,-6.535227705792683,-6.170877596227134,-10.266001631573932,-49.32236089939025,5.441805211509147,-24.24061832264957,-18.91649706196581,-0.2254408785658824,-5.327045250422654,-50.9566136988012,-1.6726212489433638,26.990355527600563,34.65801060292928,39.45029502500974,1577399649.0,-27.687163163074587,-51.12272427502155,9.529376
64445,1577399649.85,1.3381835425400146,1.512317916944549,9.792751951338603,2.5945554624976177,5.034130163871951,14.089059237745332,-2.3384342800233413,-1.70735775950362,5.015852478027344,2.0623555997522867,-4.299629025342988,-3.9590975133384143,-5.806713569455031,-4.093821455792683,-5.179056307164634,-15.453989912823932,-48.40683355564025,-0.3717934213033537,-23.182845886752133,-19.32550240384615,-0.2254408785658824,-5.7379356420822765,-50.9566136988012,-4.032537774725275,26.89450983915896,34.41839638182526,39.64198640189295,1577399649.0,-27.687163163074587,-51.12272427502155,9.529376
64446,1577399649.86,1.1849546362900143,1.4740106903820491,11.394472861983136,5.16592804550543,0.9951119631883568,12.839285971143772,-2.9202252834413107,-0.2947787800114327,4.402936853027343,3.649269662252287,-3.841865353467988,-4.661001810213414,1.0902590867949695,-3.727610518292683,-6.033548494664634,-9.289439131573932,-5.987399961890244,-3.911832483803354,-25.47468616452992,-20.34801575854701,-0.9769104737854758,9.875899240983376,-48.02385895354645,-2.852579511834319,27.038278371821367,34.46631922604607,39.546140713451344,1577399649.0,-27.687163163074587,-51.12272427502155,9.529376
64447,1577399649.87,0.3972622900986083,0.3726779267101744,11.897255210615947,0.7390491758765241,0.7317497805711695,8.699711300733611,5.478634140386813,-15.76610990794112,-3.881000891113281,-7.459128775247714,-12.386787228467988,-4.691519388338414,0.6935305711699695,2.192799637957317,-5.423196932164634,-5.871470381573933,31.27456292873476,-2.813199671303354,-24.064322916666665,-19.120999732905982,0.2254408785658761,11.519460807621863,-45.09110420829171,-4.032537774725275,26.990355527600563,34.70593344715009,39.498217869230544,1577399649.0,-27.687163163074587,-51.12272427502155,9.529376
64448,1577399649.88,3.24995356817478,-0.9441329863757624,9.753247623946026,4.292044439548398,2.5824676638719515,7.963494290235566,1.2157580844786104,3.1061846782405205,12.236764685058594,-4.178489126810213,-8.221137814405488,-4.889883646150914,-1.320629585080031,0.0413103801448171,-5.880960604039634,15.857045243426068,30.435329530297256,-16.36300435880335,-23.88802751068376,-20.143513087606834,-0.2254408785658824,3.3016529744294165,-44.1746183503996,-3.737548209002536,27.134124060262977,34.65801060292928,39.45029502500974,1577399649.0,-27.687163163074587,-51.12272427502155,9.529376
64449,1577399649.89,3.7802692358993903,4.095661508253143,6.376226182295635,4.823557208103086,5.836187720024294,6.755619552686737,9.931849228277438,2.978094889422161,17.386692456054686,21.532570443502287,-6.924140744092988,-5.454458841463414,-4.006176460080031,14.338795731707316,-3.7752477134146334,15.033070634051068,0.909572694359756,-4.522184046303353,-24.064322916666665,-19.939010416666665,-0.3757347976097998,10.286789632642996,-43.62472683566433,-37.07136913567202,27.08620121604217,34.41839638182526,39.68990924611376,1577399649.0,-27.687163163074587,-51.12272427502155,9.529376
64450,1577399649.9,2.408391684629858,0.8443356537609557,13.02013578922923,2.4509033628882424,-3.798079760444455,8.287908615186737,-7.711022805413967,0.89035104176591,13.297396020507811,8.043800912252287,-8.999336056592988,-3.9896150914634143,4.752368461794969,-1.4998273151676829,-4.080423494664634,0.5372210246760671,-21.520847227515244,-11.205533655678352,-25.298390758547008,-20.96152377136752,-1.7283800690050757,-3.888928879613976,-44.1746183503996,-41.34871783865174,27.038278371821367,34.46631922604607,39.546140713451344,1577399649.0,-27.687163163074587,-51.12272427502155,9.529376
64451,1577399649.91,0.4032477942489994,-2.9624449858874806,10.864157194258526,1.2585909361304302,-0.2905743283155482,11.32615052192502,15.627654977789156,5.78170503346513,10.012551342773437,-5.017722525247713,10.11992663871951,-2.7231355992759143,11.130542289919967,-19.07795231516768,0.1615198647103658,-6.237681319073933,-21.124118711890244,-0.8600746713033537,-24.41691372863248,-20.348015758547007,-0.2254408785658824,-7.792387600380388,-43.62472683566433,-38.25132739856297,27.18204690448378,34.46631922604607,39.498217869230544,1577399649.0,-27.687163163074587,-51.12272427502155,9.529376
64452,1577399649.92,0.2344565772079833,1.1483992646007994,8.610016331221416,2.44611495956793,-0.1050236996534393,14.153702682569552,-2.045144576654201,-1.216546419171589,7.275978845214843,-5.811179556497714,16.147148318407012,-0.1138826695884145,2.829761039919969,4.679982255144817,-5.926736971227134,-2.743418623761433,-5.392307188452744,1.3066733755716464,-24.9457999465812,-20.96152377136752,-0.2254408785658824,-5.327045250422654,-42.89153814935064,-38.25132739856297,27.038278371821367,34.49028064815647,39.498217869230544,1577399649.0,-27.687163163074587,-51.12272427502155,9.529376
64453,1577399649.93,1.0389083350204833,2.6351984955578307,12.462286802412825,-3.5010819642601945,4.406849328911013,9.12827339790158,9.512863937750094,-9.136565510968463,10.292672937011718,6.029640756002286,-4.452216915967988,-3.3182283727134143,5.973071586794969,-5.863840987042683,-0.4793492759146341,-23.75477116282393,7.928615663109756,-6.780484827553353,-24.9457999465812,-20.96152377136752,-0.2254408785658824,-6.148826033741899,-40.69197209040959,-38.84130653000845,27.229969748704587,34.46631922604607,39.35444933656812,1577399649.0,-27.687163163074587,-51.12272427502155,9.529376
64454,1577399649.94,2.7004842871689214,1.3782426239757994,9.084068259932357,1.284927154392149,-2.270579101264767,7.86413492133908,-4.181969558343655,-3.280348250226276,9.62708487548828,14.727150521627289,-14.797675900342988,-5.332388528963414,2.829761039919969,8.113209794207316,-5.087503572789634,9.448353837176068,14.581447694359756,-9.710172327553352,-26.00357238247863,-18.098486378205127,0.0751469595219524,-6.55971642540152,-39.22559471778221,-40.61124392434488,27.08620121604217,34.46631922604607,39.64198640189295,1577399649.0,-27.687163163074587,-51.12272427502155,9.529376
64455,1577399649.95,0.9275779578232176,-0.2414347991199031,7.2189851666706355,2.2402136167944926,-3.426978503120236,4.220159994581268,4.908814145269625,23.328809000750283,13.385981481933593,6.777321420064788,-1.5835645722179876,-2.2958895055259143,2.310962211794969,-1.1336163776676829,-7.467874666539634,24.768178055926068,-6.506198790015244,-3.118375452553354,-25.29839075854701,-19.32550240384615,-0.5260287166537203,-6.55971642540152,-40.325377747252745,-39.431285661453934,26.990355527600563,34.46631922604607,39.64198640189295,1577399649.0,-27.687163163074587,-51.12272427502155,9.529376
64456,1577399649.96,1.9918005957626708,6.947155685499237,11.547701768233136,1.3926662290991807,3.007438458549686,14.011247683790256,3.48306705664658,-11.59660771677901,5.400121844482421,10.790382943502289,-17.239082150342988,-5.210318216463414,1.7769045946074693,0.3464861613948167,-3.4700719321646343,-1.3548688190739329,-5.636447813452744,-6.505826624428353,-24.76950454059829,-19.530005074786324,-0.9769104737854758,-6.55971642540152,-43.25813249250749,-40.02126479289941,26.990355527600563,34.61008775870848,39.45029502500974,1577399649.0,-27.687163163074587,-51.12272427502155,9.529376
64457,1577399649.97,-0.5197169457412344,-7.1858167144031055,14.020912083174542,2.802851006931211,-0.3767655880811731,3.1691054657726743,11.368370224371189,24.636043107195597,0.8930372192382812,-13.989890493997711,-1.980293087842988,-5.057730325838414,-9.072094428830033,1.9791765910823167,-2.6460973227896343,4.168812821551067,16.320949647484756,6.586214391196647,-24.76950454059829,-19.530005074786324,-0.9769104737854758,-3.067148096294731,-43.44142966408592,-3.8850429918639056,27.18204690448378,34.41839638182526,39.45029502500974,1577399649.0,-27.687163163074587,-51.12272427502155,9.529376
64458,1577399649.98,0.8042765723251708,3.4851400849132994,11.00900639469798,3.4660448667944928,2.630351697075076,15.85358586128049,6.560813290777438,-18.457192573956743,1.795651245117187,-1.5387186189977131,4.214775271532012,-2.6773592320884143,0.8461184617949695,-17.552073408917682,-1.9136754477896345,0.0184221965510671,48.66958245998475,-5.407193811928353,-25.298390758547008,-18.91649706196581,-0.8266165547415584,-1.2181413338264289,-50.9566136988012,-3.4425586432797965,27.038278371821367,34.46631922604607,39.64198640189295,1577399649.0,-27.687163163074587,-51.12272427502155,9.529376
64459,1577399649.99,1.1310850989364998,0.3307793976574406,10.147093797041729,2.077407903903868,1.2884016665574982,8.526131680372284,-1.87994466210342,-2.1694386799137764,7.602787371826172,-4.910911001810213,-6.344306759717988,-5.423941263338414,-1.5342526319550305,3.093068192644817,-6.476053377477134,17.978016923113568,64.11147699123475,-15.676358850990852,-25.739129273504275,-19.83675908119658,-1.5029391904391962,-4.402541869188504,-48.29880471091408,-0.4189155946217237,27.134124060262977,34.61008775870848,39.498217869230544,1577399649.0,-27.687163163074587,-51.12272427502155,9.529376
64460,1577399650.0,2.9806058814072025,1.0047471649914244,7.714584910322979,2.0271296690405864,0.5497904543992945,3.894548568800018,2.8210702976133764,3.274975895281536,13.88636962890625,9.752785287252289,5.496513552782012,-7.193960794588414,11.954516899294967,-7.359202315167683,-6.491312166539634,18.084828446551068,38.32412347560975,-15.966275843178352,-23.71173210470085,-18.3029890491453,-0.0751469595219649,-6.148826033741899,-45.82429289460539,-1.6726212489433638,26.990355527600563,34.46631922604607,39.45029502500974,1577399650.0,-27.687208180423458,-51.12263883019301,9.825543
64461,1577399650.01,0.816247580625952,0.1907186005382994,13.973028049971417,4.806797796481993,-4.892229919135861,5.740478048780487,3.098797690191501,-3.2444352253239326,14.889540124511718,-1.5692361971227131,-3.719795040967988,-7.560171732088414,-1.6868405225800305,5.580250809832317,-8.200296541539634,8.227650712176068,-4.736179258765244,-16.912320765053355,-23.71173210470085,-18.3029890491453,-0.0751469595219649,-9.8468395586785,-48.75704763986013,-2.5575899461115803,27.08620121604217,34.46631922604607,39.498217869230544,1577399650.0,-27.687208180423458,-51.12263883019301,9.825543
64462,1577399650.02,3.825759067442359,0.7509617890148619,5.107299302412823,-2.710995416408632,-0.4988698727491419,16.0882176239758,-10.622372024163967,0.9382350749690348,18.54548605957031,4.931007943502286,-11.593330197217988,-6.888785013338414,1.1512942430449695,-7.664378096417683,-3.3480016196646343,-4.864390303448933,-36.53549566501525,-1.7450844369283538,-23.35914129273504,-19.939010416666665,-0.9769104737854758,-4.299819271273597,-50.773316527222775,6.439591808431953,27.08620121604217,34.46631922604607,39.64198640189295,1577399650.0,-27.687208180423458,-51.12263883019301,9.825543
64463,1577399650.03,-2.145379872987328,0.922147207716034,14.739172581221416,-2.7900040711937883,0.5641556643602321,7.227277279737519,0.9320451877500954,8.071758921404582,13.66251177368164,-11.548484243997711,10.76079577934451,-5.988516458650915,1.8684573289824693,6.877247880144816,-8.230814119664634,-25.99781315501143,-62.17026129001525,8.798738805259145,-25.56283386752137,-20.24576442307692,-0.7514695952195997,-2.450812508805297,-44.90780703671328,-2.5575899461115807,27.038278371821367,34.58612633659808,39.498217869230544,1577399650.0,-27.687208180423458,-51.12263883019301,9.825543
64464,1577399650.04,2.549649582579078,-5.184264126512481,7.671489280440166,3.918548980564024,-3.853146398628049,7.756395846632049,0.6830482150938451,-19.62316878245284,10.57279453125,-23.05361119712272,-16.018379025342988,-9.665884622713415,-2.6939206007050305,-11.021311690167684,-10.885843416539634,-21.52698795969893,-58.87436285251525,5.548616734946647,-25.122095352564106,-19.120999732905982,-0.9769104737854758,-1.0126961379966188,-44.907807036713294,-2.115105597527472,27.08620121604217,34.61008775870848,39.68990924611376,1577399650.0,-27.687208180423458,-51.12263883019301,9.825543
64465,1577399650.05,-1.2762846703506092,4.842652426221893,17.470956675459696,-3.987104901271913,10.227153564750855,25.09759847114377,2.1482996311094698,-2.1598618732731514,4.431667272949219,6.914650521627286,2.9330369902820124,-6.553091653963414,1.2733645555449695,-15.965159346417684,-1.7000524009146345,-13.256724287823932,-48.65097418064025,-8.397916468178353,-25.122095352564106,-19.120999732905982,-0.9769104737854758,-5.943380837912087,-44.907807036713294,-3.8850429918639056,27.18204690448378,34.46631922604607,39.45029502500974,1577399650.0,-27.687208180423458,-51.12263883019301,9.825543
64466,1577399650.06,-0.4802126183486568,-0.0391247588367,8.928445152022197,0.9641041319312116,-0.3145163449171106,14.745070492628146,-1.263437734613185,13.718483536883095,2.588131994628906,-0.3027567049352132,-8.007514767530488,-6.064810403963414,10.153979789919967,20.04558284108232,-11.282571932164634,3.527943680926067,3.534084413109756,1.9780600943216464,-25.122095352564106,-19.93901041666667,0.0751469595219556,-6.148826033741899,-45.09110420829171,-1.6726212489433638,26.96639410549016,34.41839638182526,39.35444933656812,1577399650.0,-27.687208180423458,-51.12263883019301,9.825543
64467,1577399650.07,-0.6130908104873282,4.256073019483612,10.417638584639386,0.8695331663550401,-1.238678185737424,6.641894973829316,1.9507779941465797,-1.2967521747868231,1.3144167114257812,10.271584115377289,-6.466377072217988,-8.292593607088415,-2.022533881955031,-7.466013838605184,-3.7599889243521343,12.561146805926068,42.18459710842225,-14.455655725990852,-25.298390758547008,-18.098486378205127,0.0751469595219524,10.800402622217526,-44.9994556225025,-20.478206063767963,27.229969748704587,34.46631922604607,39.59406355767214,1577399650.0,-27.687208180423458,-51.12263883019301,9.825543
64468,1577399650.08,0.9527170752548584,0.6671647309093931,11.04731362126048,0.4565333799780866,3.4060730349657007,7.1626338349133,-3.715100234613186,-13.76695152171065,4.996698864746094,-6.848777212747714,-15.987861447217988,-6.919302591463414,2.158374321169969,-2.415354658917683,-7.498392244664634,17.016713212176068,68.53652581935975,-15.355924280678352,-23.88802751068376,-19.734507745726493,-1.7283800690050757,11.519460807621863,-45.09110420829171,-39.431285661453934,27.08620121604217,34.46631922604607,39.546140713451344,1577399650.0,-27.687208180423458,-51.12263883019301,9.825543
64469,1577399650.09,1.9918005957626708,0.1452287689953307,1.7554169781940734,0.9545273252905866,1.014265576469607,6.777167367628143,8.090708151617282,4.357155045672161,5.626373901367187,6.792580209127286,-3.963935665967988,-5.759634622713414,-2.9380612257050305,3.138844559832317,-7.712015291539634,26.965443680926068,68.38393792873475,-16.973355921303355,-23.88802751068376,-19.734507745726493,-1.7283800690050757,-6.55971642540152,-42.15834946303696,-37.95633783284024,27.18204690448378,34.562164914487674,39.35444933656812,1577399650.0,-27.687208180423458,-51.12263883019301,9.825543
64470,1577399650.1,1.381279172422827,2.4747869843273618,10.56847328922923,4.22740099472418,0.0134892825242945,6.887300643995331,2.976693405523533,2.8799326213557546,4.170699291992188,5.159889779439786,-17.162788205030488,-6.781973489900915,-4.372387397580031,-7.725413252667683,-4.690775057164634,21.289174149676068,75.46401605373475,-11.968473108803352,-24.857652243589744,-19.63225641025641,-1.3526452713952728,-4.916154858763031,-42.5249438061938,-4.032537774725275,27.110162638152573,34.70593344715009,39.498217869230544,1577399650.0,-27.687208180423458,-51.12263883019301,9.825543
64471,1577399650.11,0.931169260313452,1.1891006928234555,16.321739878584697,1.9409384092749613,3.953148114311404,10.708446493604706,2.163861941900486,2.8883123271663016,15.970522174072263,-18.26235143149772,-8.205879025342988,-9.086050638338415,-7.744579780392532,-1.5913800495426829,-8.810648104039634,14.270131180926068,46.76223382717225,-15.096524866615852,-26.00357238247863,-19.32550240384615,-0.2254408785658824,-6.765161621231332,-39.40889188936063,-3.4425586432797965,26.89450983915896,34.514242070266874,39.33048791445772,1577399650.0,-27.687208180423458,-51.12263883019301,9.825543
64472,1577399650.12,2.810617563536109,0.540272042921112,11.030554209639384,5.735748040622617,0.142776172172732,11.21122884223752,-2.178022768792873,-0.9890972614567451,16.37394515380859,-3.827536978372713,11.813652224657012,-3.8675447789634143,-2.1751217725800305,6.282155106707317,-8.444437166539634,3.253285477801067,-2.355808165015244,-19.903043421303355,-26.00357238247863,-20.143513087606834,-0.8266165547415584,-9.8468395586785,-38.85900037462537,-2.852579511834319,27.3258154371462,34.46631922604607,39.35444933656812,1577399650.0,-27.687208180423458,-51.12263883019301,9.825543
64473,1577399650.13,2.039684628965796,-3.118068093797637,10.544531272627667,5.601672747653868,-2.038341540229611,11.108278170850802,-10.009456399163968,4.541508573504192,9.354145886230468,-20.49013463462272,6.473076052782012,-7.956900247713414,-4.250317085080031,-6.779368330792683,-6.216653963414634,-2.911265303448933,2.954250428734756,8.905550328696647,-26.00357238247863,-20.143513087606834,-0.8266165547415584,-9.8468395586785,-39.22559471778221,-2.5575899461115803,26.89450983915896,34.46631922604607,39.498217869230544,1577399650.0,-27.687208180423458,-51.12263883019301,9.825543
64474,1577399650.14,0.7695606482529052,0.115301248243378,10.860565891768292,0.9293882078589464,0.9101178042528106,16.016391574171116,7.240766562261813,-5.291477644757527,10.399214910888672,-5.994285025247712,15.353691287157012,-3.5471102086509143,-2.526073921017531,3.5508318645198167,-5.804666658727134,-5.490000655011432,-6.918186094702744,-13.891080530678352,-25.65098157051282,-19.530005074786324,-0.6763226356976378,-4.91615485876303,-45.82429289460539,-1.9676108146661029,27.038278371821367,34.41839638182526,39.59406355767215,1577399650.0,-27.687208180423458,-51.12263883019301,9.825543
64475,1577399650.15,0.9766590918564207,1.275291952589081,10.506224046065167,3.645609991306211,-1.004046423042111,6.444373336866424,-7.763695241937405,12.78474488942216,3.0142998901367184,0.2007833341272865,-11.288154415967988,-6.949820169588414,0.8766360399199695,5.610768387957317,-8.535989900914634,0.8423968059260671,12.780910584984756,6.799837438071647,-24.593209134615385,-18.098486378205127,-0.5260287166537173,-3.2725932921245406,-45.09110420829171,-2.852579511834319,27.08620121604217,34.370473537604454,39.498217869230544,1577399650.0,-27.687208180423458,-51.12263883019301,9.825543
64476,1577399650.16,0.3038884253525146,2.345500094678924,12.397643357588604,1.1556402647437116,2.795551611625857,11.16095060737424,5.770726742925875,-26.66451586497237,15.64131944580078,6.212746224752286,-6.649482540967988,-6.675161966463414,-1.4426998975800305,-4.460032393292683,-4.171976229039634,-7.000620772198933,8.996730897484756,-5.132535608803353,-26.00357238247863,-18.91649706196581,-1.1272043928293995,-0.8072509421668069,-45.09110420829171,-4.032537774725275,27.038278371821367,34.562164914487674,40.121214844101,1577399650.0,-27.687208180423458,-51.12263883019301,9.825543
64477,1577399650.17,2.00496870489353,0.3355678009777531,5.015122538496808,3.954462005466368,0.9328627200242944,6.592813839796112,-5.426954421624905,2.125759098406535,5.6215854980468745,2.718483529439786,-4.345405392530488,-7.483877786775915,-0.4661373975800305,5.854909012957317,-8.291849275914634,-1.0496930378239329,-11.938327696265244,-13.433316858803352,-26.00357238247863,-18.91649706196581,-1.1272043928293995,-2.450812508805297,-43.62472683566433,-2.852579511834319,27.134124060262977,34.46631922604607,39.45029502500974,1577399650.0,-27.687208180423458,-51.12263883019301,9.825543
64478,1577399650.18,1.0053895117782958,0.9975645600109556,8.114416587569073,2.322813574069883,0.9831409548875756,8.40761869819455,5.9921903964903285,5.931342637224895,14.01924782104492,7.433449349752286,0.0338670684070121,-5.240835794588414,-4.387646186642531,0.2854510051448171,-5.438455721227134,-11.135752608136432,-11.846774961890244,-2.3706947884908534,-24.064322916666665,-20.75702110042735,-1.277498311873317,-4.0943740754437865,-48.02385895354645,-3.737548209002536,27.08620121604217,34.514242070266874,39.45029502500974,1577399650.0,-27.687208180423458,-51.12263883019301,9.825543
64479,1577399650.19,1.4435284155868895,-1.6192978545398244,12.105550755049542,6.003898626560117,-1.4565505368116418,10.16496271674924,-8.572935403070217,-4.33140277903487,6.6893994384765625,-9.931052603372711,-4.940498165967988,-6.186880716463414,-9.468822944455033,-0.6758527057926829,-7.620462557164634,-9.594614912823932,-18.530124571265244,-1.5314613900533538,-24.9457999465812,-18.91649706196581,-0.8266165547415584,-5.532490446252464,-50.406722184065934,-3.5900534261411665,27.038278371821367,34.70593344715009,39.498217869230544,1577399650.0,-27.687208180423458,-51.12263883019301,9.825543
64480,1577399650.2,-0.0672128319717031,1.8235641327648615,13.659387632490947,-2.459604242092226,5.235243103325075,15.209545614698458,10.908683505621187,6.143229484148724,9.04050546875,3.3746114591272867,7.113945193407012,-3.9285799352134143,-1.6563229444550305,-11.326487471417684,-4.263528963414634,7.281605790301067,-17.980808165015244,-11.388639124428352,-25.47468616452992,-20.34801575854701,-0.0751469595219649,-5.532490446252464,-47.47396743881119,-3.5900534261411665,26.990355527600563,34.46631922604607,39.45029502500974,1577399650.0,-27.687208180423458,-51.12263883019301,9.825543
64481,1577399650.21,0.9922214026474364,0.2194490204601749,12.164208695723367,2.168387566989805,1.9073027957078883,15.396293344190646,6.101126572027438,-2.1694386799137764,7.5465236328125,-6.879294790872713,5.496513552782012,-4.172720560213414,-0.6797604444550305,6.709401200457317,-5.972513338414634,-5.871470381573933,-9.832614805640244,7.227083531821647,-24.9457999465812,-19.734507745726493,-1.7283800690050757,-2.450812508805297,-50.9566136988012,-4.032537774725275,27.03827837182137,34.562164914487674,39.35444933656812,1577399650.0,-27.687208180423458,-51.12263883019301,9.825543
64482,1577399650.22,1.6350645483993895,3.2864213471203305,11.485452525069071,1.6548313108862895,0.7006251589891388,9.836957089307832,2.3793400913145484,-2.717710860089558,13.474566943359374,2.2149434903772867,-0.1492384003429878,-5.118765482088414,-2.419262397580031,-0.5385236042301829,-4.751810213414634,-4.757578780011432,-10.900730040015244,-3.988126429115853,-24.593209134615385,-18.91649706196581,-0.2254408785658824,5.253382334812622,-46.83242733828671,-2.188852988958157,27.08620121604217,34.514242070266874,39.45029502500974,1577399650.0,-27.687208180423458,-51.12263883019301,9.825543
64483,1577399650.23,3.1912956275009527,-3.496351956102324,9.313911619307357,2.6687757139624613,-0.2450844967725794,4.639145285108612,-8.568146999749905,-14.736603194073933,12.330138549804689,6.060158334127286,2.2921678496570124,-3.8675447789634143,2.585620414919969,6.800953934832317,-4.446634432164634,-10.510142256573932,-7.116550352515244,-8.611539515053353,-24.9457999465812,-18.91649706196581,-0.8266165547415584,-4.0943740754437865,-44.35791552197802,-4.032537774725275,27.08620121604217,34.562164914487674,39.498217869230544,1577399650.0,-27.687208180423458,-51.12263883019301,9.825543
64484,1577399650.24,2.8249827734970463,-2.064619363328887,9.455169517256572,1.1197272398413678,-0.0607309689405482,8.421983908155488,-6.729400124749905,-1.178239192609089,7.316680273437499,-1.0504373689977131,16.116630740282012,-5.942740091463414,-2.5108151319550305,0.4227801067073171,-2.0662633384146343,-1.7821149128239329,-18.438571836890244,-20.604947718178355,-24.9457999465812,-19.32550240384615,-1.1272043928293995,9.875899240983376,-42.15834946303696,-3.4425586432797965,26.990355527600563,34.70593344715009,39.45029502500974,1577399650.0,-27.687208180423458,-51.12263883019301,9.825543
64485,1577399650.25,0.615134641172827,-1.2577734038562307,12.191742014815167,6.820321392673399,1.4978943118211696,9.913571542432834,5.4475095188047815,18.466185428972945,3.2345664428710936,-7.276023306497714,-0.4238966034679878,-5.607046732088414,3.531665336794969,3.596608231707317,-3.1343785727896343,3.375355790301067,-7.330173399390244,6.036897984946647,-24.24061832264957,-20.143513087606834,-1.7283800690050757,9.875899240983376,-42.15834946303696,0.6872952768385466,27.18204690448378,34.562164914487674,39.35444933656812,1577399650.0,-27.687208180423458,-51.12263883019301,9.825543
64486,1577399650.26,-0.84173706903225,1.3662716156750183,11.315464207197978,-1.2277874879418342,-0.1229802121046115,10.905968130567596,-1.555530337152249,-2.133525655011433,10.742782849121092,-1.5082010408727138,10.07415027153201,-3.4402986852134143,0.2052493211699693,1.5061541301448171,-3.8820592368521343,-7.397349287823932,-9.557956602515244,4.541536656821647,-24.76950454059829,-19.939010416666665,-1.277498311873317,10.286789632642998,-42.15834946303696,-37.07136913567202,27.110162638152573,34.58612633659808,39.52217929134095,1577399650.0,-27.687208180423458,-51.12263883019301,9.825543
64487,1577399650.27,-0.6561864403701406,1.184312289503143,6.867037522627667,0.7965100157202741,-2.337616747749142,11.374034555128146,6.747561020269625,3.488059843035442,14.717157604980468,2.2149434903772867,10.348808474657012,-1.0904451695884143,1.5175051805449695,7.960621903582317,-3.4395543540396343,-4.803355147198933,-24.420017149390244,-14.074185999428352,-23.006550480769228,-18.71199439102564,-0.3757347976097998,9.875899240983376,-38.492406031468526,-41.201223055790365,27.038278371821367,34.562164914487674,39.64198640189295,1577399650.0,-27.687208180423458,-51.12263883019301,9.825543
64488,1577399650.28,-0.7304066918349844,2.5585840424328303,10.980275974776104,0.7007419493140241,1.857024560844607,12.410723873975805,2.179424252691501,9.495111808367472,6.787561706542968,-2.8509744783727133,-4.208076290967988,-5.820669778963414,-0.4661373975800305,-7.145579268292683,-2.0052281821646343,-0.5919293659489329,-25.457614805640244,-9.588102015053352,-25.47468616452992,-17.484978365384613,-1.578086149961158,9.875899240983376,-39.22559471778221,-36.48139000422654,27.038278371821367,34.562164914487674,39.498217869230544,1577399650.0,-27.687208180423458,-51.12263883019301,9.825543
64489,1577399650.29,1.0532735449814208,2.817157821729705,10.077661948897198,-0.8111963990746472,-0.935811675727658,12.694436770704318,-0.7941742092225612,-9.799759370831744,7.314286071777343,7.921730599752286,-5.947578244092988,-3.4097811070884143,1.7463870164824693,-0.4927472370426828,-4.355081697789634,-10.784800459698932,-11.999362852515244,-1.6993080697408525,-25.827276976495725,-21.16602644230769,-0.3757347976097998,9.875899240983376,-39.22559471778221,-36.48139000422654,27.08620121604217,34.514242070266874,39.47425644712014,1577399650.0,-27.687208180423458,-51.12263883019301,9.825543
64490,1577399650.3,-0.089957747743188,-1.0925734893054495,8.83746548893626,0.6576463194312115,-0.4007076046827356,7.555282907178925,2.6893892063047824,24.650408317156533,17.290924389648435,-0.8062967439977133,-2.285468869092988,-3.9133211461509134,-0.3135495069550305,1.7960711223323171,-4.202493807164634,12.042347977801068,-22.924655821265244,-8.947232874428353,-24.24061832264957,-20.55251842948718,-1.1272043928293995,-13.133962691955478,-45.82429289460539,0.6872952768385466,27.03827837182137,34.753856291370894,39.35444933656812,1577399650.0,-27.687208180423458,-51.12263883019301,9.825543
64491,1577399650.31,0.414021701719702,3.645551596143768,10.341024131514386,-0.4676284608422248,2.010253467094607,11.989344381788303,5.308645822515719,9.44004517018388,11.104307299804686,8.959328256002287,1.468193240282012,-2.6163240758384143,-0.6797604444550305,-2.690012862042683,-3.4395543540396343,-1.7210797565739329,-43.34091558689025,3.687044469321646,-24.064322916666665,-19.530005074786324,0.2254408785658761,-9.8468395586785,-39.22559471778221,-4.032537774725275,27.229969748704587,34.562164914487674,39.45029502500974,1577399650.0,-27.687208180423458,-51.12263883019301,9.825543
64492,1577399650.32,0.6438650610947021,-3.781261953660918,11.483058323408915,-0.6687414002953499,-0.2809975216749232,13.504874032667209,6.57278429907822,8.810370133562786,10.27830772705078,-10.266745962747711,-10.433662228467988,-6.980337747713414,4.660815727419969,2.375905106707317,-5.911478182164634,-5.352671553448933,-58.75229254001525,9.424349156821648,-25.122095352564106,-19.939010416666665,0.526028716653711,-6.148826033741899,-43.62472683566433,-1.6726212489433638,27.08620121604217,34.370473537604454,39.35444933656812,1577399650.0,-27.687208180423458,-51.12263883019301,9.825543
64493,1577399650.33,-0.2659315697646724,-0.6771795012683406,11.29631059391673,-0.5214979981957409,1.071726416313357,11.933080642774629,4.997399606695407,-4.822214119366901,11.4538607421875,5.465065560689787,7.831108279344512,-2.6315828649009143,1.8379397508574693,-3.605540205792683,-1.8526402915396345,-13.85181706126143,-50.72616949314025,-4.0033852181783525,-25.386538461538464,-18.609743055555555,-1.2023513523513552,-4.813432260848126,-44.9994556225025,-3.6638008175718513,27.206008326594183,34.65801060292928,39.35444933656812,1577399650.0,-27.687208180423458,-51.12263883019301,9.825543
64494,1577399650.34,1.8050528662704832,-1.7725267607898243,9.15110590641673,1.2370431211890238,-0.1684700436475794,12.516068747022675,22.24043996314072,33.22165026051591,-10.884040747070312,4.747902474752286,-5.428779415967988,-2.7994295445884143,3.409595024294969,13.423268387957316,-5.819925447789634,16.345326493426068,-12.914890196265244,15.497347203696648,-25.47468616452992,-18.71199439102564,-0.9769104737854758,-3.2725932921245406,-45.09110420829171,-3.4425586432797965,27.08620121604217,34.46631922604607,39.45029502500974,1577399650.0,-27.687208180423458,-51.12263883019301,9.825543
64495,1577399650.35,1.429163205625952,1.4452802704601744,11.59558580143626,2.3455584898413675,6.185741162407107,1.117274643018768,9.464979904546968,-27.868799300030965,5.068524914550781,12.682472787252289,-3.170478634717988,-2.9520174352134143,1.5480227586699695,3.138844559832317,-3.6226598227896334,7.678334305926067,25.96450433498476,-16.118863733803355,-25.47468616452992,-18.71199439102564,-0.9769104737854758,-2.450812508805297,-45.09110420829171,-4.032537774725275,26.990355527600563,34.46631922604607,39.498217869230544,1577399650.0,-27.687208180423458,-51.12263883019301,9.825543
64496,1577399650.36,4.034054611875953,6.403671908643768,4.326789561201886,1.3208401792944926,-0.1301628170850794,8.659009872510955,4.571231711187595,3.787335050554973,3.4356793823242184,24.858986459127287,-7.992255978467988,-6.369986185213414,6.034106743044969,-4.398997237042683,-1.6695348227896345,21.869008134051068,42.13882074123475,-26.342252405678355,-24.9457999465812,-19.32550240384615,-0.5260287166537173,-9.025058775359255,-46.92407592407592,-1.6726212489433638,26.990355527600563,34.46631922604607,39.35444933656812,1577399650.0,-27.687208180423458,-51.12263883019301,9.825543
64497,1577399650.37,2.763930631163062,-3.1863028411120906,4.755351658369855,-0.5322719056664437,-3.381488671577268,1.172341281202362,0.644740988531345,34.28467579762528,10.8409451171875,12.819801888814789,-3.3383253144054894,-3.5928865758384143,14.121264946169967,7.228200028582317,-5.118021150914634,29.437367509051068,54.40688714748475,-4.217008265053353,-25.386538461538464,-19.836759081196583,-1.2023513523513585,-9.641394362848688,-47.47396743881119,3.1947065854818257,27.134124060262977,34.70593344715009,39.21068080390571,1577399650.0,-27.687208180423458,-51.12263883019301,9.825543
64498,1577399650.38,2.0588382422470457,4.069325289991424,15.229983921553448,-1.349891772609804,1.787592712700076,11.348895437696504,1.4108855197813448,-3.801087111310261,15.747861419677731,5.724464974752286,-6.802070431592988,-6.705679544588414,7.422656547732468,3.581349442644816,-0.7234899009146343,12.912098954363568,27.55141839748476,-8.458951624428352,-25.65098157051282,-19.32550240384615,-1.1272043928293995,-8.100555394125104,-49.03199339722777,-0.1239260288989854,27.038278371821367,34.63404918081888,39.42633360289933,1577399650.0,-27.687208180423458,-51.12263883019301,9.825543
64499,1577399650.39,0.5050013648056395,2.800398410108612,15.105485435225322,2.328799078220274,-2.58182531708508,8.211294162061737,-15.022914675531156,-8.255499300030964,17.243040356445313,4.869972787252286,8.761894412157012,-0.1138826695884145,0.4799075242949695,11.226002762957316,-4.782327791539634,1.5748186809260671,-1.4707983993902438,-5.010465296303353,-25.65098157051282,-19.32550240384615,-1.1272043928293995,-6.354271229571711,-50.406722184065934,-3.2950638604184275,27.373738281367,34.41839638182526,39.21068080390571,1577399650.0,-27.687208180423458,-51.12263883019301,9.825543
64500,1577399650.4,-2.6625274315810783,-5.481145132371856,11.504606138350322,-6.046118329006288,0.956804736625857,10.70126388862424,10.3771707370665,8.070561820574504,11.449072338867186,-26.59365025962272,23.86809558403201,-5.362906107088414,5.728930961794969,-3.758128096417683,-0.9371129477896342,12.988392899676068,1.1842308974847562,-10.320523890053352,-24.593209134615385,-20.143513087606834,-0.8266165547415584,-6.55971642540152,-50.59001935564436,-0.4926629860524088,27.08620121604217,34.562164914487674,39.30652649234732,1577399650.0,-27.687208180423458,-51.12263883019301,9.825543
64501,1577399650.41,-0.0253143029189693,2.638789798048065,13.272724064375714,-0.467628460842226,2.0964447268602324,12.14377038886838,-6.992762307367093,-2.4758964924137774,10.419565625,-1.1725076814977131,5.496513552782012,-2.8299471227134143,9.726733696169967,4.832570145769816,-4.324564119664634,4.733388016863567,28.49746331935976,5.029817906821648,-25.122095352564106,-18.50749172008547,-0.6763226356976378,11.519460807621863,-44.35791552197802,-3.147569077557058,27.014316949710967,34.63404918081888,39.40237218078893,1577399650.0,-27.687208180423458,-51.12263883019301,9.825543
64502,1577399650.42,1.1370706030868896,-1.7844977690906056,7.446434324385479,-1.1739179505883186,-0.6928002072217982,7.555282907178925,17.538227902593842,-5.755952766827838,17.259799768066404,9.325539193502289,-3.506171994092988,-4.325308450838414,7.437915336794969,1.2467547160823171,-2.4935094321646343,6.030385087176067,3.228908631859756,-25.640348108803355,-24.41691372863248,-18.71199439102564,-1.277498311873317,11.519460807621863,-42.15834946303696,-3.4425586432797965,26.84658699493815,34.46631922604607,39.35444933656812,1577399650.0,-27.687208180423458,-51.12263883019301,9.825543
64503,1577399650.43,2.705272690489234,2.7501201752453306,6.795211472822979,1.409425640720274,3.9423742068407006,7.016587533643769,-13.727651577386624,23.7765247111995,-17.915811022949217,11.766945443502289,0.0643846465320121,-2.9825350133384143,3.7758059617949695,7.808034012957317,-0.1131383384146341,14.911000321551068,28.13125238185976,-4.705289515053353,-24.41691372863248,-18.71199439102564,-1.277498311873317,0.219975036982249,-43.07483532092907,-3.8850429918639056,27.08620121604217,34.46631922604607,39.45029502500974,1577399650.0,-27.687208180423458,-51.12263883019301,9.825543
64504,1577399650.44,0.6558360693954833,0.9041906952648618,9.471928928877668,0.5690608580054304,-0.3983134030225794,7.868923324659393,-1.50285790062881,-27.22715325510909,4.905719201660156,15.581642709127289,-0.1797559784679878,-2.9825350133384143,1.2123293992949695,12.202565262957316,-4.812845369664634,7.586781571551067,32.15957269435975,-3.362516077553354,-25.47468616452992,-19.939010416666665,-1.277498311873317,9.875899240983376,-39.22559471778221,-36.48139000422654,27.038278371821367,34.46631922604607,39.30652649234732,1577399650.0,-27.687208180423458,-51.12263883019301,9.825543
64505,1577399650.45,2.256359879209936,1.2860658600597836,12.321028904463605,2.7429959654273053,1.0010974673387478,6.749634048536347,2.0740793796446253,8.232170432635051,14.615404034423827,-5.826438345560214,-5.123603634717988,-4.569449075838414,1.8531985399199693,1.9791765910823167,-2.9360143149771343,10.684315751238568,14.718776795922258,-8.077481897865853,-24.24061832264957,-19.120999732905982,-0.6763226356976347,1.2472010161313056,-39.22559471778221,-37.95633783284024,27.08620121604217,34.58612633659808,39.30652649234732,1577399650.0,-27.687208180423458,-51.12263883019301,9.825543
64506,1577399650.46,2.616687229063453,2.292827658155487,2.9046337750690734,3.762925872653868,1.789986914360232,4.979121920850799,2.0597141696836885,-18.955186519269244,3.5194764404296874,3.4966817716272867,13.614189334032012,-3.1351229039634143,-5.257397163205031,9.455983231707316,-4.477152010289634,3.711049149676067,22.02773675685976,5.853792516196647,-25.47468616452992,-21.16602644230769,-1.277498311873317,-4.505264467103409,-39.22559471778221,-35.89141087278106,27.18204690448378,34.562164914487674,39.30652649234732,1577399650.0,-27.687208180423458,-51.12263883019301,9.825543
64507,1577399650.47,0.8425837988876708,1.6751236298351744,12.69452436344798,-3.036606842189882,-4.47803303192883,8.606337435987518,-7.071770962152248,5.99239477955888,3.047818713378906,-0.9588846346227134,7.174980349657012,-7.163443216463414,2.005786430544969,-5.863840987042683,2.2061975990853657,-2.728159834698933,13.330226991234756,-11.663297327553352,-25.47468616452992,-21.16602644230769,-1.277498311873317,-8.203277992040011,-39.22559471778221,-37.07136913567202,27.18204690448378,34.370473537604454,39.35444933656812,1577399650.0,-27.687208180423458,-51.12263883019301,9.825543
64508,1577399650.48,-1.3145918969131092,-0.940541683885528,10.79831664860423,-2.5697375184594136,-1.1141796994092985,15.824855441358617,-3.037541164788967,5.901415116472942,22.175095776367183,-10.236228384622716,10.989677615282012,-4.294790872713414,4.843921196169969,-5.833323408917683,-4.477152010289634,1.6053362590510671,-17.675632383765244,-2.660611780678354,-24.15247061965812,-19.63225641025641,-1.5029391904391962,-13.133962691955478,-39.22559471778221,0.9822848425612848,27.18204690448378,34.61008775870848,39.498217869230544,1577399650.0,-27.687208180423458,-51.12263883019301,9.825543
64509,1577399650.49,2.384449668028296,1.263320944288299,6.378620383955792,2.19113248276129,0.0087008792039825,13.313337899854709,5.374486368170016,-2.024589479474323,20.30761848144531,-1.3556131502477131,7.724296755907012,-3.5928865758384143,-1.0001950147675305,12.614552567644816,-6.338724275914634,-16.59839909251143,-56.79916754001525,-7.146695765053354,-24.593209134615385,-19.734507745726493,-0.8266165547415584,-8.100555394125106,-38.76735178883616,-3.6638008175718513,27.038278371821367,34.58612633659808,39.42633360289933,1577399650.0,-27.687208180423458,-51.12263883019301,9.825543
64510,1577399650.5,-0.1821345116592032,1.2441673310070491,12.148646384932354,-1.2289845887719124,-1.2123419674757043,9.362905160596894,-8.977555483636625,20.513227848406533,12.076353173828124,3.0084005216272867,11.142265505907012,-3.5928865758384143,0.1136965867949695,3.810231278582317,-4.141458650914634,-18.71937077219893,-81.70151129001525,29.474397984946645,-24.9457999465812,-20.55251842948718,-2.0289679070929103,-7.9978327962102,-39.04229754620379,-3.2950638604184275,26.89450983915896,34.61008775870848,39.546140713451344,1577399650.0,-27.687208180423458,-51.12263883019301,9.825543
64511,1577399650.51,-0.9506732445693594,0.3894373383312682,12.605938902022196,-1.0111122376976935,0.9783525515672632,18.111318026807837,13.4417488620665,-0.9914914631169016,-6.517016918945312,4.320656381002286,4.245292849657012,-5.027212747713414,2.555102836794969,3.047291825457317,-4.385599275914634,-29.88880436594893,-59.54574957126525,20.990511266196645,-24.9457999465812,-20.55251842948718,-2.0289679070929103,-9.230503971189066,-49.3069391545954,-2.70508472897295,27.18204690448378,34.8017791355917,39.97744631143858,1577399650.0,-27.687208180423458,-51.12263883019301,9.825543
64512,1577399650.52,0.509789768125952,0.4073938507824405,9.492279642988995,-0.8195761048851936,1.042995996391482,12.724364291456272,3.2232961765196264,-22.405231111554404,5.971138940429687,-4.819358267435214,-2.178657345655488,-4.676260599275914,1.8837161180449693,12.172047684832316,-6.125101229039634,-13.165171553448932,-35.28427496189025,-2.874234827553354,-24.50506143162393,-18.405240384615382,-0.601175676175679,-2.0399221171456747,-44.35791552197802,3.637190934065935,27.062239793931766,34.562164914487674,39.45029502500974,1577399650.0,-27.687208180423458,-51.12263883019301,9.825543
64513,1577399650.53,0.2248797705673583,5.141927633741425,13.551648557783915,-3.747684735256288,-0.4533800412061737,7.24523379218869,5.266747293462985,1.7738114543635672,7.672219219970703,10.241066537252289,-8.633125119092988,-9.086050638338415,1.395434868044969,2.787892411394817,-1.7153111899771345,0.1862688762385671,-12.823337461890244,-14.119962366615852,-24.76950454059829,-17.484978365384613,-0.6763226356976347,-2.0399221171456747,-50.773316527222775,0.8347900596999165,27.08620121604217,34.53820349237728,39.59406355767214,1577399650.0,-27.687208180423458,-51.12263883019301,9.825543
64514,1577399650.54,-2.2890319725967028,-1.4636747466296682,10.640299339033916,2.4125961363257424,-0.3815539914014856,15.42502376411252,-4.30646804467178,9.622004496355752,15.662867260742187,-1.7218240877477131,10.379326052782012,-1.5787264195884143,-1.5342526319550305,4.847828934832317,-4.355081697789634,0.1710100871760671,-42.48642339939025,-10.686734827553352,-24.24061832264957,-19.734507745726493,0.3757347976097936,-6.55971642540152,-49.49023632617382,-3.4425586432797965,27.18204690448378,34.46631922604607,39.35444933656812,1577399650.0,-27.687208180423458,-51.12263883019301,9.825543
64515,1577399650.55,0.4307811133407958,-1.9449092803210744,2.7945004987018858,-1.0949092958031623,-2.8978599362257054,14.445795285108614,-8.704616494378811,12.530959513445598,18.76096420898437,-2.3016580721227133,-0.8206251190929879,-2.3111482945884143,6.522387993044969,3.077809403582317,-5.789407869664634,-30.16346256907393,-88.87314214939025,5.792757359946647,-25.122095352564106,-18.3029890491453,-0.0751469595219649,-8.203277992040011,-50.22342501248751,3.637190934065935,27.229969748704587,34.562164914487674,39.498217869230544,1577399650.0,-27.687208180423458,-51.12263883019301,9.825543
64516,1577399650.56,-2.4949333153701407,-3.553812795946074,12.423979575850325,-1.8131697938500373,-2.8356106930616427,11.80020245063596,7.607079416265719,25.395005033465125,18.87109748535156,-20.82582799399772,-8.694160275342988,-7.041372903963414,6.217212211794969,-4.398997237042683,-6.491312166539634,-13.958628584698932,-115.20981207126523,21.783968297446645,-25.122095352564106,-18.3029890491453,-0.0751469595219649,11.519460807621863,-48.75704763986013,-4.032537774725275,26.89450983915896,34.562164914487674,39.68990924611376,1577399650.0,-27.687208180423458,-51.12263883019301,9.825543
64517,1577399650.57,-2.503313021180688,0.5187242279797062,13.925144016768291,-1.6336046693383195,0.2181935244676544,9.853716500928924,1.9280330783750943,-13.661606648663776,11.637017169189452,-7.276023306497712,4.458915896532012,-3.1961580602134143,29.319018852419973,-51.01459782298018,-4.889139314977134,-27.691538740948936,-81.33530035251525,14.627596227134145,-25.122095352564106,-19.325502403846155,-0.0751469595219649,-4.607987065018314,-49.21529056880619,-24.31307041816357,27.18204690448378,34.562164914487674,39.45029502500974,1577399650.0,-27.687208180423458,-51.12263883019301,9.825543
64518,1577399650.58,-0.9602500512099844,1.7756800995617368,14.078372923018293,-4.540165484768007,10.964567676078982,16.895063583448458,5.42356750220322,7.661153336687786,4.321533996582031,13.689552865377289,4.367363162157012,-1.4566561070884143,-17.25080536633003,-8.061106612042684,0.1004847084603658,-2.636607100323933,-23.321384336890244,-11.449674280678352,-25.47468616452992,-18.71199439102564,0.8266165547415459,-5.943380837912087,-44.54121269355643,-44.593603061601854,26.89450983915896,34.46631922604607,39.498217869230544,1577399650.0,-27.687208180423458,-51.12263883019301,9.825543
64519,1577399650.59,-1.455849794862328,11.450649008253146,9.064914646651106,-6.438767401271913,2.333470691215701,11.781048837354708,2.141117026129001,3.332436735125286,0.1197100830078125,25.011574349752287,-5.611884884717988,-3.3792635289634143,20.83513213366997,6.251637528582317,-7.528909822789634,-5.139048506573933,8.661037538109756,-10.930875452553352,-24.76950454059829,-18.3029890491453,0.526028716653711,-5.327045250422654,-41.79175511988012,4.227170065511412,26.89450983915896,34.70593344715009,39.45029502500974,1577399650.0,-27.687208180423458,-51.12263883019301,9.825543
64520,1577399650.6,0.9431402686142338,-4.460018124315216,9.256450779463604,3.17395226425543,-7.863434179389768,-2.8954073394031057,6.398007577886813,9.45919878346513,6.519411120605469,-0.8368143221227111,-12.234199337842988,-5.118765482088415,-1.4732174757050305,-30.52204411204268,-3.4090367759146343,22.876088212176068,13.208156678734756,-14.196256311928352,-24.76950454059829,-18.3029890491453,0.526028716653711,7.20511169519583,-40.50867491883117,-3.8850429918639056,27.110162638152573,34.61008775870848,39.35444933656812,1577399650.0,-27.687208180423458,-51.12263883019301,9.825543
64521,1577399650.61,1.1179169898056396,-0.6304925688952933,3.546279819990948,-3.35024725967035,-0.3468380673292205,9.67774267890744,-2.801712301263577,2.577066111345989,9.157821350097656,7.921730599752286,10.867607302782012,-1.3345857945884143,-4.128246772580031,-4.627879072980184,-1.2117711509146345,7.647816727801068,20.57815179592226,3.442903844321646,-23.88802751068376,-18.91649706196581,-0.2254408785658824,7.20511169519583,-40.50867491883117,-3.8850429918639056,27.18204690448378,34.442357803935664,39.35444933656812,1577399650.0,-27.687208180423458,-51.12263883019301,9.825543
64522,1577399650.62,-0.4095836693740469,1.383031027296112,11.609951011397198,0.1213451475562116,0.1308051638719508,6.698158712842987,13.87031095923447,17.776655350847943,19.09136403808593,6.060158334127286,-7.503974728467988,-3.0130525914634143,7.468432914919969,6.617848466082317,-4.568704744664634,20.526234696551068,2.099758241234756,-7.085660608803353,-25.65098157051282,-18.098486378205127,-0.8266165547415584,6.588776107706397,-42.15834946303696,-3.737548209002536,26.990355527600563,34.70593344715009,39.35444933656812,1577399650.0,-27.687208180423458,-51.12263883019301,9.825543
64523,1577399650.63,0.3398014502548583,4.43563814399533,13.700089060713603,4.526676202243711,5.948715198051638,14.39072864692502,-11.314296303949124,-7.929887874249713,7.924807495117187,8.959328256002287,-13.699043087842988,-1.7618318883384143,2.982348930544969,-6.870921065167683,-3.6531774009146334,-4.467661787823933,15.924221131859756,-1.0126625619283538,-25.65098157051282,-19.734507745726493,0.0751469595219524,-9.8468395586785,-45.09110420829171,-41.201223055790365,26.990355527600563,34.46631922604607,39.45029502500974,1577399650.0,-27.687208180423458,-51.12263883019301,9.825543
64524,1577399650.64,-2.390785543153344,1.5673845551281438,11.799092942549542,0.5930028746069929,1.3422712039110134,17.74979357612424,18.153537729254,-18.936032905987997,10.333374365234375,1.467262826314785,5.389702029344512,-0.5563875524009143,2.158374321169969,-7.786448408917683,-2.0052281821646343,-1.4464215534489329,9.393459413109756,-22.283414515053355,-25.298390758547008,-19.734507745726493,-0.8266165547415584,-9.435949167018876,-39.22559471778221,-41.79120218723584,27.014316949710967,34.562164914487674,39.35444933656812,1577399650.0,-27.687208180423458,-51.12263883019301,9.825543
64525,1577399650.65,-0.2539605614638907,-6.232924453660918,5.487977366377667,-2.9767518006859754,-1.4613389401319543,4.369797598341034,4.194144949712985,16.599905234881142,9.390058911132812,-20.03237096274772,12.515556521532012,-2.4637361852134143,6.262988578982469,-4.109080244855183,-2.2951451743521343,13.217274735613568,5.746608827172256,0.1012290396341484,-25.122095352564106,-17.893983707264955,0.526028716653711,-11.28495592948718,-21.07917473151848,-22.764375198119197,27.18204690448378,34.58612633659808,39.42633360289933,1577399650.0,-27.687208180423458,-51.12263883019301,9.825543
64526,1577399650.66,-0.2419895531631094,4.028623861768768,10.053719932295635,-1.9975233216820685,-1.6193562497022669,14.867174777296114,0.15632384985947,-11.863561201886432,3.3399113159179685,12.957130990377289,-5.856025509717988,-1.3345857945884143,8.078784477419969,-19.53571598704268,-1.7000524009146345,13.842885087176068,31.94594964748476,-3.911832483803354,-25.65098157051282,-19.32550240384615,-0.2254408785658824,-13.133962691955478,-39.22559471778221,-2.2626003803888417,26.89450983915896,34.562164914487674,39.498217869230544,1577399650.0,-27.687208180423458,-51.12263883019301,9.825543
64527,1577399650.67,-0.6394270287490469,0.1883243988781432,9.531783970381571,0.2458436338843365,2.9032906863328884,5.187417465284393,3.735655331793064,17.50850476491044,3.253720056152344,5.907570443502286,-13.241279415967988,-1.6092439977134143,0.1442141649199695,-7.084544112042683,-4.660257479039634,26.782338212176068,46.07558831935975,0.8489097036966463,-25.827276976495725,-19.120999732905982,-0.3757347976097998,-16.010195433572836,-47.65726461038961,-2.852579511834319,27.038278371821367,34.70593344715009,39.35444933656812,1577399650.0,-27.687208180423458,-51.12263883019301,9.825543
64528,1577399650.68,1.3824762732529052,1.39739623725705,8.437633811690167,-1.4133381166039436,-0.0559425656202357,0.9113733002453306,-5.065429970941311,-10.09664037669112,7.132326745605468,14.025246224752289,-30.300605587842988,-3.2266756383384143,4.874438774294969,-2.781565596417683,-0.5403844321646342,16.681019852801068,56.29897699123475,-5.346158655678353,-24.76950454059829,-20.75702110042735,-0.3757347976097998,-6.55971642540152,-44.724509865134856,-3.737548209002536,26.990355527600563,34.70593344715009,39.546140713451344,1577399650.0,-27.687208180423458,-51.12263883019301,9.825543
64529,1577399650.69,2.659782858946265,1.1962832978039244,10.55410807926829,2.8615089476050395,0.7149903689500763,7.339804757764863,-1.5926404628846709,-0.9053002033512768,5.802347723388672,16.985451302877287,-15.713203244092988,-1.9449373570884143,3.226489555544969,-2.567942549542683,-2.5850621665396343,22.418324540301068,61.33437738185975,-16.83602681974085,-24.9457999465812,-18.098486378205127,-0.8266165547415584,-1.6290317254860518,-42.89153814935065,-3.885042991863905,26.990355527600563,34.53820349237728,39.45029502500974,1577399650.0,-27.687208180423458,-51.12263883019301,9.825543
64530,1577399650.7,-0.1079142601943594,-0.1420754302234183,7.439251719405011,3.2936623472632425,-0.709559618842892,11.737953207471897,2.2680097141172824,1.1249828044612225,17.053898425292967,7.860695443502286,2.4142381621570124,-0.6326814977134145,2.829761039919969,0.4227801067073171,-4.049905916539634,21.350209305926068,39.11758050685975,-18.834928186928355,-24.593209134615385,-18.507491720085472,-1.1272043928293995,-3.2725932921245406,-49.49023632617382,-2.852579511834319,26.990355527600563,34.562164914487674,39.45029502500974,1577399650.0,-27.687208180423458,-51.12263883019301,9.825543
64531,1577399650.71,3.121863779356421,0.5737908661632994,10.788739841963604,2.118109332126524,3.092432617485232,7.318256942823456,4.40842599829697,7.761709806414348,16.354791540527344,-14.172995962747711,-12.020576290967988,-5.668081888338414,4.508227836794969,-2.537424971417683,1.2906702553353655,14.605824540301068,12.048488709984756,-3.301480921303354,-24.064322916666665,-19.530005074786324,-0.0751469595219649,-3.2725932921245406,-49.49023632617382,-2.852579511834319,26.990355527600563,34.562164914487674,39.35444933656812,1577399650.0,-27.687208180423458,-51.12263883019301,9.825543
64532,1577399650.72,-0.0648186303115474,1.360286111524628,5.897385850264386,-1.4803757630883183,-0.817298693549924,9.9590613739758,1.2001957736875954,-4.842564833478229,13.605050933837887,12.301003060689789,4.230034060594512,-0.9225984899009144,9.238452446169967,-8.473093916730184,-2.9360143149771343,-0.1494244831364329,-12.609714415015244,2.405306188071646,-24.24061832264957,-18.098486378205127,-0.2254408785658824,-2.450812508805297,-50.22342501248751,-3.4425586432797965,27.08620121604217,34.53820349237728,39.33048791445772,1577399650.0,-27.687208180423458,-51.12263883019301,9.825543
64533,1577399650.73,0.0524972510361083,-2.306433731004668,4.882244346358136,1.964880425876524,-1.6217504513624232,11.879211105421115,-0.581090261468654,0.2606760051448162,4.592078784179687,6.670509896627286,-4.879463009717988,-0.3885408727134145,6.736011039919969,2.589528153582317,-5.392679354039634,-1.8431500690739329,-12.579196836890244,3.961702672446646,-23.535436698717945,-19.32550240384615,-0.5260287166537173,-1.629031725486053,-50.9566136988012,-4.032537774725275,27.038278371821367,34.41839638182526,39.35444933656812,1577399650.0,-27.687208180423458,-51.12263883019301,9.825543
64534,1577399650.74,-0.3521228295302969,1.9767930390148616,8.32750053532298,-4.303139520412539,1.8618129641649197,7.150662826612519,-3.056694778070217,-5.909181673077838,11.693280908203125,3.649269662252287,-5.947578244092988,-1.3651033727134143,5.301684868044969,-13.523753096417684,0.9549768959603658,-3.613169600323933,-5.560153868140244,0.4521811880716463,-24.41691372863248,-19.120999732905982,0.2254408785658761,-2.450812508805297,-44.724509865134856,-4.032537774725275,27.18204690448378,34.562164914487674,39.35444933656812,1577399650.0,-27.687208180423458,-51.12263883019301,9.825543
64535,1577399650.75,-0.7292095910049067,4.776811880567597,10.441580601240949,-1.6719118959008186,2.0725027102586697,11.67809816596799,5.730025314703219,0.4378469279963787,10.27830772705078,7.296120248189787,-10.143745236280488,-1.9907137242759143,8.719653618044969,-7.847483565167683,-5.789407869664634,3.558461259051067,-9.710544493140244,-7.421353968178353,-25.03394764957265,-19.22325106837607,-0.300587838087841,-2.450812508805297,-45.09110420829171,-4.032537774725275,27.134124060262977,34.70593344715009,39.35444933656812,1577399650.0,-27.687208180423458,-51.12263883019301,9.825543
64536,1577399650.76,1.8960325293564209,-1.7509789458484182,7.614028440596416,3.3678825987280865,0.8035758303758576,8.67576928413205,2.094430093755954,-1.6522911213200264,4.2125978210449215,-2.2101053377477133,-16.537177853467988,-4.355826028963414,0.9376711961699692,-4.505808760480184,-3.6989537681021343,2.505604813738567,4.709011170922256,-9.084561975990852,-25.298390758547008,-18.507491720085472,-0.2254408785658824,-2.964425498379825,-43.16648390671829,-3.9587903832945903,27.18204690448378,34.53820349237728,39.498217869230544,1577399650.0,-27.687208180423458,-51.12263883019301,9.825543
64537,1577399650.77,1.5871805151962646,0.0135476776867369,10.781557236983137,0.8611534605444928,-2.5866137204053925,9.08996617133908,10.053953512945409,5.501583439226848,4.367023828124999,-2.6983865877477133,-5.764472775342988,-3.3792635289634143,4.874438774294969,-7.359202315167683,-2.0662633384146343,-1.6600446003239329,9.057766053734756,7.898470250571647,-25.298390758547008,-19.32550240384615,-1.1272043928293995,10.286789632642996,-42.89153814935064,-1.6726212489433638,26.89450983915896,34.370473537604454,39.30652649234732,1577399650.0,-27.687208180423458,-51.12263883019301,9.825543
64538,1577399650.78,0.8904678320907958,-1.403819705125762,10.118363377119854,0.9832577452124616,2.5393720339891384,8.029334835889863,-10.471537319574123,-6.562798726300495,11.731588134765625,-1.904929556497713,4.184257693407012,-0.8157869664634145,-5.257397163205031,-6.321604658917683,-5.453714510289634,-2.575571944073933,8.172756288109756,0.6047690786966463,-25.298390758547008,-19.734507745726493,-0.2254408785658824,1.6580914077909268,-42.15834946303696,-39.431285661453934,27.08620121604217,34.41839638182526,39.45029502500974,1577399650.0,-27.687208180423458,-51.12263883019301,9.825543
64539,1577399650.79,-0.4095836693740474,2.89736357734494,9.86577510197337,2.5969496641577736,1.0118713748094508,8.704499704053925,3.524965585699314,3.971688578387005,5.65031591796875,-2.7594217439977133,-6.741035275342988,-3.0283113805259143,-3.5484127882050305,-0.3096417682926829,-6.308206697789634,3.070180009051067,19.67788324123476,-1.5619789681783538,-25.38653846153846,-19.0187483974359,-0.3005878380878411,1.6580914077909268,-42.15834946303696,-39.431285661453934,26.94243268337976,34.46631922604607,39.546140713451344,1577399650.0,-27.687208180423458,-51.12263883019301,9.825543
64540,1577399650.8,1.0796097632431396,2.0031292572765804,2.279747141768292,0.6480695127905864,2.774003796684451,7.495427865675018,-0.1441484584901394,-7.9849545124333074,6.511031414794921,5.663429818502286,-11.166084103467988,-1.8228670445884143,-3.548412788205031,-8.061106612042684,-3.821024080602133,4.718129227801068,32.26638421779725,-12.761930140053355,-26.179867788461536,-19.530005074786324,0.2254408785658761,3.815265964003945,-42.43329522040459,-38.03008522427092,26.990355527600563,34.562164914487674,39.45029502500974,1577399650.0,-27.687208180423458,-51.12263883019301,9.825543
64541,1577399650.81,-1.5252816430068592,4.114815121534393,10.54931967594798,1.804468914646055,-1.6672402829053918,5.524999899366424,2.813887692632908,15.834957804461222,12.313379138183594,0.5059591153772866,-11.654365353467988,-7.041372903963414,-1.3206295850800305,-1.8050030964176829,-4.812845369664634,7.952992509051067,18.91494378810976,-10.991910608803352,-26.179867788461536,-19.530005074786324,0.2254408785658761,-5.7379356420822765,-40.325377747252745,-4.032537774725275,26.990355527600563,34.562164914487674,39.30652649234732,1577399650.0,-27.687208180423458,-51.12263883019301,9.825543
64542,1577399650.82,2.9806058814072025,-1.1979183623523244,4.709861826826886,0.3200638853491803,-1.1333333126905485,5.158687045362519,-4.890653249749905,-12.05030893137862,9.430760339355468,-1.5082010408727131,-8.236396603467988,-1.7618318883384143,0.2968020555449695,-15.782053877667684,-4.782327791539634,-8.587534834698932,12.262111756859756,-1.8671547494283536,-25.47468616452992,-18.71199439102564,-0.6763226356976347,10.286789632642996,-36.292839972527474,-36.1864004385038,26.89450983915896,34.562164914487674,39.30652649234732,1577399650.0,-27.687208180423458,-51.12263883019301,9.825543
64543,1577399650.83,0.6929461951279051,-0.0415189604968562,11.933168235518291,0.3344290953101179,-2.6416803585889865,6.8322340058117375,-1.3616000026795914,9.51665962330888,0.9552864624023436,-10.602439322122711,-7.000434689405488,-5.927481302400914,-2.4802975538300305,-15.385325362042684,-3.9278356040396334,1.6358538371760671,6.189113709984756,-1.5619789681783538,-25.29839075854701,-19.530005074786324,-0.375734797609806,10.286789632642996,-36.292839972527474,-36.1864004385038,27.15808548237338,34.562164914487674,39.35444933656812,1577399650.0,-27.687208180423458,-51.12263883019301,9.825543
64544,1577399650.84,1.924762949278296,1.809198922803924,6.3187653424518855,1.4513241697730088,1.4883175051805446,6.143901028516815,-1.4657477748963883,-3.4132264423649485,4.394557147216797,-4.559958853372714,-2.438056759717988,-1.7007967320884143,-6.890087592892531,-1.6066388386051829,-7.406839510289634,-4.528696944073933,32.06801995998475,-2.5232826791158525,-25.827276976495725,-18.3029890491453,-0.3757347976097998,-7.9978327962102,-39.40889188936064,-36.62888478708791,27.229969748704587,34.61008775870848,39.42633360289933,1577399650.0,-27.687208180423458,-51.12263883019301,9.825543
64545,1577399650.85,2.0109542090439207,2.1443871552258,7.393761887862042,4.2297951963843365,4.272774035942264,8.086795675733612,-1.490886892328029,-0.9483958332340888,13.939042065429687,-9.137595572122711,-15.346992306592988,-9.421743997713415,-8.675365913205031,-1.5303448932926829,-6.918558260289634,10.608021805926068,27.06313714748476,-18.224576624428355,-25.827276976495725,-18.3029890491453,-0.3757347976097998,-5.7379356420822765,-44.724509865134856,-1.6726212489433638,27.18204690448378,34.370473537604454,39.498217869230544,1577399650.0,-27.687208180423458,-51.12263883019301,9.825543
64546,1577399650.86,1.5392964819931394,-0.3575535796374808,8.605227927901105,3.049453777927305,-1.5690780148389856,7.734848031690643,-1.672846218499904,-9.344861055402058,13.551181396484374,-4.682029165872714,-1.247871212842988,-4.935660013338414,-3.853588569455032,2.497975419207317,-7.437357088414634,-1.0802106159489329,20.77651605373476,-15.264371546303352,-23.535436698717945,-18.098486378205127,-1.7283800690050757,-2.861702900464919,-44.35791552197802,-1.0826421174978862,27.038278371821367,34.370473537604454,39.45029502500974,1577399650.0,-27.687208180423458,-51.12263883019301,9.825543
64547,1577399650.87,0.5325346838974369,0.1595939789562687,9.256450779463604,-2.715783819728944,1.2704451541063264,9.50655726020627,0.3035672519590798,6.5586234721858325,11.707646118164062,-9.915793814310211,2.3074266387195124,-4.691519388338414,-4.952221381955031,-11.433298994855184,-2.4477330649771343,-6.512339522198932,-18.789523985327744,-5.758145960365853,-24.857652243589747,-19.83675908119658,-1.3526452713952757,-2.861702900464919,-43.25813249250749,-2.115105597527472,27.134124060262977,34.562164914487674,39.52217929134094,1577399650.0,-27.687208180423458,-51.12263883019301,9.825543
64548,1577399650.88,0.5289433814072021,1.0957268280773618,8.993088596846418,-1.8371118104516,-3.82681018036633,12.17609211128049,-1.1556986599061538,12.868541947527628,6.967126831054687,-1.965964712747713,12.729179568407012,-2.4637361852134143,-0.8628659132050305,-4.978831221417683,-6.521829744664634,-12.676890303448932,-18.194431211890244,9.760042516196648,-25.47468616452992,-17.07597302350427,-0.3757347976097998,-1.2181413338264289,-43.62472683566433,-1.9676108146661029,27.038278371821367,34.41839638182526,39.30652649234732,1577399650.0,-27.687208180423458,-51.12263883019301,9.825543
64549,1577399650.89,0.7348447241806395,-0.8028750884265432,9.414468089033916,-1.255320807033631,-0.0224237423780482,9.087571969678924,4.429973813238377,-12.170019014386432,11.96382569580078,-8.466208853372713,-7.900703244092988,-6.095327982088414,2.707690727419969,-12.425120283917684,-3.2869664634146343,-20.21473210032393,-10.198825743140244,-2.355435999428354,-25.47468616452992,-17.07597302350427,-0.3757347976097998,-3.2725932921245406,-49.85683066933067,-3.737548209002536,27.08620121604217,34.562164914487674,39.498217869230544,1577399650.0,-27.687208180423458,-51.12263883019301,9.825543
64550,1577399650.9,-0.3557141320205317,-0.3048811431140438,8.100051377608136,-3.606426837307069,2.302346069633669,12.944630844190646,2.99105861548447,6.775298722429973,15.418658691406248,-11.258567251810211,-6.618964962842988,-5.851187357088414,-2.0225338819550305,-8.488352705792684,-8.444437166539634,-11.395152022198932,-20.452731993140244,-15.325406702553352,-25.386538461538464,-18.20073771367521,-1.0520574333074375,-6.55971642540152,-50.9566136988012,-4.032537774725275,27.110162638152573,34.562164914487674,39.498217869230544,1577399650.0,-27.687208180423458,-51.12263883019301,9.825543
64551,1577399650.91,1.900820932676733,0.5761850678234557,10.05132573063548,2.2414107176245706,0.7592830996629669,7.47507715156369,0.2508948154356409,3.315677323504191,4.934449621582031,0.3838888028772865,-15.011298947217988,-1.7923494664634143,-4.830151069455031,-0.8894757526676829,-5.911478182164634,-0.6071881550114329,-4.141086485327744,0.6200278677591463,-24.41691372863248,-19.120999732905982,-0.3757347976097998,-4.710709662933219,-47.29067026723277,-4.032537774725275,27.038278371821367,34.514242070266874,39.42633360289933,1577399650.0,-27.687208180423458,-51.12263883019301,9.825543
64552,1577399650.92,1.9798295874618892,3.549783529737518,10.850989085127669,1.2681677427710552,1.9264564089891385,10.437901706007052,0.0821035983946262,0.5336149944026287,7.441178759765624,1.6351095060022869,-7.534492306592988,-5.820669778963414,-3.2432370069550305,-8.763010908917684,-4.202493807164634,-6.085093428448933,7.104641053734756,-9.038785608803352,-26.00357238247863,-18.507491720085472,-0.8266165547415584,-4.505264467103409,-43.62472683566433,-1.6726212489433638,27.18204690448378,34.70593344715009,39.35444933656812,1577399650.0,-27.687208180423458,-51.12263883019301,9.825543
64553,1577399650.93,2.0564440405868893,-1.7725267607898243,9.301940611006572,1.6416632017554302,-3.2115003537061737,11.148979599073458,-0.782203200921779,0.7107859172541912,17.037139013671872,1.3909688810022869,-8.144843869092988,-3.2266756383384143,-0.5576901319550305,-8.244212080792684,-4.843362947789634,-2.239878584698933,-4.827731993140244,-3.576139124428354,-26.00357238247863,-18.507491720085472,-0.8266165547415584,9.875899240983376,-45.09110420829171,-4.032537774725275,27.038278371821367,34.41839638182526,39.21068080390571,1577399650.0,-27.687208180423458,-51.12263883019301,9.825543
64554,1577399650.94,0.2296681738876713,0.5558343537121281,14.540453843428448,-3.35742986465082,3.817875720512576,10.995750692823458,-4.450120144281154,-3.10557152903487,11.671733093261718,-13.013327993997711,-1.903999142530488,-4.249014505525914,-3.792553413205032,-9.495432783917684,-0.0826207602896341,-4.925425459698933,-11.572116758765244,-15.203336390053352,-25.03394764957265,-19.223251068376065,-3.1086244689504387e-15,9.875899240983376,-45.09110420829171,-4.032537774725275,27.038278371821367,34.46631922604607,39.45029502500974,1577399650.0,-27.687208180423458,-51.12263883019301,9.825543
64555,1577399650.95,1.2208676611923583,0.4540807831554869,8.102445579268291,1.8535500486792584,0.0374312991258575,12.45142530219846,2.2680097141172824,-2.0688822101872137,8.57962164916992,-4.712546743997714,8.395683474657012,0.4354337366615854,-3.777294624142531,-2.934153487042683,-4.324564119664634,-6.603892256573932,6.006008241234756,1.2914145865091466,-26.179867788461536,-17.893983707264955,-0.6763226356976347,-2.450812508805297,-45.09110420829171,-4.032537774725275,27.08620121604217,34.370473537604454,39.1148351154641,1577399650.0,-27.687208180423458,-51.12263883019301,9.825543
64556,1577399650.96,-0.5891487938857657,1.9648220307140805,12.213289829756572,1.6847588316382427,0.5043006228563257,9.391635580518768,-0.3895541286561539,13.024165055437786,3.028665100097656,0.6890645841272866,-11.929023556592988,-6.247915872713414,-3.5484127882050305,-8.122141768292684,-2.4019566977896343,0.9644671184260672,8.325344178734756,-13.311246546303352,-26.179867788461536,-17.893983707264955,-0.3757347976097998,1.8635366036207368,-43.44142966408592,-2.4100951632502112,26.89450983915896,34.70593344715009,39.35444933656812,1577399650.0,-27.687208180423458,-51.12263883019301,9.825543
64557,1577399650.97,2.7555509253525154,-0.455715847703887,5.289258628584698,1.2346489195288677,1.512259521782107,10.909559433057836,-7.421324404535061,-10.307330122784869,11.81777939453125,1.1773458341272869,-1.827705197217988,-2.0364900914634143,-2.9990963819550305,-0.3096417682926829,-3.5311070884146343,-2.026255537823933,24.01137933498476,3.564974156821646,-26.179867788461536,-17.893983707264955,-0.3757347976097998,-3.2725932921245406,-41.05856643356643,-35.89141087278106,27.18204690448378,34.61008775870848,39.498217869230544,1577399650.0,-27.687208180423458,-51.12263883019301,9.825543
64558,1577399650.98,-0.300647493836938,0.589353176954315,7.976749992110089,-0.4975559815941784,-1.7199127194288295,8.884064828565643,4.517362173834079,5.730229697771769,7.389703424072265,0.841652474752288,0.995170779344512,-2.6773592320884143,-0.1914791944550304,-9.922678877667684,-2.1120397056021343,1.1933489543635671,-7.192844297827744,-6.963590296303353,-25.474686164529917,-19.120999732905982,-1.1272043928293964,3.301652974429416,-40.50867491883116,-36.776379569949285,26.990355527600563,34.70593344715009,39.23464222601611,1577399650.0,-27.687208180423458,-51.12263883019301,9.825543
64559,1577399650.99,0.9287750586532958,-1.865900625535918,8.121599192549542,-2.8019750794945697,0.2792456668016383,9.56162389838986,3.6686176853086887,17.039241239519818,-1.3742717529296875,-0.6231912752477134,-8.968818478467988,0.0387052210365854,-2.6328854444550305,-3.880198408917683,-1.6084996665396345,1.5137835246760671,8.691555116234756,6.067415563071647,-26.532458600427347,-19.120999732905982,-1.578086149961158,-7.9978327962102,-3.849240603146853,-3.5900534261411665,26.990355527600563,34.46631922604607,39.35444933656812,1577399650.0,-27.687208180423458,-51.12263883019301,9.825543
64560,1577399651.0,2.434727902891577,2.1683291718273616,10.50382984440501,4.746942754978086,-1.332052050483517,6.724494931104706,-2.5227878078553734,-12.519572456769245,10.94389578857422,-0.3790506502477134,-13.821113400342988,-5.912222513338414,1.0597415086699695,-5.345042158917683,-5.484232088414634,-3.826792647198933,18.36562738185976,4.846712438071647,-27.76652644230769,-18.098486378205127,0.0751469595219524,-6.354271229571711,-2.3828632305194803,-36.62888478708791,27.18204690448378,34.562164914487674,39.45029502500974,1577399651.0,-27.687258538443672,-51.12255471780819,10.112411
64561,1577399651.01,2.1210874854111084,1.4787990937023618,12.725648985030013,4.799615191501523,-2.033553136909298,3.801174704053924,13.15444466284775,-2.423224055890339,17.899051611328122,-6.635154165872714,-9.823310665967988,-3.8675447789634143,-4.708080756955031,-1.7134503620426829,-4.629739900914634,-3.643687178448933,1.2452660537347562,-19.231656702553355,-27.76652644230769,-18.098486378205127,0.0751469595219524,-13.133962691955478,-39.22559471778221,-4.032537774725275,27.229969748704587,34.562164914487674,39.21068080390571,1577399651.0,-27.687258538443672,-51.12255471780819,10.112411
64562,1577399651.02,0.4930303565048583,0.9568631317882994,5.073780479170636,-2.46319554458246,5.785909485161014,9.344948648145722,9.73313049048447,3.0247818217952065,1.199495031738281,1.8945089200647875,7.236015505907012,-2.0364900914634143,-3.868847358517531,1.1246844035823171,-3.668436189977134,8.212391923113568,18.06045160060976,0.1622641958841462,-26.35616319444444,-17.484978365384613,-0.0751469595219649,-8.100555394125106,-42.06670087724776,-2.0413582060967874,27.134124060262977,34.562164914487674,39.33048791445772,1577399651.0,-27.687258538443672,-51.12255471780819,10.112411
64563,1577399651.03,0.1482653174423583,0.4445039765148619,10.259621275069073,-2.7229664247094134,-2.672804980171018,12.686057064893772,7.6238388278868126,0.6150178508479412,16.474501623535154,-5.933249868997714,0.0949022246570121,-0.5716463414634145,-3.701000678830032,-6.199534346417683,-0.9981481040396342,-3.399546553448933,-10.534519102515244,-12.822965296303352,-25.47468616452992,-17.07597302350427,-0.6763226356976347,-5.532490446252464,-44.907807036713294,-1.525126466081995,27.18204690448378,34.46631922604607,39.30652649234732,1577399651.0,-27.687258538443672,-51.12255471780819,10.112411
64564,1577399651.04,-1.2978324852920156,-1.422973318407012,8.983511790205792,-0.5873385438500374,0.5857034793016382,13.117013363721895,-4.756577956781155,9.595668278094037,7.982268334960937,-6.665671743997714,-4.604804806592988,-2.7078768102134143,-0.2830319288300305,-10.441477705792684,-1.9441930259146345,1.3306780559260671,-3.393405821265244,1.4287436880716462,-24.9457999465812,-17.689481036324786,-1.4277922309172344,-5.327045250422654,-44.724509865134856,-0.4926629860524088,26.990355527600563,34.753856291370894,39.21068080390571,1577399651.0,-27.687258538443672,-51.12255471780819,10.112411
64565,1577399651.05,0.8425837988876708,-0.2198869841784969,9.274407291914777,-0.0366721620140999,-2.3831065792921104,11.101095565870336,-6.439701723870999,-10.666460371808308,12.811373083496091,2.7032247403772867,0.2627489043445123,-1.3345857945884143,-3.2737545850800305,0.056569169207317,-3.0733434165396343,-7.366831709698933,5.029445741234756,3.687044469321646,-24.9457999465812,-17.689481036324786,-1.4277922309172344,-5.327045250422654,-44.724509865134856,-0.4926629860524088,27.062239793931766,34.41839638182526,39.64198640189295,1577399651.0,-27.687258538443672,-51.12255471780819,10.112411
64566,1577399651.06,1.8002644629501707,0.0518549042492369,12.356941929365949,0.4170290525855089,-0.4581684445264862,9.303050119092989,7.684890970220797,1.9078867473323171,10.82897410888672,-6.818259634622714,-11.501777462842988,-4.416861185213414,1.5480227586699693,-2.125437666730183,-2.9512731040396343,-1.5227154987614329,-7.910007383765244,-6.002286585365853,-25.65098157051282,-17.280475694444444,-1.4277922309172344,-5.327045250422654,-44.1746183503996,-2.1151055975274726,26.990355527600563,34.46631922604607,39.33048791445772,1577399651.0,-27.687258538443672,-51.12255471780819,10.112411
64567,1577399651.07,1.697313791563452,-1.106938699266387,12.54608386051829,0.2793624571265241,3.389313623344607,11.089124557569551,-6.985579702386624,8.841494755144817,9.466673364257812,0.3228536466272865,-5.123603634717988,-1.7618318883384143,-7.637768256955031,-3.605540205792683,-1.5169469321646345,-0.8665875690739329,-17.095798399390244,4.419466344321647,-25.47468616452992,-19.120999732905982,-0.3757347976097998,-4.505264467103409,-45.09110420829171,-3.737548209002536,27.18204690448378,34.562164914487674,39.21068080390571,1577399651.0,-27.687258538443672,-51.12255471780819,10.112411
64568,1577399651.08,1.2256560645126708,3.5569661347179866,15.459827280928447,2.4413265562476174,3.051731189262576,14.510438729932831,0.299975949468845,-10.175649031476276,16.21592784423828,-3.980124868997713,-6.222236447217988,-3.2571932164634143,4.233569633669969,-1.3167218464176829,-3.1038609946646343,-8.740122725323932,-35.40634527439025,-8.214810999428353,-25.65098157051282,-19.32550240384615,-1.1272043928293995,-8.203277992040011,-49.85683066933067,-3.147569077557058,27.038278371821367,34.61008775870848,39.45029502500974,1577399651.0,-27.687258538443672,-51.12255471780819,10.112411
64569,1577399651.09,0.9191982520126708,-2.106517892381622,6.731765128828839,4.256131414646055,-0.8388465084913295,11.163344809034395,2.3925082004454072,9.24850903737138,10.424354028320312,-6.970847525247713,6.152641482469512,-1.7618318883384143,-1.2290768507050305,11.775319169207316,-3.3785191977896343,-12.646372725323932,-49.10873785251525,-1.6840492806783538,-26.00357238247863,-18.507491720085472,-0.8266165547415584,-6.354271229571711,-44.907807036713294,-3.2950638604184275,26.89450983915896,34.41839638182526,39.45029502500974,1577399651.0,-27.687258538443672,-51.12255471780819,10.112411
64570,1577399651.1,-1.4127541649795154,-1.183553152391387,9.87176060612376,0.287742162937071,-0.9394029782178928,5.745266452100802,7.237175259771578,-3.218099007062213,7.812280017089844,-1.843894400247713,6.564628787157012,-1.6092439977134143,-0.5424313428925305,-6.764109541730184,-0.7540074790396344,-11.944468428448932,-44.62265386814025,10.461946813071648,-24.9457999465812,-18.91649706196581,-0.2254408785658824,-3.683483683784164,-43.99132117882117,-2.2626003803888417,26.990355527600563,34.370473537604454,39.47425644712013,1577399651.0,-27.687258538443672,-51.12255471780819,10.112411
64571,1577399651.11,1.9989832007431396,4.045383273389862,9.225326157881574,0.9401621153296492,3.468322278129764,16.81126652534299,-3.4086424221131857,7.100910148211224,5.614402893066406,6.517922006002286,-3.231513790967988,-0.7242342320884145,-2.0530514600800305,2.497975419207317,-4.049905916539634,-9.380991865948932,-25.427097227515244,6.921907750571647,-25.827276976495725,-19.939010416666665,-0.6763226356976347,-5.7379356420822765,-43.62472683566433,-2.852579511834319,27.038278371821367,34.562164914487674,39.498217869230544,1577399651.0,-27.687258538443672,-51.12255471780819,10.112411
64572,1577399651.12,-0.3257866112685782,0.6432227143078306,14.427926365401104,3.643215789646055,-0.0798845822217982,6.635909469678925,0.1036514133360325,-9.079104671124714,6.265625744628906,4.503761849752286,-22.549140744092988,-5.210318216463414,3.470630180544969,0.056569169207317,-2.0662633384146343,4.351918290301067,0.5738793349847561,-6.688932093178353,-25.122095352564106,-16.25796233974359,-1.277498311873317,-2.450812508805297,-42.89153814935064,-1.6726212489433638,27.18204690448378,34.70593344715009,39.498217869230544,1577399651.0,-27.687258538443672,-51.12255471780819,10.112411
64573,1577399651.13,1.3154386267685303,1.6667439240246271,10.269198081709698,-2.684659198146913,0.0877095339891383,6.2504430023937685,-1.44539706078506,2.7841645549495047,2.8131869506835936,6.228005013814788,0.613701052782012,-0.8310457555259145,3.8978762742949695,-13.371165205792684,1.7484339272103655,5.725209305926067,20.71548089748476,-5.681852015053353,-24.41691372863248,-19.120999732905982,-0.9769104737854758,-0.190915354677375,-44.1746183503996,-1.525126466081995,27.08620121604217,34.562164914487674,39.64198640189295,1577399651.0,-27.687258538443672,-51.12255471780819,10.112411
64574,1577399651.14,1.7835050513290769,-4.415725393602324,8.449604819990949,3.2074710874976176,-0.217551177680783,8.788296762159394,3.074855673589939,1.873170823260052,9.35294878540039,-3.919089712747713,-3.872382931592988,-3.1656404820884143,-1.244335639767531,6.388966630144817,-3.5158482993521343,7.205311844988568,10.431057069359756,-5.239347132240853,-26.88504941239316,-17.484978365384613,-1.277498311873317,-1.526309127571146,-40.7836206761988,-22.2481434581044,27.08620121604217,34.41839638182526,39.33048791445772,1577399651.0,-27.687258538443672,-51.12255471780819,10.112411
64575,1577399651.15,2.4299394995712644,0.1787475922375182,7.628393650557355,2.326404876560117,3.295939758598513,10.073983053663303,-6.401394497308499,-5.8636918415348696,7.898471276855468,10.637795052877289,-2.254951290967988,0.3133634241615854,2.524585258669969,-7.542307783917683,3.2437952553353657,5.114857743426067,15.374904725609756,6.006380406821647,-25.298390758547008,-19.734507745726493,0.3757347976097936,-2.2453673129754868,-43.44142966408592,-36.33389522136517,27.038278371821367,34.562164914487674,39.35444933656812,1577399651.0,-27.687258538443672,-51.12255471780819,10.112411
64576,1577399651.16,0.6558360693954833,2.0198886688976745,10.51101244938548,-4.427638006740663,0.7796338137742945,7.035741146925019,-1.2945623561952164,-9.74469273264815,15.377957263183593,5.754982552877286,-12.783515744092988,-3.5318514195884143,5.088061821169969,0.9720965129573172,1.3822229897103655,0.0489397746760671,6.860500428734756,-11.022428186928352,-25.827276976495725,-19.530005074786324,-0.9769104737854758,-2.2453673129754868,-43.44142966408592,-36.33389522136517,26.89450983915896,34.562164914487674,39.30652649234732,1577399651.0,-27.687258538443672,-51.12255471780819,10.112411
64577,1577399651.17,0.8928620337509526,0.8539124604015812,8.870984312178448,2.9201668882788674,-0.7299103329542201,10.378046664503149,6.503352450933688,9.066549711199505,13.43266841430664,4.290138802877287,-0.9426954315929876,-1.9449373570884143,3.592700493044969,3.184620927019817,-1.5474645102896345,2.093617509051067,-9.588474180640244,-1.0279213509908538,-26.35616319444444,-18.507491720085472,-2.329555745180745,-2.656257704635109,-41.24186360514486,-38.69381174714708,27.08620121604217,34.514242070266874,39.40237218078893,1577399651.0,-27.687258538443672,-51.12255471780819,10.112411
64578,1577399651.18,-0.0169345971084219,-1.4947993682116991,5.9979423199909485,0.4756869932593366,-0.3815539914014856,13.24869445503049,-6.06860046654678,-6.447877046612994,7.915230688476562,0.8416524747522866,20.29753894340701,0.8931974085365855,-0.7407956007050305,-6.413157393292683,-0.2657262290396341,1.0865374309260671,-5.651706602515244,1.3371909536966462,-25.298390758547008,-20.55251842948718,-0.8266165547415584,-12.928517496125668,-39.04229754620379,-3.5900534261411665,27.229969748704587,34.562164914487674,39.498217869230544,1577399651.0,-27.687258538443672,-51.12255471780819,10.112411
64579,1577399651.19,0.0860160742782958,1.6296337982922056,11.32743521549876,-3.680647088771914,-0.5156292843702357,13.219964035108616,3.7332611301329073,-0.3785758381169014,4.663904833984375,-5.506003775247714,-8.388984494092988,-2.0975252477134143,8.109302055544969,-6.016428877667683,-1.0286656821646345,-7.458384444073933,2.160793397484756,0.2385581411966463,-26.88504941239316,-19.939010416666665,-0.0751469595219649,-15.804750237743024,-39.04229754620379,-3.5900534261411665,27.18204690448378,34.46631922604607,39.64198640189295,1577399651.0,-27.687258538443672,-51.12255471780819,10.112411
64580,1577399651.2,-0.080380941102563,-0.9142054656238092,11.840991471602276,2.462874371189024,-0.4078902096632044,10.813791366651584,6.409978586187594,1.3548261638362225,20.951658728027343,3.603493295064786,0.6899949980945124,-1.1819979039634143,4.294604789919969,4.878346512957317,-3.1343785727896343,0.0184221965510671,-12.243503477515244,3.931185094321646,-25.739129273504272,-18.814245726495727,-3.0808688933348094e-15,-13.750298279444912,-39.04229754620379,-3.000074294695689,27.014316949710967,34.562164914487674,39.30652649234732,1577399651.0,-27.687258538443672,-51.12255471780819,10.112411
64581,1577399651.21,2.645417648985328,0.0566433075695494,8.643535154463605,0.5594840513648054,0.9580018374559356,12.441848495557831,0.7716336765196259,-0.2624570575993232,7.802703210449218,6.762062631002286,-5.062568478467988,-3.0435701695884143,0.8613772508574693,-1.6981915729801829,-1.5474645102896345,-0.3325299518864328,-17.416232969702744,-2.9505287728658534,-25.827276976495725,-18.3029890491453,-0.3757347976097998,-5.7379356420822765,-43.44142966408592,-0.7876525517751478,26.990355527600563,34.58612633659808,39.37841075867853,1577399651.0,-27.687258538443672,-51.12255471780819,10.112411
64582,1577399651.22,1.9415223608993892,3.284027145460174,14.767903001143292,1.4884342955054302,-1.9258140622022668,9.71006440131955,-0.6146090847108414,14.443926639910442,-4.242525341796875,9.752785287252289,1.285087771532012,-3.0740877477134143,4.172534477419969,12.172047684832316,0.0699671303353658,-1.6600446003239329,2.374416444359756,19.434114781821645,-24.76950454059829,-18.3029890491453,-1.277498311873317,-3.2725932921245406,-43.62472683566433,-1.3776316832206257,27.18204690448378,34.61008775870848,39.45029502500974,1577399651.0,-27.687258538443672,-51.12255471780819,10.112411
64583,1577399651.23,-0.4335256859756094,-1.5307123931140432,8.949992966963606,0.9712867369116804,-0.4581684445264856,8.314244833448456,-0.9617683254334976,-16.3909965412419,16.67561456298828,2.2759786466272867,16.269218630907012,2.6326993616615857,-0.6797604444550305,3.260914872332317,-3.8668004477896334,-1.8126324909489329,-0.4637183212652439,-7.573941858803353,-26.532458600427347,-19.120999732905982,-0.3757347976097998,-1.629031725486053,-43.62472683566433,-2.852579511834319,27.038278371821367,34.46631922604607,39.35444933656812,1577399651.0,-27.687258538443672,-51.12255471780819,10.112411
64584,1577399651.24,0.1757986365341556,2.4711956818371275,9.708954893233136,0.5331478331030866,5.034130163871951,12.717181686475802,4.075631967535252,-12.007213301495806,11.61906065673828,-3.110373892435214,6.000053591844512,-1.1972566930259143,-0.1609616163300304,3.260914872332317,-1.1812535727896345,-2.270396162823933,-3.118747618140244,-15.233853968178352,-26.35616319444444,-17.28047569444444,0.225440878565873,-7.792387600380388,-43.62472683566433,-2.852579511834319,27.134124060262977,34.46631922604607,39.35444933656812,1577399651.0,-27.687258538443672,-51.12255471780819,10.112411
64585,1577399651.25,-2.6242202050185783,-2.2322134795398245,7.202225755049541,-2.116036303859804,-3.4138103939893765,9.253968985059783,1.996267825689548,6.444898893328411,10.518924993896483,4.992043099752286,14.651786990282012,0.4659513147865854,1.5632815477324693,0.6058855754573162,-0.3725377524771341,-1.2327985065739329,-22.268527891577744,2.847811070884146,-25.65098157051282,-18.098486378205127,0.0751469595219524,-8.100555394125104,-47.93221036775724,-0.2714208117603554,27.18204690448378,34.58612633659808,39.28256507023691,1577399651.0,-27.687258538443672,-51.12255471780819,10.112411
64586,1577399651.26,0.0261610327743895,-3.2784796050281058,13.604320994307354,1.4070314390601175,1.608027588188357,12.85365118110471,1.5928448459532198,4.464894120379192,12.504915270996094,-12.433494009622711,2.3532030059070124,-1.1514803258384143,3.134936821169969,-4.551585127667683,0.7718714272103658,-12.249644209698932,-37.14584722751525,3.748079625571646,-25.65098157051282,-18.098486378205127,0.0751469595219524,-9.641394362848688,-50.773316527222775,3.489696151204564,27.229969748704587,34.61008775870848,39.30652649234732,1577399651.0,-27.687258538443672,-51.12255471780819,10.112411
64587,1577399651.27,0.6175288428329833,1.2178311127453303,10.59959791081126,1.56504874863043,-0.3480351681592982,15.427417965772678,-0.8420582424256852,5.515948649187786,7.017405065917968,8.410011849752287,7.174980349657012,0.2218106897865854,2.982348930544969,8.021657059832316,-3.4700719321646343,-0.8665875690739329,-31.072849180640244,5.548616734946647,-26.00357238247863,-17.280475694444444,0.0751469595219524,-9.641394362848688,-50.773316527222775,3.489696151204564,27.18204690448378,34.46631922604607,39.45029502500974,1577399651.0,-27.687258538443672,-51.12255471780819,10.112411
64588,1577399651.28,-1.427119374940453,2.83990273750119,13.859303471113996,-0.4772052674828503,3.169047070610232,7.149465725782441,2.794734079351657,2.3975009868342703,10.639832177734377,2.2912374356897867,-6.588447384717988,-1.9449373570884143,3.913135063357469,-1.8507794636051829,0.5582483803353658,3.955189774676068,-13.952487852515244,-0.0513588509908533,-25.298390758547008,-18.916497061965813,0.3757347976097904,-8.100555394125106,-49.765182083541454,-3.811295600433221,26.990355527600563,34.41839638182526,39.37841075867853,1577399651.0,-27.687258538443672,-51.12255471780819,10.112411
64589,1577399651.29,2.0205310156845457,-1.614509451219512,3.448117551924542,0.2051422056616803,-1.4134549069288294,9.101937179639862,-0.9881045436952164,-16.022289485577836,2.60489140625,13.720070443502289,2.1395799590320124,-0.1138826695884145,9.726733696169967,3.138844559832317,-2.6766149009146343,3.527943680926067,34.90615472560975,-5.864957483803353,-24.41691372863248,-19.120999732905982,-1.277498311873317,-6.55971642540152,-43.62472683566433,-3.147569077557058,27.038278371821367,34.370473537604454,39.35444933656812,1577399651.0,-27.687258538443672,-51.12255471780819,10.112411
64590,1577399651.3,2.8225885718368904,1.576961361768768,7.252503989912823,-1.169129547268006,-2.222695068061642,2.733360763624237,6.22083665503525,1.0675219646174725,-0.0335188232421874,18.785988412252287,1.529228396532012,-1.7618318883384143,3.226489555544969,1.2467547160823171,0.9854944740853658,18.206898759051068,42.74917230373475,-14.287809046303352,-24.41691372863248,-19.120999732905982,-1.277498311873317,2.068981799450549,-41.05856643356643,-4.032537774725275,26.990355527600563,34.61008775870848,39.498217869230544,1577399651.0,-27.687258538443672,-51.12255471780819,10.112411
64591,1577399651.31,0.730056320860327,1.2800803559093932,17.324910374190168,0.3918899351538678,2.3957199343797635,6.815474594190643,-18.9494053981874,9.36343071705888,0.8379705810546875,-3.705466665872713,-12.142646603467988,-3.2571932164634143,-0.3745846632050305,-3.575022627667683,3.1827600990853657,16.986195634051068,72.13760003810975,-2.660611780678354,-25.47468616452992,-18.71199439102564,-1.578086149961158,2.068981799450549,-41.05856643356643,-4.032537774725275,26.89450983915896,34.562164914487674,39.35444933656812,1577399651.0,-27.687258538443672,-51.12255471780819,10.112411
64592,1577399651.32,2.4359250037216555,-1.1153184050769338,7.045405546309308,1.3471763975562114,0.3235383975145294,8.307062228467988,4.431170914068454,4.446937607928019,13.729549420166014,0.9484639981897862,2.1700975371570124,-1.1514803258384143,-2.297192085080031,9.150807450457316,-2.2188512290396343,21.563832352801068,42.33718499904725,-8.855680140053353,-25.386538461538464,-18.405240384615382,-0.4508817571317617,5.047937138982811,-41.88340370566933,-38.91505392143914,26.990355527600563,34.65801060292928,39.33048791445772,1577399651.0,-27.687258538443672,-51.12255471780819,10.112411
64593,1577399651.33,-1.0464413109756094,2.048619088819549,9.009848008467513,2.029523870700743,-0.977710204780392,13.646131930616429,-1.912266384515529,-3.965089925030964,13.747505932617187,12.041603646627289,22.49480456840701,0.8321622522865855,-5.623608100705031,6.465260575457317,-3.1343785727896343,6.274525712176067,25.78139886623476,5.182405797446647,-26.00357238247863,-18.098486378205127,-0.5260287166537173,10.081344436813186,-41.24186360514485,-36.92387435281065,27.08620121604217,34.46631922604607,39.21068080390571,1577399651.0,-27.687258538443672,-51.12255471780819,10.112411
64594,1577399651.34,1.0748213599228271,2.335923288038299,8.370596165205791,-0.9057673646508186,4.193765381157107,10.155385910108617,-0.1477397609803727,-11.60977582590987,17.369933044433594,-4.773581900247714,3.4823533965320124,-1.5176912633384143,4.050464164919969,3.718678544207317,-1.0591832602896345,-3.246958662823933,-3.332370665015244,-10.595182093178352,-26.00357238247863,-18.098486378205127,-0.5260287166537173,10.081344436813186,-41.24186360514485,-36.92387435281065,26.89450983915896,34.70593344715009,39.35444933656812,1577399651.0,-27.687258538443672,-51.12255471780819,10.112411
64595,1577399651.35,-0.8608906823134999,-0.1791855559558406,11.501014835860088,-1.217013580471131,-0.3863423947217981,10.385229269483617,2.5265834934141576,5.726638395281536,18.01636749267578,-1.0199197908727131,4.718315310594512,-2.2348543492759143,4.019946586794969,8.235280106707316,-0.7540074790396342,-3.704722334698933,-27.685398008765244,-6.627896936928353,-25.827276976495725,-18.302989049145296,-0.8266165547415553,9.875899240983376,-39.958783404095904,-37.07136913567202,26.96639410549016,34.70593344715009,39.35444933656812,1577399651.0,-27.687258538443672,-51.12255471780819,10.112411
64596,1577399651.36,-0.3401518212295157,-0.139681228563262,13.831770152022198,-1.6826858033715228,1.5098653201219514,7.13749471748166,-1.205976894769436,-0.2061933185856519,6.714538555908203,-13.287986197122711,-3.048408322217988,-0.9988924352134144,0.1289553758574693,-4.765208174542684,-0.1894322837271343,-18.49048893626143,-16.027683165015244,1.8712485708841464,-25.827276976495725,-17.484978365384613,-1.277498311873317,-12.723072300295858,-37.94251451673327,-17.749552580832628,27.18204690448378,34.514242070266874,39.57010213556175,1577399651.0,-27.687258538443672,-51.12255471780819,10.112411
64597,1577399651.37,-0.6992820702529532,2.1012915253429867,14.097526536299542,-2.7900040711937883,0.181083398735232,7.794703073194549,-1.3352637844178727,12.662640604754191,12.368445776367189,0.0787130216272865,4.916679568407012,-2.5552889195884143,5.149096977419969,1.7655535442073171,2.0230921303353657,4.290883134051067,-20.910495665015244,1.9475425161966464,-26.179867788461536,-19.530005074786324,-0.3757347976097998,-9.8468395586785,-37.392623001998,-4.032537774725275,26.990355527600563,34.46631922604607,39.45029502500974,1577399651.0,-27.687258538443672,-51.12255471780819,10.112411
64598,1577399651.38,-1.9227191185927968,-2.296856924364043,8.466364231612042,6.195434759372618,0.985535156547732,8.103555087354705,2.629534164800876,7.761709806414348,0.0909796630859375,-8.832419790872713,-1.003730587842988,-2.8604647008384143,-3.853588569455032,11.348073075457316,-5.697855135289634,-2.026255537823933,-3.576511290015244,11.011263219321648,-25.827276976495725,-17.893983707264955,-0.3757347976097998,-9.8468395586785,-47.65726461038961,-1.6726212489433638,27.229969748704587,34.562164914487674,39.546140713451344,1577399651.0,-27.687258538443672,-51.12255471780819,10.112411
64599,1577399651.39,0.279946408750952,5.225724691846893,9.3881318707722,-0.5155124940453499,-1.265014403999142,1.7613148896007993,-1.4501854641053726,-17.54500174143721,7.120355737304688,8.196388802877287,2.1700975371570124,-2.2806307164634143,3.073901664919969,-13.279612471417684,3.0301722084603657,-3.948862959698933,-0.2195776962652439,-4.125455530678353,-25.827276976495725,-17.893983707264955,-0.3757347976097998,-9.8468395586785,-47.65726461038961,-1.6726212489433638,27.038278371821367,34.61008775870848,39.498217869230544,1577399651.0,-27.687258538443672,-51.12255471780819,10.112411
64600,1577399651.4,-1.3648701317763905,0.9472863251476744,5.61367295353587,0.3200638853491803,1.305161078178592,14.469737301710175,-1.6093998745057645,-6.3497147785465895,18.32641660766601,8.776222787252287,-0.1339796112804876,-0.3580232945884144,2.829761039919969,1.2009783488948171,-2.6308385337271343,-3.384287764386433,-9.115451719702744,-8.718351038490853,-25.827276976495725,-18.91649706196581,-1.4277922309172344,-6.55971642540152,-46.37418440934066,-3.4425586432797965,27.038278371821367,34.70593344715009,39.47425644712014,1577399651.0,-27.687258538443672,-51.12255471780819,10.112411
64601,1577399651.41,-1.913142311952172,-1.480434158250762,11.638681431319071,-1.4324917298851936,-0.728713232124142,9.233618270948456,2.55052551001572,16.75433124196122,-2.442085693359375,-16.370261587747713,-2.438056759717988,-3.5013338414634143,-4.402904975705031,5.854909012957317,-4.110941072789634,-9.045298506573932,5.243068788109756,-4.796842249428353,-26.00357238247863,-19.734507745726493,0.0751469595219524,-2.450812508805297,-49.12364198301698,-1.9676108146661029,27.18204690448378,34.46631922604607,39.35444933656812,1577399651.0,-27.687258538443672,-51.12255471780819,10.112411
64602,1577399651.42,2.1306642920517334,0.9664399384289244,6.831124497725323,-0.3790429994164436,1.6008449832078884,3.901731173780487,-7.404564992913968,-11.001648604230182,6.102820031738281,3.4051290372522867,-2.590644650342988,0.6490567835365855,-2.9990963819550305,2.620045731707317,-2.7681676352896343,-8.038218428448932,74.15176019435975,24.438997594321645,-25.827276976495725,-17.07597302350427,-1.8786739880489929,-6.55971642540152,-49.12364198301698,-4.032537774725275,26.990355527600563,34.70593344715009,39.35444933656812,1577399651.0,-27.687258538443672,-51.12255471780819,10.112411
64603,1577399651.43,1.036514133360327,3.406131430128143,6.993930210615948,-2.3051782350121472,2.09165632353992,5.047356668165253,4.009791421880954,-4.404425929669635,14.656105462646485,3.4356466153772867,-12.295234494092988,-5.576529153963414,-2.938061225705031,-0.3554181354801828,-2.2798863852896343,8.258168290301068,32.81570062404725,-19.12484517911585,-25.827276976495725,-17.07597302350427,-1.8786739880489929,-9.744116960763597,-49.39858774038461,1.4985165825760782,27.038278371821367,34.46631922604607,39.42633360289933,1577399651.0,-27.687258538443672,-51.12255471780819,10.112411
64604,1577399651.44,1.370505264952124,1.0035500641613462,7.776834153487042,-0.3814372010765999,0.6814715457078883,3.272056137159393,12.80967962378525,22.287331278582315,10.417171423339845,5.526100716939786,-10.265815548780488,-2.1738191930259143,-4.189281928830031,2.681080887957317,0.1004847084603658,6.244008134051067,-3.454440977515244,-2.019742640053354,-25.65098157051282,-17.484978365384613,-1.7283800690050757,9.875899240983376,-43.62472683566433,-2.2626003803888417,27.18204690448378,34.562164914487674,39.45029502500974,1577399651.0,-27.687258538443672,-51.12255471780819,10.112411
64605,1577399651.45,0.5576738013290771,2.948838913038299,12.155828989912823,-1.01350643935785,3.726896057426638,10.768301535108614,-11.709339577874903,-11.37993246653487,7.441178759765624,1.5130391935022869,0.8273240996570121,-3.4402986852134143,-6.478100288205031,-7.542307783917683,0.8023890053353658,-6.939585615948933,-2.569431211890244,2.466341344321646,-26.00357238247863,-18.098486378205127,-1.4277922309172344,10.69768002430262,-43.25813249250749,-3.4425586432797965,26.990355527600563,34.61008775870848,39.498217869230544,1577399651.0,-27.687258538443672,-51.12255471780819,10.112411
64606,1577399651.46,1.4243748023056395,3.444438656690643,10.276380686690167,-3.939220868068788,-3.819627575385861,10.227211959913303,1.9711287082579072,0.29658903004716,11.372457885742186,3.771339974752287,0.7662889434070121,1.0457852991615857,-2.1751217725800305,-2.659495283917683,2.2977503334603657,-9.075816084698932,-1.6233862900152438,-9.832242640053352,-25.65098157051282,-17.689481036324786,-0.5260287166537173,10.69768002430262,-41.79175511988012,-4.032537774725275,26.990355527600563,34.753856291370894,39.45029502500974,1577399651.0,-27.687258538443672,-51.12255471780819,10.112411
64607,1577399651.47,-1.2882556786513906,-3.3191810332507616,10.283563291670635,-0.6974718202172249,-3.1468569088819547,9.591551419141815,-0.2806179531190446,3.637697446795208,16.885107208251952,-19.72719518149772,-2.651679806592988,-6.644644388338414,-3.365307319455031,-2.720530440167683,-4.919656893102134,-3.719981123761433,-16.851657774390244,2.298494664634146,-27.061344818376067,-17.280475694444444,-0.2254408785658824,10.69768002430262,-41.97505229145854,-4.032537774725275,27.038278371821367,34.753856291370894,39.33048791445772,1577399651.0,-27.687258538443672,-51.12255471780819,10.112411
64608,1577399651.48,-0.3760648461318598,-2.155599026414824,12.283918778731184,-2.9408387757836323,3.734078662407107,20.017102548292208,-15.564004250726468,5.690725370379192,11.18571015625,-20.200217642435213,10.85234851371951,0.7253507288490855,-11.666088569455033,-4.734690596417683,-0.9371129477896342,-8.892710615948932,-35.86410894626525,6.464144078696647,-26.444310897435894,-18.405240384615382,-0.4508817571317586,9.875899240983376,-39.22559471778221,0.6872952768385466,27.134124060262977,34.27462784916285,39.45029502500974,1577399651.0,-27.687258538443672,-51.12255471780819,10.112411
64609,1577399651.49,-0.5939371972060782,5.287973935010956,14.71762476628001,-3.872183221584413,1.1818596926805445,12.786613534620331,15.175150864019624,-5.813413606671588,24.52380760498047,0.7195821622522866,-15.408027462842988,-3.5623689977134143,4.019946586794969,-0.8589581745426829,-0.7234899009146342,-15.026743819073932,-52.64877691501525,-0.7685219369283537,-24.9457999465812,-18.91649706196581,-0.2254408785658824,10.286789632642996,-39.22559471778221,0.6872952768385466,27.229969748704587,34.27462784916285,39.21068080390571,1577399651.0,-27.687258538443672,-51.12255471780819,10.112411
64610,1577399651.5,-1.0057398827529531,3.1164330292492366,12.725648985030013,7.078895171970274,5.031735962211794,8.249601388624237,13.580612558355565,15.969033097429971,14.57589970703125,3.4966817716272867,-9.365546994092988,-4.447378763338414,-5.562572944455031,8.235280106707316,-6.094583650914634,-6.329234053448933,-66.13754644626525,4.327913609946647,-27.590231036324784,-17.893983707264955,-0.9769104737854758,10.286789632642996,-39.22559471778221,0.6872952768385466,26.990355527600563,34.562164914487674,39.21068080390571,1577399651.0,-27.687258538443672,-51.12255471780819,10.112411
64611,1577399651.51,-0.7208298851943594,-1.4086081084460744,6.530652189375714,-1.054207867580506,0.947227929985232,9.501768856885956,6.192106235113376,-0.7089756672184641,20.12565915527344,-1.5539774080602131,1.437675662157012,-1.5329500524009143,-5.196362006955031,-13.798411299542684,-0.6319371665396342,-12.921030928448932,-40.96054449314025,1.1540854849466462,-26.00357238247863,-18.098486378205127,-0.2254408785658824,10.286789632642996,-39.22559471778221,0.6872952768385466,27.062239793931774,34.61008775870848,39.35444933656812,1577399651.0,-27.687258538443672,-51.12255471780819,10.112411
64612,1577399651.52,-1.2667078637099842,-1.1859473540515433,14.708047959639384,1.683561730808165,1.4069146487352326,11.21601724555783,-4.342381069574124,-7.15416653635909,5.207388610839844,-21.25307408774772,-11.501777462842988,-1.9754549352134143,-2.205639350705031,1.6129656535823162,-4.995950838414634,-11.730845381573932,-7.360690977515244,3.000398961509146,-26.179867788461536,-18.71199439102564,-0.3757347976097998,-6.55971642540152,-4.032537774725275,-38.84130653000845,27.18204690448378,34.562164914487674,39.30652649234732,1577399651.0,-27.687258538443672,-51.12255471780819,10.112411
64613,1577399651.53,2.8824436133407967,1.459645480421112,5.461641148115948,1.85235294784918,-2.883494726264768,6.839416610792206,6.268720688238376,2.683608085222942,8.295908752441406,-1.5692361971227131,-17.025459103467988,-3.8370272008384143,7.743091118044969,-16.178782393292682,0.4056604897103658,0.0184221965510671,1.2452660537347562,-10.381559046303352,-25.65098157051282,-18.507491720085472,-0.8266165547415584,-9.230503971189066,-39.04229754620379,-41.053728272929,26.990355527600563,34.70593344715009,39.35444933656812,1577399651.0,-27.687258538443672,-51.12255471780819,10.112411
64614,1577399651.54,2.310229416563452,-0.1660174468249808,13.49897612126048,2.3168280699194925,2.058137500297732,13.717957980421115,10.161692587652436,27.262482328387,14.9015111328125,8.928810677877287,-13.699043087842988,-4.508413919588414,-1.9920163038300305,-10.746653487042684,-4.446634432164634,11.706654618426068,-1.898044493140244,7.806917516196647,-26.532458600427347,-19.939010416666665,-0.3757347976097998,-16.010195433572836,-39.22559471778221,-1.6726212489433638,26.89450983915896,34.61008775870848,39.546140713451344,1577399651.0,-27.687258538443672,-51.12255471780819,10.112411
64615,1577399651.55,0.1171406958603275,0.0374896942882999,15.046827494551495,-1.609662652736756,2.343047497856326,17.017167868116427,-8.76925993920303,-17.801181319073933,18.20072102050781,-8.389914908060213,-2.727973751905488,-2.8452059117759143,0.3578372117949695,1.0941668254573171,-4.019388338414634,-9.625132490948932,-16.454929258765244,-2.080777796303354,-26.00357238247863,-18.098486378205127,-0.2254408785658824,-13.133962691955478,-39.22559471778221,-4.032537774725275,27.08620121604217,34.46631922604607,39.30652649234732,1577399651.0,-27.687258538443672,-51.12255471780819,10.112411
64616,1577399651.56,0.3637434668564208,-3.934490859910918,14.145410569502667,0.8767157713355083,-0.7754001644971896,11.005327499464082,-3.175207760247952,3.783743748064739,13.206416357421874,-15.943015493997711,6.625663943407012,0.7100919397865855,-0.6187252882050307,4.817311356707316,-2.508768221227134,-6.527598311261432,-35.52841558689025,-11.892179163490852,-26.35616319444444,-18.507491720085472,-0.5260287166537173,-8.819613579529443,-40.50867491883117,-4.032537774725275,26.89450983915896,34.514242070266874,39.30652649234732,1577399651.0,-27.687258538443672,-51.12255471780819,10.112411
