,timestamp,acc_x_dashboard,acc_y_dashboard,acc_z_dashboard,acc_x_above_suspension,acc_y_above_suspension,acc_z_above_suspension,acc_x_below_suspension,acc_y_below_suspension,acc_z_below_suspension,gyro_x_dashboard,gyro_y_dashboard,gyro_z_dashboard,gyro_x_above_suspension,gyro_y_above_suspension,gyro_z_above_suspension,gyro_x_below_suspension,gyro_y_below_suspension,gyro_z_below_suspension,mag_x_dashboard,mag_y_dashboard,mag_z_dashboard,mag_x_above_suspension,mag_y_above_suspension,mag_z_above_suspension,temp_dashboard,temp_above_suspension,temp_below_suspension,timestamp_gps,latitude,longitude,speed
37354,1577395803.96,0.0536067591225218,-2.3596317239900912,7.380914952124619,1.1847794508026863,-2.2073371403391766,4.907938217832984,2.214811721131859,0.9239282601705407,6.47287017613853,-2.258486864043445,-5.298893626143292,-0.0783408560403963,-0.3816558093559451,-1.9334002238948167,-2.4722959937118905,4.154112280868903,5.838347644340701,0.7153022580030487,-4.700263001447477,-7.303666819291819,1.5941890698587031,-12.699126221001222,-3.2013096816976128,-11.222173499577346,33.41201665318837,36.57492437176146,39.1148351154641,1577395803.0,-27.690344669520048,-51.12505094958239,5.275409
37355,1577395803.97,-2.1634239781821645,1.6386850484708462,10.455069883765244,-0.1823096971465313,-0.7995465641673016,10.996393039610329,4.281007753846703,-0.0840306387552393,10.904537449087748,7.720761182831555,7.457454030106708,-0.2004111685403963,0.9916352062690548,-10.783497880144816,-0.2139952124618902,7.938291968368903,3.976775378715701,3.3092963986280486,-5.854713563206507,-5.660341784951156,3.188378139717421,-12.699126221001222,-3.2013096816976128,-11.222173499577346,33.31617096474676,36.52700152754066,38.97106658280169,1577395803.0,-27.690344669520048,-51.12505094958239,5.275409
37356,1577395803.98,-1.308693985506383,-1.6437654276033724,11.5683736557379,-1.5948886766387191,-0.6223756413157396,13.913727762510716,-1.9211716467880613,-6.488520079673208,12.1219889932772,-4.577822801543444,-9.113590891768292,-1.1464560904153962,1.3273285656440548,-8.662526200457316,-1.5109922827743905,-2.788636742568597,-2.2030341915967986,-2.5043022341844514,-5.030106019092914,-6.9384834783272265,2.3027175453514714,-12.930282102157104,-3.2013096816976123,-15.983095590307128,33.38805523107796,36.479078683319855,39.186719381795314,1577395803.0,-27.690344669520048,-51.12505094958239,5.275409
37357,1577395803.99,-1.8210531407798207,1.2316707662442836,13.687242124976182,0.8160723951386238,-0.5170307682688642,13.92450166998142,1.5564062645888903,5.7027547738424165,11.335493747915873,-12.512393114043444,-4.658024485518292,-0.3529990591653963,2.6395844250190548,-2.055470536394817,-2.7774717749618905,-1.6747451410060974,-6.338166027534299,-4.259062976371951,-5.030106019092914,-7.303666819291819,1.9484533076050947,-13.045860042735043,-4.420856227106227,-25.504939771766697,33.50786234162997,36.67077006020308,39.35444933656812,1577395803.0,-27.690344669520048,-51.12505094958239,5.275409
37358,1577395804.0,-0.3797437413657584,-1.4977191263338412,12.420709446753524,1.3739213819550302,-3.809058050983708,6.34685341558689,-0.5050013648056395,7.974852149330697,9.252538303579934,-4.150576707793445,-16.346256907393293,-1.1464560904153962,2.2733734875190548,-7.243458817644817,-3.4488584937118905,8.060362280868903,-4.903839855659299,3.1872260861280486,-4.040576966156604,-7.303666819291819,1.9484533076050947,-13.62374974562475,-1.981763136288998,-25.504939771766697,33.41201665318837,36.52700152754066,39.1148351154641,1577395804.0,-27.69039286732597,-51.12507322495855,5.6286635
37359,1577395804.01,-0.4803002110923209,-0.6166529153963413,7.625123521460556,-2.4759548875762185,2.466144500285823,9.85914725103611,-2.4514873145126708,-2.2914845694193016,11.965168784536967,10.223202589081556,-6.305973704268292,0.2268349252096037,0.5949066906440549,-14.872853348894816,0.4879090844131097,-0.9118056878810974,-2.5845039181592986,2.5463569455030486,-4.865184510270196,-7.121075148809524,2.47984966422466,-13.392593864468866,-1.981763136288998,-25.504939771766697,33.22032527630515,36.57492437176146,39.21068080390571,1577395804.0,-27.69039286732597,-51.12507322495855,5.6286635
37360,1577395804.02,1.518858175138148,1.152662111459127,10.900391392554306,2.217877467160109,-1.381337567585271,6.703589462950172,2.870822976014672,0.9023804452291352,6.4046354288240765,2.5327729015815548,-14.026920969893292,-1.0396445669778962,2.7006195812690548,0.7368878620426833,-2.5180723608993905,-3.048036156631097,-3.850983410346799,-0.5206596560594514,-4.040576966156603,-7.121075148809522,1.9484533076050876,-13.392593864468866,-1.981763136288998,-25.504939771766697,33.31617096474676,36.69473148231347,39.01898942702249,1577395804.0,-27.69039286732597,-51.12507322495855,5.6286635
37361,1577395804.03,-0.0972279454673209,-2.21358542272056,6.2053619369879005,3.009161115841749,-3.4499278019602704,4.869630991270484,-2.274316391661108,-10.347973155845082,13.969115574087748,1.0984467297065548,6.847102467606708,-0.1698935904153963,-0.7478667468559451,-21.76982600514481,-1.7093565405868902,-8.236024437881097,-13.0215156369093,-1.4819633669969514,-4.205498474979322,-7.486258489774114,2.47984966422466,-13.392593864468866,-1.3719898635846908,-26.185071499013805,33.41201665318837,36.52700152754066,39.30652649234732,1577395804.0,-27.69039286732597,-51.12507322495855,5.6286635
37362,1577395804.04,0.2930269251381478,-0.2814646829744663,8.755186705054307,-3.1654849657012183,2.717535674602229,18.77994263677829,2.708017263124047,4.591845203529916,12.309933823599469,-4.791445848418445,-4.535954173018292,-1.7873252310403962,-3.097720262480945,-19.60307795826981,-0.7327940405868902,-10.372254906631095,-24.4961250119093,-7.310820788871951,-4.700263001447477,-5.842933455433458,2.6569817830978484,-11.658924755799758,6.859949317923458,-91.47771731473654,33.17240243208434,36.52700152754066,39.01898942702249,1577395804.0,-27.69039286732597,-51.12507322495855,5.6286635
37363,1577395804.05,-1.2727809606040397,-0.4299051859041543,10.863281266821884,-1.108865739627,-0.9336218571360516,14.539811496641578,0.6250618187881094,3.3085531136861657,12.532594577993995,-3.921694871855945,-3.3915449933307924,-0.8260215201028962,4.379086378144055,3.376658369855183,-6.2259581030868905,-5.123231469131097,-30.6911933712843,6.635712414253049,-4.4528807382134,-7.029779313568374,2.214151485914877,-11.658924755799758,6.859949317923458,-91.47771731473654,33.45993949740917,36.57492437176146,39.21068080390571,1577395804.0,-27.69039286732597,-51.12507322495855,5.6286635
37364,1577395804.06,-1.2225027257407584,-2.101057944693216,12.569149949683212,-1.951624724002,-2.1989574345286305,9.235457718565405,-0.0333436377548588,2.586701313149057,8.331967765249857,-16.021914598418444,-7.068913157393292,-0.6581748404153963,0.6864594250190548,-10.752980302019816,-2.4417784155868905,-3.826234398818597,-25.1522529415968,8.35995557831555,-3.7107339485111663,-7.668850160256409,2.6569817830978484,-13.277015923890923,2.2866497726411525,-98.95916631445478,33.22032527630515,36.479078683319855,39.52217929134094,1577395804.0,-27.69039286732597,-51.12507322495855,5.6286635
37365,1577395804.07,-0.3486191197837271,-0.3939921610018101,11.211637608374618,-2.511867912478562,1.5132522395436347,13.455238144590796,0.6035140038467032,-2.1645918814310203,8.728208140005718,-0.8241606921684451,-5.115788157393292,0.1963173470846037,2.8532074718940548,-8.525197098894816,-2.4112608374618905,0.5530380621189026,1.2607109255907012,10.32833936737805,-3.7107339485111663,-7.668850160256409,2.6569817830978484,-12.699126221001222,5.335516136162689,-91.47771731473654,33.31617096474676,36.52700152754066,39.21068080390571,1577395804.0,-27.69039286732597,-51.12507322495855,5.6286635
37366,1577395804.08,1.6696928797279915,1.9475370626310025,11.0320724838629,1.0530983594940926,2.930619622356136,9.081031711485329,3.3257212914443595,-4.508515306723989,8.529489402212748,5.401425245331555,-10.700504954268292,0.6235634408346037,2.7311371593940548,-1.1094256145198171,-1.5872862280868902,0.0342392339939026,8.0356132693407,-9.41653367949695,-4.370419983802041,-6.938483478327226,3.0112460208442324,-12.930282102157102,-1.3719898635846908,-91.47771731473654,33.17240243208434,36.38323299487824,39.01898942702249,1577395804.0,-27.69039286732597,-51.12507322495855,5.6286635
37367,1577395804.09,2.1796578333412726,-2.899524198355326,7.644277134741806,4.019514216427687,-3.5935799015696457,6.160105686094703,2.353675417420922,0.0500446542135096,7.332388572134623,5.889706495331556,-10.837834055830792,-0.5666221060403964,1.4188813000190548,-4.618947098894817,-2.1976377905868905,1.8958114996189024,6.631804675590701,-10.08792039824695,-5.195027527915633,-7.303666819291819,1.9484533076050876,-12.930282102157102,-1.3719898635846908,-91.47771731473654,33.26824812052595,36.52700152754066,39.21068080390571,1577395804.0,-27.69039286732597,-51.12507322495855,5.6286635
37368,1577395804.1,-0.1403235753501334,-1.6078524027010288,7.8382074692144625,0.7466405469940931,-1.673430170124333,6.780203916075172,-3.0117305029892334,-1.842571758140005,10.965589591421733,5.615048292206555,-0.6297041730182926,0.5930458627096037,-0.0154448718559451,-10.386769364519816,-1.2515928687118902,-3.521058617568597,-1.3332832150342986,-7.112456531059451,-3.8756554573338846,-6.02552512591575,1.4170569509855149,-13.421488349613352,5.716624431602881,-55.6007687024514,33.12447958786354,36.59888579387187,39.1148351154641,1577395804.0,-27.69039286732597,-51.12507322495855,5.6286635
37369,1577395804.11,1.3345046473061164,0.5014392598966264,10.871660972632432,-0.0290807908965313,-0.3614076603587079,10.500793295957983,3.347269106385766,4.814505957924447,9.111280405630716,1.2205170422065548,-6.092350657393292,-1.909395543540396,2.0292328625190548,-4.771534989519817,-2.6248838843368905,0.8276962652439026,-2.0351875119092986,-2.6721489138719514,-3.8756554573338846,-6.02552512591575,1.4170569509855149,-12.467970339845342,6.25017604521915,-84.67640004226544,33.22032527630515,36.52700152754066,39.1148351154641,1577395804.0,-27.69039286732597,-51.12507322495855,5.6286635
37370,1577395804.12,0.8820005335365853,-0.6094703104158726,11.12065794528868,0.4377885328339364,2.406289458781916,9.619727085020482,2.238753737733422,3.445022608315072,10.382601487173686,5.767636182831555,-6.855290110518292,0.3489052377096037,2.2123383312690548,-6.541554520769817,-1.0379698218368902,7.388975562118903,2.5729667849657014,4.285858898628049,-4.535341492624759,-4.929975103021979,3.188378139717421,-13.334804894179896,6.097732727043072,-83.65620245139476,33.41201665318837,36.33531015065744,39.1148351154641,1577395804.0,-27.69039286732597,-51.12507322495855,5.6286635
37371,1577395804.13,1.9150985498940072,0.3518016561368617,10.274307658423448,-0.1583676805449693,0.3855832576100415,7.803725125791968,-2.5843655066513427,-2.19092809969274,7.325205967154154,2.1055268078315548,-9.800236399580792,-0.7039512076028963,3.0973480968940548,-0.5753679973323171,-0.2597715796493902,1.1481308355564028,2.0236503787157014,0.1049506955030485,-4.123037720567963,-6.664595972603783,1.5056230104221089,-13.334804894179896,6.097732727043072,-83.65620245139476,33.36409380896756,36.62284721598228,39.35444933656812,1577395804.0,-27.69039286732597,-51.12507322495855,5.6286635
37372,1577395804.14,0.1733168421303353,-3.252668943228372,6.820671763648057,1.3188547437714364,-4.72124888350324,4.831323764707984,-0.6821722876572021,6.42819787686976,11.443232822622903,2.8684662609565548,18.474299733231707,1.966336878334604,4.714779737519055,-7.975880692644817,-0.1224424780868902,8.884336890243903,2.6950370974657014,0.0133979611280486,-3.7107339485111663,-6.573300137362635,3.3655102585906094,-12.930282102157102,5.945289408866995,1.0201975908706693,33.31617096474676,36.57492437176146,39.01898942702249,1577395804.0,-27.69039286732597,-51.12507322495855,5.6286635
37373,1577395804.15,0.381612386563929,-2.6517243265291537,10.196496104468368,-2.0210565721465312,1.460579803020197,11.590155051329075,-0.0931986792587645,-7.948983092368521,12.666669870962748,-3.021426317168445,7.457454030106708,1.4170204720846038,-0.3816558093559451,-10.722462723894816,-0.0308897437118902,1.0718368902439026,1.7184745974657012,-3.3740532107469514,-3.7107339485111663,-6.573300137362635,3.3655102585906094,-12.930282102157102,-3.2013096816976128,-1.7003293181177797,33.50786234162997,36.479078683319855,39.1148351154641,1577395804.0,-27.69039286732597,-51.12507322495855,5.6286635
37374,1577395804.16,0.9442497767006478,0.6522739644864701,11.858072056616804,-0.2924429735137189,-0.610404633014958,11.398618918516576,1.398388955018578,-4.798213707602895,7.638846384634623,4.150204542206555,-7.892887766768292,-0.2309287466653963,3.4025238781440548,3.742869307355183,0.7015321312881098,2.262022437118903,9.5614921755907,-6.242705554496951,-3.7107339485111663,-6.573300137362635,3.3655102585906094,-13.62374974562475,-3.81108295440192,-1.0201975908706655,33.31617096474676,36.52700152754066,39.1148351154641,1577395804.0,-27.69039286732597,-51.12507322495855,5.6286635
37375,1577395804.17,2.200008547452601,-0.1940763223787637,11.723996763648056,2.21668036633003,0.0228617060963696,8.257426340391577,1.8568785729385,2.616628833901009,7.8303825174471235,7.858090284394056,-6.656925852705793,0.4404579720846036,1.113705518769055,-0.6364031535823171,1.1287782250381098,5.100157202743903,13.2083427615282,0.8831489376905486,-4.205498474979322,-6.573300137362635,3.011246020844233,-13.62374974562475,-2.896423045345459,-2.3804610453648887,33.29220954263636,36.33531015065744,39.21068080390571,1577395804.0,-27.69039286732597,-51.12507322495855,5.6286635
37376,1577395804.18,1.7822203577553353,-1.3564612283846225,12.1046748276129,2.037115241818312,-0.1243816960032392,8.041948190977514,0.2060765282607657,-4.788636900962271,9.250144101919778,-6.958193895293445,0.9266923113567074,-0.2919639029153963,0.1066254406440548,1.2709454792301829,-0.1834776343368902,4.123594702743903,15.2377617068407,2.2106635861280486,-5.030106019092914,-6.573300137362635,2.6569817830978484,-13.161437983312986,-0.7622165908803841,-3.0605927726120044,33.55578518585078,36.67077006020308,39.16275795968491,1577395804.0,-27.69039286732597,-51.12507322495855,5.6286635
37377,1577395804.19,1.3416872522865853,-1.2990003885408723,7.723285789526963,2.511167170529249,-2.116357477253239,7.160881980040015,2.296214577577172,-2.851727757895864,7.50716529332603,-5.737490770293445,8.250911061356707,0.7456337533346037,3.4025238781440548,3.010447432355183,1.5865418969131098,8.243467749618903,21.6159355349657,-2.2754203982469514,-5.030106019092914,-6.573300137362635,2.6569817830978484,-13.62374974562475,-3.2013096816976128,-3.0605927726120044,33.17240243208434,36.479078683319855,39.1148351154641,1577395804.0,-27.69039286732597,-51.12507322495855,5.6286635
37378,1577395804.2,0.8855918360268197,-0.5208848489900918,9.327400901831652,1.2182982740448738,1.0751133357350409,10.340381784727516,1.2331890404677968,-1.1326909659036768,6.827212021841654,-1.2666655749809452,4.298884694169208,1.1118446908346038,-3.097720262480945,2.339060713605183,2.349481350038109,10.074522437118905,24.2099296755907,-4.350615710746951,-5.195027527915633,-6.39070846688034,2.6569817830978484,-13.565960775335776,-4.26841290893015,-9.521844181459564,33.17240243208434,36.57492437176146,39.1148351154641,1577395804.0,-27.69039286732597,-51.12507322495855,5.6286635
37379,1577395804.21,2.304156319669397,-1.399556858267435,9.171777793921494,0.7418521436737806,-0.2512743839915209,9.295312760069312,-0.9898272009872808,1.131026703774057,11.499496561636576,4.028134229706555,-2.002995188643293,1.0813271127096038,4.043393018769055,2.400095869855183,1.968011623475609,9.570982398056405,16.0769951052782,-2.1380912966844514,-3.8756554573338846,-7.121075148809524,1.4170569509855149,-13.392593864468866,-4.26841290893015,-12.242371090448012,33.31617096474676,36.479078683319855,39.16275795968491,1577395804.0,-27.69039286732597,-51.12507322495855,5.6286635
37380,1577395804.22,0.6904644007240853,-1.1457714822908724,11.259521641577743,1.4792662550019051,-2.3892964665110514,6.540783750059546,0.7998385399795157,-1.307467687095083,9.257326706900248,3.8755463390815534,4.955012623856708,0.1657997689596037,0.9000824718940549,3.987009932355183,0.2742860375381097,6.931211890243903,13.7729179568407,2.7599799923780486,-3.3808909308657284,-4.747383432539684,4.074038734083371,-12.699126221001222,-4.420856227106227,-26.185071499013805,33.50786234162997,36.52700152754066,39.35444933656812,1577395804.0,-27.69039286732597,-51.12507322495855,5.6286635
37381,1577395804.23,0.6641281824623665,-1.763475510611185,9.86370207370665,-0.6874862474395002,-1.474711432331364,10.881471359922829,1.8556814721084216,-4.429506651938833,10.138392917837749,-5.066104051543445,10.997493092606708,2.729276331459604,1.9681977062690548,-1.5366717082698171,2.776727443788109,-0.8507705316310974,3.5495292849657014,-0.9326469607469512,-4.205498474979322,-4.929975103021979,2.125585426478283,-13.277015923890923,-3.2013096816976128,-12.582436954071568,33.17240243208434,36.479078683319855,39.16275795968491,1577395804.0,-27.69039286732597,-51.12507322495855,5.6286635
37382,1577395804.24,-0.4479784886802115,-0.2982240945955606,11.035663786353137,-0.7617064989043438,1.2929856868092595,15.296379221250952,-0.481059348204077,0.8975920419088221,10.605262241568218,3.5703705578315548,1.6591141863567076,1.6459023080221038,0.4423188000190549,0.3249005573551829,4.6382997094131095,2.902891577743903,0.2231132693407012,-0.9021293826219512,-4.205498474979322,-5.112566773504274,2.656981783097852,-13.277015923890923,-3.2013096816976128,-12.582436954071568,33.17240243208434,36.479078683319855,39.01898942702249,1577395804.0,-27.69039286732597,-51.12507322495855,5.6286635
37383,1577395804.25,0.6186383509193978,-1.5072959329744662,10.27789896091368,0.986060713009718,-2.717302093952458,7.265029752256812,0.8764529931045155,1.5021279610982758,10.256905900015482,-5.249209520293445,2.849299733231707,1.4780556283346038,2.1055268078315548,7.816965987042684,0.8541200219131098,2.262022437118903,2.1457206912157014,3.5381782345655486,-3.0510479132202923,-6.573300137362635,3.0112460208442324,-13.219226953601954,-1.0671032272325376,-9.86191004508312,33.17240243208434,36.52700152754066,39.0669122712433,1577395804.0,-27.69039286732597,-51.12507322495855,5.6286635
37384,1577395804.26,2.562730098966273,-0.7770644266268101,8.360143431128526,0.8136781934784676,-0.6151930363352703,10.572619345762671,3.3855763329482658,2.621417237221322,6.70271353551353,7.629208448456555,-2.094547923018293,1.5696083627096038,-0.8089019031059451,-5.656544755144817,4.3026063500381095,6.076719702743903,0.5282890505907012,9.65695264862805,-4.700263001447477,-8.034033501221,1.5941890698587031,-13.045860042735043,0.457329954528231,-22.10428113553113,33.36409380896756,36.52700152754066,39.01898942702249,1577395804.0,-27.69039286732597,-51.12507322495855,5.6286635
37385,1577395804.27,-0.6287407140220084,-2.014866684927591,8.75279250339415,-1.4033525438262189,0.7279540950123847,10.63008018560642,-2.111510678770484,-4.508515306723989,8.333164866079935,2.9905365734565548,3.520686451981707,1.2949501595846038,1.4493988781440548,3.559763838605183,1.4339540062881098,1.1023544683689026,6.265593738090701,4.133271008003049,-4.205498474979322,-6.39070846688034,1.4170569509855149,-12.699126221001222,-4.115969590754073,-26.185071499013805,33.17240243208434,36.52700152754066,39.1148351154641,1577395804.0,-27.69039286732597,-51.12507322495855,5.6286635
37386,1577395804.28,1.761869643644007,2.458699117074361,10.295855473364853,1.2817446180390146,0.888365606242854,7.9988525610947026,1.8149800438857664,-2.0676267141946925,8.438509739126811,3.4025238781440548,1.994807545731708,2.256253870522104,-0.3969145984184452,5.863840987042683,2.074823146913109,5.176451148056404,10.9195244021532,-3.8470756716844514,-3.958116211745244,-6.847187643086079,2.391283604788062,-12.525759310134312,-3.658639636225842,-15.983095590307128,33.34013238685716,36.45511726120945,39.186719381795314,1577395804.0,-27.69039286732597,-51.12507322495855,5.6286635
37387,1577395804.29,-0.7005667638266959,-2.3716027322908726,10.531684336890244,-0.9436658250762188,-4.213678131550115,10.510370102598609,5.834844631288109,9.425738355385384,4.433010361685405,-6.836123582793445,6.267268483231708,0.8677040658346037,-0.9004546374809451,-0.6821795207698171,0.6710145531631098,10.471250952743905,6.296111316215701,1.9665229611280488,-4.370419983802041,-7.303666819291819,2.3027175453514714,-12.3523923992674,-4.420856227106227,-24.824808044519585,33.17240243208434,36.33531015065744,39.35444933656812,1577395804.0,-27.69039286732597,-51.12507322495855,5.6286635
37388,1577395804.3,-1.162647684236852,-5.649264805044779,9.171777793921494,0.1863973585175301,-2.1139632755930826,12.006746140196263,-0.2488217871689208,-6.5316157095560206,12.120791892447125,-13.794131395293444,17.650325123856707,2.881864222084604,1.3883637218940548,4.139597822980183,2.135858303163109,4.123594702743903,12.6742851443407,2.9430854611280486,-2.061518860283982,-4.38220009157509,0.8856605943659495,-12.814704161579163,-4.420856227106227,-26.185071499013805,33.17240243208434,36.52700152754066,39.16275795968491,1577395804.0,-27.69039286732597,-51.12507322495855,5.6286635
37389,1577395804.31,0.9011541468178352,-2.1130289529939974,10.435916270483991,2.6883380933808114,-0.2416975773508954,12.574171933653297,2.8516693627334218,-1.096777941001333,9.62603376256431,-6.256289598418445,9.685237233231708,2.668241175209604,0.1371430187690548,7.618601729230183,1.6780946312881098,3.818418921493903,10.5990898318407,1.5087592892530486,-3.5458124396884485,-5.660341784951156,2.125585426478283,-13.62374974562475,-1.3719898635846908,-25.504939771766697,33.41201665318837,36.28738730643664,39.01898942702249,1577395804.0,-27.69039286732597,-51.12507322495855,5.6286635
37390,1577395804.32,0.5803311243568978,0.9132419454435023,12.1429820541754,1.9054341505097177,-0.2644424931223803,10.329607877256812,1.4702150048232654,0.2715083077779632,8.812005198111185,5.050473096894056,3.230769459794207,1.0508095345846038,0.5033539562690549,3.712351729230183,1.2661073266006098,0.5072616949314028,10.5533134646532,-1.4056694216844514,-3.3808909308657302,-6.025525125915748,2.656981783097852,-13.277015923890923,-1.981763136288998,-3.740724499859112,33.340132386857164,36.52700152754066,39.54614071345134,1577395804.0,-27.69039286732597,-51.12507322495855,5.6286635
37391,1577395804.33,2.04079413705221,-0.8584672830721225,7.984253770483994,1.8360023023651864,1.0487771174733225,9.054695493223608,-0.2296681738876708,-4.941865807212271,9.566178721060403,2.0444916515815548,-0.5381514386432926,0.9592568002096036,-1.4802886218559452,4.261668135480183,1.830682521913109,-0.1488662347560974,2.5424492068407014,-0.2307426638719513,-4.535341492624759,-6.75589180784493,1.4170569509855149,-13.277015923890923,-1.981763136288998,-3.740724499859112,33.41201665318837,36.38323299487824,39.21068080390571,1577395804.0,-27.69039286732597,-51.12507322495855,5.6286635
37392,1577395804.34,0.2355660852943978,-0.8105832498689975,9.0400967026129,2.594964228634717,-2.908838226764958,7.565502060606422,2.6721042382217037,3.2247560555806967,5.9006559793611855,6.194882276581555,7.732112233231708,1.1118446908346038,1.9681977062690548,4.505808760480183,0.1216981469131097,8.243467749618903,1.0165703005907012,-1.4209282107469514,-4.535341492624759,-6.75589180784493,1.7713211887318916,-13.62374974562475,-0.7622165908803841,-4.420856227106225,33.36409380896756,36.479078683319855,39.21068080390571,1577395804.0,-27.69039286732597,-51.12507322495855,5.6286635
37393,1577395804.35,0.9418555750404916,-1.0942961465975132,7.857361082495712,2.111335493283155,-0.6535002628977704,8.997234653379858,4.223546914002953,-1.0034040762552392,8.31161705113853,0.2286957531440548,4.741389576981708,0.2878700814596037,-0.2290679187309451,2.064402510480183,0.0301454125381097,4.703428687118903,5.075408191215701,0.6542671017530487,-3.8756554573338846,-7.121075148809524,1.4170569509855149,-13.62374974562475,-0.7622165908803841,-4.420856227106225,33.29220954263636,36.28738730643664,39.01898942702249,1577395804.0,-27.69039286732597,-51.12507322495855,5.6286635
37394,1577395804.36,-0.1091989537681021,1.8709226095060023,12.978558433569932,1.6923502027558115,1.027229302531916,11.538679715635718,-0.3673347693466552,-0.6550477347025054,11.944818070425638,6.988339307831555,-0.2634932355182927,-0.4140342154153963,-0.671572801543445,2.522166182355183,1.1898133812881098,-3.353211937881097,-6.8264472775343,4.118012218940549,-5.030106019092914,-6.938483478327226,2.6569817830978484,-12.641337250712253,1.9817631362889991,-86.03666349675964,33.41201665318837,36.52700152754066,39.1148351154641,1577395804.0,-27.69039286732597,-51.12507322495855,5.6286635
37395,1577395804.37,-1.1482824742759146,1.676992275033346,10.634635008276964,0.1169655103729988,0.6585222468678534,12.83992831793064,3.8739934716201407,-0.7855317251810205,9.130434018911966,-3.051943895293445,6.023127858231708,-0.5666221060403963,-1.8464995593559448,3.773386885480183,-0.3665831030868902,3.787901343368903,3.4579765505907014,-0.6885063357469513,-5.52487054556107,-6.75589180784493,2.125585426478283,-12.12123651811152,-1.3719898635846908,-86.03666349675964,33.17240243208434,36.57492437176146,39.01898942702249,1577395804.0,-27.69039286732597,-51.12507322495855,5.6286635
37396,1577395804.38,-1.7540154942954458,-1.2128091287752476,11.642593907202745,1.524756086544874,-1.9607343693430828,10.15842245855564,1.3481107201552966,1.9678001839986656,11.962774582876811,-8.239932176543444,6.572444264481708,0.4099403939596037,0.1676605968940548,0.7216290729801829,-0.2445127905868902,8.243467749618903,9.1952812380907,-1.817656726371952,-4.370419983802041,-8.034033501221,2.3027175453514714,-13.392593864468866,6.25017604521915,-85.35653176951254,33.31617096474676,36.38323299487824,39.1148351154641,1577395804.0,-27.69039286732597,-51.12507322495855,5.6286635
37397,1577395804.39,-1.4762881017173208,-2.186052103628763,7.3904917587652434,-0.6635442308379377,-0.0022774113352704,12.447279245665015,-3.447475205137672,1.541632288490853,14.464715317740092,-1.7396880359184452,2.284724537919208,1.2186562142721038,0.7780121593940549,-1.5671892863948171,-0.8853819312118902,5.649473608993903,3.2138359255907014,3.4313667111280486,-4.040576966156604,-7.303666819291819,1.9484533076050947,-12.3523923992674,6.25017604521915,-81.95587313327698,33.43597807529876,36.28738730643664,39.35444933656812,1577395804.0,-27.69039286732597,-51.12507322495855,5.6286635
37398,1577395804.4,0.0272705408608031,-1.1577424905916538,8.831801158179307,-0.6515732225371569,-2.022983612507145,10.042303678038062,-1.6458384558700927,-4.271489342368521,11.480342948355329,6.042294385956555,-4.993717844893292,0.5320107064596037,3.5398529797065548,1.9423321979801829,0.5336854516006098,1.7432236089939028,0.0094902224657011,-1.1462700076219514,-4.040576966156604,-7.303666819291819,1.9484533076050947,-12.959176587301588,-1.1433248863205756,-55.26070283882785,33.41201665318837,36.50304010543026,39.0669122712433,1577395804.0,-27.69039286732597,-51.12507322495855,5.6286635
37399,1577395804.41,0.6353977625404915,0.0920307760099076,10.663365428198835,1.6301009595917488,-0.8210943791087079,6.931038620665015,2.253118947694359,1.9749827889791345,5.172818674673686,14.587216260956556,-0.9959151105182926,1.1118446908346038,1.4188813000190548,-2.848927567644817,1.0982606469131098,13.095762671493905,3.5495292849657014,-2.8857719607469514,-5.854713563206507,-5.660341784951156,2.47984966422466,-13.334804894179896,5.487959454338766,-23.1244787264018,33.17240243208434,36.52700152754066,39.21068080390571,1577395804.0,-27.69039286732597,-51.12507322495855,5.6286635
37400,1577395804.42,1.9210840540443976,-0.2120328348299351,8.400844859351182,1.4241996168183115,-1.1921956364329267,10.524735312559546,-3.2535448706650154,-0.5652651724466455,11.46478063756431,3.9670990734565534,-5.909245188643292,-0.3224814810403963,0.8390473156440549,-0.5601092082698171,0.6404969750381098,2.200987280868903,-1.9131171994092988,3.4313667111280486,-4.535341492624759,-5.660341784951156,1.7713211887318916,-13.62374974562475,5.640402772514843,-80.59560967878276,33.36409380896756,36.57492437176146,39.1148351154641,1577395804.0,-27.69039286732597,-51.12507322495855,5.6286635
37401,1577395804.43,0.1721197413002572,-1.301394590201029,10.560414756812118,1.7857240675019053,-1.6231519352610515,8.257426340391577,1.226006435487328,4.927033435951791,15.77434362584556,2.3344086437690548,2.803523366044208,-0.0935996451028963,3.1889008312690548,3.376658369855183,-1.5567686499618902,3.971006812118903,-10.4885566525343,-2.0007621951219514,-4.700263001447477,-6.9384834783272265,1.9484533076050876,-13.62374974562475,5.945289408866995,-79.91547795153564,33.36409380896757,36.33531015065744,39.21068080390571,1577395804.0,-27.69039286732597,-51.12507322495855,5.6286635
37402,1577395804.44,0.0200879358803343,-1.2990003885408723,12.954616416968369,2.6919293958710457,-0.7863784550364428,11.667966605284157,0.992571773622094,-1.880878984702505,8.281689530386576,-10.376162645293444,-3.681461985518293,-0.9328330435403964,2.7006195812690548,1.5303448932926829,-0.4276182593368902,-0.9423232660060972,-1.0128486447217986,2.4700630001905486,-4.700263001447477,-6.208116796398045,2.6569817830978484,-13.62374974562475,5.640402772514842,-26.185071499013805,33.41201665318837,36.43115583909905,39.28256507023691,1577395804.0,-27.69039286732597,-51.12507322495855,5.6286635
37403,1577395804.45,-0.4539639928306021,-0.1114763651033726,9.787087620581651,0.0762640821503426,1.8149216487233224,11.896612863829075,-1.9822237891220456,-5.17889177156774,13.255643479361185,3.9365814953315534,6.908137623856708,0.7761513314596037,0.5949066906440549,-2.940480302019817,1.952752834413109,-4.421327172256097,5.227996081840701,0.3185737423780487,-3.7107339485111663,-5.477750114468864,3.3655102585906094,-13.62374974562475,5.945289408866995,-26.185071499013805,33.12447958786354,36.52700152754066,39.1148351154641,1577395804.0,-27.69039286732597,-51.12507322495855,5.6286635
37404,1577395804.46,-0.5856450841391959,1.581224208627096,8.987424266089464,-1.1782975877715314,1.3169277034108222,12.83992831793064,3.256289443299828,5.62374611905726,11.148746018423685,3.7839936047065534,-5.817692454268292,-0.4750693716653963,1.2662934093940548,-0.010792802019817,-0.7633116187118902,0.4920029058689026,4.678679675590701,-1.6955864138719514,-4.535341492624759,-6.02552512591575,2.47984966422466,-13.62374974562475,5.945289408866995,-26.185071499013805,33.22032527630515,36.57492437176146,39.21068080390571,1577395804.0,-27.69039286732597,-51.12507322495855,5.6286635
37405,1577395804.47,-1.198560709139196,-0.7758673257967319,10.340148204077744,-1.6427727098418436,-2.526963061970036,7.1740500891708745,-0.93236636114353,-3.227617418540396,9.244158597769388,-3.952212449980945,-1.2400557355182926,-0.0783408560403963,3.6008881359565548,0.1112775104801828,-0.6870176733993902,-0.5913711175685974,4.8923027224657005,-4.213286609184451,-4.700263001447477,-6.573300137362635,2.1255854264782794,-13.47927731990232,1.1433248863205767,0.8501646590588915,33.38805523107796,36.64680863809267,39.33048791445772,1577395804.0,-27.69039286732597,-51.12507322495855,5.6286635
37406,1577395804.48,0.9873454065834604,0.0417525411466263,7.941158140601181,1.4625068433808115,1.2642552668873848,7.105815341856421,0.7208298851943594,3.820912268959603,8.328376462759623,4.730038526581555,-4.993717844893292,-0.3835166372903963,-0.6868315906059451,-4.313771317644817,-0.2139952124618902,7.236387671493903,15.7565605349657,4.682587414253049,-5.030106019092914,-6.573300137362635,1.2399248321123264,-13.62374974562475,5.640402772514843,3.0605927726120075,33.17240243208434,36.479078683319855,39.21068080390571,1577395804.0,-27.69039286732597,-51.12507322495855,5.6286635
37407,1577395804.49,0.515687679532679,-0.2910414896150913,8.774340318335556,0.6341130689667488,-0.1483237126048017,9.160040366270485,-0.5887984229111083,-8.219527879966178,9.058607969107278,5.950741651581555,-5.115788157393292,-0.8107627310403963,1.2052582531440548,0.0807599323551829,-1.7093565405868902,-1.4000869378810974,15.6039726443407,2.6684272580030486,-4.040576966156604,-5.842933455433458,2.6569817830978484,-12.699126221001222,-1.981763136288998,-3.740724499859112,33.41201665318837,36.38323299487824,39.21068080390571,1577395804.0,-27.69039286732597,-51.12507322495855,5.6286635
37408,1577395804.5,1.9881217005287728,-1.6545393350740756,9.20649371799376,2.8152307813690927,0.3353050227467598,8.884707175352514,-1.9726469824814208,-9.380715685141958,10.124027707876811,-1.312441942168445,0.1790116472942076,-0.6429160513528962,-0.5342436999809451,3.376658369855183,-0.4886534155868902,-1.9494033441310967,10.7516777224657,-9.63015672637195,-4.782723755858837,-6.299412631639193,0.9742266538025436,-12.641337250712253,-1.829319818112921,-4.08079036348267,33.36409380896756,36.19154161799503,39.30652649234732,1577395804.0,-27.69039286732597,-51.12507322495855,5.6286635
37409,1577395804.51,-0.8107000401938834,-2.345266514029153,9.753568797339463,0.6377043714569838,-2.5700586918528487,7.069902316954077,2.59070138177639,2.5807158089986664,9.860665525259623,-10.620303270293444,9.929377858231708,0.9592568002096036,-0.8546782702934452,-1.0941668254573171,0.1979920922256097,4.703428687118904,-1.211212902534299,1.8749702267530488,-5.030106019092914,-5.477750114468864,1.5941890698587031,-13.132543498168502,-3.1250880226095745,-24.654775112707803,33.31617096474676,36.479078683319855,39.16275795968491,1577395804.0,-27.69039286732597,-51.12507322495855,5.6286635
37410,1577395804.52,-0.3677727330649771,2.016968910775533,14.388743211401962,0.9166288648651864,2.9282254206959792,16.316309128477513,-1.0748213599228271,-9.550704003013053,14.05770103551353,1.0984467297065548,-4.871647532393292,-0.9938681997903964,-2.121157762480945,-2.024952958269817,-2.4112608374618905,-16.2926650628811,-12.0144355587843,-8.92825242949695,-5.030106019092914,-5.477750114468864,1.5941890698587031,-13.045860042735043,-2.591536408993305,-24.824808044519585,33.50786234162997,36.38323299487824,39.21068080390571,1577395804.0,-27.69039286732597,-51.12507322495855,5.6286635
37411,1577395804.53,0.0583951624428343,1.0090100118497514,13.689636326636338,3.758546235470655,-0.7971523625071454,11.772114377500952,3.0001098656631093,9.811204822670542,9.104097800650248,-8.880801317168444,-13.447086985518292,-1.2074912466653962,0.9916352062690548,8.564646651105184,-2.1366026343368905,3.665831030868903,-4.659699230659299,-2.8857719607469514,-5.52487054556107,-5.295158443986569,2.47984966422466,-13.045860042735043,-2.591536408993305,-24.824808044519585,33.31617096474676,36.479078683319855,39.01898942702249,1577395804.0,-27.69039286732597,-51.12507322495855,5.6286635
37412,1577395804.54,-0.0289931981528677,-0.9159281229158726,9.594354386939074,2.4991961622284675,-1.618363531940739,8.539942136290016,0.2276243432021719,3.243909668861947,10.109662497915872,-6.012148973418445,3.062922780106707,-0.1241172232278963,-4.104800340605945,-0.4990740520198171,-0.1834776343368902,-0.3624892816310974,-4.598664074409299,8.46676710175305,-4.782723755858836,-6.116820961156899,1.682755129295305,-13.508171805046809,-4.420856227106227,-24.824808044519585,33.19636385419474,36.38323299487824,39.16275795968491,1577395804.0,-27.69039286732597,-51.12507322495855,5.6286635
37413,1577395804.55,0.6282151575600228,-2.3021708841463413,8.355355027808212,-0.8634600694609847,-0.3494366520579273,10.23383981085056,-4.099895157530249,-0.8501751700052401,6.081418204702983,-8.026309129668444,-2.704899485518293,0.0437294564596036,-1.7244292468559452,0.3706769245426828,-0.7022764624618902,-9.822938500381095,-2.0199287228467986,2.7142036251905486,-4.040576966156604,-5.477750114468864,2.6569817830978484,-13.594855260480262,-3.1250880226095745,-20.573984749225136,33.50786234162997,36.35927157276784,39.21068080390571,1577395804.0,-27.69039286732597,-51.12507322495855,5.6286635
37414,1577395804.56,-0.4228393712485709,-2.19443180943931,9.612310899390245,-0.7210050706816876,-2.554496381061833,6.382766440489234,0.6274560204482657,0.9119572518697596,13.428025998892435,3.8145111828315534,-2.888004954268293,-0.0478232779153963,0.2897309093940549,-1.9639178020198167,-0.0614073218368902,4.672911108993903,3.2748710818407014,0.3185737423780487,-4.040576966156604,-5.477750114468864,2.6569817830978484,-13.62374974562475,-3.2013096816976128,-20.74401768103691,33.36409380896756,36.479078683319855,39.1148351154641,1577395804.0,-27.69039286732597,-51.12507322495855,5.6286635
37415,1577395804.57,0.4271022181068978,2.431165797982565,11.355289707983994,-0.5414399461699689,1.963362151653009,12.339540170957983,2.1501682763076406,-5.971372521079458,10.90932585240806,8.605770948456556,-4.841129954268292,-0.9633506216653964,-1.9990874499809448,-9.135548661394816,0.8541200219131098,1.2549423589939026,5.655242175590701,0.7763374142530487,-4.040576966156604,-5.477750114468864,2.6569817830978484,-13.62374974562475,-4.420856227106227,-20.74401768103691,33.22032527630515,36.479078683319855,39.1148351154641,1577395804.0,-27.69039286732597,-51.12507322495855,5.6286635
37416,1577395804.58,0.1577545313393197,-0.5388413614412632,10.682519041480088,-1.05140489978325,2.0399766047780097,8.750631882383765,-2.0827802588486084,-8.403881407798208,10.593291233267436,0.2134369640815547,-1.1179854230182924,-0.1088584341653962,-3.067202684355945,4.627879072980183,-1.4957334937118902,-8.937928734756097,0.8944999880907012,-4.472686023246951,-4.452880738213399,-7.394962654532964,2.214151485914874,-12.930282102157102,1.0671032272325378,-24.824808044519585,33.26824812052595,36.52700152754066,39.21068080390571,1577395804.0,-27.69039286732597,-51.12507322495855,5.6286635
37417,1577395804.59,0.946643978360804,-0.0300735086580601,14.163688255347274,2.646439564328077,-1.0138276127512866,11.07779589605564,1.741956893251,3.020051813637337,8.638425577749858,-16.113467332793444,-7.374088938643292,-1.7873252310403962,-0.5189849109184452,0.2486066120426828,0.5336854516006098,-7.686708031631096,3.5800468630907014,-5.891753406059451,-5.195027527915633,-5.660341784951156,2.125585426478283,-12.525759310134312,-3.963526272577997,-7.481448999718228,33.50786234162997,36.57492437176147,39.13879653757451,1577395804.0,-27.69039286732597,-51.12507322495855,5.6286635
37418,1577395804.6,1.9689680872475228,-1.2966061868807162,13.95539271091368,2.9109988477753426,-0.9431986637766766,8.245455332090796,2.698440456483422,6.897461402260385,8.124869321646342,-13.977236864043444,-6.153385813643292,-1.970430699790396,-3.433413621855945,-4.313771317644817,-1.1295225562118902,6.565000952743903,4.129363269340701,10.26730421112805,-5.195027527915633,-5.660341784951156,2.125585426478283,-12.410181369556373,-1.829319818112921,-25.84500563539025,33.17240243208434,36.57492437176146,39.01898942702249,1577395804.0,-27.69039286732597,-51.12507322495855,5.6286635
37419,1577395804.61,-0.2001786168540396,-0.3485023294588413,10.632240806616808,-1.846279850955125,1.0727191340748847,10.000405148985328,-4.187283518125953,-5.619424877036489,11.220572068228371,-6.195254442168445,2.269465748856707,-1.1464560904153962,-0.9004546374809451,-0.4075213176448171,-0.3665831030868902,-3.383729516006097,3.2443535037157014,10.93869092987805,-5.195027527915633,-5.660341784951156,2.125585426478283,-12.699126221001222,-1.981763136288998,-26.185071499013805,33.36409380896756,36.67077006020308,39.21068080390571,1577395804.0,-27.69039286732597,-51.12507322495855,5.6286635
37420,1577395804.62,0.3899920923744759,-2.5547591592928254,8.992212669409774,1.7127009168671394,-1.5465374821360516,9.696341538145484,1.0201050927138906,-3.836941741050161,10.75609694615806,-5.233950731230944,2.635676686356708,0.2420937142721037,-2.441592332793445,1.8355206745426829,-0.4123594702743902,0.0342392339939026,-1.3180244259717986,-6.730986804496951,-4.205498474979322,-6.938483478327226,3.188378139717421,-13.161437983312986,-2.896423045345459,-25.504939771766693,33.31617096474676,36.45511726120945,39.16275795968491,1577395804.0,-27.69039286732597,-51.12507322495855,5.6286635
37421,1577395804.63,-0.5593088658774771,1.9906326925138147,13.19643078464415,-2.483137492556687,2.226724334270197,12.892600754454078,1.4510613915420154,3.727538404213509,5.031560776724467,3.2651947765815548,-5.268376048018292,-1.0243857779153962,-2.884097215605945,-3.794972489519817,0.6099793969131098,0.6751083746189026,10.2328788943407,-5.205107898246951,-4.370419983802041,-5.477750114468864,1.5941890698587031,-12.699126221001222,-4.420856227106227,-23.46454459002536,33.31617096474676,36.71869290442388,39.1148351154641,1577395804.0,-27.69039286732597,-51.12507322495855,5.6286635
37422,1577395804.64,1.4877335535561165,-0.2862530862947788,9.5763978744879,1.4649010450409676,-0.2177555607493329,7.148910971739234,1.9610263451552967,2.853654798256478,5.474488083853373,-2.685732957793445,-7.526676829268292,-0.8412803091653963,-1.8159819812309448,6.245310713605183,-0.0919248999618902,5.191709937118903,16.5194999880907,2.0275581173780486,-4.535341492624759,-6.39070846688034,2.8341139019710444,-13.62374974562475,-3.2013096816976128,-4.420856227106225,33.36409380896756,36.52700152754066,38.92314373858088,1577395804.0,-27.69039286732597,-51.12507322495855,5.6286635
37423,1577395804.65,1.3440814539467416,-2.55835046178306,4.488719346655868,2.594964228634717,-3.935950738971989,3.540849069883765,0.8453283715224844,-1.2619778555521142,9.451257041372903,4.241757276581555,1.2929032488567074,1.1118446908346038,0.0150727062690548,2.491648604230183,-1.4957334937118902,3.879454077743903,12.6132499880907,3.7365424923780486,-4.535341492624759,-6.39070846688034,2.8341139019710444,-13.62374974562475,-3.2013096816976128,-4.420856227106225,33.31617096474676,36.19154161799503,39.21068080390571,1577395804.0,-27.69039286732597,-51.12507322495855,5.6286635
37424,1577395804.66,1.5272378809486946,-0.2922385904451699,10.47063219455626,0.7753709669159676,1.460579803020197,10.639656992247046,0.2599460656142818,-2.964255235923208,11.53540958653892,-4.181094285918444,0.3315995379192072,-0.5513633169778963,-3.357119676543445,-3.8407488567073167,-1.0990049780868902,-1.8273330316310967,6.4792167849657005,-3.1604301638719514,-4.700263001447477,-6.025525125915752,1.5941890698587105,-13.62374974562475,-0.4573299545282303,-4.420856227106225,33.45993949740917,36.64680863809267,39.21068080390571,1577395804.0,-27.69039286732597,-51.12507322495855,5.6286635
37425,1577395804.67,1.2483133875404917,0.4559494283536576,10.57956837009337,2.444129524044874,1.2498900569264473,6.46177509527439,2.858851967713891,1.778658252846322,10.902143247427592,2.0444916515815548,0.1942704363567073,-0.1698935904153963,-1.8159819812309448,2.735789229230183,0.7930848656631098,-0.6981826410060974,-7.894562511909299,-12.07156297637195,-4.700263001447477,-6.938483478327226,1.9484533076050947,-13.62374974562475,5.640402772514843,-4.420856227106225,33.22032527630515,36.52700152754066,38.97106658280169,1577395804.0,-27.69039286732597,-51.12507322495855,5.6286635
37426,1577395804.68,1.913901449063929,1.4734851339200647,12.080732811011336,2.647636665158155,0.3999484675709785,12.722612436582985,-0.7587867407822021,6.58142678311976,7.351542185415873,-2.563662645293445,-1.2095381573932926,-1.6652549185403962,-5.844302293730945,0.0502423542301829,-1.3736631812118902,5.130674780868903,1.1996757693407012,-2.1838676638719514,-5.689792054383788,-5.842933455433458,1.9484533076050947,-12.699126221001222,6.859949317923458,-82.6360048605241,33.31617096474676,36.52700152754066,39.21068080390571,1577395804.0,-27.69039286732597,-51.12507322495855,5.6286635
37427,1577395804.69,1.6804667871986947,-3.766225199331888,9.897220896948838,2.1424601148651865,-4.826593756550114,7.812104831602515,1.2906498803115467,0.4043864999166346,9.022694944204934,-8.758731004668444,5.992610280106707,-1.1464560904153962,-0.0764800281059451,-2.848927567644817,0.0301454125381097,3.482725562118903,2.5119316287157014,9.62643507050305,-4.617802247036118,-6.116820961156899,1.682755129295305,-13.161437983312986,6.555062681571303,-83.3161365877712,33.31617096474676,36.57492437176146,39.21068080390571,1577395804.0,-27.69039286732597,-51.12507322495855,5.6286635
37428,1577395804.7,-1.493047513338415,1.571647401986471,8.853348973120713,-0.9759875474883284,1.0966611506764476,11.213068289854467,-1.6793572791122804,-6.043198570884146,12.489498948111184,1.5562104015815548,7.182795826981708,-0.8717978872903963,-4.150576707793445,0.1875714557926829,0.3048036156631093,-3.704164086318597,-3.973053722846799,-1.756621570121951,-4.370419983802041,-6.938483478327226,1.5941890698587031,-12.756915191290194,5.945289408866996,-87.39692695125387,33.22032527630515,36.35927157276784,39.21068080390571,1577395804.0,-27.69039286732597,-51.12507322495855,5.6286635
37429,1577395804.71,1.9162956507240847,0.6977637960294389,7.5389322616949315,1.6540429761933113,-1.7069489933665205,7.505647019102515,5.954554714295922,5.7219083871236665,6.393861521353373,5.035214307831555,-4.658024485518292,-1.2990439810403962,-1.8464995593559448,8.076365401105184,-1.3736631812118902,2.963926733993903,-0.9670722775342988,-4.747344226371951,-4.535341492624759,-6.39070846688034,1.062792713239138,-13.62374974562475,5.640402772514843,-86.03666349675964,33.31617096474676,36.19154161799503,39.21068080390571,1577395804.0,-27.69039286732597,-51.12507322495855,5.6286635
37430,1577395804.72,1.8708058191811163,-1.054791819204935,9.650618125952745,1.6109473463104989,0.5507831721608223,8.566278354551734,-4.917515024473609,1.510507666908822,9.214231077017434,3.4177826672065548,-5.573551829268292,-1.878877965415396,-4.776187059355945,3.864939619855183,0.1827333031631097,0.8276962652439026,5.929900378715701,2.7904975705030486,-5.359949036738351,-5.477750114468864,2.6569817830978484,-13.508171805046809,5.640402772514843,-26.185071499013805,33.41201665318837,36.57492437176146,39.1148351154641,1577395804.0,-27.69039286732597,-51.12507322495855,5.6286635
37431,1577395804.73,-0.6191639073813839,-1.3492786234041545,9.432745774878526,-0.1966749071074688,-0.6822306828196454,13.622832260801731,0.7806849266982656,5.302923096596322,10.95960408727134,-5.951113817168444,8.128840748856708,-0.8565390982278962,-2.029605028105945,-3.856007645769817,-1.0074522437118902,-0.1488662347560974,-2.7370918087842986,1.2035835080030486,-4.617802247036118,-6.2994126316391945,2.922679961407635,-13.508171805046809,5.335516136162689,-85.35653176951254,33.24428669841555,36.38323299487824,39.21068080390571,1577395804.0,-27.69039286732597,-51.12507322495855,5.6286635
37432,1577395804.74,0.9131251551186166,-2.2159796243807164,13.052778685034776,1.0973910902069832,-2.2228994511301923,9.484454691221655,1.8305423546767812,-1.0848069327005525,11.827502189077984,-6.988711473418445,-7.465641673018292,-1.1159385122903962,0.4575775890815548,1.7592267292301829,-1.1142637671493905,0.2631210699314027,2.4356376834032014,0.9441840939405484,-5.689792054383788,-7.303666819291819,1.9484533076050947,-13.074754527879527,0.838438249968423,-83.14610365595942,33.17240243208434,36.59888579387187,39.33048791445772,1577395804.0,-27.69039286732597,-51.12507322495855,5.6286635
37433,1577395804.75,-0.5928276891196647,0.4248248067716264,12.51887171481993,-0.1200604539824688,2.3727706355397284,13.44566133795017,1.3816295433974843,-4.388805223716177,12.374577268423684,1.4341400890815548,-0.7517744855182926,-1.5737021841653962,-4.471011278105945,0.1723126667301829,-1.3431456030868902,-0.0878310785060974,0.1620781130907012,-3.770781726371952,-5.195027527915633,-4.199608421092795,2.125585426478283,-13.392593864468866,-1.981763136288998,-26.185071499013805,33.17240243208434,36.38323299487824,39.30652649234732,1577395804.0,-27.69039286732597,-51.12507322495855,5.6286635
37434,1577395804.76,0.3600645716225228,-0.2024560281893101,10.708855259741808,0.8639564283417488,-1.1562826115305829,11.32679286871189,1.7479423974013906,1.7188032113424156,12.345846848501813,-0.8851958484184451,1.6285966082317074,-0.3835166372903963,-3.311343309355945,5.512888838605183,1.0982606469131098,-3.261659203506097,-4.812287121284299,-1.2073051638719514,-4.700263001447477,-4.747383432539684,2.6569817830978484,-13.392593864468866,-1.981763136288998,-26.185071499013805,33.17240243208434,36.71869290442388,39.1148351154641,1577395804.0,-27.69039286732597,-51.12507322495855,5.6286635
37435,1577395804.77,0.2164124720131473,-0.4634240091463418,9.85771656955626,0.8256492017792488,0.1724993098561348,10.953297409727517,0.668157448670922,0.0069490243306971,13.62913893834556,-1.098818895293445,2.620417897294207,-0.2919639029153963,-0.7478667468559451,3.620798994855183,-0.1834776343368902,-4.818055687881097,-13.7539375119093,4.285858898628049,-4.700263001447477,-4.747383432539684,2.6569817830978484,-13.334804894179896,5.487959454338766,-25.84500563539025,33.17240243208434,36.57492437176146,39.30652649234732,1577395804.0,-27.69039286732597,-51.12507322495855,5.6286635
37436,1577395804.78,-0.9064681066001332,0.4990450582364701,9.05446191257384,0.2893480299042493,-0.4416134159739423,9.559872043516576,0.9387022362685788,4.970129065834604,10.574137619986184,-0.6715728015434451,1.0792802019817074,-0.9633506216653964,-0.778384324980945,1.1946515339176829,-0.4733946265243903,-5.031678734756097,-24.3282783322218,5.9643256955030495,-4.040576966156604,-6.573300137362635,1.9484533076050947,-13.508171805046809,-1.981763136288998,-24.824808044519585,33.31617096474676,36.59888579387187,39.13879653757451,1577395804.0,-27.69039286732597,-51.12507322495855,5.6286635
37437,1577395804.79,0.1062791956459593,-0.9470527444979038,8.168607298316026,-0.0985126390410626,-1.0748797550852704,10.280526743223607,2.9234954125381094,-0.8645403799661768,5.819253122915874,-1.6176177234184452,-1.3621260480182926,-0.4750693716653963,0.3507660656440549,-1.6587420207698171,0.2742860375381097,-6.343934594131097,-12.1365058712843,9.65695264862805,-5.854713563206507,-6.39070846688034,2.125585426478283,-16.22425340862841,-1.829319818112921,-17.683424908424907,33.17240243208434,36.479078683319855,39.21068080390571,1577395804.0,-27.69039286732597,-51.12507322495855,5.6286635
37438,1577395804.8,0.4654094446693978,-1.512084336294779,10.397609043921491,0.3994813062714363,-0.5697032047923017,8.532759531309546,-4.287839987852515,-2.2028991079935203,7.801652097525248,-3.357119676543445,-8.869450266768293,-1.0854209341653962,-0.8699370593559451,-0.3159685832698171,0.7015321312881098,1.6516708746189026,8.9206230349657,-1.3904106326219514,-4.535341492624759,-7.121075148809524,2.47984966422466,-16.744354141229145,-1.3719898635846908,-15.983095590307128,33.17240243208434,36.57492437176146,39.21068080390571,1577395804.0,-27.69039286732597,-51.12507322495855,5.6286635
37439,1577395804.81,0.2044414637123665,0.5912218221524868,8.168607298316026,-0.414547258181688,0.208412334758479,7.784571512510718,4.320512081239281,-0.6610332388528961,8.33675616857017,8.102230909394056,-4.856388743330792,-1.1617148794778962,1.586727979706555,1.6066388386051829,-0.8396055640243902,7.495787085556403,14.5968925662157,-3.7860405154344514,-4.535341492624759,-7.121075148809524,2.47984966422466,-15.472996794871795,-3.048866363521536,-20.0638859537898,33.26824812052595,36.62284721598228,39.186719381795314,1577395804.0,-27.69039286732597,-51.12507322495855,5.6286635
37440,1577395804.82,1.6313856531654916,-2.034020298208841,9.868490477026963,1.2518170972870617,0.1485572932545723,10.038712375547828,-4.113063266661109,0.6198646493306972,13.583649106802593,1.6477631359565548,-4.993717844893292,-0.2919639029153963,-2.914614793730945,1.9423321979801829,0.1827333031631097,0.7666611089939026,3.824187488090701,-0.0476371951219513,-3.5458124396884485,-6.39070846688034,2.8341139019710444,-13.103649013024016,-3.048866363521536,-4.08079036348267,33.17240243208434,36.28738730643664,39.21068080390571,1577395804.0,-27.69039286732597,-51.12507322495855,5.6286635
37441,1577395804.83,-0.9471695348227896,-0.1593603983064976,10.440704673804309,-1.7672711961699687,0.356852837688166,9.780138596250952,0.6968878685927969,-4.364863207114614,10.404149302115092,6.347470167206555,6.480891530106708,0.1352821908346037,-0.6868315906059451,2.644236494855183,0.5184266625381098,-3.109071312881097,0.4672538943407012,-3.984404773246952,-4.370419983802041,-5.842933455433458,1.2399248321123264,-13.103649013024016,-3.048866363521536,-25.84500563539025,33.17240243208434,36.57492437176146,39.21068080390571,1577395804.0,-27.69039286732597,-51.12507322495855,5.6286635
37442,1577395804.84,0.7575020472084603,-1.1266178690096225,11.384020127905869,4.110493879513624,-4.436338885944646,8.738660874082983,4.403112038514672,2.805770765053353,9.578149729361185,-2.197451707793445,0.9877274676067074,-0.2004111685403963,3.2194184093940548,2.552683760480183,1.7696473656631098,3.971006812118903,5.136443347465701,-3.0993950076219514,-4.535341492624759,-5.295158443986569,3.542642377463798,-13.103649013024016,-4.26841290893015,-25.84500563539025,33.41201665318837,36.28738730643664,39.21068080390571,1577395804.0,-27.69039286732597,-51.12507322495855,5.6286635
37443,1577395804.85,0.1769081446205697,1.110763582406393,10.899194291724228,1.2482257947968272,3.0599065120045723,12.970412308409156,-0.7468157324814213,2.121029090248665,11.378589377798685,2.6090668468940548,-0.8128096417682926,-0.2156699576028963,-3.357119676543445,-0.5906267863948171,-0.4886534155868902,4.550840796493903,-0.0973213009717988,-0.9936821169969514,-4.865184510270196,-6.39070846688034,3.8969066152101823,-13.537066290191293,-3.734861295313881,-16.833260249366017,33.38805523107796,36.550962949651066,39.28256507023691,1577395804.0,-27.69039286732597,-51.12507322495855,5.6286635
37444,1577395804.86,0.8724237268959603,0.99703900354897,8.707302671851181,1.4241996168183115,-2.1402994938548017,7.769009201719703,3.859628261659203,-1.3433807119974268,11.46478063756431,0.4575775890815549,-1.6978194073932926,-0.8107627310403963,3.921322706269055,7.038767744855183,0.0606629906631097,6.320860327743903,-0.2346504025342987,-0.7800590701219513,-4.205498474979322,-6.39070846688034,1.4170569509855149,-13.450382834757836,-3.658639636225843,-19.72382009016624,33.12447958786354,36.38323299487824,39.21068080390571,1577395804.0,-27.69039286732597,-51.12507322495855,5.6286635
37445,1577395804.87,0.4127370081459603,-1.8137537454744663,8.750398301733993,0.1265423170136238,-1.2376854679758953,7.163276181700171,-0.7444215308212645,1.558391700111947,9.477593259634622,-1.7091704577934452,0.5299637957317074,-0.4140342154153963,1.0831879406440548,-2.574269364519817,0.3963563500381097,1.5906357183689026,3.5495292849657014,5.506562023628049,-4.700263001447477,-5.842933455433458,2.3027175453514714,-13.62374974562475,-4.420856227106227,-20.74401768103691,33.36409380896756,36.81453859286549,39.21068080390571,1577395804.0,-27.69039286732597,-51.12507322495855,5.6286635
37446,1577395804.88,-0.6143755040610709,-2.223162229361185,7.385703355444932,-3.5940470628691874,-0.3949264836008954,11.240601608946264,-1.6997079932236083,-1.5349168448099269,9.678706199087747,-1.526064989043445,3.642756764481708,0.4099403939596036,1.6630219250190548,-3.581349442644817,0.5184266625381098,5.802061499618903,-1.2112129025342988,4.529999523628049,-4.040576966156603,-6.02552512591575,2.6569817830978524,-13.62374974562475,-4.420856227106227,-20.74401768103691,33.31617096474676,36.57492437176146,39.35444933656812,1577395804.0,-27.69039286732597,-51.12507322495855,5.6286635
37447,1577395804.89,0.6258209558998665,0.9395781637052202,10.749556687964462,0.6149594556854988,-0.9312276554758954,7.685212143614233,-1.1969256445907963,1.274678803383431,8.959248600210795,9.521298292206556,-3.895085032393293,0.5625282845846037,1.7240570812690548,5.528147627667683,1.5712831078506098,4.886534155868903,9.0426933474657,-0.8716118044969512,-4.535341492624759,-6.02552512591575,2.8341139019710444,-13.594855260480262,-4.344634568018188,-22.954445794590026,33.22032527630515,36.550962949651066,39.21068080390571,1577395804.0,-27.69039286732597,-51.12507322495855,5.6286635
37448,1577395804.9,0.2020472620522103,2.347368739877096,9.401621153296494,-0.0649938157988751,3.110184746867854,11.051459677793922,1.951449538514672,-5.219593199790396,9.245355698599466,12.481503370331556,-3.193180735518293,0.1963173470846037,0.0761078625190548,-2.635304520769817,-0.2445127905868902,1.6211532964939026,11.4230644412157,-5.418730945121951,-3.3808909308657284,-6.208116796398045,2.6569817830978484,-12.699126221001222,-4.115969590754073,-26.185071499013805,33.17240243208434,36.38323299487824,39.21068080390571,1577395804.0,-27.69039286732597,-51.12507322495855,5.6286635
37449,1577395804.91,0.640186165860804,0.9252129537442828,8.812647544898056,1.153654829220655,-0.2632453922923017,11.010758249571264,1.8987771019912345,-1.374505333579458,8.864677634634623,5.035214307831555,4.436213795731708,0.3794228158346037,1.2357758312690548,4.841502119855183,0.5794618187881098,1.2244247808689026,6.296111316215701,-8.68411180449695,-4.205498474979322,-6.75589180784493,2.125585426478283,-12.699126221001222,-3.81108295440192,-24.824808044519585,33.17240243208434,36.57492437176146,39.21068080390571,1577395804.0,-27.69039286732597,-51.12507322495855,5.6286635
37450,1577395804.92,0.3887949915443973,-3.316115287222513,8.704908470191025,2.7769235548065927,-3.4523220036204267,8.283762558653295,0.3329692162490469,7.991611560951791,9.501535276236185,-4.455752489043445,10.280330006669208,1.2186562142721038,0.6559418468940549,8.961375166730184,-0.1529600562118902,9.220030249618905,7.791472644340701,-3.679228991996952,-4.370419983802041,-6.573300137362635,1.7713211887318916,-12.467970339845342,-3.5061963180497666,-24.824808044519585,33.36409380896756,36.67077006020308,39.01898942702249,1577395804.0,-27.69039286732597,-51.12507322495855,5.6286635
37451,1577395804.93,0.9131251551186166,2.826209071908346,11.2619158432379,1.876703730587843,0.3592470393483222,10.219474600889624,1.788643825624047,-4.999326647056021,7.509559494986186,3.1736420422065548,-2.582829173018293,-0.0173056997903963,0.4423188000190548,-1.6892595988948171,0.5794618187881094,3.955748023056403,16.4584648318407,0.6084907345655486,-5.195027527915633,-6.39070846688034,1.7713211887318916,-13.363699379324384,-2.667758068081344,-23.29451165821358,33.36409380896756,36.550962949651066,39.186719381795314,1577395804.0,-27.69039286732597,-51.12507322495855,5.6286635
37452,1577395804.94,-0.2672162633384146,0.7600130391935014,9.894826695288682,-0.0482344041777813,0.3137572078053535,6.485717111875952,2.3895884423232654,2.0635682504049155,10.272468210806498,8.361630323456556,-3.925602610518293,-0.4140342154153963,0.7169770031440549,2.705271651105183,0.1216981469131097,7.419493140243903,15.8786308474657,-2.3669731326219514,-3.0510479132202923,-5.112566773504274,1.5941890698587031,-13.161437983312986,-1.981763136288998,-26.185071499013805,33.17240243208434,36.52700152754066,39.30652649234732,1577395804.0,-27.69039286732597,-51.12507322495855,5.6286635
37453,1577395804.95,1.6696928797279915,-1.9382522318025912,6.7033558823004,1.926981965451124,0.3209398127858223,9.98603993902439,-3.038066721250953,0.4857893563619471,13.60998532506431,2.8989838390815548,5.046565358231708,0.0132118783346036,-1.9685698718559448,1.3014630573551829,2.349481350038109,6.626036108993903,4.129363269340701,-0.7495414919969513,-4.865184510270196,-6.02552512591575,1.062792713239138,-12.23681445868946,-1.6768764999368446,-3.740724499859112,33.22032527630515,36.52700152754066,39.1148351154641,1577395804.0,-27.69039286732597,-51.12507322495855,5.6286635
37454,1577395804.96,-1.1015955419028678,-0.0959140543123574,9.69251665500548,0.0499278638886244,-1.3071173161204266,8.45973638067478,1.7718844140029533,1.2507367867818695,10.365842075552592,-3.784365770293445,9.929377858231708,0.4709755502096037,0.7780121593940548,2.049143721417683,-0.0919248999618902,-1.0186172113185974,-10.7326972775343,-1.0699760623094514,-4.452880738213399,-6.847187643086078,1.6827551292952974,-13.074754527879527,-2.515314749905267,-20.573984749225136,33.19636385419474,36.71869290442388,39.21068080390571,1577395804.0,-27.69039286732597,-51.12507322495855,5.6286635
37455,1577395804.97,1.1884583460365852,-1.6892552591463412,7.64188293308165,0.3922987012909676,0.7710497248951972,9.67239952154392,-4.04841982183689,0.4690299447408533,10.53822459508384,-7.995791551543445,-4.291813548018292,0.3794228158346037,-1.1140776843559452,2.949412276105183,0.4573915062881097,-4.299256859756097,-13.7234199337843,7.398651867378049,-3.7107339485111663,-6.938483478327226,1.5941890698587031,-12.699126221001222,-2.896423045345459,-20.74401768103691,33.41201665318837,36.479078683319855,39.21068080390571,1577395804.0,-27.69039286732597,-51.12507322495855,5.6286635
37456,1577395804.98,0.1230386072670531,0.4224306051114701,8.166213096655868,-1.2908250657988751,0.5699367854420723,11.02751766119236,-0.509789768125952,2.4250927010885093,8.960445701040872,15.929989698456556,1.1097977801067074,-0.3529990591653963,-2.395815965605945,-1.3840838176448171,1.4949891625381098,-6.923768578506097,-13.8454902462843,7.032440929878049,-4.205498474979322,-6.02552512591575,2.125585426478283,-12.699126221001222,-2.591536408993305,-18.023490772048465,33.31617096474676,36.52700152754066,39.21068080390571,1577395804.0,-27.69039286732597,-51.12507322495855,5.6286635
37457,1577395804.99,-0.0565265172446646,0.7480420308927201,13.000106248511337,2.04429784679878,-1.1443116032298015,10.077019602110328,0.5987256005263907,-6.493308482993521,10.815951987661968,-7.843203660918445,2.055842701981707,-0.0783408560403963,1.4493988781440548,7.771189619855183,0.0606629906631097,-8.297059594131097,-8.5354316525343,7.520722179878049,-4.535341492624759,-5.295158443986569,1.7713211887318916,-12.699126221001222,-2.591536408993305,-18.023490772048465,33.41201665318837,36.479078683319855,39.21068080390571,1577395804.0,-27.69039286732597,-51.12507322495855,5.6286635
37458,1577395805.0,-0.4312190770591178,0.6738217794278765,12.128616844214465,-0.7090340623809064,0.6824642634694159,11.531497110655248,-0.4966216589950927,-1.8784847830423488,11.340282151236185,-5.340762254668445,1.887996022294208,0.1352821908346037,-1.815981981230945,0.0349835651676829,0.6710145531631098,-4.085633812881097,-7.574127941596799,4.240082531440549,-4.535341492624759,-6.938483478327226,2.6569817830978484,-13.132543498168502,-0.6859949317923455,-88.24709161031276,33.36409380896757,36.45511726120945,39.16275795968491,1577395805.0,-27.690441551595608,-51.12509607028059,5.8168592
37459,1577395805.01,-1.409250455232946,-1.6820726541658724,11.230791221655869,-1.7648769945098126,-0.9312276554758954,11.09694950933689,2.3704348290420154,3.868796302162728,9.51111208287681,-13.122744676543444,5.260188405106708,0.9897743783346036,0.9306000500190548,3.010447432355183,0.7625672875381098,6.168272437118903,-1.0586250119092988,-4.442168445121951,-5.359949036738351,-6.938483478327226,2.6569817830978484,-12.814704161579163,0.457329954528231,-87.39692695125387,33.17240243208434,36.71869290442388,39.21068080390571,1577395805.0,-27.690441551595608,-51.12509607028059,5.8168592
37460,1577395805.02,-0.5186074376548209,-0.0468329202791538,10.696884251441023,0.5287681959198739,-1.0557261418040202,9.837599436094704,-1.4243748023056395,-1.9826325552591453,6.8391830301424354,2.1360443859565548,-1.3010908917682926,0.5014931283346037,-0.5647612781059451,2.552683760480183,1.3424012719131098,-2.895448266006097,8.8901054568407,1.5087592892530486,-5.359949036738351,-6.938483478327226,2.6569817830978484,-12.814704161579163,0.457329954528231,-87.39692695125387,33.17240243208434,36.38323299487824,39.21068080390571,1577395805.0,-27.690441551595608,-51.12509607028059,5.8168592
37461,1577395805.03,0.3349254541908822,-1.3959655557772006,8.704908470191025,0.6412956739472175,-2.456334112995427,5.590285690977515,-0.0261610327743895,-3.9937619497903953,5.761792283072124,-2.578921434355945,-1.4536787823932926,1.1881386361471038,-0.3816558093559451,-0.5601092082698171,-0.6107237280868902,-1.4000869378810974,15.2072441287157,0.3796088986280487,-3.545812439688447,-6.755891807844931,2.1255854264782794,-13.62374974562475,0.457329954528231,-81.95587313327698,33.41201665318837,36.479078683319855,39.21068080390571,1577395805.0,-27.690441551595608,-51.12509607028059,5.8168592
37462,1577395805.04,1.2004293543373663,0.0728771627286576,10.026507786597277,0.8723361341522958,1.3839653498951978,9.35995620489353,-0.1530537207626716,0.8999862435689788,10.416120310415874,2.9600189953315548,-5.207340891768292,0.3183876595846037,-2.227969285918445,-0.0260515910823171,1.952752834413109,3.909971655868903,14.0323173709032,5.567597179878049,-5.359949036738351,-5.477750114468864,2.6569817830978484,-12.496864824989828,-0.0762216590880379,-84.1663012468301,33.31617096474676,36.550962949651066,39.186719381795314,1577395805.0,-27.690441551595608,-51.12509607028059,5.8168592
37463,1577395805.05,0.4941398645912728,1.401659084115377,11.046437693823837,0.4306059278534676,1.161304595500666,9.29650986089939,-0.2368507788681395,-4.197269090903677,14.562877585806495,1.7698334484565548,2.177913014481707,0.4099403939596037,-1.1140776843559452,2.918894697980183,0.8236024437881098,-3.200624047256097,-4.385041027534299,-6.456328601371951,-4.370419983802041,-6.938483478327226,1.9484533076050947,-12.930282102157102,-1.981763136288998,-26.185071499013805,33.22032527630515,36.38323299487824,39.21068080390571,1577395805.0,-27.690441551595608,-51.12509607028059,5.8168592
37464,1577395805.06,0.295421126798304,1.0066158101895952,12.612245579566023,-1.432082963748094,1.5994434993092597,11.432137741758766,-3.873643100645484,-3.8309562368997705,11.972351389517437,-6.195254442168445,0.1332352801067073,1.6001259408346038,1.5409516125190548,0.5995587604801829,2.532586818788109,-2.712342797256097,-10.2749336056593,-9.53860399199695,-4.370419983802041,-6.938483478327226,1.9484533076050947,-12.930282102157102,-1.981763136288998,-26.185071499013805,33.36409380896756,36.479078683319855,39.30652649234732,1577395805.0,-27.690441551595608,-51.12509607028059,5.8168592
37465,1577395805.07,-0.0194163915122427,-1.3887829507967324,10.264730851782822,1.8383965040253427,-1.137128998249333,10.498399094297827,0.1653751000381094,-1.0081924795755517,10.171911741079937,-5.783267137480944,-1.3010908917682924,0.2726112923971036,-1.9990874499809448,1.5150861042301829,1.4949891625381098,-9.548280297256095,-14.6084296994093,-3.862334460746952,-5.359949036738351,-7.121075148809522,2.656981783097852,-12.988071072446076,-2.4390930908172286,-17.0032931811778,33.29220954263636,36.52700152754066,39.30652649234732,1577395805.0,-27.690441551595608,-51.12509607028059,5.8168592
37466,1577395805.08,-0.1714481969321646,-2.2638636575838413,9.930739720191024,0.7023478162812025,-1.1826188297923024,11.375874002745093,3.603448684022484,6.889081696449838,9.839117710318217,1.7393158703315548,2.299983326981707,2.576688440834604,-0.1832915515434452,-3.703419755144817,1.7391297875381095,-1.0186172113185972,-14.4711005978468,11.10653760956555,-3.7107339485111663,-7.303666819291819,1.9484533076050947,-13.161437983312986,-3.963526272577997,-0.3400658636235551,33.31617096474676,36.550962949651066,39.21068080390571,1577395805.0,-27.690441551595608,-51.12509607028059,5.8168592
37467,1577395805.09,-1.5672677648032582,2.5341164693692835,9.784693418921496,-1.3698337205840314,2.7941501277272294,11.642827487852514,-2.1977019385361083,-7.0391864615091455,6.130499338736186,4.485897901581555,4.741389576981708,1.7527138314596038,0.1066254406440548,-2.299611161394817,0.3353211937881097,-2.163026391006097,1.1996757693407012,14.66183546112805,-3.8756554573338846,-6.75589180784493,0.7085284754927537,-13.62374974562475,-4.115969590754073,-2.3804610453648904,33.17240243208434,36.33531015065744,39.16275795968491,1577395805.0,-27.690441551595608,-51.12509607028059,5.8168592
37468,1577395805.1,0.8724237268959603,2.6993163839200647,9.631464512671494,-0.3283559984160626,0.0288472102467598,5.549584262754859,-0.346984055235327,-4.314584972251333,4.231897422232279,1.3425873547065548,-8.838932688643293,1.1423622689596038,0.8085297375190549,2.125437666730183,2.379998928163109,-0.1793838128810974,11.4535820193407,1.0815131955030486,-3.8756554573338846,-6.75589180784493,0.7085284754927537,-13.62374974562475,-4.115969590754073,-2.3804610453648904,33.36409380896756,36.28738730643664,39.1148351154641,1577395805.0,-27.690441551595608,-51.12509607028059,5.8168592
37469,1577395805.11,1.080719271329554,-1.9945159708162632,9.085586534155867,1.946135578732374,-2.020589410846989,9.39227792730564,1.4151483666396725,3.793378949867807,9.597303342642435,-3.326602098418445,-5.100529368330792,-0.5208457388528963,-1.281924364043445,-1.0026140910823171,-0.0614073218368902,3.925230444931403,4.251433581840701,5.1861274533155495,-4.782723755858837,-6.664595972603784,1.8598872481684927,-13.537066290191293,-2.972644704433497,-1.5302963863060004,33.22032527630515,36.38323299487824,39.186719381795314,1577395805.0,-27.690441551595608,-51.12509607028059,5.8168592
37470,1577395805.12,0.5683601160561166,0.2237118673185013,8.513372337378526,-0.5438341478301252,3.165251385051448,10.452909262754858,-0.1698131323837645,-11.334384239829458,8.132051926626811,-3.570742723418445,9.441096608231708,2.179959925209604,-3.097720262480945,1.5761212604801829,1.952752834413109,-3.597352562881097,6.936980456840701,-4.472686023246951,-3.7107339485111663,-7.668850160256409,2.6569817830978484,-13.392593864468866,-4.420856227106227,-4.420856227106225,33.22032527630515,36.57492437176146,39.16275795968491,1577395805.0,-27.690441551595608,-51.12509607028059,5.8168592
37471,1577395805.13,-0.5521262608970083,2.1821688253263147,12.626610789526962,-0.9843672532988752,-1.6494881535227703,6.650917026426733,-1.1203111914657955,2.602263623940072,9.092126792349466,-0.3358794421684451,7.884700123856708,0.4404579720846037,4.836850050019055,2.125437666730183,-0.6107237280868902,5.161192358993903,9.9277031130907,-11.21707078887195,-4.370419983802041,-5.112566773504274,3.3655102585906094,-13.62374974562475,-4.420856227106227,-11.222173499577346,33.41201665318837,36.57492437176146,39.1148351154641,1577395805.0,-27.690441551595608,-51.12509607028059,5.8168592
37472,1577395805.14,0.908336751798304,-0.1545719949861851,8.513372337378526,0.9788781080292488,1.477339214641291,7.122574753477515,0.6490038353896719,2.326930433022103,10.023471238150249,-4.211611864043445,2.971370045731707,1.2644325814596038,-4.562564012480945,4.688914229230183,1.891717678163109,8.487608374618903,7.242156238090701,-6.334258288871951,-4.370419983802041,-5.112566773504274,3.3655102585906094,-13.392593864468866,-4.420856227106227,-11.222173499577346,33.17240243208434,36.38323299487824,39.21068080390571,1577395805.0,-27.690441551595608,-51.12509607028059,5.8168592
37473,1577395805.15,0.4881543604408822,-1.1433772806307168,9.234027037085555,2.205906458859327,-1.362183954304021,11.471642069151343,2.323747896668969,2.213205854164682,8.84791822301353,-4.654116746855944,-0.6907393292682927,-1.2074912466653962,0.7322357922065548,0.645335127667683,-0.7175352515243902,-3.398988305068597,-0.4940498165967988,0.5169380001905486,-4.123037720567963,-6.847187643086079,2.037019367041685,-13.508171805046809,-3.81108295440192,-26.185071499013805,33.31617096474676,36.57492437176146,39.23464222601611,1577395805.0,-27.690441551595608,-51.12509607028059,5.8168592
37474,1577395805.16,2.2035998499428358,-3.22872692662681,4.615612034644149,1.9988080152558116,-1.9607343693430828,7.520012229063452,-2.832165378477516,-5.420706139243521,9.865453928579935,-0.5800200671684451,5.107600514481708,2.454618128334604,-5.264468309355945,3.040965010480183,1.4949891625381098,-5.275819359756097,6.265593738090701,6.177948742378049,-4.040576966156604,-6.573300137362635,2.3027175453514714,-13.62374974562475,1.0671032272325378,-18.023490772048465,33.17240243208434,36.52700152754066,39.1148351154641,1577395805.0,-27.690441551595608,-51.12509607028059,5.8168592
37475,1577395805.17,1.2938032190834603,2.936342348275533,9.593157286108994,0.6939681104706551,1.9537853450123843,14.190258054258765,1.9729973534560776,-3.73518817049352,11.392954587759624,12.847714307831556,-3.834049876143293,-0.6276572622903963,-7.248110887480945,-3.459279130144817,-0.0614073218368902,-3.322694359756097,3.763152331840701,-5.693389148246951,-5.359949036738351,-6.573300137362635,3.0112460208442324,-12.872493131868136,-0.304886636352153,-9.521844181459564,33.31617096474676,36.57492437176146,39.30652649234732,1577395805.0,-27.690441551595608,-51.12509607028059,5.8168592
37476,1577395805.18,0.5683601160561166,1.145479506478658,10.29226417087462,-2.040210185427781,-0.2129671574290204,6.708377866270483,1.6545685326552968,6.751415100990854,10.83989400426353,1.9376801281440548,2.315242116044207,0.4099403939596037,-2.670474168730945,0.0502423542301829,-1.2210752905868902,3.940489233993903,-5.056427746284299,-3.0688774294969514,-5.359949036738351,-6.573300137362635,3.0112460208442324,-12.756915191290195,-0.9146599090564606,-23.80461045364892,33.19636385419474,36.67077006020308,39.30652649234732,1577395805.0,-27.690441551595608,-51.12509607028059,5.8168592
37477,1577395805.19,0.7239832239662728,0.4104595968106889,8.994606871069932,-1.0178860765410631,0.227565948039729,8.490861002256812,-3.4343070960068123,-2.887640782798208,13.497457847036967,-5.218691942168445,-1.5452315167682926,-0.6276572622903963,-1.449771043730945,-1.2467547160823171,0.7930848656631094,-7.442567406631097,-12.3501289181593,1.9054878048780488,-5.195027527915633,-6.75589180784493,2.47984966422466,-13.161437983312986,0.1524433181760772,-13.942700408565797,33.41201665318837,36.52700152754066,39.1148351154641,1577395805.0,-27.690441551595608,-51.12509607028059,5.8168592
37478,1577395805.2,-0.8322478551352896,-3.0707096170564974,6.49266613620665,0.9549360914276864,-4.857718378132145,6.399525852110328,1.6330207177138905,4.2973583993306965,10.674694089712748,3.0515717297065548,6.480891530106708,0.0437294564596036,-3.280825731230945,2.918894697980183,0.0606629906631097,-3.353211937881097,-14.2117011837843,-4.320098132621951,-3.5458124396884485,-7.121075148809524,1.062792713239138,-13.161437983312986,0.457329954528231,-3.0605927726120044,33.41201665318837,36.479078683319855,39.21068080390571,1577395805.0,-27.690441551595608,-51.12509607028059,5.8168592
37479,1577395805.21,0.3552761683022103,-2.6038402933260287,6.507031346167588,-4.709745036502,-0.2153613590891767,7.692394748594703,3.371211122987328,2.767463538490853,8.697083518423685,4.058651807831555,10.051448170731708,0.8982216439596037,1.2662934093940548,-8.372609208269816,1.5255067406631098,0.4004501714939026,-2.1267402462842986,3.9501655392530486,-3.215969422043012,-7.486258489774114,0.7085284754927537,-13.161437983312986,-3.2013096816976128,-24.824808044519585,33.17240243208434,36.52700152754066,39.35444933656812,1577395805.0,-27.690441551595608,-51.12509607028059,5.8168592
37480,1577395805.22,0.9598120874916634,2.4072237813810022,11.214031810034776,1.3356141553925305,2.0112461848561347,11.18553497076267,-3.196084030821265,-3.361692711509145,11.459992234243998,10.284237745331556,-5.726139719893292,-0.7039512076028962,-4.104800340605945,2.491648604230183,0.7320497094131098,-1.3390517816310974,-3.0727851681592986,11.48800733612805,-3.215969422043012,-7.486258489774114,0.7085284754927537,-12.58354828042328,-4.420856227106227,-26.185071499013805,33.31617096474676,36.81453859286549,39.01898942702249,1577395805.0,-27.690441551595608,-51.12509607028059,5.8168592
37481,1577395805.23,0.0871255823647093,1.5931952169278774,10.155794676245712,1.7605849500702646,-0.8354595890696453,11.265740726377905,-0.1961493506454838,-7.367192088950552,11.710186307730329,-7.080264207793445,1.0487626238567074,-1.0549033560403962,-1.053042528105945,3.605540205792683,-0.8243467749618902,-6.343934594131096,-2.9201972775342986,-2.2143852419969514,-4.865184510270196,-7.121075148809524,2.125585426478283,-12.670231735856738,-1.90554147720096,-26.015038567202023,33.31617096474676,36.407194416988645,39.25860364812651,1577395805.0,-27.690441551595608,-51.12509607028059,5.8168592
37482,1577395805.24,-0.4563581944907584,-4.215138010611184,11.40317374118712,-0.3690574266387189,-2.5951978092844894,13.436084531309548,1.3936005516982657,7.563049463783822,11.840670298208842,-19.073672410918444,-4.444401438643292,-2.245088902915396,-0.8394194812309451,1.3624982136051829,-2.0145323218368905,1.9873642339939024,-4.598664074409299,-1.939727038871952,-4.040576966156604,-7.668850160256409,2.3027175453514714,-13.62374974562475,-1.3719898635846908,-3.0605927726120044,33.36409380896756,36.57492437176146,39.1148351154641,1577395805.0,-27.690441551595608,-51.12509607028059,5.8168592
37483,1577395805.25,1.1094496912514291,-3.1473240701814973,9.743991990698838,1.8790979322479988,-2.365354449909489,11.501569589903296,-3.1410173926376714,-1.4630907950052392,12.159099119009625,-8.575625535918444,-0.0803877667682926,0.0132118783346036,-3.982730028105945,4.078562666730183,1.983270412538109,-3.048036156631097,-3.5915839962842986,8.74142530487805,-4.370419983802041,-7.668850160256409,2.6569817830978484,-13.161437983312986,-1.981763136288998,-3.740724499859112,33.50786234162997,36.57492437176146,39.45029502500974,1577395805.0,-27.690441551595608,-51.12509607028059,5.8168592
37484,1577395805.26,-1.0800477269614617,1.777548744759908,11.33972739719298,-3.524615214724656,0.2850267878834785,12.344328574278297,-3.543243271543921,-5.997708739341177,13.34901734410728,3.7534760265815543,10.158259694169208,0.0742470345846036,-1.3277007312309452,-1.5366717082698171,-0.4886534155868902,-10.860536156631095,-7.558869152534299,-5.052520007621951,-4.700263001447477,-7.303666819291819,1.5941890698587031,-12.58354828042328,0.457329954528231,-16.663227317554238,33.24428669841555,36.57492437176146,39.35444933656812,1577395805.0,-27.690441551595608,-51.12509607028059,5.8168592
37485,1577395805.27,0.879606331876429,-4.863966660513529,7.9507349472418065,-1.5960857774687969,-0.4631612309153485,7.654087522032203,4.0870774193740464,8.945700922524056,8.152402640738138,-3.051943895293445,-5.237858469893292,-1.2990439810403962,1.083187940644055,3.040965010480183,0.3505799828506097,6.000425757431404,-1.8520820431592984,2.958344250190549,-5.195027527915633,-7.851441830738705,2.47984966422466,-13.103649013024016,-0.7622165908803835,-50.32974781628627,33.41201665318837,36.50304010543026,39.186719381795314,1577395805.0,-27.690441551595608,-51.12509607028059,5.8168592
37486,1577395805.28,0.1852878504311165,2.2180818502286583,10.713643663062118,1.0554925611542487,2.3536170222584785,10.979633627989234,-6.093068039610327,-10.22826307283727,8.153599741568216,17.700009229706556,1.811702076981708,0.6235634408346037,-0.3206206531059451,-1.4756365520198171,2.227411037538109,-5.336854516006097,8.9511406130907,8.83297803925305,-4.040576966156604,-6.208116796398045,1.5941890698587031,-12.699126221001222,-2.286649772641151,-83.3161365877712,33.31617096474676,36.52700152754066,39.30652649234732,1577395805.0,-27.690441551595608,-51.12509607028059,5.8168592
37487,1577395805.29,0.4845630579506478,4.518909645638814,8.7336388901129,-0.0051387742949688,3.4669207942311355,9.195953391172829,-1.3381835425400146,-2.442319274009145,10.435273923697125,4.791073682831555,-6.122868235518292,-2.275606481040396,-3.555483934355945,0.5995587604801829,-0.1834776343368902,-3.444764672256097,4.098845691215701,-7.829619616996951,-5.689792054383788,-5.112566773504274,3.0112460208442324,-13.508171805046809,-1.0671032272325374,-86.03666349675964,33.17240243208434,36.38323299487824,39.21068080390571,1577395805.0,-27.690441551595608,-51.12509607028059,5.8168592
37488,1577395805.3,0.5659659143959603,-0.8189629556795444,6.450767607153916,-0.4983443162871564,-3.2200844425852706,9.377912717344705,0.7890646325088126,1.818162580238901,9.010723935904156,7.980160596894057,0.1942704363567073,-0.2767051138528963,3.4483002453315548,0.7216290729801829,0.1216981469131097,7.968809546493904,5.5026542849657005,-2.2601616091844514,-4.865184510270196,-7.121075148809524,3.188378139717421,-13.450382834757836,-1.3719898635846903,-91.137651451113,33.36409380896757,36.407194416988645,39.1148351154641,1577395805.0,-27.690441551595608,-51.12509607028059,5.8168592
37489,1577395805.31,-1.2799635655845083,-2.38596794225181,7.474288816870713,-1.807972624392625,-1.1227637882883954,13.871829233457984,2.669710036561547,-4.963413622153677,12.036994834341654,-9.369082567168444,5.778987233231708,0.3794228158346037,0.2592133312690549,6.764109541730183,-0.9464170874618902,-0.4540420160060974,-5.636261730659299,-0.8410942263719513,-5.195027527915633,-7.486258489774114,0.7085284754927537,-13.334804894179896,-1.5244331817607673,-91.137651451113,33.17240243208434,36.52700152754066,39.16275795968491,1577395805.0,-27.690441551595608,-51.12509607028059,5.8168592
37490,1577395805.32,-0.0924395421470083,-1.8137537454744663,11.66414172214415,-1.1735091844512189,-1.0389667301829266,9.962097922422828,-4.084332846739234,-9.581828624595085,13.212547849478373,-10.711856004668444,-0.3855635480182927,-0.3529990591653963,3.860287550019055,2.430613447980183,1.6475770531631098,-10.982606469131095,-16.6836250119093,-8.80618211699695,-4.370419983802041,-6.573300137362635,1.9484533076050947,-13.392593864468866,0.7622165908803841,-75.83468758805297,33.31617096474676,36.71869290442388,39.35444933656812,1577395805.0,-27.690441551595608,-51.12509607028059,5.8168592
37491,1577395805.33,-1.141099869295446,0.4008827901700639,13.950604307593368,-1.5182742235137188,-2.995029486530583,10.421784641172827,0.7447719017959219,5.226308643471322,13.875741709341654,0.7017182140815549,1.7201493426067074,0.9287392220846036,6.576352003144055,-1.6587420207698171,0.7015321312881098,-2.376649437881097,-19.0639961056593,-5.662871570121951,-4.700263001447477,-6.208116796398045,1.5941890698587031,-13.103649013024016,6.097732727043072,-82.97607072414765,33.41201665318837,36.479078683319855,39.1148351154641,1577395805.0,-27.690441551595608,-51.12509607028059,5.8168592
37492,1577395805.34,0.0607893641029915,-2.3931505472322785,13.396346623267195,0.2713915174530775,1.2642552668873848,11.416575430967749,2.493736214540063,7.488829212318978,8.12606642247642,-5.966372606230944,-1.5147139386432926,1.0660683236471038,1.6935395031440548,3.102000166730183,1.6933534203506098,4.047300757431403,-6.0635078244093,14.41769483612805,-3.8756554573338846,-6.39070846688034,2.47984966422466,-12.58354828042328,5.335516136162689,-80.59560967878276,33.31617096474676,36.59888579387187,39.25860364812651,1577395805.0,-27.690441551595608,-51.12509607028059,5.8168592
37493,1577395805.35,0.1613458338295541,0.3314509420255326,11.58034466403868,1.2326634840058115,-1.4316158024485517,6.887942990782203,-4.383608054258765,-1.9132007071146144,7.021142356314311,4.913143995331555,-3.834049876143293,0.5625282845846037,3.0363129406440548,4.017527510480183,2.288446193788109,2.292540015243903,13.6203300662157,23.17623975800305,-6.5143995984973815,-7.486258489774114,2.47984966422466,-13.62374974562475,-1.981763136288998,-83.3161365877712,33.36409380896756,36.28738730643664,39.35444933656812,1577395805.0,-27.690441551595608,-51.12509607028059,5.8168592
37494,1577395805.36,-0.1690539952720084,-0.0444387186189976,8.053685618628524,-1.7768480028105935,0.5340237605397286,7.907872898008765,-1.7380152197861083,-17.15708267732946,5.972482029165874,9.765438917206556,6.389338795731708,2.149442347084604,5.080990675019055,-2.909962723894817,2.471551662538109,-2.101991234756097,12.5827324099657,-2.1838676638719514,-4.535341492624759,-8.58180851266789,1.7713211887318916,-13.392593864468866,-3.2013096816976128,-19.38375422654269,33.31617096474676,36.52700152754066,39.16275795968491,1577395805.0,-27.690441551595608,-51.12509607028059,5.8168592
37495,1577395805.37,0.2403544886147103,1.2927229085782674,10.896800090064072,-0.4456718797637189,0.9386438411061347,7.943785922911108,-0.136294309141577,4.113004871498665,14.25402557164634,5.019955518769056,-3.940861399580792,-0.3682578482278962,5.264096143769055,0.8742169636051829,1.861200100038109,13.797666968368905,9.9582206912157,-17.99197313262195,-5.112566773504273,-6.664595972603783,2.214151485914874,-13.450382834757836,-3.658639636225843,-1.3602634544942211,33.14844100997394,36.479078683319855,39.16275795968491,1577395805.0,-27.690441551595608,-51.12509607028059,5.8168592
37496,1577395805.38,-0.4874828160727896,1.4232068990567837,7.706526377905869,0.3204726514862801,0.3951600642506665,10.0183616614365,-0.8162475806259528,1.0999020821920258,9.59490914098228,7.354550245331555,-0.5686690167682926,1.3865028939596038,2.3191498547065548,2.903635908917683,1.4034364281631095,-1.1712051019435974,2.0236503787157014,-2.8705131716844514,-4.700263001447477,-6.938483478327226,1.5941890698587031,-13.277015923890923,-3.81108295440192,2.0403951817413386,33.50786234162997,36.64680863809267,39.186719381795314,1577395805.0,-27.690441551595608,-51.12509607028059,5.8168592
37497,1577395805.39,-3.113922037264196,0.8940883321622514,8.226068138159775,-2.9931024461699685,-1.321482526081364,11.750566562559548,-0.988630100157202,-7.115800914634145,11.462386435904154,3.7839936047065534,1.6285966082317074,0.3794228158346037,0.3507660656440549,-1.9944353801448167,0.2132508812881097,-3.017518578506097,7.821990222465701,-16.16091844512195,-4.535341492624759,-6.39070846688034,2.8341139019710444,-13.161437983312986,-3.81108295440192,3.0605927726120075,33.41201665318837,36.52700152754066,39.21068080390571,1577395805.0,-27.690441551595608,-51.12509607028059,5.8168592
37498,1577395805.4,-1.6965546544516958,-2.721156174673685,8.6187172104254,-2.2461115282012187,-1.800322858112614,9.658034311582982,2.832515749452172,12.689035218178352,11.54139509068931,-15.716738817168444,3.246028248856707,1.3559853158346038,3.0363129406440548,0.2333478229801829,2.685174709413109,11.447813452743905,5.105925769340701,0.4406440548780487,-4.865184510270196,-7.486258489774114,2.125585426478283,-13.62374974562475,-3.2013096816976128,1.0201975908706693,33.17240243208434,36.52700152754066,39.35444933656812,1577395805.0,-27.690441551595608,-51.12509607028059,5.8168592
37499,1577395805.41,-0.8980884007895871,-0.1557690958162637,8.57442447971251,-0.0937242357207501,-0.0190368229563642,12.15039823980564,0.3066329979873282,-1.9419311270364887,9.482381662954934,-1.0530425281059452,-3.0711104230182924,1.1728798470846038,0.4118012218940549,-2.299611161394817,1.3424012719131098,0.3088974371189026,-0.7229316525342988,1.0815131955030486,-4.4528807382134,-6.664595972603784,2.7455478425344464,-13.450382834757836,-3.048866363521536,-1.3602634544942211,33.36409380896757,36.479078683319855,39.21068080390571,1577395805.0,-27.690441551595608,-51.12509607028059,5.8168592
37500,1577395805.42,-0.8250652501548209,-0.0372561136385288,9.387255943335555,-0.8598687669707504,0.419102080852229,11.353129086973608,-0.0764392676376708,3.506074750649056,11.353450260367046,5.126767042206555,-2.949040110518293,2.332547815834604,2.3344086437690548,-3.230397294207317,0.4268739281631097,3.192808569931403,2.8781425662157014,6.452606945503049,-4.370419983802041,-7.303666819291819,1.9484533076050947,-13.450382834757836,-4.26841290893015,-4.08079036348267,33.17240243208434,36.64680863809267,39.186719381795314,1577395805.0,-27.690441551595608,-51.12509607028059,5.8168592
37501,1577395805.43,-0.0637091222251334,1.550099587045065,10.012142576636338,-1.54939884509575,-0.4260511051829267,10.182364475157202,1.223612233827172,-1.9419311270364887,12.865388608755715,5.187802198456555,-18.665592844893293,0.7761513314596037,4.653744581269055,-6.022755692644817,0.3963563500381097,3.238584937118903,-0.2956855587842988,8.31417921112805,-4.370419983802041,-7.303666819291819,1.9484533076050947,-13.450382834757836,-3.963526272577997,-25.164873908143136,33.41201665318837,36.479078683319855,39.35444933656812,1577395805.0,-27.690441551595608,-51.12509607028059,5.8168592
37502,1577395805.44,-1.1291288609946646,-0.3197719095369664,10.340148204077744,1.0890113843964364,-1.5010476505930828,10.045894980528296,-0.2560043921493896,-7.235510997641958,5.187183884634623,4.730038526581555,-7.496159251143292,0.5930458627096037,1.6935395031440548,-1.9639178020198167,2.532586818788109,-1.5831924066310974,-3.7441718869092986,1.7223823361280486,-4.205498474979322,-7.486258489774114,2.125585426478283,-13.62374974562475,-2.591536408993305,-25.504939771766697,33.17240243208434,36.28738730643664,39.30652649234732,1577395805.0,-27.690441551595608,-51.12509607028059,5.8168592
37503,1577395805.45,1.450623427823695,-1.878397190298685,6.280779289282822,0.5862290357636238,-1.1263550907786295,5.756682706358374,0.0923519494033439,5.6464910348287445,7.6831391153475135,1.9834564953315552,0.7435868426067074,2.759793909584604,2.5480316906440548,-3.367726395769817,1.2508485375381095,8.579161108993905,3.961516589653201,3.400849133003049,-4.040576966156603,-6.573300137362635,0.8856605943659458,-15.270735398860404,-1.753098159024883,-24.654775112707803,33.22032527630515,36.50304010543026,39.25860364812651,1577395805.0,-27.690441551595608,-51.12509607028059,5.8168592
37504,1577395805.46,0.9610091883217416,-0.2144270364900913,10.948275425757432,-0.5845355760527814,1.8508346736256656,11.26933202886814,-4.529654355528296,-11.904204234946643,8.615680661978374,-7.415957567168445,-19.001286204268293,0.0742470345846036,-0.0459624499809451,-6.450001786394817,2.990350490663109,-3.841493187881097,3.3664238162157014,-0.9936821169969512,-4.535341492624759,-7.486258489774114,0.3542642377463768,-13.161437983312986,0.7622165908803841,-25.504939771766697,33.12447958786354,36.52700152754066,39.30652649234732,1577395805.0,-27.690441551595608,-51.12509607028059,5.8168592
37505,1577395805.47,0.4342848230873665,4.801425441537252,7.158254197730088,-1.3243438890410626,3.4980454158131664,13.56058301763767,1.173333998963891,-1.1374793692239893,13.31071011754478,21.78936469845656,-3.315251048018293,2.790311487709604,2.3954438000190548,2.857859541730183,-0.6412413062118902,3.787901343368903,-10.6411445431593,-20.92166063262195,-4.535341492624759,-7.486258489774114,0.3542642377463768,-13.045860042735043,0.7622165908803841,-25.504939771766697,33.31617096474676,36.57492437176146,39.21068080390571,1577395805.0,-27.690441551595608,-51.12509607028059,5.8168592
37506,1577395805.48,0.1816965479408822,-0.4203283792635293,8.850954771460556,2.020355830197217,-0.6630770695383954,10.589378757383765,2.6290086083388906,4.318906214272103,11.270850303091654,3.2499359875190548,-7.328312571455791,1.4475380502096038,-0.5647612781059451,3.498728682355183,3.142938381288109,-3.383729516006097,-14.3642890744093,-9.75222703887195,-4.205498474979322,-6.938483478327227,2.3027175453514714,-13.045860042735043,0.7622165908803841,-4.420856227106225,33.22032527630515,36.71869290442388,39.1148351154641,1577395805.0,-27.690441551595608,-51.12509607028059,5.8168592
37507,1577395805.49,-1.0956100377524771,-3.4489934793611847,13.768644981421494,0.5586957166718275,-2.948342554157536,11.593746353819313,-1.4758501379989997,3.789787647377573,8.84073561803306,-21.545596239043444,-1.7283369855182926,0.8982216439596037,-1.236147996855945,-2.909962723894817,0.5642030297256098,-1.7510390863185972,-6.3381660275343,4.224823742378049,-3.5458124396884485,-7.486258489774114,3.188378139717421,-12.670231735856738,-3.1250880226095745,-24.31470924908425,33.31617096474676,36.550962949651066,39.28256507023691,1577395805.0,-27.690441551595608,-51.12509607028059,5.8168592
37508,1577395805.5,1.128603304532679,-3.106622641958841,10.309023582495712,-0.6539674241973127,-0.0405846378977704,9.11694473638767,2.4829623070693594,14.441590833412729,1.7084088724275923,-6.103701707793445,3.917414967606707,3.309110315834604,-4.928774949980945,4.261668135480183,2.257928615663109,17.1240829839939,20.7309257693407,18.81222608612805,-5.854713563206507,-8.946991853632479,2.47984966422466,-12.641337250712253,-3.048866363521536,-25.84500563539025,33.17240243208434,36.57492437176146,39.16275795968491,1577395805.0,-27.690441551595608,-51.12509607028059,5.8168592
37509,1577395805.51,0.5970905359779916,3.6809390645841273,9.952287535132433,0.7825535718964364,2.1692634944264477,5.923079721739234,1.032076101014672,18.06641214688929,4.909456492056498,11.047177198456556,0.8961747332317074,2.515653284584604,-0.3816558093559451,2.918894697980183,1.3118836937881098,7.327940405868903,30.2524101443407,36.87863233612805,-5.854713563206507,-8.946991853632479,2.47984966422466,-12.641337250712253,-3.048866363521536,-25.84500563539025,33.17240243208434,36.52700152754066,39.21068080390571,1577395805.0,-27.690441551595608,-51.12509607028059,5.8168592
37510,1577395805.52,1.634976955655726,1.0281636251310018,6.402883573950791,0.6796029005097176,3.241865838176448,5.853647873594703,-5.79139863043064,-21.67733541170446,7.174371262564311,15.197567823456556,-0.3855635480182926,1.6001259408346038,-0.5342436999809451,1.6981915729801829,2.013787990663109,4.672911108993903,29.7946464724657,-0.0781547732469513,-4.205498474979322,-5.660341784951156,1.9484533076050912,-13.62374974562475,-3.2013096816976128,-20.74401768103691,33.24428669841555,36.38323299487824,39.21068080390571,1577395805.0,-27.690441551595608,-51.12509607028059,5.8168592
37511,1577395805.53,1.674481283048304,2.759171425423971,5.693002781714463,2.247804987912062,2.9114660090748847,7.317702188780249,5.0052537560439685,2.000121906410776,6.72186714879478,15.563778760956556,5.229670826981708,1.813748987709604,-2.166934129668445,8.869822432355184,2.669915920350609,16.5747665777439,21.0666191287157,-13.70425340605945,-4.700263001447477,-7.303666819291819,1.5941890698587031,-13.62374974562475,-1.219546545408614,-15.302963863060016,33.36409380896756,36.479078683319855,39.21068080390571,1577395805.0,-27.690441551595608,-51.12509607028059,5.8168592
37512,1577395805.54,1.6672986780678352,-2.893538694204935,2.6284246567144622,1.634889362912061,-4.405214264362614,5.156935190489234,-6.504870725157202,-12.940893553794302,12.30035701695884,2.2275971203315548,-0.6602217511432926,1.5085732064596038,-3.891177293730945,-6.053273270769817,3.6312196312881095,-2.681825219131097,4.678679675590701,-11.52224657012195,-4.370419983802041,-5.842933455433458,2.3027175453514714,-13.508171805046809,-0.7622165908803841,-26.185071499013805,33.41201665318837,36.67077006020308,39.21068080390571,1577395805.0,-27.690441551595608,-51.12509607028059,5.8168592
37513,1577395805.55,-2.1442703649009145,-0.7363629984041538,2.8391144028082125,-1.7002335496855938,1.0918727473561347,13.03146445074314,2.6840752465224846,-5.133401940024771,15.891659507193216,12.328915479706556,4.680354420731708,2.485135706459604,-4.196353074980945,-4.618947098894817,4.2110536156631095,-6.466004906631097,-11.9839179806593,-23.27151414824695,-4.370419983802041,-5.842933455433458,2.3027175453514714,-13.508171805046809,-0.7622165908803841,-26.185071499013805,33.31617096474676,36.57492437176146,39.21068080390571,1577395805.0,-27.690441551595608,-51.12509607028059,5.8168592
37514,1577395805.56,1.444637923673304,-0.3592762369295449,10.716037864722274,1.2254808790253426,-1.4052795841868329,11.518329001524387,3.3352980980849845,4.081880249916634,11.56054870397056,-0.6563140124809452,-4.627506907393292,1.2949501595846038,-0.0764800281059451,6.764109541730183,-0.2139952124618902,2.292540015243903,-1.5774238400342988,-4.289580554496951,-4.370419983802041,-6.938483478327229,2.656981783097852,-13.565960775335776,-0.6097732727043068,-23.1244787264018,33.31617096474676,36.52700152754066,39.01898942702249,1577395805.0,-27.690441551595608,-51.12509607028059,5.8168592
37515,1577395805.57,-2.005406668611852,-1.6557364359041538,12.772657090796493,-0.6587558275176254,-2.704133984821599,8.38312192754978,-1.3681110632919684,2.395165180336557,10.458018839468608,-2.624697801543445,9.319026295731708,3.705838831459604,-0.473208543730945,-8.921925614519818,4.3941590844131095,6.412413062118904,-0.2499091915967988,9.62643507050305,-4.205498474979322,-8.58180851266789,1.4170569509855149,-13.305910409035407,2.362871431729191,-84.50636711045365,33.36409380896756,36.59888579387187,39.16275795968491,1577395805.0,-27.690441551595608,-51.12509607028059,5.8168592
37516,1577395805.58,-0.1211699620688833,0.2644132955411576,9.535696446265243,-3.038592277712937,4.206729107219417,15.296379221250952,0.3569112328506094,3.2008140389791344,11.17747643834556,-4.852481004668445,5.656916920731708,3.278592737709604,-0.8699370593559451,2.827341963605183,0.6404969750381098,-1.6442275628810974,-4.537628918159299,13.34957960175305,-4.370419983802041,-6.573300137362635,1.5941890698587031,-13.565960775335776,5.487959454338766,-91.137651451113,33.22032527630515,36.479078683319855,39.30652649234732,1577395805.0,-27.690441551595608,-51.12509607028059,5.8168592
37517,1577395805.59,1.3823886805092416,1.6578386617520962,12.279451548804309,4.03627362804878,-2.5712557926829267,3.356495542051734,0.0911548485732656,-1.9802383535989887,6.635675889029154,8.636288526581556,-9.540836985518292,1.6001259408346038,4.775814893769055,13.294871260480184,1.861200100038109,0.7971786871189026,0.3146660037157012,13.07492139862805,-4.370419983802041,-6.573300137362635,1.5941890698587031,-13.565960775335776,5.487959454338766,-91.137651451113,33.41201665318837,36.57492437176146,39.16275795968491,1577395805.0,-27.690441551595608,-51.12509607028059,5.8168592
37518,1577395805.6,-1.3769287328208362,1.4962300496915486,8.39485935520079,0.1756234510468274,3.464526592570979,10.55346573248142,-0.7492099341415775,-6.170091258872427,11.212192362417824,1.4799164562690548,10.127742116044208,3.003934534584604,-2.121157762480945,-6.907765458269817,2.929315334413109,-5.443666039443596,-10.7021796994093,7.4902046017530495,-4.370419983802041,-7.121075148809524,3.011246020844233,-13.392593864468868,-0.1524433181760766,-80.59560967878276,33.22032527630515,36.43115583909905,39.28256507023691,1577395805.0,-27.690441551595608,-51.12509607028059,5.8168592
37519,1577395805.61,1.0543830530678353,2.016968910775533,7.596393101538681,0.5574986158417489,-0.4332337101633954,11.005969846250952,-0.6223172461532958,-2.3944352408060205,4.756227585806498,3.4788178234565548,-9.449284251143292,0.1963173470846037,1.2052582531440548,5.879099776105183,0.4268739281631097,-4.543397484756097,-5.178498058784299,-12.52932664824695,-5.52487054556107,-6.39070846688034,2.8341139019710444,-13.62374974562475,0.7622165908803841,-80.59560967878276,33.41201665318837,36.52700152754066,39.21068080390571,1577395805.0,-27.690441551595608,-51.12509607028059,5.8168592
37520,1577395805.62,-0.1211699620688833,0.2692016988614701,13.361630699194931,1.8790979322479988,-3.636675531452458,6.660493833067359,0.9578558495498282,1.979771192299447,8.026707053579935,-0.1222563952934451,0.7435868426067074,2.210477503334604,0.2592133312690549,6.367381026105183,2.532586818788109,0.8582138433689026,1.2912285037157012,-6.486846179496951,-3.8756554573338846,-7.486258489774114,2.47984966422466,-13.62374974562475,0.7622165908803841,-80.59560967878276,33.36409380896756,36.57492437176146,39.35444933656812,1577395805.0,-27.690441551595608,-51.12509607028059,5.8168592
37521,1577395805.63,1.1980351526772102,-3.7386918802400912,10.360498918189071,0.5886232374237801,-0.8258827824290204,7.254255844786108,-4.429097885801734,4.426645288979135,10.662723081411968,-16.113467332793444,3.932673756669208,2.775052698647104,-2.517886278105945,-3.154103348894817,2.441034084413109,4.154112280868903,4.251433581840701,6.544159679878049,-4.287959229390681,-7.394962654532966,2.5684157236612544,-13.62374974562475,5.335516136162689,-80.59560967878276,33.29220954263636,36.57492437176146,39.30652649234732,1577395805.0,-27.690441551595608,-51.12509607028059,5.8168592
37522,1577395805.64,1.655327669767054,0.975491188607564,12.552390538062118,1.2673794080780771,-2.105583569782536,9.739437168028296,-0.5181694739364997,-5.210016393149771,12.949185666861185,-4.059023973418445,1.6896317644817074,2.179959925209604,-2.716250535918445,3.285105635480183,3.234491115663109,-1.4153457269435974,8.0508720584032,-1.0241996951219514,-4.205498474979322,-6.39070846688034,1.4170569509855149,-13.565960775335778,1.6768764999368455,-24.14467631727247,33.41201665318837,36.62284721598228,39.1148351154641,1577395805.0,-27.690441551595608,-51.12509607028059,5.8168592
37523,1577395805.65,0.5300528894936165,-1.4713829080721226,14.984899424780869,-1.365045317263719,-0.5337901798899579,10.80964531011814,5.602607070252953,14.130344617592415,14.163045908560404,-5.218691942168445,4.008967701981708,1.5696083627096038,0.7780121593940549,-1.8418474895198167,3.387079006288109,15.293028296493905,0.3146660037157012,4.194306164253049,-3.3808909308657284,-7.303666819291819,2.6569817830978484,-13.161437983312986,-4.420856227106227,-0.3400658636235519,33.41201665318837,36.57492437176146,39.30652649234732,1577395805.0,-27.690441551595608,-51.12509607028059,5.8168592
37524,1577395805.66,1.0208642298256478,2.483838234506002,10.273110557593368,-1.2573062425566877,6.42615404618426,13.965203098204077,-0.0357378394150145,-4.697657237876332,13.430420200552591,6.042294385956555,4.710871998856708,2.424100550209604,-3.433413621855945,4.261668135480183,2.502069240663109,-2.407167016006097,2.9696953005907014,9.10763624237805,-3.3808909308657284,-6.573300137362635,3.0112460208442324,-13.62374974562475,-3.5061963180497666,2.3804610453648936,33.31617096474676,36.479078683319855,39.21068080390571,1577395805.0,-27.690441551595608,-51.12509607028059,5.8168592
37525,1577395805.67,-0.6670479405845083,0.4906653524259242,8.666601243628525,5.573351093869093,-2.068473444050114,9.3779127173447,-0.7803345557236083,-9.038344847739614,12.034600632681498,4.913143995331557,8.968074147294208,1.4780556283346038,-0.1680327624809451,15.400584151105184,0.0606629906631097,-6.954286156631097,-0.0210273556592987,4.316376476753049,-3.3808909308657284,-6.573300137362635,3.0112460208442324,-13.62374974562475,-3.5061963180497666,2.3804610453648936,33.24428669841555,36.57492437176146,39.1148351154641,1577395805.0,-27.690441551595608,-51.12509607028059,5.8168592
37526,1577395805.68,-0.7388739903891959,-2.977335752310404,4.790388755835556,-1.9408508165312968,-0.5110452641184742,7.412273154356421,-0.4810593482040778,-0.2540189566263336,11.992702103628764,-10.559268114043444,7.243830983231708,2.546170862709604,0.9153412609565548,-1.8418474895198167,3.081903225038109,-3.414247094131097,-14.3337714962843,-4.426909656059451,-4.370419983802041,-7.668850160256409,2.3027175453514714,-13.392593864468866,-3.81108295440192,-0.6801317272471123,33.31617096474676,36.62284721598228,39.18671938179531,1577395805.0,-27.690441551595608,-51.12509607028059,5.8168592
37527,1577395805.69,0.956220785001429,1.4327837056974086,7.268387474097275,1.371527180294874,-0.2536685856516766,11.827181015684546,-0.7061143042587645,3.217573450600228,13.835040281118998,3.1126068859565548,0.8351395769817074,1.3865028939596038,0.8695648937690549,8.137400557355184,2.257928615663109,-8.388612328506097,-28.0361640744093,0.1049506955030487,-2.556283386752138,-7.121075148809524,2.47984966422466,-13.277015923890923,-4.420856227106227,-3.0605927726120044,33.22032527630515,36.52700152754066,39.21068080390571,1577395805.0,-27.690441551595608,-51.12509607028059,5.8168592
37528,1577395805.7,0.1685284388100228,0.5780537130216263,7.586816294898056,1.8431849073456552,-4.575202582233708,9.547901035215794,3.304173476502953,6.116951661049447,10.689059299673684,11.413388135956556,-8.838932688643293,0.3794228158346037,1.5409516125190548,9.632761885480184,0.2742860375381097,-7.045838891006097,-31.4236152462843,10.35885694550305,-4.040576966156604,-6.573300137362635,1.5941890698587031,-13.277015923890923,-4.420856227106227,-23.46454459002536,33.36409380896756,36.479078683319855,39.35444933656812,1577395805.0,-27.690441551595608,-51.12509607028059,5.8168592
37529,1577395805.71,-1.2153201207602895,-2.67327214147056,13.7135783432379,-1.7529059862090313,-3.1841714176829266,10.110538425352514,1.5468294579482655,-4.077559007895864,2.1680955911775923,-8.468814012480944,6.725032155106708,2.485135706459604,-3.433413621855945,-2.238576005144817,3.478631740663109,-7.106874047256097,-8.2912910275343,16.98117139862805,-4.040576966156604,-6.573300137362635,1.5941890698587031,-13.508171805046809,-4.420856227106227,-23.46454459002536,33.36409380896757,36.71869290442388,39.35444933656812,1577395805.0,-27.690441551595608,-51.12509607028059,5.8168592
37530,1577395805.72,1.6313856531654916,2.09597756556069,8.74082149509337,0.6173536573456557,1.5168435420338695,11.76732597418064,2.777449111268578,3.2367270638814785,9.05860796910728,2.7463959484565548,3.703791920731707,1.844266565834604,-1.632876512480945,7.816965987042684,0.9609315453506098,6.412413062118904,17.1298515505907,9.50436475800305,-3.5458124396884485,-8.216625171703297,2.47984966422466,-13.363699379324384,-3.1250880226095745,-19.21372129473091,33.41201665318837,36.57492437176146,39.25860364812651,1577395805.0,-27.690441551595608,-51.12509607028059,5.8168592
37531,1577395805.73,1.0950844812904916,4.617071913705221,13.830894224585556,2.4273701124237803,1.0751133357350409,7.938997519590796,-5.207213425352515,-13.608875816977896,13.224518857779154,12.389950635956556,-4.139225657393292,-0.5361045279153963,-3.006167528105945,7.588084151105183,-0.4581358374618902,1.8042587652439024,21.3717949099657,3.9501655392530486,-5.195027527915633,-6.39070846688034,2.47984966422466,-13.62374974562475,-3.2013096816976128,-13.942700408565791,33.36409380896756,36.38323299487824,39.30652649234732,1577395805.0,-27.690441551595608,-51.12509607028059,5.8168592
37532,1577395805.74,0.190076253751429,0.6355145528653764,12.439863060034774,-0.2325879320098126,2.1644750911061346,10.725848252012671,-0.050103049375952,-3.0456580923685204,10.95481568395103,-0.3358794421684451,5.046565358231708,0.5320107064596037,-1.7549468249809452,3.987009932355183,0.8236024437881098,-2.742860375381097,6.051970691215701,-11.12551805449695,-4.040576966156604,-6.573300137362635,3.0112460208442324,-13.62374974562475,0.457329954528231,-26.185071499013805,33.31617096474676,36.57492437176146,39.35444933656812,1577395805.0,-27.690441551595608,-51.12509607028059,5.8168592
37533,1577395805.75,1.3345046473061164,-1.8436812662264197,6.699764579810166,3.240201576046827,-0.2572598881419115,10.230248508360328,1.3361397118545155,1.520084473549448,11.505482065786966,-2.304263231230945,16.689021412919207,1.6306435189596038,-2.121157762480945,3.925974776105183,3.417596584413109,2.582457007431404,5.2890312380907005,-3.618193835746952,-4.700263001447477,-7.303666819291819,2.6569817830978484,-13.392593864468868,-0.1524433181760765,-26.185071499013805,33.29220954263636,36.550962949651066,39.23464222601611,1577395805.0,-27.690441551595608,-51.12509607028059,5.8168592
37534,1577395805.76,-1.7492270909751333,1.7129052999356895,9.4997834213629,-1.9276827074004372,0.6657048518483222,11.961256308653295,0.7639255150771719,-5.154949754966177,8.31161705113853,2.4412201672065548,7.182795826981708,1.2949501595846038,-0.6563140124809451,-1.9944353801448167,-0.0919248999618902,-6.221864281631097,-6.368683605659299,-16.89334032012195,-4.040576966156604,-7.668850160256409,3.0112460208442324,-13.392593864468866,0.457329954528231,-24.824808044519585,33.36409380896756,36.52700152754066,39.16275795968491,1577395805.0,-27.690441551595608,-51.12509607028059,5.8168592
37535,1577395805.77,-2.7380323766196644,-0.5280674539705601,6.959535459937119,-2.054575395388719,-1.082062360065739,13.167933945372043,-1.678160178282202,12.20540648282679,12.539777182974468,-0.3358794421684451,4.893977467606708,1.966336878334604,0.9000824718940549,1.5761212604801829,-0.3971006812118902,1.7737411871189026,-12.5942695431593,0.8984077267530487,-4.370419983802041,-7.303666819291819,1.9484533076050947,-13.161437983312986,-4.115969590754073,-24.824808044519585,33.17240243208434,36.52700152754066,39.35444933656812,1577395805.0,-27.690441551595608,-51.12509607028059,5.8168592
37536,1577395805.78,-1.8461922582114612,-2.2255564310213414,9.63385871433165,-1.5206684251738751,-3.1219221745188643,9.679582126524387,0.1725577050185782,0.1721489388814784,10.272468210806498,-11.322207567168444,-2.414982493330793,1.1881386361471038,1.0526703625190548,-3.032033036394817,3.8753602562881095,5.100157202743903,-12.2280586056593,10.87765577362805,-3.5458124396884485,-7.66885016025641,1.771321188731899,-13.045860042735043,-4.420856227106227,-26.185071499013805,33.36409380896756,36.67077006020308,39.30652649234732,1577395805.0,-27.690441551595608,-51.12509607028059,5.8168592
37537,1577395805.79,-1.478682303377477,1.303496816048971,8.072839231909775,-3.251676225466844,-0.07290636030988,11.435729044249,-0.8988475379013426,-1.3146502920755525,5.385902622427592,6.133847120331555,1.5675614519817074,1.6916786752096038,2.4259613781440548,-2.681080887957317,1.5102479516006095,-2.147767601943597,-0.9518134884717986,6.3915717892530495,-3.5458124396884485,-6.39070846688034,2.125585426478283,-12.81470416157916,-2.743979727169382,-23.124478726401804,33.17240243208434,36.57492437176146,39.35444933656812,1577395805.0,-27.690441551595608,-51.12509607028059,5.8168592
37538,1577395805.8,-0.3988973546470084,-4.088245322622903,8.645053428687119,0.0523220655487801,0.0527892268483223,4.256715366270484,0.3377576195693594,3.5264254647603845,10.250920395865093,5.859188917206555,-5.390446360518292,2.637723597084604,0.8085297375190549,2.857859541730183,0.0301454125381097,6.198790015243903,7.211638659965701,7.123993664253049,-4.370419983802041,-7.668850160256409,1.5941890698587031,-13.508171805046809,-2.896423045345459,-20.74401768103691,33.31617096474676,36.52700152754066,39.21068080390571,1577395805.0,-27.690441551595608,-51.12509607028059,5.8168592
37539,1577395805.81,1.0639598597084603,1.0544998433927202,13.761462376441024,-3.4527891649199685,3.512410625774104,9.195953391172829,-0.7779403540634521,0.9311108651510096,8.146417136587749,5.523495557831555,-15.735905344893292,0.0742470345846036,-2.823062059355945,-4.405324052019817,5.2181336937881095,3.574278296493903,3.610564441215701,2.6379096798780486,-3.0510479132202923,-6.573300137362635,2.3027175453514714,-13.62374974562475,-1.981763136288998,-25.504939771766697,33.41201665318837,36.479078683319855,39.1148351154641,1577395805.0,-27.690441551595608,-51.12509607028059,5.8168592
37540,1577395805.82,0.5073079737221322,0.0992133809903774,10.943487022437118,1.172808442501905,-1.079668158405583,8.257426340391577,-0.7851229590439208,-2.415983055747427,7.705884031118998,3.997616651581555,1.826960866044208,1.6459023080221038,1.2662934093940548,2.705271651105183,1.0982606469131098,3.848936499618903,6.509734363090701,4.011200695503049,-3.3808909308657293,-7.851441830738704,1.9484533076050876,-13.508171805046809,-4.115969590754073,-22.784412862778247,33.31617096474676,36.57492437176146,39.45029502500974,1577395805.0,-27.690441551595608,-51.12509607028059,5.8168592
37541,1577395805.83,0.9586149866615852,0.6666391744474077,9.056856114233996,-0.0003503709746568,0.323334014445979,10.021952963926733,1.0931282433486569,-0.828627355063833,9.199865867056497,10.711483839081556,1.903254811356708,2.118924768959604,0.6559418468940548,-0.1328631145198171,3.203973537538109,3.971006812118903,8.2644951052782,-0.5054008669969514,-4.370419983802041,-6.938483478327226,2.3027175453514714,-13.392593864468866,-3.0488663635215354,-20.0638859537898,33.36409380896756,36.38323299487825,39.28256507023691,1577395805.0,-27.690441551595608,-51.12509607028059,5.8168592
37542,1577395805.84,2.2371186731850226,1.320256227670065,10.275504759253526,4.55342118664253,-0.3805612736399579,10.203912290098607,-2.504159751036109,-7.223539989341177,10.310775437368996,5.767636182831555,-0.3855635480182927,0.8066689095846037,-1.1140776843559452,11.768992354230184,1.0677430687881098,-0.4540420160060974,6.753874988090701,-7.738066882621951,-4.700263001447477,-6.573300137362635,1.2399248321123264,-13.277015923890923,-1.981763136288998,-17.343359044801353,33.17240243208434,36.57492437176146,39.498217869230544,1577395805.0,-27.690441551595608,-51.12509607028059,5.8168592
37543,1577395805.85,-0.2432742467368521,-0.1641488016268101,11.93229230808165,1.5486981031464364,-4.302263592975895,9.86393565435642,-3.299034702207984,-1.4822444082864892,10.60286803990806,6.042294385956555,5.901057545731708,2.271512659584604,-4.348940965605945,2.644236494855183,1.6170594750381098,-2.559754906631097,10.3854667849657,-2.6721489138719514,-4.205498474979322,-8.58180851266789,1.7713211887318916,-13.62374974562475,-3.2013096816976128,-90.79758558748944,33.36409380896756,36.57492437176146,39.16275795968491,1577395805.0,-27.690441551595608,-51.12509607028059,5.8168592
37544,1577395805.86,-1.226094028230993,-3.354422513785013,12.910323686255476,-1.1735091844512189,-1.5058360539133953,14.482350656797829,1.9658147484756088,-1.192546007407583,14.447955906118995,-11.551089403105944,14.110286061356708,2.332547815834604,-0.3206206531059451,-3.856007645769817,1.7391297875381098,-0.9118056878810974,1.1996757693407012,-1.6345512576219514,-4.040576966156603,-6.573300137362635,1.9484533076050912,-12.58354828042328,0.457329954528231,-91.47771731473654,33.36409380896756,36.52700152754066,39.21068080390571,1577395805.0,-27.690441551595608,-51.12509607028059,5.8168592
37545,1577395805.87,-0.971111551424352,1.5285517721036586,8.71448527683165,0.0499278638886245,-0.3410569462473803,7.293760172178687,0.8836355980849843,5.685995362221322,8.351121378531108,-3.692813035918445,6.267268483231708,1.2033974252096038,1.617245557831555,7.267649580792683,1.968011623475609,9.296324194931405,5.8993828005907005,1.8139350705030488,-4.535341492624759,-5.660341784951156,2.8341139019710444,-12.641337250712253,-0.3048866363521528,-89.09725626937166,33.31617096474676,36.59888579387187,39.30652649234732,1577395805.0,-27.690441551595608,-51.12509607028059,5.8168592
37546,1577395805.88,1.0400178431068978,3.218858144173971,9.9594701401129,-0.4528544847441876,5.695922539836604,9.464103977110328,2.8660345726943595,6.476081910072884,4.509624814810405,14.953427198456556,7.915217701981708,1.813748987709604,-7.980532762480945,2.125437666730183,3.203973537538109,10.379698218368905,16.2143242068407,13.07492139862805,-3.3808909308657284,-7.303666819291819,3.0112460208442324,-12.699126221001222,-0.7622165908803841,-80.59560967878276,33.65163087429239,36.52700152754066,39.01898942702249,1577395805.0,-27.690441551595608,-51.12509607028059,5.8168592
37547,1577395805.89,2.2802143030678352,4.248364858041159,7.7759582260504,-0.7425528856230939,5.932948504192073,6.828087949278296,-1.9439165625595456,-13.572962792075552,6.946922104849467,16.845517042206556,-3.925602610518293,0.0437294564596036,0.4423188000190549,9.937937666730184,2.654657131288109,-2.132508812881097,9.7445976443407,-6.059600085746951,-4.535341492624759,-6.39070846688034,2.8341139019710444,-13.62374974562475,1.0671032272325378,-80.59560967878276,33.22032527630515,36.479078683319855,39.21068080390571,1577395805.0,-27.690441551595608,-51.12509607028059,5.8168592
37548,1577395805.9,1.3357017481361948,-4.146903263296732,5.80313605808165,3.3718826673554205,-3.0129859989817547,7.160881980040015,3.531622634217797,8.146037568031868,8.561811124624857,12.557797315644056,5.199153248856708,1.0660683236471038,0.1066254406440548,6.046946455792684,3.448114162538109,6.549742163681404,7.3947441287157,-11.85793992949695,-4.617802247036118,-6.482004302121487,2.391283604788062,-13.277015923890923,0.3048866363521541,-85.35653176951254,33.24428669841555,36.50304010543026,39.25860364812651,1577395805.0,-27.690441551595608,-51.12509607028059,5.8168592
37549,1577395805.91,-1.105186844393102,-0.5065196390291539,11.23557962497618,-0.5198921312285626,2.753448699504573,18.59798331060642,0.4431024926162344,-4.558793541587271,10.36105367223228,-15.930361864043444,14.232356373856708,2.515653284584604,-1.7549468249809452,-5.381886552019817,2.288446193788109,7.785704077743903,17.8927910037157,11.51852491425305,-4.535341492624759,-6.75589180784493,1.7713211887318916,-13.62374974562475,-0.7622165908803841,-80.59560967878276,33.36409380896756,36.57492437176146,39.21068080390571,1577395805.0,-27.690441551595608,-51.12509607028059,5.8168592
37550,1577395805.92,-3.195324893709508,1.550099587045065,12.53323692478087,-2.796777910037156,-1.7835634464915202,13.443267136290014,0.5747835839248282,1.153771619545541,7.765739072622904,-8.209414598418444,14.812190358231708,3.675321253334604,4.623227003144055,8.717234541730184,0.2742860375381097,7.236387671493903,17.3434745974657,8.25314405487805,-4.535341492624759,-6.75589180784493,1.7713211887318916,-13.392593864468866,-1.981763136288998,-22.784412862778247,33.41201665318837,36.57492437176146,39.30652649234732,1577395805.0,-27.690441551595608,-51.12509607028059,5.8168592
37551,1577395805.93,0.7227861231361946,-1.8424841653963413,11.233185423316025,1.68037919445503,-1.5154128605540202,11.175958164122044,2.348887014100609,1.915127747475228,12.582872812857278,-6.942935106230944,-1.4841963605182928,1.4780556283346038,2.2428559093940548,9.113963057355184,5.3402040062881095,7.083799780868903,10.4159843630907,6.513642101753049,-3.545812439688447,-6.755891807844934,2.3027175453514714,-13.62374974562475,-2.591536408993305,-3.740724499859112,33.41201665318837,36.67077006020308,39.21068080390571,1577395805.0,-27.690441551595608,-51.12509607028059,5.8168592
37552,1577395805.94,0.4989282679115853,2.634672939095846,10.435916270483991,0.3599769788788587,0.6956323726002753,9.102579526426734,-1.6518239600204836,-4.135019847739614,13.47710713292564,19.98882758908156,3.398616139481707,0.5320107064596037,0.5033539562690549,4.673655440167683,2.990350490663109,-0.2099013910060972,4.968596667778201,-3.2977592654344514,-5.195027527915633,-8.216625171703297,2.125585426478283,-13.62374974562475,-2.439093090817228,-4.080790363482668,33.31617096474676,36.28738730643664,39.42633360289933,1577395805.0,-27.690441551595608,-51.12509607028059,5.8168592
37553,1577395805.95,1.5332233850990853,-0.6262297220369663,10.122275853003526,0.2941364332245613,0.1413746882741035,9.911819687559548,2.5763361718154534,6.38989065030726,6.796087400259624,5.157284620331555,0.4078934832317073,3.248075159584604,4.348568800019055,6.794627119855183,2.868280178163109,12.607481421493905,12.3385917849657,0.8373725705030487,-5.195027527915633,-8.216625171703297,2.125585426478283,-13.62374974562475,-2.286649772641151,-4.420856227106225,33.41201665318837,36.86246143708629,39.35444933656812,1577395805.0,-27.690441551595608,-51.12509607028059,5.8168592
37554,1577395805.96,-0.3366481114829459,0.5684769063810013,8.448728892554307,-0.4145472581816876,-0.0860744694407392,6.866395175840796,-3.3229767188095463,-4.659350011313832,9.642793174185403,8.422665479706556,9.532649342606708,2.790311487709604,0.5033539562690549,3.773386885480183,5.4012391625381095,6.107237280868903,13.8644706912157,1.6918647580030486,-5.195027527915633,-8.216625171703297,2.125585426478283,-13.508171805046809,-3.2013096816976128,-1.0201975908706655,33.41201665318837,36.33531015065744,39.21068080390571,1577395805.0,-27.690441551595608,-51.12509607028059,5.8168592
37555,1577395805.97,-0.2636249608481807,-0.4107515726229043,8.135088475073838,1.18238524914253,-0.6080104313548017,9.138492551329076,3.2131938134170155,2.621417237221322,13.277191294302591,-1.403994676543445,9.090144459794208,1.5848671517721038,4.562191846894055,2.033884932355183,1.3729188500381098,5.771543921493903,-0.0515449337842987,-2.1228325076219514,-3.8756554573338855,-7.121075148809522,1.5941890698587031,-13.62374974562475,-4.420856227106227,-22.784412862778247,33.36409380896757,36.52700152754066,39.30652649234732,1577395805.0,-27.690441551595608,-51.12509607028059,5.8168592
