,timestamp,acc_x_dashboard,acc_y_dashboard,acc_z_dashboard,acc_x_above_suspension,acc_y_above_suspension,acc_z_above_suspension,acc_x_below_suspension,acc_y_below_suspension,acc_z_below_suspension,gyro_x_dashboard,gyro_y_dashboard,gyro_z_dashboard,gyro_x_above_suspension,gyro_y_above_suspension,gyro_z_above_suspension,gyro_x_below_suspension,gyro_y_below_suspension,gyro_z_below_suspension,mag_x_dashboard,mag_y_dashboard,mag_z_dashboard,mag_x_above_suspension,mag_y_above_suspension,mag_z_above_suspension,temp_dashboard,temp_above_suspension,temp_below_suspension,timestamp_gps,latitude,longitude,speed
103263,1577398090.36,-0.3100783125714555,0.3245019176948355,8.104197434141577,-0.7527136438881478,-0.370254527468797,8.399268189965223,-0.6294470174153645,-1.4540784749348954,7.847223960367838,-2.6323271960746952,3.987382097942073,-0.1570538776676828,-2.104038145483994,1.7034018911966462,0.9332052091272868,-2.0960853213355657,-19.44369361514137,0.0746590750558036,-9.927575741710912,-26.208508470695968,0.1364808879392175,-26.41132539335664,-42.29487058080808,-2.4654190878847912,30.05741755773205,34.89762482403331,34.370473537604454,1577398089.999,-27.689463659644645,-51.11520666261237,16.084776
103264,1577398090.37,-0.4752782271222368,0.2263396496284292,9.476074985411108,0.3845321446860709,-1.4105351488066875,8.557285499535537,-0.7228208821614577,-0.1875457967122392,8.061505008951823,-4.249758836699695,3.3465129573170733,-0.1265362995426828,-3.416294004858994,4.800936070884147,1.4214864591272869,-2.1876380557105657,-21.09164283389137,2.7754647391183034,-10.322703134415825,-25.56927655677656,1.774251543209873,-10.73855198620824,-50.327016829621,-7.167163233531377,29.67403480396561,34.8017791355917,34.03501362805883,1577398089.999,-27.689463659644645,-51.11520666261237,16.084776
103265,1577398090.38,-0.2526174727277055,-0.475161436797351,9.382701120665011,0.1379293736899771,1.0339447462128426,9.682560279808971,-0.7395802937825514,-1.700681245930989,8.952148026529947,-4.493899461699695,3.651688738567073,-0.4317120807926828,-2.409213926733994,-1.8824135384908536,1.6045919278772869,-1.7603919619605657,-19.87093970889137,3.5384041922433034,-9.73001204535846,-26.208508470695968,1.774251543209873,-27.4561769538332,-50.327016829621,-33.61447405279342,29.67403480396561,34.562164914487674,34.70593344715009,1577398089.999,-27.689463659644645,-51.11520666261237,16.084776
103266,1577398090.39,-0.1317102888898154,0.290983094452648,9.80767191534275,-1.0687482630287728,-0.5941123826934064,8.935569361840223,-0.5217079427083327,1.4261461222330722,9.119742142740884,-2.9527617663871952,3.697465105754573,0.1481219035823171,-4.636997129858994,6.265779820884147,0.9637227872522868,-3.1642005557105657,-20.05404517764137,2.6228768484933034,-10.816612375296966,-24.610428685897435,1.5012897673314385,-27.4561769538332,-45.21565103492186,-34.78991008920506,29.93761044718004,34.8017791355917,34.61008775870848,1577398089.999,-27.689463659644645,-51.11520666261237,16.084776
103267,1577398090.4,-0.0036205000714555,-0.2692600940239135,7.85998886480564,0.2157409276450557,-0.2505444444609845,8.216111762963271,0.1498656229654949,0.3367843668619785,9.168823276774086,-4.951663133574695,3.2244426448170733,0.0260515910823171,-4.957431700171494,5.380770055259147,1.2536397794397869,-2.8895423525855657,-14.83553931826637,0.6392342703683036,-9.73001204535846,-24.29081272893773,0.6824044396960991,-27.19496406371407,-48.8666266025641,-34.20219207099924,29.67403480396561,34.753856291370894,34.753856291370894,1577398089.999,-27.689463659644645,-51.11520666261237,16.084776
103268,1577398090.41,0.0275041215105746,-0.3195383288871948,7.156093576719703,-0.3337283533608041,-0.5917181810332501,7.901274244652724,-0.0955400472005202,-2.5003446004231766,8.825255338541666,-5.256838914824695,2.7361613948170733,0.1176043254573171,-3.629917051733994,1.2303794302591464,1.5130391935022869,-4.110245477585566,-5.008879162016369,2.3177010672433034,-10.12513943806337,-27.486972298534795,0.1364808879392175,-24.844048052641806,-38.64389501316584,-5.991727197119726,29.817803336628028,34.70593344715009,34.753856291370894,1577398089.999,-27.689463659644645,-51.11520666261237,16.084776
103269,1577398090.42,0.2669242875261997,-0.350662950469226,7.970122141172827,-0.8245396936928353,0.1097829053925301,6.469541651879287,0.4383669230143225,0.0590569742838535,7.142131571451823,-4.249758836699695,2.4920207698170733,0.0260515910823171,-3.446811582983994,1.5050376333841464,1.6961446622522869,-3.5609290713355657,-6.199064708891369,0.6392342703683036,-10.520266830768282,-22.37311698717949,0.6824044396960991,-25.49708027793965,-37.54860234287317,-2.318489583333339,29.86572618084883,34.8017791355917,34.8017791355917,1577398089.999,-27.689463659644645,-51.11520666261237,16.084776
103270,1577398090.43,0.1136953812762001,0.2838004894721797,9.070257804014624,0.4276277745688834,-0.7329760789824689,10.13745859523866,0.60596103922526,0.379879996744791,7.867574674479166,-3.7462187976371952,3.3770305354420733,0.4075213176448171,-3.385776426733994,4.221102086509147,1.6351095060022869,-3.5914466494605657,-12.485685802641369,-0.7340567452566964,-10.717830527120736,-24.29081272893773,1.774251543209873,-25.627686722999226,-38.64389501316584,-2.4654190878847912,29.96157186929044,34.61008775870848,34.94554766825411,1577398089.999,-27.689463659644645,-51.11520666261237,16.084776
103271,1577398090.44,-0.3124725142316118,0.2215512463081167,9.164828769590796,-0.2978153284584603,-0.4097588548613751,8.059291554223037,-0.5791687825520833,-1.1464235616048173,9.081434916178384,-4.280276414824695,2.7361613948170733,-0.0960187214176828,-4.774326231421494,0.2232993521341463,1.5588155606897869,-4.018692743210566,-15.70529029482887,1.5089852469308034,-10.12513943806337,-24.93004464285714,0.6824044396960991,-26.80314472853535,-44.1203583646292,-31.704390493624484,29.72195764818641,34.753856291370894,34.58612633659808,1577398089.999,-27.689463659644645,-51.11520666261237,16.084776
103272,1577398090.45,-1.0474924238995806,-0.4536136218559448,9.21271280279392,-1.9689680872475228,0.0882350904511238,10.230832459984756,-0.4594586995442701,-0.0750183186848955,10.084605411783851,-5.958743211699695,2.1258098323170733,0.1176043254573171,-3.324741270483994,1.7796958365091464,1.9402852872522869,-4.629044305710566,-10.135832287016369,2.3787362234933034,-10.223921286239596,-25.88889251373626,0.4094426638176527,-26.280718948297075,-49.96191927285677,-31.704390493624484,29.86572618084883,34.89762482403331,34.562164914487674,1577398089.999,-27.689463659644645,-51.11520666261237,16.084776
103273,1577398090.46,-1.1432604903058303,-0.4129121936332885,10.031529770567358,0.2791872716391959,-0.1823096971465313,7.647488868676161,-1.1298351643880202,0.829989908854166,10.077422806803384,-4.615969774199695,1.637528582317073,0.4532976848323171,-3.294223692358994,1.9933188833841464,2.2149434903772867,-4.140763055710566,-6.443205333891369,2.7144295828683034,-10.12513943806337,-23.012348901098896,0.1364808879392175,-27.32557050877363,-49.23172415932832,-33.46754454824197,29.86572618084883,34.993470512474914,34.70593344715009,1577398089.999,-27.689463659644645,-51.11520666261237,16.084776
103274,1577398090.47,-0.4573217146710649,-0.4512194201957885,8.925408603575171,-0.5288557886635384,-0.6551645250273912,10.016551411400773,0.2827438151041662,0.9425173868815104,9.802089615885414,-4.020877000762195,1.973221941692073,0.4990740520198171,-3.538364317358994,-0.8905922494283538,2.1691671231897867,-3.8355872744605657,-1.041594005766369,1.9820077078683036,-9.433666500829776,-25.24966059981685,0.9553662155745456,-26.737841506005573,-41.38212668889752,-5.918262444844,29.96157186929044,34.7778177134813,34.72989486926049,1577398089.999,-27.689463659644645,-51.11520666261237,16.084776
103275,1577398090.48,-0.4130289839581743,-0.226164464141101,9.950126914122048,-0.304997933438929,-0.8909933885527813,7.779169959984755,0.1678221354166663,-0.0175574788411455,7.798142826334635,-3.1206084460746952,1.668046160442073,0.9720965129573172,-5.644077207983994,6.937166539634147,1.9097677091272869,-3.0421302432105657,-3.147306896391369,2.0125252859933034,-10.12513943806337,-23.012348901098896,1.774251543209873,-25.36647383288008,-32.80233410493827,-7.167163233531377,29.817803336628028,34.94554766825411,34.46631922604607,1577398089.999,-27.689463659644645,-51.11520666261237,16.084776
103276,1577398090.49,-0.3675391524152055,-0.4512194201957885,8.633316001036109,-0.6162441492592415,-0.0147155809355938,10.50855985256288,-0.9382990315755202,-0.0199516805013017,8.959330631510417,-4.860110399199695,1.729081316692073,0.5143328410823171,0.0321923232660061,-2.401212366615854,1.4825216153772869,-3.2557532900855657,-3.635588146391369,0.9138924734933036,-9.73001204535846,-24.29081272893773,0.1364808879392175,-25.36647383288008,-48.8666266025641,-7.167163233531377,29.86572618084883,34.94554766825411,34.562164914487674,1577398089.999,-27.689463659644645,-51.11520666261237,16.084776
103277,1577398090.5,-0.1556523054913774,-0.4392484118950072,9.265385239317355,-0.0895197840248656,-0.5605935594512189,8.976270790062879,-0.3301718098958326,-2.464431575520833,11.20988019205729,-3.4715605945121952,1.729081316692073,0.7432146770198171,-1.6767920517339938,0.8946860708841463,2.1844259122522867,-4.323868524460566,3.261384509858631,2.6839120047433034,-10.372094058503938,-26.048700492216117,0.5459235517568758,-27.4561769538332,-50.327016829621,-7.167163233531377,29.96157186929044,34.70593344715009,34.70593344715009,1577398089.999,-27.689463659644645,-51.11520666261237,16.084776
103278,1577398090.51,-0.7123041914777056,-0.2884137073051635,10.677964218809546,-0.1733168421303353,0.0008467298554212,10.97423207546327,-0.9143570149739576,1.2549607035319004,10.48204288736979,-1.8999053210746952,1.973221941692073,0.9110613567073172,-4.179233457983994,1.8407309927591464,1.2383809903772869,-3.5151527041480657,10.951814197358631,1.4784676688058034,-10.421484982592052,-25.88889251373626,-0.1364808879392288,-24.844048052641806,-50.327016829621,-21.12546616591968,30.009494713511245,34.8257405577021,34.65801060292928,1577398089.999,-27.689463659644645,-51.11520666261237,16.084776
103279,1577398090.52,-0.3100783125714555,-0.3650281604301635,9.624515488340794,-1.1549395227943977,-0.9101470018340314,10.024931117211318,0.51019297281901,-0.3503515096028642,10.058269193522134,-2.2661162585746952,2.1258098323170733,0.5753679973323171,-1.0969580673589938,-0.6617104134908537,2.0928731778772867,-2.3707435244605657,13.362702869233631,1.859937395368304,-10.915394223473193,-28.12620421245421,2.866098646723648,-27.19496406371407,-47.406236375507206,-6.873304224428462,29.62611195974481,34.753856291370894,34.70593344715009,1577398089.999,-27.689463659644645,-51.11520666261237,16.084776
103280,1577398090.53,-0.391481169016768,-0.8127438708793823,9.581419858457982,-1.119026497892054,0.2342813917206551,11.277098585473036,-0.5767745808919265,2.2832703165690096,10.754981876627602,-2.6933623523246952,1.912186785442073,0.9415789348323172,-2.653354551733994,1.0167563833841464,1.4520040372522869,-1.8214271182105648,7.137116931733631,0.5781991141183036,-10.12513943806337,-26.208508470695968,0.1364808879392175,-26.933751173594928,-38.64389501316584,-7.167163233531377,29.72195764818641,34.8017791355917,34.61008775870848,1577398089.999,-27.689463659644645,-51.11520666261237,16.084776
103281,1577398090.54,-0.5255564619855181,-0.4308687060844604,10.290103549864234,1.4331924718345084,-0.3690574266387189,10.980217579613662,0.1438801188151038,-0.5658296590169267,10.71188624674479,-1.4726592273246952,2.4615031916920733,0.9110613567073172,-0.0288428329839938,4.739900914634147,1.7876973966272869,-1.7909095400855657,6.313142322358631,0.4866463797433036,-10.174530362151485,-25.72908453525641,1.6377706552706557,-26.80314472853536,-44.12035836462919,-2.318489583333339,29.91364902506964,34.562164914487674,34.70593344715009,1577398089.999,-27.689463659644645,-51.11520666261237,16.084776
103282,1577398090.55,-0.9493301558331744,-0.858233702422351,9.907031284239231,-0.6617339808022102,-0.619251500125047,9.306670619164445,-1.0077308797200517,1.4668475504557292,14.208617771402992,-0.7707549304496951,2.1563274104420733,1.0331316692073171,-2.043002989233994,0.8946860708841463,0.9179464200647868,-0.6159827822730655,26.40896751767113,1.0969979422433034,-10.520266830768282,-25.56927655677656,1.774251543209873,-25.88889961311837,-42.29487058080807,-18.18687607489056,30.009494713511245,34.8257405577021,34.63404918081888,1577398089.999,-27.689463659644645,-51.11520666261237,16.084776
103283,1577398090.56,-0.4633072188214555,-0.8989351306450072,9.854358847715796,0.5808566808188834,-0.0290807908965313,11.46624051662538,0.577230619303385,0.0853931925455722,12.739775052897134,-0.6181670398246951,2.1868449885670733,1.1552019817073171,-0.9748877548589938,0.4064048208841463,1.0857930997522869,-1.2110755557105657,41.74405052548363,-3.0228751046316966,-10.12513943806337,-23.65158081501832,1.774251543209873,-27.4561769538332,-35.72311455905206,-30.3820249526614,29.72195764818641,34.753856291370894,34.562164914487674,1577398089.999,-27.689463659644645,-51.11520666261237,16.084776
103284,1577398090.57,-0.5447100752667681,-0.0513877429496947,10.297286154844702,-1.128603304532679,-0.2900487718535626,11.51173034816835,-1.3812263387044266,-2.100512923177083,8.868350968424478,-0.6181670398246951,2.3089153010670733,0.9415789348323172,1.6801415420160062,1.7796958365091464,1.2994161466272869,-1.5467689150855657,41.16421654110863,0.0594002859933035,-10.02635758988714,-27.16735634157509,2.04721331908832,-27.19496406371407,-32.80233410493827,-34.49605108010214,29.86572618084883,34.753856291370894,34.46631922604607,1577398089.999,-27.689463659644645,-51.11520666261237,16.084776
103285,1577398090.58,-0.161637809641768,-0.791196055937976,10.059063089659157,-0.9370671717201792,-0.7664949022246563,10.762345228539443,-1.2184206258138013,0.5355031046549472,7.707163163248698,0.3126190929878048,2.3394328791920733,1.1857195598323171,2.198940370141006,2.817293492759146,1.1163106778772869,-0.1429603213355654,29.41494896298363,0.0288827078683035,-9.779402969446572,-26.04870049221612,-0.2729617758784464,-27.4561769538332,-32.80233410493827,-34.49605108010214,29.91364902506964,34.753856291370894,34.562164914487674,1577398089.999,-27.689463659644645,-51.11520666261237,16.084776
103286,1577398090.59,-1.100164860423018,-0.3961527820121948,10.455303464415016,-0.1433893213783822,-0.4971472154570787,10.056055738793347,-0.983788863118489,-1.2038844014485672,6.487317417399088,1.1518524914253048,2.5835735041920733,1.9181414348323167,0.0474511123285061,4.678865758384147,1.3451925138147869,0.7115318661644345,5.779084705171131,1.8599373953683036,-10.619048678944509,-26.52812442765568,-0.1364808879392288,-27.194964063714064,-44.485455921393424,-5.844797692568271,29.86572618084883,34.7778177134813,34.63404918081888,1577398089.999,-27.689463659644645,-51.11520666261237,16.084776
103287,1577398090.6,-0.8751099043683306,-0.0489935412895385,9.567054648497043,-0.6353977625404915,-1.0394338914824688,10.838959681664443,-0.5600151692708327,-0.3934471394856767,7.752652994791666,1.6096161633003048,2.6446086604420733,1.5519304973323171,0.1542626357660061,1.7491782583841464,0.1702657560022866,0.6504967099144345,-10.929289318266369,3.5994393484933034,-9.334884652653546,-25.56927655677656,1.774251543209873,-26.80314472853536,-49.96191927285677,-6.726374719877009,29.67403480396561,34.8017791355917,34.70593344715009,1577398089.999,-27.689463659644645,-51.11520666261237,16.084776
103288,1577398090.61,-1.4592951094464557,-0.6619091662895386,9.392277927305638,-1.5164639734779914,0.4162407178925301,8.837407093773816,-1.1944786092122388,0.6145117594401035,10.891451371256508,0.8771942883003049,1.759598894817073,1.9181414348323167,1.7106591201410062,1.8102134146341464,1.8792501310022869,2.3594810849144343,-10.013761974516369,3.1111580984933034,-10.12513943806337,-23.65158081501832,1.774251543209873,-25.23586738782051,-49.96191927285677,-6.726374719877009,29.817803336628028,34.70593344715009,34.993470512474914,1577398089.999,-27.689463659644645,-51.11520666261237,16.084776
103289,1577398090.62,-1.492813932688643,-0.6559236621391479,10.12011523199314,-1.272255404142054,-0.0721764207793444,10.550458381615616,-2.133005659993489,0.4852248697916664,11.397825022379555,1.9300507336128048,1.011918230754573,2.192799637957317,2.107387635766006,0.1927817740091463,0.9484639981897868,2.6341392880394343,-2.0181565057663686,2.1193368094308034,-9.927575741710914,-25.888892513736263,-0.1364808879392288,-25.03995772023116,-46.85859004036087,-31.777855245900213,29.79384191451762,34.72989486926049,34.63404918081888,1577398089.999,-27.689463659644645,-51.11520666261237,16.084776
103290,1577398090.63,-1.1504430952862994,-0.3267209338676635,11.518329001524387,0.0349787023032584,-1.183085991091844,9.37849666896913,-0.5863513875325514,-1.4852030965169265,11.377474308268228,3.1660126476753048,0.5083781916920732,2.681080887957317,4.548793885766006,3.214022008384146,1.9097677091272869,3.3360435849144343,5.061921619233631,4.453931535993304,-10.02635758988714,-24.610428685897435,-0.6824044396961103,-25.36647383288008,-34.26272433199516,-1.8777010696789656,29.72195764818641,34.70593344715009,34.753856291370894,1577398089.999,-27.689463659644645,-51.11520666261237,16.084776
103291,1577398090.64,-1.0522808272198931,-0.1064543811332885,10.38826581793064,-2.593854720548304,0.0020438306854988,10.654606153832413,-1.405168355305989,2.5011426676432293,9.107771134440105,3.2270478039253048,0.8135539729420732,2.864186356707317,5.159145448266006,-7.924894007240853,1.2383809903772869,4.526229131789434,3.871736072358631,3.5994393484933034,-10.02635758988714,-24.610428685897435,-0.6824044396961103,-25.36647383288008,-45.94584614845031,-4.2285731425022615,29.86572618084883,34.94554766825411,34.89762482403331,1577398089.999,-27.689463659644645,-51.11520666261237,16.084776
103292,1577398090.65,-0.7769476363019243,-0.0226573230278197,10.13208624029392,-1.2291597742592415,1.515179279904249,7.719314918480849,0.9196014567057288,1.8475256144205725,8.164455680338541,2.4641083508003048,0.2947551448170732,2.620045731707317,3.663784120141006,4.526277867759147,1.6656270841272869,4.068465459914434,-4.398527599516369,-0.9476797921316964,-10.915394223473193,-25.56927655677656,0.1364808879392175,-25.36647383288008,-47.406236375507206,-4.2285731425022615,29.86572618084883,34.8017791355917,34.46631922604607,1577398089.999,-27.689463659644645,-51.11520666261237,16.084776
103293,1577398090.66,-0.7290636030987994,-0.5410019824516479,9.367138809873998,-0.0679719690834603,-1.4093380479766096,9.890855824242568,-0.0871603413899738,-1.0506554951985678,10.95370061442057,2.3878144054878048,0.1421672541920732,2.864186356707317,4.579311463891006,-2.7369057259908534,2.0013204435022867,3.0613853817894343,-0.5075363885788691,3.828321184430804,-9.8781848176228,-23.172156879578758,0.5459235517568759,-24.97465449770138,-32.80233410493827,-16.717581029376,29.91364902506964,34.65801060292928,34.8257405577021,1577398089.999,-27.689463659644645,-51.11520666261237,16.084776
103294,1577398090.67,-0.8176490645245805,-0.5326222766411011,9.976463132383763,-1.6385682581459602,-0.4265182664824689,8.856560707055067,0.2252829752604163,-0.0534705037434892,10.304871964518227,4.325680616425305,0.3557903010670732,3.138844559832317,4.213100526391006,1.2303794302591464,1.3604513028772869,4.709334600539434,2.773103259858631,-0.5509512765066964,-9.927575741710912,-22.37311698717949,0.6824044396960991,-27.0643576186545,-34.627821888759385,-32.58596752093322,29.86572618084883,34.89762482403331,34.70593344715009,1577398089.999,-27.689463659644645,-51.11520666261237,16.084776
103295,1577398090.68,-1.1815677168683305,0.0348035168159292,11.159198752500952,-1.348869857267054,-0.9269064134551253,14.303369483910537,-1.5224842366536453,-3.115654427083333,10.223469108072916,5.210690382050305,0.9966594416920732,3.413502762957317,6.227260682641006,0.5284751333841463,2.3064962247522867,4.251570928664434,3.047761462983631,2.6228768484933034,-9.927575741710912,-22.37311698717949,0.6824044396960991,-27.0643576186545,-34.627821888759385,-32.58596752093322,29.86572618084883,34.89762482403331,34.70593344715009,1577398089.999,-27.689463659644645,-51.11520666261237,16.084776
103296,1577398090.69,-1.350358933909346,-0.1459587085258671,10.858726444151342,-0.0583951624428343,-0.5055269212676251,10.448704811058974,-0.9622410481770828,0.3272075602213535,9.21311600748698,3.9136933117378048,0.0048381526295732,3.276173661394817,4.548793885766006,-1.8213783822408536,2.0013204435022867,3.4581138974144343,1.155671619233631,4.728589739118304,-10.322703134415825,-25.24966059981685,0.1364808879392119,-27.4561769538332,-35.72311455905206,-7.167163233531377,29.91364902506964,34.70593344715009,34.70593344715009,1577398089.999,-27.689463659644645,-51.11520666261237,16.084776
103297,1577398090.7,-1.1312894820050494,-1.0330104236137572,10.680358420469702,-1.1776844385658822,-0.1380169664336412,10.655803254662487,-0.7431715962727858,-0.975238142903646,9.603370878092448,3.3491181164253048,0.1421672541920732,3.688160966082317,4.457241151391006,-0.4938637338033536,3.237282357564787,4.709334600539434,-2.323332287016369,3.3705575125558034,-10.02635758988714,-25.88889251373626,0.4094426638176527,-26.41132539335664,-43.75526080786497,-5.550938683465361,29.72195764818641,34.8497019798125,34.753856291370894,1577398089.999,-27.689463659644645,-51.11520666261237,16.084776
103298,1577398090.71,-1.330008219798018,-0.2405296741020385,10.756972873594702,-0.7934150721108041,-0.8838107835723126,11.272310182152724,-2.195254903157552,1.0143434366861972,10.529926920572915,4.783444288300305,-0.6207721989329268,4.206959794207317,6.990200135766006,-2.828458460365854,2.5201192716272867,4.861922491164434,-3.483000255766369,5.308423723493304,-10.02635758988714,-25.88889251373626,0.4094426638176527,-10.73855198620824,-35.72311455905206,-4.2285731425022615,30.15326324617366,34.8017791355917,35.08931620091653,1577398089.999,-27.689463659644645,-51.11520666261237,16.084776
103299,1577398090.72,-0.7386404097394244,0.942205946015148,9.995616745665014,-0.439073226407679,1.0554925611542487,11.971417066918349,-1.7906348225911453,-0.568223860677083,11.212274393717449,5.119137647675305,0.5388957698170732,4.237477372332317,4.060512635766006,1.6576255240091464,2.5811544278772867,4.983992803664434,-2.872648693266369,2.9280526297433034,-10.02635758988714,-25.88889251373626,0.4094426638176527,-10.73855198620824,-35.72311455905206,-4.2285731425022615,29.86572618084883,34.8017791355917,34.70593344715009,1577398089.999,-27.689463659644645,-51.11520666261237,16.084776
103300,1577398090.73,-0.7721592329816117,0.3747801525581167,10.091384812071263,-0.419919613126429,-0.6635442308379377,9.366525660668348,-0.7850701253255201,-1.2649365437825515,10.47486028238932,3.5779999523628048,0.4015666682545732,4.359547684832317,6.807094667016006,3.458162633384146,2.3370138028772867,4.098983038039434,0.0265212286086309,4.453931535993304,-9.433666500829773,-25.56927655677656,0.6824044396961104,-10.607945541148668,-32.43723654817404,-6.726374719877009,29.98553329140084,34.61008775870848,34.993470512474914,1577398089.999,-27.689463659644645,-51.11520666261237,16.084776
103301,1577398090.74,-0.7386404097394244,0.0443803234565542,9.674793723204075,-1.2076119593178352,0.3875102979706551,9.662209565697646,-1.156171382649739,0.0506772684733071,10.683155826822915,3.0439423351753048,0.3863078791920732,4.054371903582317,4.121547792016006,-0.0513588509908536,2.9626241544397867,4.144759405226934,0.6826491582961309,4.072461809430804,-10.223921286239596,-27.806588255494503,0.4094426638176527,-24.974654497701376,-47.04113881874298,-35.23069860285943,29.86572618084883,34.7778177134813,34.70593344715009,1577398089.999,-27.689463659644645,-51.11520666261237,16.084776
103302,1577398090.75,-1.2581821699933304,-0.4488252185356323,9.571843051817355,-1.3752060755287727,-1.2597004442168438,10.3816671645746,-1.500936421712239,-1.5450581380208328,9.414228946940105,3.9289521008003048,0.2947551448170732,4.329030106707317,7.661586854516006,0.4369223990091463,2.7642598966272867,4.587264288039434,-6.015959240141369,4.423413957868304,-10.223921286239596,-27.806588255494503,0.4094426638176527,-24.321622272403527,-48.8666266025641,-7.167163233531377,29.86572618084883,34.89762482403331,34.61008775870848,1577398089.999,-27.689463659644645,-51.11520666261237,16.084776
103303,1577398090.76,-1.282124186594893,0.453788807343273,9.911819687559548,-0.6617339808022102,0.6197478590058113,9.67777187648866,-0.0500502156575514,0.9496999918619784,7.561116861979166,3.3796356945503048,0.3252727229420732,4.725758622332317,5.433803651391006,-0.0818764291158536,2.2454610685022867,4.129500616164434,-13.309660412016369,3.813062395368304,-10.223921286239596,-27.806588255494503,0.4094426638176527,-24.321622272403527,-48.8666266025641,-7.167163233531377,29.86572618084883,34.753856291370894,35.47269895468296,1577398089.999,-27.689463659644645,-51.11520666261237,16.084776
103304,1577398090.77,-1.1157271712140335,0.5016728405463979,9.594587967588843,-1.2112032618080697,0.0451394605683118,9.183369233666395,0.4419582255045569,-0.7645483968098958,10.138474949137368,3.0134247570503048,-0.2545612614329268,4.451100419207317,5.632167909203506,-1.0889565072408536,3.862892709127287,4.404158819289434,-16.49874732607887,4.408155168805804,-9.8781848176228,-26.04870049221612,-0.2729617758784464,-26.08480928070772,-43.57271202948286,-5.918262444844003,30.05741755773205,34.70593344715009,34.514242070266874,1577398089.999,-27.689463659644645,-51.11520666261237,16.084776
103305,1577398090.78,-1.504784940989424,-0.2860195056450073,9.828022629454075,-0.9729801966225228,-0.8024079271270002,8.511795667992567,-0.2631341634114577,-1.3343683919270828,10.704703641764322,2.3725556164253048,-0.7733600895579268,4.329030106707317,1.1308251357660062,0.1317466177591463,2.6421895841272867,4.221053350539434,-10.990324474516369,3.5384041922433034,-10.02635758988714,-23.97119677197802,-0.1364808879392288,-27.4561769538332,-50.327016829621,-34.20219207099924,29.817803336628028,34.70593344715009,34.562164914487674,1577398089.999,-27.689463659644645,-51.11520666261237,16.084776
103306,1577398090.79,-1.3132488081769242,-0.293202110625476,9.028359274961888,-1.0543830530678353,-0.0745706224395001,10.874872706566787,-0.8473193684895827,-0.750183186848958,10.211498099772134,2.1894501476753048,-0.6207721989329268,4.451100419207317,4.945522401391006,-1.2415443978658536,3.1915059903772867,4.098983038039434,-6.229582287016369,2.2261483328683034,-9.828793893534687,-22.69273294413919,-0.1364808879392288,-26.411325393356645,-50.327016829621,-34.20219207099924,29.96157186929044,34.61008775870848,34.70593344715009,1577398089.999,-27.689463659644645,-51.11520666261237,16.084776
103307,1577398090.8,-1.1336836836652056,0.7865828381049917,10.658810605528297,-0.8843947351967415,0.9166288648651864,8.925992555199597,-0.8808381917317701,-0.1540269734700517,10.422187845865883,3.4406708508003048,-0.4376667301829268,4.329030106707317,2.656704042016006,4.495760289634147,3.4051290372522867,2.3899986630394343,-6.595793224516369,4.606519426618304,-9.828793893534687,-22.69273294413919,-0.1364808879392288,-26.411325393356645,-44.48545592139342,-34.20219207099924,29.86572618084883,34.562164914487674,34.753856291370894,1577398089.999,-27.689463659644645,-51.11520666261237,16.084776
103308,1577398090.81,-1.1815677168683305,0.798553846405773,10.780914890196264,-0.9011541468178352,0.0607017713593274,9.4347604079828,-1.1214554585774734,-0.1348733601888017,10.205512595621745,2.0673798351753048,-0.4987018864329268,4.527394364519817,3.862148377953506,-2.157071741615854,4.366432748189787,3.763289678664434,-6.626310802641369,4.972730364118304,-9.927575741710914,-25.24966059981685,0.6824044396961045,-26.672538283475788,-49.59682171609255,-5.9917271971197295,29.86572618084883,34.8257405577021,34.72989486926049,1577398089.999,-27.689463659644645,-51.11520666261237,16.084776
103309,1577398090.82,-0.8272258711652056,-1.0377988269340697,9.435373557188452,-1.511675570157679,-1.2764598558379376,9.11513448635194,-0.4762181111653639,-1.2074757039388018,9.691956339518228,-0.1298857898246951,-1.536299542682927,4.329030106707317,3.328090760766006,-0.2649818978658537,3.3746114591272867,1.2303306942894343,-7.389250255766369,6.346021379743304,-10.520266830768282,-28.12620421245421,0.6824044396960991,-25.36647383288008,-36.453309672580495,-5.404009178913907,29.96157186929044,34.94554766825411,34.70593344715009,1577398089.999,-27.689463659644645,-51.11520666261237,16.084776
103310,1577398090.83,-1.3898632613019242,0.5902583019721792,8.463327683165016,-1.798979769376429,0.1672437452362801,10.249986073266005,-1.8121826375325516,1.0550448649088535,8.40148164469401,1.1518524914253048,-0.4071491520579268,4.847828934832317,4.091030213891006,-0.9363686166158536,3.3440938810022867,2.2068931942894343,-6.809416271391369,4.789624895368304,-10.02635758988714,-23.331964858058605,-2.3201750949667663,-25.36647383288008,-36.453309672580495,-5.404009178913907,30.009494713511245,34.94554766825411,34.46631922604607,1577398089.999,-27.689463659644645,-51.11520666261237,16.084776
103311,1577398090.84,-0.6045651167706743,0.5711046886909292,9.945338510801731,-1.2985916224037728,1.71868642101753,10.04887313381288,-0.4786123128255202,-1.949678218587239,10.166008268229165,0.8466767101753049,-0.1019733708079267,4.390065262957317,0.8866845107660062,-2.584317835365854,3.984963021627287,0.5284263974144345,-5.741301037016369,4.209790910993304,-10.02635758988714,-23.331964858058605,-2.3201750949667663,-25.758293168058803,-46.31094370521453,-34.05526256644779,29.72195764818641,34.562164914487674,34.753856291370894,1577398089.999,-27.689463659644645,-51.11520666261237,16.084776
103312,1577398090.85,-1.0642518355206745,0.6010322094428824,9.555083640196266,-1.2411307825600228,-0.3858168382598126,10.398426576195693,-0.7862672261555983,-0.3814761311848959,11.396627921549475,0.2821015148628048,0.4320842463795732,4.603688309832317,1.1918602920160062,-2.706388147865854,4.564797006002287,0.1011803036644345,0.9420485723586308,5.705152239118304,-9.8781848176228,-24.77023666437729,0.5459235517568872,-26.01950605817794,-50.327016829621,-34.20219207099923,29.86572618084883,34.65801060292928,34.58612633659808,1577398089.999,-27.689463659644645,-51.11520666261237,16.084776
103313,1577398090.86,-1.224663346751143,-0.5924773181450073,10.309257163145483,-1.2387365808998665,-0.0003503709746569,10.9179683364496,-1.503330623372395,-0.1061429402669267,8.281771561686197,-0.9538603991996952,-0.1935261051829268,4.420582841082317,0.8866845107660062,-1.4246498666158536,3.4966817716272867,-0.7533118838355655,-2.781095958891369,3.965650285993304,-10.12513943806337,-24.93004464285714,2.866098646723648,-23.276770711926964,-48.8666266025641,-4.816291160708081,29.86572618084883,34.8017791355917,34.562164914487674,1577398089.999,-27.689463659644645,-51.11520666261237,16.084776
103314,1577398090.87,-0.9732721724347368,0.6381423351753042,9.830416831114231,-0.879606331876429,-0.2756835618926251,12.225202442894911,-0.8353483601888014,0.2027090738932284,7.604212491861978,-1.4116240710746952,0.3863078791920732,4.267994950457317,0.6425438857660062,0.1927817740091463,4.625832162252287,1.5965416317894343,-7.023039318266369,4.911695207868304,-10.02635758988714,-25.88889251373626,1.5012897673314385,-23.276770711926964,-48.8666266025641,-4.816291160708081,30.009494713511245,34.753856291370894,34.753856291370894,1577398089.999,-27.689463659644645,-51.11520666261237,16.084776
103315,1577398090.88,-0.391481169016768,0.5746959911811635,9.161237467100564,0.1929960118735709,1.7857240675019053,7.757622145043349,-0.3158065999348952,-0.5059746175130205,10.316842972819009,-1.2895537585746952,0.7067424495045732,4.130665848894817,-0.3950537704839938,3.824373570884146,4.595314584127287,0.2842857724144345,-10.410490490141369,4.576001848493304,-9.976966665799026,-26.048700492216117,1.091847103513769,-24.844048052641806,-37.91369989963739,-3.934714133399346,29.817803336628028,34.993470512474914,34.89762482403331,1577398089.999,-27.689463659644645,-51.11520666261237,16.084776
103316,1577398090.89,-1.4784487227277054,0.3316845226753042,10.237431113340795,-1.5188581751381478,0.1373162244843274,10.027325318871474,-0.955058443196614,-0.7118759602864579,10.720265952555335,-0.6792021960746951,0.0506145198170732,4.451100419207317,0.0474511123285062,-0.2192055306783537,4.290138802877287,-0.0056312197730656,-6.946745372953869,3.767286028180804,-9.828793893534687,-25.88889251373626,0.4094426638176527,-26.933751173594928,-37.18350478610895,-6.873304224428462,29.96157186929044,34.753856291370894,34.7778177134813,1577398089.999,-27.689463659644645,-51.11520666261237,16.084776
103317,1577398090.9,-0.9732721724347368,-0.1375790027153197,10.256584726622046,-0.6282151575600228,0.0092264356659676,7.944369874535536,0.22288877360026,-1.0686120076497392,9.172414579264322,-1.4421416491996952,0.0200969416920732,4.267994950457317,-3.416294004858994,0.6810630240091463,3.954445443502287,-1.3331458682105657,-1.896086193266369,3.4773690359933034,-10.717830527120736,-24.93004464285714,1.2283279914529803,-26.411325393356645,-32.80233410493827,2.5301840668647047,29.86572618084883,34.70593344715009,34.27462784916285,1577398089.999,-27.689463659644645,-51.11520666261237,16.084776
103318,1577398090.91,-1.6221008223370803,0.8153132580268667,10.567830942442358,-0.3217573450600228,0.6700260938690926,10.728826405297257,-1.081951131184895,-0.673568733723958,10.221074906412758,-1.2590361804496952,0.2337199885670732,4.267994950457317,-1.3105811142339938,-1.8518959603658536,5.205666146627287,-2.8285071963355657,-0.248136974516369,4.728589739118304,-10.421484982592052,-26.52812442765568,0.9553662155745456,-26.411325393356645,-32.80233410493827,-35.08376909830798,29.86572618084883,34.70593344715009,34.94554766825411,1577398089.999,-27.689463659644645,-51.11520666261237,16.084776
103319,1577398090.92,-1.2210720442609089,-0.0980746753227421,10.803659805967747,-1.655327669767054,-0.7832543138457502,7.870149623070692,-1.2495452473958328,0.0303265543619785,11.88025665690104,-1.7167998523246952,-0.8191364567454268,4.405324052019817,-0.6697119736089938,-0.2039467416158536,4.869972787252287,-1.9740150088355648,1.643952869233631,5.308423723493304,-10.27331221032771,-25.409468578296703,0.0,-26.411325393356645,-37.91369989963739,-35.08376909830798,29.841764758738428,34.753856291370894,34.753856291370894,1577398089.999,-27.689463659644645,-51.11520666261237,16.084776
103320,1577398090.93,-1.705897880442549,-0.1854630359184448,10.237431113340795,-1.3141539331947885,-0.0290807908965318,11.008947999535536,-0.381647145589192,0.1225033182779946,10.529926920572915,-1.8083525866996952,-0.4376667301829268,4.267994950457317,-0.1051367782964938,-1.3483559213033536,4.778420052877287,-0.8296058291480656,2.101716541108631,4.438672746930804,-9.63123019718223,-25.24966059981685,-0.6824044396961103,-26.280718948297075,-41.56467546727964,-6.579445215325552,29.817803336628028,34.65801060292928,34.7778177134813,1577398089.999,-27.689463659644645,-51.11520666261237,16.084776
103321,1577398090.94,-1.1719909102277055,0.0228325085151479,9.842387839415014,-0.4749862513100228,-0.8550803636504376,9.088798268090224,-0.3373544148763014,-1.5690001546223953,8.846803153483073,-1.7167998523246952,-0.0104206364329267,4.237477372332317,-1.9819678329839936,-5.666593225990853,4.076515756002287,-2.8590247744605657,-2.140226818266369,4.362378801618304,-9.23610280447732,-23.97119677197802,2.593136870845201,-25.10526094276095,-32.80233410493827,-5.404009178913907,30.009494713511245,34.993470512474914,34.03501362805883,1577398089.999,-27.689463659644645,-51.11520666261237,16.084776
103322,1577398090.95,-0.9301765425519244,-0.101665977812976,9.555083640196264,-0.7096180140053353,0.2294929884003426,9.890855824242568,-0.7850701253255201,0.1572192423502597,10.48922549235026,-2.2355986804496952,-0.1935261051829268,4.359547684832317,-1.0664404892339938,-1.9739662728658536,4.717384896627287,-1.5467689150855657,-0.003996349516369,5.522046770368304,-9.532448349006003,-24.93004464285714,1.774251543209873,-27.19496406371407,-49.59682171609254,-7.167163233531377,29.86572618084883,34.753856291370894,34.70593344715009,1577398089.999,-27.689463659644645,-51.11520666261237,16.084776
103323,1577398090.96,-0.8487736861066119,0.4729424206245229,10.13926884527439,-1.6505392664467415,0.1780176527069837,11.997753285180067,0.1821873453776042,1.059833268229166,9.751811381022131,-2.1745635241996952,-0.0104206364329267,4.222218583269817,0.3373681045160062,1.6423667349466462,4.900490365377287,-1.9434974307105657,0.2248854864211309,5.003247942243304,-9.8781848176228,-27.00754836309524,0.8188853276353222,-26.150112503237505,-50.327016829621,-33.3206150436905,29.74591907029682,34.70593344715009,34.753856291370894,1577398089.999,-27.689463659644645,-51.11520666261237,16.084776
103324,1577398090.97,-1.0235504072980182,-0.1950398425590697,9.3396054907822,0.2672162633384146,0.1193597120331551,6.8550081191644425,-1.1872960042317702,0.858720328776041,9.387892728678384,-2.5407744616996952,0.4168254573170732,4.115407059832317,-3.202670957983994,-3.805020960365854,4.747902474752287,6.357283819289434,-3.483000255766369,4.759107317243304,-10.421484982592052,-27.16735634157509,0.9553662155745456,-27.19496406371407,-48.13643148903565,-5.110150169810997,29.96157186929044,34.562164914487674,34.70593344715009,1577398089.999,-27.689463659644645,-51.11520666261237,16.084776
103325,1577398090.98,-0.9565127608136432,0.0204383068549917,9.217501206114232,-1.0543830530678353,-0.1679444871855938,8.5046130630121,0.2827438151041663,-1.2745133504231765,9.256211637369791,-2.4187041491996952,0.3252727229420732,4.267994950457317,-0.5171240829839938,2.298494664634146,4.961525521627287,-1.1805579775855657,-6.595793224516369,6.040845598493304,-10.02635758988714,-22.69273294413919,-0.6824044396961103,-27.4561769538332,-50.327016829621,-3.3469961151935266,29.817803336628028,34.993470512474914,34.8017791355917,1577398089.999,-27.689463659644645,-51.11520666261237,16.084776
103326,1577398090.99,-0.9038403242902056,0.3245019176948355,10.110538425352514,-0.9514323816811164,1.2422402906464365,10.441522206078504,-1.93428692220052,1.598528641764322,9.000032059733073,-1.1369658679496952,-0.1019733708079267,4.451100419207317,-0.9443701767339938,-2.645352991615854,4.686867318502287,0.2842857724144345,-9.128752208891369,5.461011614118304,-10.12513943806337,-24.93004464285714,0.1364808879392175,-27.4561769538332,-38.64389501316584,-2.4654190878847912,29.96157186929044,34.562164914487674,34.70593344715009,1577398089.999,-27.689463659644645,-51.11520666261237,16.084776
103327,1577398091.0,-1.504784940989424,-0.0358254321586796,10.24700791998142,-1.3919654871498666,-0.9388774217559064,11.117884175072646,-0.3421428181966144,-0.315635585530599,10.36712120768229,-2.1287871570121952,-0.1019733708079267,4.100148270769817,-0.0746192001714938,0.7573569693216464,4.580055795064787,-1.9282386416480657,-9.159269787016369,3.706250871930804,-10.075748513975256,-26.368316449175826,0.2729617758784351,-26.67253828347578,-37.18350478610895,-28.32501188894101,29.96157186929044,34.8257405577021,34.562164914487674,1577398090.999,-27.68955376929045,-51.11508042407842,15.922896
103328,1577398091.01,-1.5813993941144242,0.2000034313667104,9.4928343970322,-1.1070554895912728,0.0547162672089363,8.576439112816786,-1.2088438191731763,0.7078856241861973,10.103759025065102,-2.3576689929496952,-0.4987018864329268,3.749196122332317,-2.165073301733994,-4.110196741615853,4.564797006002287,-1.2721107119605657,-1.865568615141369,4.301343645368304,-9.828793893534687,-25.88889251373626,-1.228327991452992,-25.758293168058803,-41.19957791051541,-32.879826530036134,30.009494713511245,34.70593344715009,34.753856291370894,1577398090.999,-27.68955376929045,-51.11508042407842,15.922896
103329,1577398091.02,-1.0714344405011431,0.1880324230659292,9.150463559629856,-1.94502607064596,0.0690814771698738,10.915574134789445,-0.5767745808919265,0.6791552042643222,11.865891446940102,-2.7849150866996952,-0.1935261051829268,3.993336747332317,-4.301303770483994,3.000398961509146,4.625832162252287,0.2537681942894345,1.827058337983631,2.6228768484933034,-9.13732095630109,-26.84774038461538,0.1364808879392175,-27.4561769538332,-32.80233410493827,-35.377628107410885,29.86572618084883,34.61008775870848,34.61008775870848,1577398090.999,-27.68955376929045,-51.11508042407842,15.922896
103330,1577398091.03,-1.2414227583722366,-0.1663094226371952,9.924987796690406,-0.2738733118568978,1.0315505445526862,9.850154396019912,0.040929447428385,0.1715844523111972,10.163614066569007,-1.6862822741996952,-0.4529255192454268,4.390065262957317,1.2223778701410062,-0.2039467416158536,4.686867318502287,-1.8824622744605648,3.719148181733631,6.559644426618304,-10.223921286239596,-25.24966059981685,0.9553662155745456,-25.36647383288008,-50.327016829621,-7.167163233531377,29.841764758738428,34.8017791355917,34.70593344715009,1577398090.999,-27.68955376929045,-51.11508042407842,15.922896
103331,1577398091.04,-1.155231498606612,-0.6427555530082885,9.942944309141575,-1.4039364954506477,-0.5019356187773912,10.37448455959413,-1.4398842793782547,0.1883438639322915,9.316066678873696,-1.8999053210746952,-0.2545612614329268,4.237477372332317,-1.7836035751714938,-2.9657875619283534,4.610573373189787,-1.2721107119605657,1.827058337983631,4.087720598493304,-10.223921286239596,-25.24966059981685,0.9553662155745456,-27.194964063714064,-43.02506569433652,-5.9917271971197295,30.009494713511245,34.753856291370894,34.514242070266874,1577398090.999,-27.68955376929045,-51.11508042407842,15.922896
103332,1577398091.05,-1.291700993235518,0.0659281383979604,10.115326828672828,-1.2195829676186165,-0.6491790208770001,8.91880995021913,-1.4386871785481763,-0.1875457967122392,8.600200382486978,-1.5947295398246952,-0.5597370426829268,4.359547684832317,0.7340966201410062,4.160066930259147,3.984963021627287,-0.8753821963355655,-3.666105724516369,4.637037004743304,-9.532448349006003,-24.93004464285714,-0.409442663817664,-26.80314472853536,-32.43723654817404,-7.020233728979919,29.86572618084883,34.70593344715009,34.61008775870848,1577398090.999,-27.68955376929045,-51.11508042407842,15.922896
103333,1577398091.06,-1.3539502363995803,-0.2477122790825073,9.770561789610326,-0.2140182703529915,-1.0466164964629376,11.176542115746471,-1.1561713826497388,0.0399033610026035,10.249805326334634,-2.4492217273246952,-0.0714557926829267,4.695241044207317,1.0392724013910062,1.9017661490091464,4.808937631002287,-0.4786536807105654,0.3622145879836309,5.522046770368304,-10.12513943806337,-24.93004464285714,0.1364808879392175,-25.36647383288008,-32.80233410493827,-7.167163233531377,29.86572618084883,34.8017791355917,34.61008775870848,1577398090.999,-27.68955376929045,-51.11508042407842,15.922896
103334,1577398091.07,-1.0786170454816115,0.2035947338569453,9.431782254698218,-0.3911891932045541,0.6939681104706551,9.615522633324598,-1.1585655843098952,0.2434105021158847,10.254593729654946,-1.5642119616996952,0.2184611995045732,4.695241044207317,-2.470249082983994,-0.0208412728658536,5.114113412252287,-0.1734778994605654,2.071198962983631,5.674634660993304,-9.433666500829776,-25.88889251373626,-1.228327991452992,-25.36647383288008,-32.80233410493827,-7.167163233531377,29.98553329140084,34.89762482403331,34.70593344715009,1577398090.999,-27.68955376929045,-51.11508042407842,15.922896
103335,1577398091.08,-1.4425356978253616,-0.3961527820121948,9.725071958067357,-1.674481283048304,-0.3068081834746564,11.092745057641006,-2.067165114339192,-0.6029397847493491,10.593373264567056,-2.2050811023246952,-0.0409382145579267,4.176442216082317,0.8103905654535062,-3.1031166634908534,4.747902474752287,-2.1571204775855657,-0.477018810453869,5.872998918805804,-9.433666500829776,-25.88889251373626,-1.228327991452992,-26.280718948297075,-41.56467546727963,-21.27239567047113,30.009494713511245,34.681972025039684,34.8257405577021,1577398090.999,-27.68955376929045,-51.11508042407842,15.922896
103336,1577398091.09,-0.8535620894269244,-0.5278338733207885,9.179193979551732,-0.755107845548304,-0.8024079271270002,10.92993934475038,-0.6055050008138014,1.4093867106119784,9.016791471354166,-1.5642119616996952,-0.1019733708079267,4.847828934832317,-2.317661192358994,7.608553258384147,5.114113412252287,-1.4552161807105657,-4.642668224516369,4.331861223493304,-10.421484982592052,-27.806588255494503,2.04721331908832,-24.844048052641806,-37.91369989963739,-4.816291160708081,30.201186090394465,34.70593344715009,34.70593344715009,1577398090.999,-27.68955376929045,-51.11508042407842,15.922896
103337,1577398091.1,-0.7003331831769244,0.5567394787299917,9.81365741949314,-0.6641281824623665,1.45053583508003,8.796705665551162,-0.7922527303059889,-2.253741829427083,10.702309440104164,-1.5947295398246952,-0.1935261051829268,4.878346512957317,0.4899559951410062,-1.2415443978658536,4.992043099752287,0.0096275692894345,-4.856291271391369,5.522046770368304,-9.927575741710912,-24.93004464285714,-2.04721331908832,-27.0643576186545,-47.04113881874298,-6.726374719877009,29.96157186929044,34.89762482403331,34.753856291370894,1577398090.999,-27.68955376929045,-51.11508042407842,15.922896
103338,1577398091.11,-0.8272258711652056,0.0096643993842891,9.55149233770603,-0.4630152430092416,-0.3415241075469225,9.680166078148815,-1.869643477376301,1.891818345133464,9.82363743082682,-0.7249785632621952,0.2794963557545732,4.802052567644817,-1.1122168564214938,0.1775229849466462,4.519020638814787,0.9709312802269344,-2.338591076078869,4.514966692243304,-9.63123019718223,-25.88889251373626,0.9553662155745456,-27.19496406371407,-35.72311455905206,-4.522432151605171,29.86572618084883,34.96950909036451,34.562164914487674,1577398090.999,-27.68955376929045,-51.11508042407842,15.922896
103339,1577398091.12,-1.0403098189191118,-0.3674223620903197,9.064272299864232,-2.0240347254311164,0.8232550001190926,8.966693983422255,0.2444365885416663,0.2003148722330722,10.544292130533853,-1.1980010241996952,0.2337199885670732,4.695241044207317,2.107387635766006,-2.035001429115854,4.351173959127287,0.3453209286644345,-2.231779552641369,2.5618416922433034,-9.63123019718223,-25.88889251373626,0.9553662155745456,-27.19496406371407,-47.406236375507206,-33.026756034587585,29.817803336628028,34.70593344715009,34.70593344715009,1577398090.999,-27.68955376929045,-51.11508042407842,15.922896
103340,1577398091.13,-1.1528372969464555,-0.111242784453601,9.241443222715796,-1.6672986780678352,-0.0362633958770001,10.273928089867567,0.1486685221354163,-2.055023091634114,11.111717923990884,-0.9538603991996952,0.0200969416920732,4.603688309832317,1.9853173232660064,0.1927817740091463,4.961525521627287,0.3148033505394345,0.5758376348586309,5.216870989118304,-10.12513943806337,-25.56927655677656,0.1364808879392175,-25.10526094276095,-47.406236375507206,-35.377628107410885,29.817803336628028,34.8017791355917,34.8017791355917,1577398090.999,-27.68955376929045,-51.11508042407842,15.922896
103341,1577398091.14,-1.1719909102277055,0.1162063732612417,8.913437595274388,-0.2786617151772103,0.1840031568573738,10.230832459984756,-1.4961480183919265,-1.547452339680989,10.13727784830729,-1.5336943835746952,0.3557903010670732,4.847828934832317,3.663784120141006,0.8946860708841463,4.747902474752287,0.1011803036644345,2.467927478608631,6.834302629743304,-9.63123019718223,-26.52812442765568,-0.1364808879392288,-25.36647383288008,-47.406236375507206,-35.377628107410885,29.96157186929044,34.753856291370894,34.562164914487674,1577398090.999,-27.68955376929045,-51.11508042407842,15.922896
103342,1577398091.15,-1.1169242720441117,-0.3398890429985229,9.776547293760718,-1.2447220850502572,-0.8538832628203595,10.44511350856874,-1.2842611714680985,0.5558538187662758,9.396272434488932,0.0837372570503048,0.6762248713795731,5.000416825457317,1.3902245498285062,1.1998618521341462,4.625832162252287,0.5742027646019345,-3.2388596307663686,4.911695207868304,-9.8781848176228,-27.966396233974358,0.2729617758784464,-27.4561769538332,-43.02506569433653,-5.9917271971197295,29.86572618084883,34.72989486926049,34.63404918081888,1577398090.999,-27.68955376929045,-51.11508042407842,15.922896
103343,1577398091.16,-1.4712661177472366,-0.254894884062976,10.203912290098607,-1.6984232996498665,1.428988020138624,8.5812275161371,-0.0356850056966139,-1.7940551106770828,9.533939029947916,-0.0688506335746951,0.8440715510670732,4.725758622332317,-1.0664404892339938,-2.614835413490854,4.747902474752287,0.3758385067894345,-7.785978771391369,5.644117082868304,-9.13732095630109,-30.04389995421245,-0.9553662155745456,-26.933751173594928,-37.91369989963739,-7.167163233531377,29.817803336628028,34.8017791355917,34.94554766825411,1577398090.999,-27.68955376929045,-51.11508042407842,15.922896
103344,1577398091.17,-1.0211562056378618,-0.0035037097465697,9.12412734136814,-1.5164639734779914,-1.080135319705125,9.376102467308971,0.10796709391276,-0.2833138631184893,10.292900956217446,-0.4655791491996951,0.5388957698170732,5.183522294207317,2.259975526391006,1.7491782583841464,4.747902474752287,1.5049888974144343,-5.863371349516369,4.911695207868304,-9.63123019718223,-27.16735634157509,-0.1364808879392288,-25.36647383288008,-38.64389501316584,-7.167163233531377,29.72195764818641,34.8017791355917,34.46631922604607,1577398090.999,-27.68955376929045,-51.11508042407842,15.922896
103345,1577398091.18,-0.9289794417218462,0.2861946911323355,9.337211289122044,-0.611455745938929,0.0188032423065926,10.791075648461318,-0.1553950887044264,-0.6089252888997392,11.537885819498696,-0.7249785632621951,0.5388957698170732,5.061451981707317,0.2458153701410061,-1.5162026009908536,4.992043099752287,1.1387779599144343,-3.666105724516369,4.545484270368304,-9.334884652653546,-26.208508470695968,-1.5012897673314327,-27.4561769538332,-47.406236375507206,-34.20219207099924,29.93761044718004,34.46631922604607,34.89762482403331,1577398090.999,-27.68955376929045,-51.11508042407842,15.922896
103346,1577398091.19,-1.5957646040753617,-0.2141934558403198,10.270949936582983,-1.1549395227943977,-0.2661067552520001,10.25357737575624,-1.281866969807942,-0.2342327290852866,9.465704282633462,-0.1909209460746951,1.271317644817073,5.030934403582317,0.6425438857660062,0.2538169302591464,4.869972787252287,-0.8448646182105656,-0.400724865141369,6.590162004743304,-10.322703134415825,-27.486972298534795,-0.409442663817664,-26.41132539335664,-47.77133393227143,-19.950030129508026,30.009494713511245,34.825740557702105,34.562164914487674,1577398090.999,-27.68955376929045,-51.11508042407842,15.922896
103347,1577398091.2,-1.0642518355206745,0.0755049450385854,10.646839597227515,-0.6617339808022102,0.2438581983612801,8.200549452172256,0.155851127115885,-1.4923857014973954,10.534715323893227,0.6025360851753049,0.9966594416920732,5.244557450457317,1.9242821670160064,3.366609899009146,5.205666146627287,0.1316978817894345,0.2401442754836309,5.461011614118304,-10.322703134415825,-27.486972298534795,-0.409442663817664,-25.10526094276095,-50.327016829621,-7.167163233531377,29.86572618084883,34.8017791355917,34.70593344715009,1577398090.999,-27.68955376929045,-51.11508042407842,15.922896
103348,1577398091.21,-0.8200432661847369,0.1688788097846792,9.605361875059543,-1.3368988489662728,-0.2158285203887189,11.530883961449598,-1.6469827229817702,0.9592767985026036,8.698362650553385,-0.5266143054496951,0.6304485041920732,5.427662919207317,1.2834130263910062,3.641268102134146,5.297218881002287,-0.1429603213355654,-3.574552990141369,5.522046770368304,-10.02635758988714,-29.724283997252744,-1.228327991452992,-24.582835162522667,-47.406236375507206,-6.285586206222642,30.009494713511245,34.94554766825411,34.70593344715009,1577398090.999,-27.68955376929045,-51.11508042407842,15.922896
103349,1577398091.22,-0.8846867110089556,0.100644062470226,9.468892380430638,-0.1565574305092415,1.0267621412323735,9.11513448635194,-0.5648035725911452,1.7110561197916658,8.82286113688151,-0.7707549304496952,0.5694133479420732,5.015675614519817,1.4054833388910062,0.9557212271341464,5.693947396627287,0.0706627255394345,-5.527677990141369,3.935132707868304,-9.779402969446574,-25.089852621336995,1.091847103513763,-25.36647383288008,-38.64389501316584,-4.2285731425022615,30.12930182406326,34.753856291370894,34.753856291370894,1577398090.999,-27.68955376929045,-51.11508042407842,15.922896
103350,1577398091.23,-1.5766109907941117,0.1401483898628042,9.440161960508764,-1.7726435511147105,0.4653218519257337,9.35934305568788,-2.001324568684895,0.0195526468912758,8.928206009928385,-0.3435088366996951,0.9966594416920732,5.000416825457317,0.1542626357660063,0.3453696646341463,5.007301888814787,-0.3413245791480656,-5.603971935453869,4.301343645368304,-9.73001204535846,-27.486972298534795,2.866098646723648,-25.823596390588584,-35.17546822390572,-30.01470119128274,29.62611195974481,34.72989486926049,34.65801060292928,1577398090.999,-27.68955376929045,-51.11508042407842,15.922896
103351,1577398091.24,-1.444929899485518,-0.034628331328601,9.533535825254855,-1.147756917813929,-0.3355386033965314,9.129499696312878,-0.3517196248372389,-3.039039973958333,9.07185810953776,0.0532196789253048,0.6914836604420732,5.183522294207317,1.7411766982660062,3.061434117759146,4.686867318502287,1.0167076474144343,-6.076994396391369,4.209790910993304,-9.73001204535846,-27.486972298534795,2.866098646723648,-26.933751173594928,-38.64389501316584,-35.965346125616705,29.817803336628028,34.70593344715009,34.753856291370894,1577398090.999,-27.68955376929045,-51.11508042407842,15.922896
103352,1577398091.25,-1.195932926829268,0.4322409924018667,9.10497372808689,-0.7598962488686165,-0.3834226365996564,11.344136231957412,-0.3828442464192702,-2.9169356892903644,10.400640030924478,-0.4655791491996951,0.5388957698170732,5.061451981707317,0.7035790420160062,-0.7837807259908537,4.808937631002287,-2.2486732119605657,-3.666105724516369,7.078443254743304,-9.927575741710912,-24.93004464285714,2.3201750949667663,-27.32557050877363,-45.58074859168609,-5.844797692568268,29.96157186929044,34.753856291370894,34.70593344715009,1577398090.999,-27.68955376929045,-51.11508042407842,15.922896
103353,1577398091.26,-1.139669187815596,-0.523045470000476,9.789715402891575,-1.845666701749476,-0.0470373033477037,9.134288099633192,-1.3920002461751295,1.3674881815592443,11.000387546793618,-0.6029082507621951,0.2184611995045732,5.030934403582317,-0.0746192001714938,-0.8295570931783536,5.266701302877287,-0.0514075869605654,1.613435291108631,6.361280168805804,-9.087930032212975,-26.368316449175826,1.091847103513769,-26.346022170826856,-39.5566389050764,-6.359050958498368,29.91364902506964,34.7778177134813,34.72989486926049,1577398090.999,-27.68955376929045,-51.11508042407842,15.922896
103354,1577398091.27,-1.205509733469893,-0.3722107654106322,11.242995810606422,-0.0033285242592406,0.4713073560761238,11.700872279320691,-1.1585655843098952,-0.2737370564778642,10.235440116373695,0.5720185070503049,-0.0104206364329267,5.336110184832317,3.328090760766006,1.3524497427591464,5.297218881002287,1.5355064755394343,0.6063552129836309,5.308423723493304,-9.63123019718223,-27.806588255494503,-0.1364808879392288,-25.36647383288008,-34.992919445523604,-4.522432151605171,29.86572618084883,34.753856291370894,34.70593344715009,1577398090.999,-27.68955376929045,-51.11508042407842,15.922896
103355,1577398091.28,-0.908628727610518,0.836861072968273,11.02033505621189,-0.4725920496498665,-0.5198921312285626,10.6498177505121,-0.5504383626302076,0.6025407511393223,9.572246256510416,0.6635712414253049,0.4778606135670732,5.610768387957317,0.4289208388910062,1.4440024771341464,4.961525521627287,-0.2955482119605654,-0.461760021391369,4.301343645368304,-9.63123019718223,-27.806588255494503,-0.1364808879392288,-25.36647383288008,-36.453309672580495,-5.991727197119726,30.05741755773205,34.94554766825411,34.41839638182526,1577398090.999,-27.68955376929045,-51.11508042407842,15.922896
103356,1577398091.29,-0.8439852827862994,0.3628091442573354,9.29650986089939,-1.1908525476967415,0.8639564283417488,9.706502296410536,0.1869757486979163,-0.2210646199544267,9.177202982584635,-0.9538603991996952,1.149247332317073,5.091969559832317,-0.8833350204839938,-0.2344643197408536,5.297218881002287,0.1622154599144345,0.6979079473586309,3.996167864118304,-9.334884652653546,-26.208508470695968,1.774251543209873,-26.150112503237505,-38.64389501316584,-5.991727197119726,29.62611195974481,34.753856291370894,34.562164914487674,1577398090.999,-27.68955376929045,-51.11508042407842,15.922896
103357,1577398091.3,-0.8834896101788775,-0.0142776172172734,9.267779440977517,-0.6713107874428353,-0.3475096116973131,9.609537129174209,0.2097206644694011,-0.4868210042317709,11.584572751871743,-1.3353301257621952,1.149247332317073,4.863087723894817,0.9477196670160062,2.695223180259146,4.976784310689787,-0.5702064150855656,8.601960681733631,6.132398332868304,-9.13732095630109,-25.24966059981685,2.3201750949667663,-26.476628615886423,-50.14446805123889,-20.611212899989575,29.76988049240722,34.8017791355917,34.65801060292928,1577398090.999,-27.68955376929045,-51.11508042407842,15.922896
103358,1577398091.31,-0.8535620894269244,-0.4416426135551635,9.349182297422828,-1.7750377527748664,-0.4145472581816876,9.89564422756288,0.309080033365885,1.4788185587565097,9.605765079752604,-0.2519561023246951,0.9356242854420732,4.939381669207317,3.144985292016006,-1.3025795541158536,5.205666146627287,0.5589439755394345,14.980134509858631,4.545484270368304,-9.532448349006003,-27.486972298534795,-0.409442663817664,-26.933751173594928,-50.327016829621,-30.08816594355848,29.96157186929044,34.94554766825411,34.94554766825411,1577398090.999,-27.68955376929045,-51.11508042407842,15.922896
103359,1577398091.32,-0.9038403242902056,0.1616962048042104,10.189547080137672,-0.9418555750404916,0.4856725660370613,11.535672364769912,-0.2798935750325514,-0.7430005818684893,7.683221146647135,0.8466767101753049,1.423905535442073,5.336110184832317,1.5275536513910062,0.1012290396341463,4.351173959127287,0.1011803036644345,8.449372791108631,3.813062395368304,-9.532448349006003,-27.486972298534795,-0.409442663817664,-23.276770711926964,-50.327016829621,-5.991727197119726,29.96157186929044,34.94554766825411,34.46631922604607,1577398090.999,-27.68955376929045,-51.11508042407842,15.922896
103360,1577398091.33,-1.15642859943669,0.5028699413764761,10.91259598150486,-0.2738733118568978,0.4737015577362801,11.061620436058972,-0.0285024007161452,1.366291080729166,6.814125944010416,-0.1909209460746951,1.591752215129573,4.512135575457317,2.626186463891006,0.8641684927591463,4.900490365377287,0.1316978817894345,-2.140226818266369,3.935132707868304,-9.23610280447732,-25.569276556776558,1.228327991452992,-25.23586738782051,-38.27879745640162,-6.726374719877009,29.86572618084883,34.753856291370894,34.753856291370894,1577398090.999,-27.68955376929045,-51.11508042407842,15.922896
103361,1577398091.34,-0.9996083906964556,-0.4488252185356323,8.398684238340795,-1.2303568750893197,-0.7078369615508288,9.23125326686952,-0.6509948323567707,-0.4149949544270834,9.161640671793618,-2.5407744616996952,0.8135539729420732,4.359547684832317,-0.2729834579839938,1.6576255240091462,4.381691537252287,-0.0056312197730654,-11.539640880766369,3.2332284109933034,-9.532448349006003,-27.486972298534795,0.6824044396960991,-25.03995772023116,-37.54860234287317,-4.375502647053714,29.86572618084883,34.681972025039684,34.753856291370894,1577398090.999,-27.68955376929045,-51.11508042407842,15.922896
103362,1577398091.35,-1.310854606516768,0.0204383068549917,7.735490378477515,-2.220359261563929,0.1433017286347176,6.902892152367568,-1.05322071126302,-0.4940036092122392,11.197909183756508,-0.9538603991996952,0.5083781916920732,4.451100419207317,2.473598573266006,-0.6617104134908537,5.114113412252287,-0.1734778994605654,-2.964201427641369,5.216870989118304,-9.334884652653546,-27.486972298534795,2.3201750949667663,-25.36647383288008,-50.327016829621,-33.3206150436905,29.96157186929044,34.8017791355917,34.8017791355917,1577398090.999,-27.68955376929045,-51.11508042407842,15.922896
103363,1577398091.36,-1.2773357832745804,0.0970527599799917,9.363547507383764,0.0301902989829459,0.9621186964081552,10.71924959865663,1.3266157389322912,0.3870626017252597,10.15643146158854,0.4194306164253049,0.0811320979420732,4.481617997332317,2.473598573266006,-1.4551674447408536,3.862892709127287,-0.4176185244605654,1.155671619233631,6.132398332868304,-9.334884652653546,-27.486972298534795,2.3201750949667663,-24.844048052641806,-50.327016829621,-34.49605108010214,30.009494713511245,34.46631922604607,34.61008775870848,1577398090.999,-27.68955376929045,-51.11508042407842,15.922896
103364,1577398091.37,-1.419790782053877,0.4250583874213979,10.825207620909156,-1.176487337735804,-0.4265182664824689,9.196537342797257,-1.3046118855794264,1.3830504923502598,8.104600638834635,0.3431366711128048,0.2642375666920732,4.557911942644817,1.8327294326410064,0.6200278677591463,4.412209115377287,0.1316978817894345,-1.133146740141369,5.155835832868304,-9.38427557674166,-27.96639623397436,1.091847103513763,-24.452228717463097,-49.96191927285677,-4.669361656156629,29.91364902506964,34.8017791355917,34.753856291370894,1577398090.999,-27.68955376929045,-51.11508042407842,15.922896
103365,1577398091.38,-0.7242751997784869,-0.7648598376762572,8.779362302305639,-1.117829397061976,-0.3139907884551256,9.937542756615615,-0.8473193684895827,0.0039903361002602,9.446550669352211,-2.4187041491996952,-0.2850788395579268,4.420582841082317,0.4136620498285061,-0.3107582650533536,4.580055795064787,-0.0514075869605654,-2.613249279203869,4.759107317243304,-9.334884652653546,-26.208508470695968,2.866098646723648,-27.194964063714067,-47.77133393227143,-3.493925619744984,29.86572618084883,34.7778177134813,34.65801060292928,1577398090.999,-27.68955376929045,-51.11508042407842,15.922896
103366,1577398091.39,-0.9756663740948932,-0.1519442126762573,8.84879415045017,-0.8772121302162728,0.4186349195526863,6.807124085961318,-1.4674175984700517,0.0806047892252597,11.399022123209631,-0.6486846179496951,-0.7123249333079268,4.664723466082317,4.060512635766006,1.3219321646341464,4.992043099752287,1.5965416317894343,0.1791091192336309,4.972730364118304,-9.927575741710912,-28.12620421245421,2.3201750949667663,-24.321622272403527,-38.64389501316584,-6.579445215325552,29.86572618084883,34.61008775870848,34.562164914487674,1577398090.999,-27.68955376929045,-51.11508042407842,15.922896
103367,1577398091.4,-0.6428723433331743,0.6189887218940542,9.34678809576267,-0.0943081873451781,-0.2541357469512189,9.69692548976991,0.0265642374674475,-0.1731805867513017,11.906592875162758,0.4499481945503049,-0.1019733708079267,4.512135575457317,-1.0969580673589938,2.512117711509146,2.8252950528772867,0.7420494442894345,4.787263416108631,5.399976457868304,-9.927575741710912,-28.12620421245421,2.3201750949667663,-25.36647383288008,-49.59682171609254,-6.579445215325552,29.86572618084883,34.70593344715009,34.8017791355917,1577398090.999,-27.68955376929045,-51.11508042407842,15.922896
103368,1577398091.41,-1.0355214155987993,0.492096033905773,10.29249775152439,-1.3608408655678352,1.773753059201124,10.245197669945693,-0.1793371053059889,-0.1205081502278642,11.57379884440104,-0.1604033679496951,0.3557903010670732,4.420582841082317,-1.7988623642339938,-1.9739662728658536,3.771339974752287,-2.4622962588355657,10.097322009858631,5.552564348493304,-9.73001204535846,-26.84774038461538,3.412022198480529,-25.36647383288008,-49.59682171609254,-6.579445215325552,29.86572618084883,34.8017791355917,34.70593344715009,1577398090.999,-27.68955376929045,-51.11508042407842,15.922896
103369,1577398091.42,-0.4513362105206743,-0.3279180346977416,9.665216916563452,-0.9155193567787728,-0.4528544847441876,10.800652455101943,-0.519313741048177,0.8838594462076822,10.48802839152018,-1.2132598132621952,0.1879436213795732,3.810231278582317,0.3831444717035063,-0.7532631478658536,3.664528451314787,-1.5467689150855657,20.68692161923363,3.141675676618304,-9.087930032212975,-26.048700492216117,1.3648088793922093,-25.170564165290727,-46.49349248359665,-31.777855245900213,29.91364902506964,34.8017791355917,34.63404918081888,1577398090.999,-27.68955376929045,-51.11508042407842,15.922896
103370,1577398091.43,-0.2789536909894243,0.4466062023628042,10.08180800543064,-1.253101790860804,1.0076085279511238,11.32019421535585,-0.0692038289388014,-0.6615977254231767,7.63533711344401,-0.0993682116996951,0.2642375666920732,3.962819169207317,0.4289208388910062,2.542635289634146,4.717384896627287,-0.2345130557105654,16.78067161923363,2.1345955984933034,-9.334884652653546,-27.486972298534795,1.2283279914529803,-27.4561769538332,-49.59682171609254,-7.167163233531377,29.86572618084883,34.753856291370894,34.70593344715009,1577398090.999,-27.68955376929045,-51.11508042407842,15.922896
103371,1577398091.44,-0.2981073042706743,0.4250583874213979,10.448120859434546,0.1211699620688833,0.2845596265839363,12.87642529445741,-1.529666841634114,-0.798067220052083,6.318526200358073,0.2973603039253049,1.179764910442073,3.688160966082317,2.168422792016006,3.641268102134146,3.649269662252287,-0.2955482119605654,5.306062244233631,3.782544817243304,-9.433666500829776,-24.610428685897435,0.9553662155745456,-25.23586738782051,-49.96191927285677,-5.550938683465359,29.86572618084883,34.8017791355917,34.562164914487674,1577398090.999,-27.68955376929045,-51.11508042407842,15.922896
103372,1577398091.45,-0.7458230147198931,0.3316845226753042,9.28214465093845,0.2863698766196647,0.4018755079315931,8.168227729760146,-0.5432557576497394,1.8271749003092443,8.287757065836587,-0.8012725085746951,1.790116472942073,3.444020341082317,-0.6697119736089938,4.739900914634147,3.542458138814787,1.0624840146019343,-10.837736583891369,2.7144295828683034,-9.433666500829776,-24.610428685897435,0.9553662155745456,-25.36647383288008,-37.18350478610895,-5.697868188016817,29.96157186929044,34.65801060292928,34.753856291370894,1577398090.999,-27.68955376929045,-51.11508042407842,15.922896
103373,1577398091.46,-1.0582663313702836,0.0635339367378047,8.362771213438453,-1.035229439786585,-0.7545238939238751,8.648265162621474,1.4223838053385414,-0.6089252888997392,11.813219010416663,-2.2661162585746952,0.3252727229420732,3.062550614519817,0.7340966201410062,-0.3565346322408537,3.771339974752287,-0.5702064150855655,-7.023039318266369,2.8364998953683034,-9.532448349006003,-24.93004464285714,1.228327991452992,-26.411325393356645,-32.07213899140982,-5.991727197119726,30.009494713511245,34.61008775870848,34.61008775870848,1577398090.999,-27.68955376929045,-51.11508042407842,15.922896
103374,1577398091.47,-1.0331272139386432,0.2215512463081167,9.552689438536108,-1.4590031336342415,0.3396262647675301,10.630664137230848,-0.5935339925130202,-0.8435570515950517,10.620906583658853,0.1752899914253048,-0.1324909489329268,3.352467606707317,-2.470249082983994,4.709383336509147,3.2830587247522867,0.4979088192894345,-0.400724865141369,3.5994393484933034,-8.742193563596178,-24.29081272893773,1.774251543209873,-26.150112503237505,-50.327016829621,-35.377628107410885,29.86572618084883,34.8017791355917,34.70593344715009,1577398090.999,-27.68955376929045,-51.11508042407842,15.922896
103375,1577398091.48,-0.9804547774152056,0.6979973766792105,11.264543625547828,-1.2746496058022103,0.9573302930878426,10.43194539943788,-2.5232605305989577,0.6169059611002597,9.241846427408854,0.1447724133003048,0.3252727229420732,3.199879716082317,0.2763329482660062,-0.5091225228658537,2.7947774747522867,-0.7838294619605655,0.8810134161086309,3.0806405203683034,-8.939757259948633,-27.486972298534795,1.774251543209873,-26.80314472853536,-49.23172415932832,-4.669361656156629,29.86572618084883,34.70593344715009,34.562164914487674,1577398090.999,-27.68955376929045,-51.11508042407842,15.922896
103376,1577398091.49,-0.8379997786359087,-0.2848224048149291,9.642472000791969,0.031387399813024,-0.5342573411895002,8.838604194603896,-1.3046118855794264,-0.5478731465657553,10.0546778910319,-1.2285186023246952,-0.1630085270579268,3.230397294207317,0.3526268935785062,0.1622641958841462,3.923927865377287,-0.5091712588355656,0.2096266973586308,4.087720598493304,-8.939757259948633,-27.486972298534795,1.774251543209873,-26.80314472853536,-50.327016829621,-3.0531371060906136,29.86572618084883,34.72989486926049,34.63404918081888,1577398090.999,-27.68955376929045,-51.11508042407842,15.922896
103377,1577398091.5,-1.0307330122784868,0.0755049450385854,9.241443222715796,-0.4797746546303353,1.5798227247284675,7.455952735863661,-0.1793371053059889,-0.5275224324544268,7.848421061197916,-2.0830107898246952,0.1116496760670732,3.382985184832317,-2.561801817358994,-0.0513588509908536,3.710304818502287,-0.0208900088355654,-1.621427990141369,2.2566659109933034,-10.717830527120736,-26.208508470695968,2.3201750949667663,-25.758293168058803,-31.7070414346456,-2.318489583333339,30.009494713511245,34.753856291370894,34.70593344715009,1577398090.999,-27.68955376929045,-51.11508042407842,15.922896
103378,1577398091.51,-0.2334638594464555,0.1090237682807729,8.597402976133765,-1.5523769983803353,-1.5278510301543438,10.027325318871474,0.2300713785807288,0.2889003336588535,9.981654740397136,-1.1980010241996952,-0.1935261051829268,3.077809403582317,2.168422792016006,-1.4856850228658536,3.0084005216272867,-0.1429603213355654,-0.7059006463913691,3.4773690359933034,-10.223921286239596,-25.24966059981685,2.593136870845201,-26.933751173594928,-29.88155365082448,-4.522432151605171,29.86572618084883,34.753856291370894,34.61008775870848,1577398090.999,-27.68955376929045,-51.11508042407842,15.922896
103379,1577398091.52,-0.4058463789777055,0.4322409924018667,9.854358847715796,-0.1876820520912728,0.62693046398628,10.850930689965224,-1.7762696126302078,0.0207497477213535,11.26015842692057,-0.6181670398246951,0.3863078791920732,3.382985184832317,-0.1509131454839938,-3.774503382240854,2.2759786466272867,-0.6922767275855655,3.017243884858631,4.911695207868304,-9.433666500829776,-25.24966059981685,3.684983974358964,-26.672538283475788,-47.406236375507206,-32.14517900727886,29.86572618084883,34.89762482403331,34.22670500494204,1577398090.999,-27.68955376929045,-51.11508042407842,15.922896
103380,1577398091.53,-0.3292319258527055,0.1401483898628047,9.637683597471655,0.2001786168540396,-0.2828661668730938,9.615522633324598,0.8884768351236976,1.9001980509440095,11.092564310709632,-0.9691191882621952,0.9661418635670732,2.970997880144817,-1.0664404892339938,2.786775914634146,3.740822396627287,-1.4552161807105657,11.440095447358631,2.9280526297433034,-9.433666500829776,-25.24966059981685,3.684983974358964,-26.933751173594928,-49.59682171609254,-31.851319998175946,29.98553329140084,34.94554766825411,34.562164914487674,1577398090.999,-27.68955376929045,-51.11508042407842,15.922896
103381,1577398091.54,-0.4896434370831742,-0.484738243437976,9.964492124082984,-1.0926902796303353,0.2115364759491712,11.284281190453504,-0.5552267659505207,0.6408479777018228,9.105376932779944,-1.3505889148246952,0.8440715510670732,3.077809403582317,0.8561669326410063,0.6658042349466463,3.3135763028772867,-2.2334144228980657,14.262971423921131,2.4702889578683034,-10.322703134415825,-24.93004464285714,3.412022198480529,-24.51753193999288,-37.00095600772684,-23.25594398191578,29.72195764818641,34.70593344715009,34.634049180818884,1577398090.999,-27.68955376929045,-51.11508042407842,15.922896
103382,1577398091.55,-0.4537304121808305,0.6285655285346792,10.13208624029392,1.160253482576696,-0.1823096971465313,9.000212806664441,1.745601029459635,0.102152604166666,6.074317631022135,-0.6792021960746951,0.8440715510670732,2.925221512957317,-3.202670957983994,5.899568883384147,3.2830587247522867,-0.2345130557105654,0.4232497442336309,1.4937264578683036,-10.223921286239596,-26.52812442765568,2.593136870845201,-27.4561769538332,-46.67604126197876,-5.404009178913907,29.86572618084883,34.70593344715009,34.8017791355917,1577398090.999,-27.68955376929045,-51.11508042407842,15.922896
103383,1577398091.56,-0.458518815501143,0.2670410778510854,10.55346573248142,-1.9976985071693976,0.0666872755097176,10.482223634301162,0.9818506998697912,1.0167376383463536,7.76941240641276,-0.9538603991996952,0.9356242854420732,2.436940262957317,5.616909120141006,-3.194669397865854,3.5882345060022867,-0.5396888369605655,-8.335295177641369,2.5008065359933034,-10.12513943806337,-25.56927655677656,0.1364808879392175,-26.54193183841621,-37.54860234287317,-4.081643637950798,30.009494713511245,34.562164914487674,34.562164914487674,1577398090.999,-27.68955376929045,-51.11508042407842,15.922896
103384,1577398091.57,-0.7015302840070025,0.2502816662299917,8.967307132627905,-0.5527978052651009,0.2414639967011243,7.667839582787489,-0.270316768391927,0.9389260843912752,9.519573819986975,-1.6405059070121952,0.5083781916920732,2.528492997332317,-2.958530332983994,-0.2039467416158536,2.5353780606897867,-0.6159827822730656,-6.214323497953869,2.9280526297433034,-10.12513943806337,-25.56927655677656,0.1364808879392175,-27.4561769538332,-50.327016829621,-31.26360197997013,29.86572618084883,34.72989486926049,34.72989486926049,1577398090.999,-27.68955376929045,-51.11508042407842,15.922896
103385,1577398091.58,-0.4609130171612993,-0.1327905993950072,9.100185324766576,-0.295421126798304,0.2055509717987801,10.946698756371472,-0.5456499593098951,1.193908561197916,9.86194465738932,-1.0759307116996952,0.2032024104420732,2.650563309832317,-1.3105811142339938,-3.682950647865854,2.0013204435022867,-0.3871009463355654,2.406892322358631,2.4702889578683034,-10.12513943806337,-27.486972298534795,2.866098646723648,-25.36647383288008,-50.327016829621,-34.20219207099924,29.96157186929044,34.753856291370894,34.70593344715009,1577398090.999,-27.68955376929045,-51.11508042407842,15.922896
103386,1577398091.59,-0.5231622603253617,-0.0896949695121947,10.337987583067358,-1.1501511194740852,-0.6012949876738751,9.244421376000378,-0.4834007161458327,-0.7908846150716142,10.285718351236978,-0.7097197741996951,0.2642375666920732,2.650563309832317,2.382045838891006,-3.469327600990854,2.9168477872522867,-0.6007239932105655,2.864655994233631,1.982007707868304,-10.223921286239596,-26.52812442765568,1.5012897673314385,-27.4561769538332,-34.992919445523604,-4.816291160708081,30.009494713511245,34.70593344715009,34.70593344715009,1577398090.999,-27.68955376929045,-51.11508042407842,15.922896
103387,1577398091.6,-0.8679272993878618,0.1377541882026479,10.232642710020484,-1.0184700281654917,-0.6946688524199689,11.356107240258192,-1.1489887776692702,-0.6807513387044267,10.831596329752603,-1.4116240710746952,0.4168254573170732,2.681080887957317,-5.247348692358994,5.289217320884147,2.0928731778772867,-2.0045325869605657,7.594880603608631,3.782544817243304,-9.828793893534687,-23.331964858058605,0.4094426638176527,-27.4561769538332,-49.59682171609254,-4.816291160708081,29.817803336628028,34.8017791355917,34.61008775870848,1577398090.999,-27.68955376929045,-51.11508042407842,15.922896
103388,1577398091.61,-0.477672428782393,-0.2094050525200077,9.520367716123998,-0.611455745938929,0.6556608839081551,8.934372261010147,-0.2930616841634113,-0.0283313863118491,10.881874564615885,-1.4879180163871952,-0.2545612614329268,2.864186356707317,-0.3340186142339938,0.0707114615091463,3.3898702481897867,-1.2110755557105657,11.592683337983631,2.073560442243304,-9.73001204535846,-25.56927655677656,0.6824044396960991,-27.4561769538332,-50.327016829621,-4.816291160708081,29.841764758738428,34.70593344715009,34.65801060292928,1577398090.999,-27.68955376929045,-51.11508042407842,15.922896
103389,1577398091.62,-0.688362174876143,-0.207010850859851,11.140045139219705,0.4348103795493521,-0.3666632249785626,10.261957081566786,-0.8233773518880202,-0.0558647054036455,9.30170146891276,-0.9233428210746952,-0.5902546208079268,2.589528153582317,0.0627099013910061,-2.157071741615854,2.1539083341272867,0.7725670224144345,10.982331775483631,2.6839120047433034,-9.532448349006003,-27.486972298534795,2.3201750949667663,-26.933751173594928,-32.80233410493827,-4.816291160708081,30.009494713511245,34.70593344715009,34.70593344715009,1577398090.999,-27.68955376929045,-51.11508042407842,15.922896
103390,1577398091.63,-0.372327555735518,0.1162063732612417,9.689158933165016,0.0804685338462271,0.0307742506073738,10.044084730492568,-0.5025543294270827,-1.0039685628255204,10.666396415201822,-1.1980010241996952,-0.1630085270579268,2.467457841082317,1.4054833388910062,-4.812101038490853,2.6727071622522867,-0.8143470400855655,8.724030994233631,2.9585702078683034,-9.334884652653546,-28.12620421245421,-0.9553662155745456,-25.10526094276095,-32.80233410493827,-5.697868188016817,29.86572618084883,34.70593344715009,34.70593344715009,1577398090.999,-27.68955376929045,-51.11508042407842,15.922896
103391,1577398091.64,-0.2801507918195024,-0.068147154570789,9.81365741949314,-0.927490365079554,-0.1128778490020001,9.481447340355848,-1.0460381062825514,0.1572192423502597,9.873915665690102,-1.0454131335746952,0.0353557307545732,2.467457841082317,-1.4936865829839938,1.1083091177591464,2.9473653653772867,-1.6993568057105657,9.090241931733631,2.7449471609933034,-9.581839273094118,-25.729084535256405,1.3648088793922093,-26.672538283475788,-44.48545592139342,-33.61447405279342,29.98553329140084,34.70593344715009,34.61008775870848,1577398090.999,-27.68955376929045,-51.11508042407842,15.922896
103392,1577398091.65,0.0107447098894809,0.0778991466987417,8.820063730528297,-0.3648529749428353,-0.0362633958770006,10.62467863308046,0.2576046976725262,0.619300162760416,10.847158640543618,-1.0454131335746952,0.0811320979420732,2.284352372332317,-0.3797949814214938,0.8336509146341463,2.6116720060022867,-0.3108070010230654,11.440095447358631,2.8212411063058034,-9.73001204535846,-27.486972298534795,1.2283279914529803,-24.974654497701376,-49.96191927285677,-6.726374719877009,29.86572618084883,34.753856291370894,34.681972025039684,1577398090.999,-27.68955376929045,-51.11508042407842,15.922896
103393,1577398091.66,-0.305289909251143,0.2359164562690542,9.97406893072361,0.3318597081626334,1.6660139844940929,7.975494496117568,0.9339666666666664,0.9760362101236972,9.43577676188151,0.3278778820503049,0.3557903010670732,2.436940262957317,1.4970360732660062,-1.2110268197408536,2.0318380216272867,0.1316978817894345,9.334382556733631,3.3247811453683034,-9.927575741710912,-24.29081272893773,-0.9553662155745456,-23.276770711926964,-48.8666266025641,-7.167163233531377,29.86572618084883,34.70593344715009,34.753856291370894,1577398090.999,-27.68955376929045,-51.11508042407842,15.922896
103394,1577398091.67,-0.1113595747784868,0.0395919201362417,11.216659592344705,0.971111551424352,-0.4528544847441876,10.692913380394913,0.4742799479166662,2.719015018717448,7.151708378092447,0.0227021008003048,0.4168254573170732,2.406422684832317,-0.2424658798589938,1.0472739615091464,2.5506368497522867,-0.5091712588355655,0.8810134161086309,0.1509530203683035,-10.223921286239596,-25.88889251373626,0.9553662155745456,-23.276770711926964,-38.64389501316584,-6.873304224428462,29.96157186929044,34.61008775870848,34.70593344715009,1577398090.999,-27.68955376929045,-51.11508042407842,15.922896
103395,1577398091.68,-0.1305131880597368,0.1413454906928828,10.11412972784275,-1.1812757410561163,0.0762640821503426,9.081615663109757,-0.1913081136067702,0.5738103312174473,8.300925174967448,-0.7097197741996952,0.2489787776295732,2.070729325457317,-0.4255713486089938,-0.6922279916158537,2.2149434903772867,-1.5772864932105657,-10.074797130766369,-1.0392325265066964,-9.730012045358457,-26.208508470695968,0.9553662155745511,-25.36647383288008,-38.64389501316584,-6.285586206222642,29.86572618084883,34.8017791355917,34.8017791355917,1577398090.999,-27.68955376929045,-51.11508042407842,15.922896
103396,1577398091.69,-0.4992202437237993,-0.005897911406726,8.448962473204077,0.1906018102134151,-0.18350679797661,10.230832459984756,0.7771464579264319,-0.9357338155110676,9.385498527018228,-1.3811064929496952,0.7220012385670732,1.8571062785823167,1.6801415420160062,0.9404624380716464,1.7114034513147869,0.7725670224144344,-4.886808849516369,1.6463143484933038,-9.927575741710912,-26.84774038461538,2.3201750949667663,-25.954202835648147,-42.842516915954405,-20.31735389088667,29.72195764818641,34.63404918081888,34.58612633659808,1577398090.999,-27.68955376929045,-51.11508042407842,15.922896
103397,1577398091.7,-0.401057975657393,-0.5757179065239135,9.076243308165012,-0.2547196985756478,0.6508724805878426,6.895709547387099,1.5612475016276035,-0.0774125203450517,9.505208610026042,0.0532196789253048,0.5999309260670732,1.6740008098323171,0.0321923232660061,-2.096036585365854,1.3909688810022869,-1.2110755557105657,-1.774015880766369,1.890454973493304,-9.23610280447732,-28.44582016941392,0.9553662155745456,-27.4561769538332,-46.67604126197876,-32.73289702548468,29.67403480396561,34.70593344715009,34.70593344715009,1577398090.999,-27.68955376929045,-51.11508042407842,15.922896
103398,1577398091.71,-0.5303448653058306,1.1217710705268666,10.328410776426734,-0.6832817957436166,0.2366755933808113,8.214914662133193,-1.0843453328450514,-1.2864843587239578,9.70392734781901,0.3278778820503049,0.5083781916920732,2.162282059832317,-1.4021338486089938,-1.3636147103658536,2.0318380216272867,0.2537681942894345,0.2401442754836309,5.064283098493304,-10.223921286239596,-26.52812442765568,2.04721331908832,-27.4561769538332,-47.406236375507206,-7.167163233531377,30.009494713511245,34.8017791355917,34.562164914487674,1577398090.999,-27.68955376929045,-51.11508042407842,15.922896
103399,1577398091.72,-0.1939595320538779,-0.5374106799614136,9.25820263433689,-0.9107309534584602,0.8136781934784676,9.83818338771913,0.6897580973307288,1.5171257853190097,9.555486844889325,-1.0606719226371952,-0.3766315739329268,2.101246903582317,0.4594384170160062,-0.8753334603658537,2.3675313810022867,-0.2955482119605654,-0.217619396391369,3.1111580984933034,-9.976966665799026,-27.327164320054944,-0.2729617758784464,-27.4561769538332,-37.18350478610895,-4.816291160708081,29.96157186929044,34.753856291370894,34.562164914487674,1577398090.999,-27.68955376929045,-51.11508042407842,15.922896
103400,1577398091.73,-0.5662578902081743,0.4418177990424917,10.266161533262672,0.2444713475669302,-0.39419654407036,10.530107667504286,0.5269523844401038,-1.3020466695149735,9.845185245768228,-0.7402373523246951,0.1726848323170732,1.9791765910823167,1.0087548232660062,1.5660727896341462,2.1844259122522867,0.4063560849144345,-0.6143479120163691,2.409253801618304,-10.02635758988714,-26.52812442765568,-0.6824044396961103,-26.41132539335664,-34.627821888759385,-5.9917271971197295,29.96157186929044,34.681972025039684,34.753856291370894,1577398090.999,-27.68955376929045,-51.11508042407842,15.922896
103401,1577398091.74,-0.1688204146222368,-0.0801181628715698,9.875906662657204,-0.1517690271889281,0.4976435743378426,9.414409693871471,-1.1585655843098952,2.2353862833658846,10.977642631022134,-0.2824736804496951,-0.1630085270579268,1.8571062785823167,-3.446811582983994,3.488680211509146,1.8487325528772869,0.4368736630394345,2.986726306733631,2.6228768484933034,-11.01417607164942,-29.08505208333333,-0.1364808879392288,-26.411325393356645,-50.327016829621,-35.377628107410885,30.009494713511245,34.562164914487674,34.562164914487674,1577398090.999,-27.68955376929045,-51.11508042407842,15.922896
103402,1577398091.75,-0.0155915083722368,-0.1471558093559447,9.957309519102514,-0.6282151575600228,-0.0769648240996563,10.62348153225038,-1.172930794270833,0.054268570963541,10.45091826578776,0.4804657726753049,0.2337199885670732,2.223317216082317,4.060512635766006,-0.4786049447408537,1.6656270841272869,0.7725670224144345,3.810700916108631,0.8223397391183036,-10.12513943806337,-27.486972298534795,0.6824044396960991,-26.411325393356645,-50.327016829621,-35.377628107410885,29.96157186929044,34.753856291370894,34.562164914487674,1577398090.999,-27.68955376929045,-51.11508042407842,15.922896
103403,1577398091.76,-0.1221334822491904,0.2586613720405391,10.482836783506812,0.2181351293052115,0.644886976437452,10.730023506127331,-0.9155541158040358,-0.7298324727376297,9.350782602945962,0.2973603039253048,0.0658733088795732,2.009694169207317,-0.1203955673589937,2.603670445884146,2.1081319669397867,-0.2497718447730655,2.315339587983631,1.7989022391183034,-9.73001204535846,-26.52812442765568,-1.228327991452992,-26.01950605817793,-39.73918768345851,-30.528954457212844,29.841764758738428,34.72989486926049,34.873663401922904,1577398090.999,-27.68955376929045,-51.11508042407842,15.922896
103404,1577398091.77,0.2357996659441684,0.2957714977729604,10.136874643614233,-0.180499447110804,-0.2277995286895001,9.65143565822694,-0.5767745808919265,0.8850565470377597,8.281771561686197,-0.2824736804496951,0.2642375666920732,1.7045183879573171,-0.5476416611089938,0.7420981802591463,1.3604513028772869,-1.0279700869605657,0.9420485723586308,4.026685442243304,-9.828793893534687,-27.16735634157509,-1.228327991452992,-26.150112503237505,-49.59682171609254,-5.991727197119726,29.96157186929044,34.70593344715009,34.70593344715009,1577398090.999,-27.68955376929045,-51.11508042407842,15.922896
103405,1577398091.78,0.0682055497332309,0.3508381359565542,9.703524143125952,0.3007350865806021,0.5742580274628426,7.044150050316786,0.4503379313151037,2.3790383829752595,7.671250138346354,-0.2519561023246951,0.2032024104420732,1.4908953410823171,2.321010682641006,-1.4246498666158536,0.6280294278772867,-0.1429603213355654,-4.825773693266369,2.2566659109933034,-9.828793893534687,-25.88889251373626,-0.6824044396961103,-25.36647383288008,-35.72311455905206,-3.640855124296436,29.72195764818641,34.753856291370894,34.70593344715009,1577398090.999,-27.68955376929045,-51.11508042407842,15.922896
103406,1577398091.79,0.2118576493426059,0.396327967499523,9.023570871641576,0.0924395421470083,-0.1080894456816876,10.168583216820693,1.412806998697916,1.2154563761393222,9.189173990885417,-0.4655791491996951,0.9661418635670732,1.5519304973323171,-0.5476416611089938,3.000398961509146,1.8182149747522869,-0.6007239932105655,-10.746183849516369,-1.4054434640066964,-9.927575741710912,-26.208508470695968,0.1364808879392175,-26.80314472853536,-37.54860234287317,-28.178082384389555,29.86572618084883,34.70593344715009,34.61008775870848,1577398090.999,-27.68955376929045,-51.11508042407842,15.922896
103407,1577398091.8,-0.1748059187726274,0.0623368359077261,8.90026948614353,-0.0571980616127572,-0.2182227220488756,8.031758235131239,0.1043757914225261,0.4361437357584638,10.805260111490885,-0.8928252429496952,0.4320842463795732,0.9873553020198172,0.9019432998285062,-1.4246498666158538,0.8416524747522868,-0.6770179385230655,-4.337492443266369,0.5171639578683036,-9.483057424917888,-27.32716432005494,-0.2729617758784465,-27.32557050877363,-37.54860234287317,-31.704390493624484,29.841764758738428,34.65801060292928,34.58612633659808,1577398090.999,-27.68955376929045,-51.11508042407842,15.922896
103408,1577398091.81,0.0394751298113559,-0.3961527820121948,9.619727085020482,0.0397671056235709,0.8687448316620613,10.594751112328504,-0.2846819783528639,-1.8754579671223952,10.99200784098307,-0.7402373523246951,0.6914836604420732,0.7889910442073171,1.4970360732660062,2.420564977134146,0.3838888028772866,-0.3260657900855654,2.193269275483631,0.4256112234933036,-9.927575741710912,-26.84774038461538,0.6824044396960991,-26.411325393356645,-37.18350478610895,-35.08376909830798,29.86572618084883,34.70593344715009,34.70593344715009,1577398090.999,-27.68955376929045,-51.11508042407842,15.922896
103409,1577398091.82,0.1567910111590122,0.9565711559760854,10.227854306700172,0.2408800450766959,-0.9245122117949688,11.44708690334413,0.20373516031901,-3.0031269490559893,10.067846000162758,0.2668427258003049,0.8440715510670732,1.3383074504573171,0.3678856826410062,5.716463414634147,1.3299337247522869,-1.7603919619605657,2.681550525483631,3.2942635672433034,-10.12513943806337,-27.486972298534795,0.1364808879392175,-26.933751173594928,-49.59682171609254,-6.873304224428462,29.817803336628028,34.70593344715009,34.89762482403331,1577398090.999,-27.68955376929045,-51.11508042407842,15.922896
103410,1577398091.83,-0.0371393233136435,-0.3626339587700072,10.377491910459936,-1.751095736173304,0.5982000440644051,11.760727320824598,1.0057927164713538,2.0821573771158848,8.952148026529947,-0.4350615710746951,0.7982951838795732,1.1399431926448171,2.107387635766006,-3.713468225990854,2.0318380216272867,-0.3565833682105654,3.627595447358631,2.7449471609933034,-9.532448349006003,-26.208508470695968,0.6824044396960989,-27.32557050877363,-38.27879745640162,-7.020233728979919,29.86572618084883,34.46631922604607,34.8017791355917,1577398090.999,-27.68955376929045,-51.11508042407842,15.922896
103411,1577398091.84,-0.592594108469893,0.2838004894721792,10.735425058653297,0.4539639928306021,0.1073887037323743,8.40764789577577,-0.7443686971028645,-0.0953690327962241,8.323670090738931,-0.8012725085746951,0.9966594416920732,1.1246844035823171,0.0016747451410061,3.473421422446646,1.5130391935022869,-0.7838294619605655,-1.743498302641369,1.1885506766183034,-9.927575741710912,-26.84774038461538,0.1364808879392175,-25.23586738782051,-34.99291944552361,-5.844797692568269,30.201186090394465,34.65801060292928,34.681972025039684,1577398090.999,-27.68955376929045,-51.11508042407842,15.922896
103412,1577398091.85,-0.429788395579268,-0.2812311023246948,8.94456221685642,-0.218806673673304,-0.0410517991973126,9.25639238430116,-0.7084556722005202,1.021526041666666,10.48204288736979,-1.0759307116996952,0.3252727229420732,0.7279558879573171,-1.1885108017339938,1.4440024771341464,1.4825216153772869,0.0096275692894345,1.186189197358631,1.829419817243304,-9.927575741710912,-26.84774038461538,0.1364808879392175,-25.758293168058803,-35.35801700228783,-5.550938683465359,29.96157186929044,34.753856291370894,34.70593344715009,1577398090.999,-27.68955376929045,-51.11508042407842,15.922896
103413,1577398091.86,0.1136953812761996,0.1401483898628042,8.939773813536107,-0.1493748255287718,-0.8838107835723126,11.21006093898866,-0.9406932332356764,0.0877873942057285,11.226639603678384,-0.1604033679496951,0.2642375666920732,1.2772722942073171,1.1918602920160062,-0.8448158822408537,1.1773458341272869,-0.2345130557105654,3.719148181733631,1.4021737234933036,-9.433666500829776,-27.16735634157509,0.4094426638176527,-25.758293168058803,-35.35801700228783,-34.05526256644779,29.86572618084883,34.562164914487674,34.753856291370894,1577398090.999,-27.68955376929045,-51.11508042407842,15.922896
103414,1577398091.87,-0.1604407088116899,0.2323251537788198,9.88428636846775,0.9064681066001332,0.2079451734589363,11.959446058617567,0.8190449869791663,1.289676627604166,7.527598038736978,-0.5113555163871951,0.9051067073170732,0.7584734660823171,-2.592319395483994,0.6505454458841463,1.2078634122522869,-0.5702064150855655,3.841218494233631,0.2119881766183035,-9.730012045358457,-27.806588255494503,-0.9553662155745456,-26.672538283475788,-38.64389501316584,-31.851319998175946,29.86572618084883,34.753856291370894,34.70593344715009,1577398090.999,-27.68955376929045,-51.11508042407842,15.922896
103415,1577398091.88,0.1831272294207309,-0.1543384143364135,9.511988010313452,-0.4737891504799447,0.267800214962843,9.279137300072646,-0.4594586995442701,-0.4556963826497392,8.913840799967447,-1.2285186023246952,0.2032024104420732,0.8195086223323171,-2.012485411108994,0.9709800161966464,0.9789815763147868,-0.7227943057105656,-0.019255138578869,1.7989022391183034,-10.520266830768282,-25.56927655677656,-0.9553662155745456,-26.541931838416215,-44.3029071430113,-18.26034082716629,29.4823434270824,34.63404918081888,34.65801060292928,1577398090.999,-27.68955376929045,-51.11508042407842,15.922896
103416,1577398091.89,0.0251099198504184,0.3340787243354605,10.347564389707983,0.7556334020102896,1.0507041578339362,7.982677101098036,-0.1051168538411452,1.4500881388346347,9.01439726969401,-0.5876494616996951,0.2337199885670732,0.6669207317073171,2.443080995141006,-2.065519007240854,0.9026876310022868,-0.9974525088355656,-6.229582287016369,1.1885506766183036,-10.520266830768282,-25.56927655677656,-0.9553662155745456,-25.36647383288008,-38.64389501316584,-3.0531371060906105,29.96157186929044,34.70593344715009,34.562164914487674,1577398090.999,-27.68955376929045,-51.11508042407842,15.922896
103417,1577398091.9,-0.094600163157393,-0.0274457263481322,10.632474387266578,-1.119026497892054,-1.0011266649199688,9.51257196193788,0.3641466715494788,-0.1229023518880205,9.897857682291663,-0.0688506335746951,0.9356242854420732,0.9415789348323172,-0.3340186142339938,1.6576255240091464,1.8487325528772869,0.2537681942894345,-11.234465099516369,-0.7950919015066964,-9.433666500829776,-26.52812442765568,0.9553662155745456,-24.321622272403527,-38.64389501316584,-26.561857834323536,29.86572618084883,34.8017791355917,34.46631922604607,1577398090.999,-27.68955376929045,-51.11508042407842,15.922896
103418,1577398091.91,-0.4621101179913774,0.2311280529487422,10.009981955625951,0.2959466832602896,0.1947770643280774,8.565665205346084,-0.0572328206380206,0.2015119730631513,11.512746702067057,-0.6334258288871952,-0.0409382145579267,0.9263201457698172,-1.5699805282964938,3.366609899009146,0.5822530606897867,-0.1582191103980655,-1.2246994745163688,1.3563973563058038,-9.38427557674166,-27.32716432005494,1.3648088793922093,-26.73784150600557,-38.46134623478373,-30.60241920948857,29.76988049240722,34.753856291370894,34.65801060292928,1577398090.999,-27.68955376929045,-51.11508042407842,15.922896
103419,1577398091.92,0.1472142045183871,-0.254894884062976,8.298127768614235,-1.0950844812904916,-0.2541357469512189,12.055214125023818,0.4216075113932288,-0.8866526814778642,9.304095670572917,-1.5031768054496952,-0.3461139958079268,0.9110613567073172,1.8022118545160064,-1.3025795541158536,0.2007833341272866,0.4063560849144345,-0.8584885370163691,-2.2599356515066966,-9.334884652653546,-26.208508470695968,1.2283279914529803,-26.80314472853536,-35.35801700228783,-34.05526256644779,29.86572618084883,34.70593344715009,34.61008775870848,1577398090.999,-27.68955376929045,-51.11508042407842,15.922896
103420,1577398091.93,-0.6476607466534868,0.2215512463081167,9.504805405332982,-0.994528011563929,-0.2661067552520001,7.166254334984755,-1.07237432454427,-2.17233897298177,11.437329349772131,-1.1674834460746952,-0.9259479801829268,0.4227801067073171,1.7411766982660062,0.0401938833841463,1.1773458341272869,-0.3565833682105654,-2.079191662016369,1.7683846609933036,-9.334884652653546,-26.208508470695968,1.2283279914529803,-25.23586738782051,-32.43723654817404,-7.020233728979919,29.96157186929044,34.8017791355917,34.70593344715009,1577398090.999,-27.68955376929045,-51.11508042407842,15.922896
103421,1577398091.94,-0.3459913374737993,0.1808498180854604,9.30848086920017,-0.1014907923256468,-0.8000137254668439,8.760792640648818,-1.2471510457356765,1.4979721720377597,11.39423371988932,-1.4726592273246952,-1.109053448932927,0.5448504192073171,-2.775424864233994,-1.1194740853658536,0.8721700528772867,0.5589439755394345,2.803620837983631,3.4468514578683034,-9.23610280447732,-26.52812442765568,1.5012897673314385,-25.36647383288008,-50.327016829621,-6.873304224428462,29.62611195974481,34.8017791355917,34.46631922604607,1577398090.999,-27.68955376929045,-51.11508042407842,15.922896
103422,1577398091.95,0.3399474381609653,-0.010686314727039,9.5586749426865,0.1786308019126334,0.8232550001190931,8.534540583764052,0.4311843180338543,0.1093352091471353,7.61618350016276,-0.1756621570121951,-0.6360309879954268,1.1704607707698171,0.3373681045160062,0.1012290396341462,0.7348409513147868,-0.2955482119605654,-1.9418625604538688,0.8070809500558036,-9.73001204535846,-25.569276556776558,1.228327991452992,-25.36647383288008,-42.29487058080807,-6.873304224428462,29.96157186929044,34.72989486926049,34.49028064815647,1577398090.999,-27.68955376929045,-51.11508042407842,15.922896
103423,1577398091.96,-0.2550116743878618,0.329290321015148,8.346011801817358,-0.6186383509193978,-0.1463966722441876,12.668129750023818,-0.3780558430989577,-0.0774125203450517,11.073410697428384,-1.2895537585746952,-0.4987018864329268,1.0941668254573171,-1.5547217392339938,0.9557212271341464,0.2313009122522866,0.3148033505394345,-4.856291271391369,1.4632088797433036,-9.13732095630109,-28.765436126373626,0.6824044396960991,-25.49708027793965,-35.35801700228783,-6.138656701671178,29.817803336628028,34.70593344715009,34.70593344715009,1577398090.999,-27.68955376929045,-51.11508042407842,15.922896
103424,1577398091.97,-0.171214616282393,-0.7073989978325073,9.16243456793064,0.3821379430259146,-0.6132659959746564,9.65143565822694,-0.706061470540364,1.4836069620768222,12.821177909342444,-0.3435088366996951,0.0200969416920732,1.0026140910823171,-2.866977598608994,0.7420981802591463,1.9097677091272869,0.3453209286644345,2.864655994233631,1.7073495047433036,-9.13732095630109,-28.765436126373626,0.6824044396960991,-25.49708027793965,-35.35801700228783,-6.138656701671178,29.96157186929044,34.89762482403331,34.70593344715009,1577398090.999,-27.68955376929045,-51.11508042407842,15.922896
103425,1577398091.98,-0.1568494063214555,0.0994469616401484,10.845558335020485,-0.6617339808022102,0.7394579420136238,9.024154823266004,2.516533964029948,0.1572192423502597,11.365503299967449,-0.1604033679496951,-0.2698200504954268,0.8042498332698171,2.565151307641006,-8.382657679115853,0.5669942716272867,-2.4317786807105657,10.463532947358631,1.1275155203683036,-9.186711880389204,-28.60562814789377,1.091847103513769,-26.672538283475788,-50.327016829621,-35.377628107410885,29.91364902506964,34.993470512474914,34.46631922604607,1577398090.999,-27.68955376929045,-51.11508042407842,15.922896
103426,1577398091.99,-0.3795101607159868,0.0707165417182729,10.98921043462986,0.778378317781774,-0.443277678103563,11.538066566430068,-0.3469312215169269,0.4397350382486977,10.534715323893227,-1.2895537585746952,-0.8343952458079268,0.9110613567073172,2.229457948266006,-0.9363686166158534,1.6045919278772869,-1.0432288760230657,16.59756615048363,0.6544930594308036,-10.12513943806337,-27.486972298534795,0.6824044396960991,-23.276770711926964,-44.1203583646292,-18.0399465703391,29.86572618084883,34.753856291370894,34.63404918081888,1577398090.999,-27.68955376929045,-51.11508042407842,15.922896
103427,1577398092.0,0.1998866410418247,0.1736672131049917,8.779362302305639,-1.5571654017006478,0.3851160963104988,10.422368592797255,0.328233646647135,0.7701348673502597,3.548434879557291,-1.2285186023246952,-1.048018292682927,0.9110613567073172,-0.5781592392339938,-1.1805092416158536,-0.7757791658727133,-0.4176185244605654,2.437409900483631,0.1204354422433035,-9.532448349006003,-28.12620421245421,-0.409442663817664,-26.80314472853536,-41.19957791051541,-7.020233728979919,30.009494713511245,34.46631922604607,34.562164914487674,1577398091.999,-27.68963719846547,-51.11494741205568,16.023417
103428,1577398092.01,0.4417010087176058,0.3149251110542105,8.630921799375953,0.8226710484946647,3.32758993664253,8.518978272973037,-1.1058931477864575,-0.673568733723958,4.676103861490884,-1.2285186023246952,-0.8954304020579268,0.5753679973323171,2.931362245141006,3.000398961509146,1.2994161466272869,0.6504967099144345,-14.408293224516369,-0.8256094796316964,-9.532448349006003,-28.12620421245421,-0.409442663817664,-24.71344160758224,-44.12035836462919,-7.020233728979919,29.72195764818641,34.70593344715009,34.562164914487674,1577398091.999,-27.68963719846547,-51.11494741205568,16.023417
103429,1577398092.02,-0.1736088179425498,0.1772585155952261,7.701971555235327,0.1283525670493521,-2.710586650271531,6.397715602074599,0.43357851969401,-1.116496040852864,7.288177872721354,-0.4808379382621951,-0.7123249333079269,0.9415789348323172,0.2152977920160061,-0.9363686166158536,1.4520040372522869,-0.7533118838355655,-17.33798072451637,1.5242440359933036,-9.433666500829776,-27.806588255494503,0.6824044396961045,-26.280718948297075,-42.6599681375723,-7.020233728979919,29.79384191451762,34.562164914487674,34.70593344715009,1577398091.999,-27.68963719846547,-51.11494741205568,16.023417
103430,1577398092.03,-0.0730523482159868,0.1760614147651479,10.05547178716892,0.1475061803306021,0.8208607984589369,10.896420521508192,0.428790116373698,0.6013436503092446,13.966803403727212,0.5415009289253049,-0.8649128239329268,0.5143328410823171,-2.454990293921494,-0.2039467416158538,0.5975118497522867,-0.3108070010230656,-0.0650315057663686,1.5242440359933036,-9.23610280447732,-23.97119677197802,-0.6824044396961103,-25.88889961311836,-43.75526080786497,-19.95003012950803,29.62611195974481,34.70593344715009,34.58612633659808,1577398091.999,-27.68963719846547,-51.11494741205568,16.023417
103431,1577398092.04,-0.7051215864972369,-0.4991034533989135,11.389042111875952,-1.3153510340248664,0.9573302930878426,9.376102467308971,0.3497814615885412,0.0901815958658847,12.483595475260415,0.6330536633003049,-1.109053448932927,0.6974383098323171,0.1542626357660061,-3.042081507240854,0.2923360685022866,-1.6993568057105657,9.700593494233631,-0.3373282296316964,-9.334884652653546,-26.208508470695968,1.2283279914529803,-25.627686722999226,-35.72311455905206,-5.991727197119726,29.96157186929044,34.753856291370894,34.8017791355917,1577398091.999,-27.68963719846547,-51.11494741205568,16.023417
103432,1577398092.05,-0.4154231856183305,-0.0585703479301635,11.432137741758766,0.987870963045446,-1.4799669969512188,8.983453395043348,0.6945465006510413,0.7892884806315097,10.996796244303384,-0.8623076648246951,-1.994063214557927,0.4838152629573171,-2.165073301733994,3.275057164634146,0.7806173185022867,6.570906866164434,13.759431384858631,-0.8561270577566964,-9.828793893534687,-29.08505208333333,0.9553662155745456,-26.150112503237505,-47.406236375507206,-5.991727197119726,29.72195764818641,34.8017791355917,34.61008775870848,1577398091.999,-27.68963719846547,-51.11494741205568,16.023417
103433,1577398092.06,-0.056292936594893,-0.3841817737114139,9.942944309141575,0.3450278172934927,0.0595046705292493,9.783116749535536,0.7460218363444007,-1.3319741902669266,12.28846803995768,-0.5266143054496952,-1.551558331745427,0.8958025676448171,-0.1966895126714938,-2.5843178353658534,0.6890645841272868,-0.8143470400855655,20.47329857235863,0.9596688406808036,-9.927575741710914,-29.08505208333333,1.228327991452992,-26.280718948297075,-44.485455921393424,-2.4654190878847912,29.91364902506964,34.7778177134813,34.70593344715009,1577398091.999,-27.68963719846547,-51.11494741205568,16.023417
103434,1577398092.07,0.0394751298113559,0.4585772106635855,11.61409706793064,-0.1062791956459593,1.0004259229706551,12.857271681176162,0.0169874308268225,2.01511973063151,9.445353568522137,0.7856415539253049,-1.475264386432927,1.0636492473323171,0.6120263076410062,0.4674399771341463,-0.1043924471227133,-0.6007239932105655,21.78555443173363,1.3411385672433036,-9.334884652653546,-26.208508470695968,0.1364808879392175,-10.73855198620824,-37.91369989963739,-7.167163233531377,29.72195764818641,34.753856291370894,34.8017791355917,1577398091.999,-27.68963719846547,-51.11494741205568,16.023417
103435,1577398092.08,0.7290052079363559,-0.226164464141101,9.255808432676732,-0.0488183558022093,-0.5246805345488751,10.036902125512098,-0.3589022298177077,-0.5442818440755205,8.588229374186197,-0.4045439929496951,-1.170088605182927,0.5143328410823171,1.4665184951410062,-3.011563929115854,0.8416524747522867,-0.7533118838355655,18.21499779110863,-0.4593985421316964,-9.13732095630109,-27.486972298534795,1.2283279914529803,-25.23586738782051,-47.04113881874298,-32.2921085118303,29.86572618084883,34.753856291370894,34.562164914487674,1577398091.999,-27.68963719846547,-51.11494741205568,16.023417
103436,1577398092.09,0.5470458817644809,0.2287338512885854,9.30848086920017,0.8059116368735709,-0.7760717088652814,9.189354737816783,1.745601029459635,0.1165178141276035,7.594635685221354,-0.1909209460746951,-0.4376667301829268,0.4227801067073171,0.6730614638910062,-4.537442835365853,0.5669942716272867,-0.3871009463355654,13.942536853608631,-0.3068106515066964,-9.73001204535846,-28.765436126373626,0.6824044396960991,-25.36647383288008,-47.406236375507206,-32.439038016381765,29.72195764818641,34.70593344715009,34.89762482403331,1577398091.999,-27.68963719846547,-51.11494741205568,16.023417
103437,1577398092.1,0.8630805009051059,0.0156499035346797,9.483257590391576,0.1702510961020865,1.3487822645233896,10.398426576195693,-1.1477916768391925,0.2362278971354165,8.616959794108073,0.0074433117378048,-0.2393024723704267,0.2701922160823171,-0.0593604111089938,-0.1429115853658537,0.7500997403772868,0.1011803036644344,8.815583728608631,-0.3068106515066964,-9.581839273094118,-27.96639623397436,0.5459235517568759,-26.346022170826856,-43.93780958624708,-17.672622808960465,29.817803336628028,34.825740557702105,34.70593344715009,1577398091.999,-27.68963719846547,-51.11494741205568,16.023417
103438,1577398092.11,0.4560662186785434,-0.1758862292778197,10.673175815489234,-0.1182502039467406,0.5718638258026864,12.11746336818788,0.9866391031901038,1.873861832682291,6.23712334391276,1.6096161633003048,1.057694597942073,0.4838152629573171,2.198940370141006,2.206941930259146,0.0481954435022866,1.1082603817894343,-8.152189708891369,-0.0016348702566964,-10.223921286239596,-27.806588255494503,1.5012897673314385,-26.411325393356645,-50.327016829621,-7.167163233531377,29.96157186929044,34.61008775870848,34.61008775870848,1577398091.999,-27.68963719846547,-51.11494741205568,16.023417
103439,1577398092.12,-0.5183738570050492,0.1425425915229604,10.42657304449314,0.4108683629477896,-0.5007385179473126,8.387297181664442,0.5269523844401037,-1.2769075520833328,7.506050223795572,2.0368622570503048,0.4473430354420732,1.0636492473323171,2.778774354516006,-0.9058510384908536,0.5059591153772867,-0.6617591494605655,-20.51180884951637,-0.6425040108816964,-9.13732095630109,-29.40466804029304,0.1364808879392175,-10.477339096089098,-41.56467546727963,-7.167163233531377,29.86572618084883,34.562164914487674,34.8017791355917,1577398091.999,-27.68963719846547,-51.11494741205568,16.023417
103440,1577398092.13,-0.2119160445050493,0.530403260468273,9.98603993902439,0.7316913854087271,-0.7497354906035626,7.477500550805067,0.6753928873697913,0.2697467203776035,8.55471055094401,-0.2519561023246951,-0.4987018864329268,0.3617449504573171,0.8561669326410062,3.336092320884146,-0.1654276033727133,1.5660240536644343,-23.99081275576637,1.4021737234933036,-8.64341171541995,-25.88889251373626,0.9553662155745456,-10.346732651029528,-35.35801700228783,-7.020233728979919,30.009494713511245,34.61008775870848,34.562164914487674,1577398091.999,-27.68963719846547,-51.11494741205568,16.023417
103441,1577398092.14,-0.3507797407941118,-0.0058979114067265,8.54951894293064,-0.2463399927651009,0.8723361341522957,8.275966804467178,0.3785118815104162,0.8132304972330727,10.98721943766276,0.2058075695503048,-0.8496540348704269,-0.0502423542301828,0.0321923232660061,-0.8448158822408538,-0.2417215486852133,1.1845543271019343,-19.12325904482887,0.4256112234933036,-9.038539108124862,-24.93004464285714,0.1364808879392176,-25.88889961311836,-36.81840722934472,-31.41053148452158,30.009494713511245,34.72989486926049,34.753856291370894,1577398091.999,-27.68963719846547,-51.11494741205568,16.023417
103442,1577398092.15,-0.3651449507550492,1.172049305390148,10.551071530821265,0.4683292027915396,-0.8263499437285626,10.053661537133191,1.0249463297526038,-0.539493440755208,12.380644803873697,1.0297821789253048,-1.627852277057927,0.2091570598323171,1.0087548232660062,-3.469327600990854,0.2618184903772866,-0.2039954775855654,-5.344572521391369,2.0430428641183034,-10.02635758988714,-24.610428685897435,2.593136870845201,-25.36647383288008,-37.18350478610895,-7.167163233531377,29.86572618084883,34.8017791355917,34.70593344715009,1577398091.999,-27.68963719846547,-51.11494741205568,16.023417
103443,1577398092.16,0.4847966386004184,0.1114179699409292,9.322846079161108,0.3366481114829459,0.1504843336151863,7.860572816430068,0.7065175089518225,0.2386220987955722,10.161219864908851,0.0227021008003048,-1.444746808307927,0.3312273723323171,1.7411766982660062,-3.957608850990854,0.3533712247522866,-0.5702064150855655,-1.804533458891369,0.9138924734933036,-9.63123019718223,-24.610428685897435,2.04721331908832,-27.4561769538332,-50.327016829621,-7.167163233531377,29.96157186929044,34.562164914487674,34.70593344715009,1577398091.999,-27.68963719846547,-51.11494741205568,16.023417
103444,1577398092.17,0.4800082352801059,-0.3231296313774291,8.477692893125953,0.2624278600181021,-0.8239557420684064,8.681783985863662,1.0201579264322913,0.6169059611002597,6.347256620279947,-1.0148955554496952,-1.383711652057927,0.2701922160823171,0.5815087295160062,0.4064048208841463,0.3838888028772866,0.2537681942894345,-3.605070568266369,0.3950936453683036,-10.02635758988714,-24.610428685897435,2.04721331908832,-27.32557050877363,-49.96191927285677,-2.318489583333339,29.93761044718004,34.753856291370894,34.562164914487674,1577398091.999,-27.68963719846547,-51.11494741205568,16.023417
103445,1577398092.18,-0.6045651167706743,0.5926525036323355,8.671623227598609,-0.3995688990151009,0.132527821164015,7.658262776146865,-0.2116588277180988,-0.813629530843099,6.0036886820475255,1.0908173351753048,-1.383711652057927,0.3007097942073171,0.5815087295160062,-1.6687904916158536,0.3075948575647866,1.3066246396019343,-14.43881080264137,0.0746590750558036,-9.23610280447732,-27.806588255494503,2.04721331908832,-26.21541572576729,-37.73115112125528,-6.505980463049823,29.86572618084883,34.58612633659808,34.58612633659808,1577398091.999,-27.68963719846547,-51.11494741205568,16.023417
103446,1577398092.19,-0.008408903391768,0.3340787243354605,9.440161960508764,-1.0376236414467417,0.0858408887909676,10.130275990258191,-0.3541138264973952,1.5721924235026037,9.284942057291666,-0.0993682116996951,-1.597334698932927,0.4532976848323171,0.1847802138910061,-3.927091272865854,0.2923360685022866,0.0706627255394345,-17.79574439639137,2.9280526297433034,-9.927575741710912,-29.40466804029304,0.6824044396960991,-25.36647383288008,-37.18350478610895,-5.991727197119726,29.96157186929044,34.70593344715009,34.61008775870848,1577398091.999,-27.68963719846547,-51.11494741205568,16.023417
103447,1577398092.2,-0.6237187300519244,0.4130873791206167,9.6843705298447,0.1091989537681021,1.4649010450409676,8.552497096215223,0.7256711222330725,1.2968592325846346,9.960106925455728,0.0837372570503048,-2.3297565739329267,0.2701922160823171,4.426723573266006,-6.826261194740853,0.7195821622522867,0.8946373349144345,-14.866056896391369,1.951490129743304,-9.433666500829776,-26.52812442765568,-1.228327991452992,-26.80314472853536,-49.96191927285677,-34.05526256644779,30.15326324617366,34.70593344715009,34.562164914487674,1577398091.999,-27.68963719846547,-51.11494741205568,16.023417
103448,1577398092.21,-0.0957972639874711,0.2442961620796016,9.916608090879858,-0.2331718836342415,-1.8774044725371564,7.702555506859755,1.0871955729166662,-1.0279105794270829,8.868350968424478,-1.3658477038871952,-3.2300251286204267,0.6058855754573171,-1.9209326767339936,2.695223180259146,0.4754415372522866,-1.6078040713355657,-13.584318615141369,0.9138924734933036,-10.421484982592052,-25.88889251373626,2.04721331908832,-25.88889961311836,-50.327016829621,-35.377628107410885,29.79384191451762,34.61008775870848,34.70593344715009,1577398091.999,-27.68963719846547,-51.11494741205568,16.023417
103449,1577398092.22,0.2405880692644809,0.8512262829292104,9.636486496641576,0.4204451695884146,1.1380925184296395,8.65065936428163,0.4204104105631506,1.1448274271647136,8.913840799967447,-1.6862822741996952,-3.642012433307927,0.3312273723323171,-3.477329161108994,-2.2486244759908534,0.2770772794397866,-0.7685706728980655,-13.721647716703869,1.1275155203683038,-9.433666500829776,-27.806588255494503,0.4094426638176527,-25.497080277939656,-43.02506569433652,-5.9917271971197295,29.96157186929044,34.753856291370894,34.65801060292928,1577398091.999,-27.68963719846547,-51.11494741205568,16.023417
103450,1577398092.23,0.8367442826433871,0.9110813244331168,8.501634909727516,-0.6521571741615853,0.0595046705292488,8.597986927758193,0.8765058268229163,-2.0789651082356766,9.12931894938151,-1.5642119616996952,-2.6349323551829267,0.7279558879573171,1.9547997451410064,-6.124356897865853,0.8111348966272867,-1.1195228213355657,-19.96249244326637,-0.7950919015066964,-9.532448349006003,-26.84774038461538,2.3201750949667663,-24.844048052641806,-44.48545592139342,-5.991727197119726,29.86572618084883,34.70593344715009,34.70593344715009,1577398091.999,-27.68963719846547,-51.11494741205568,16.023417
103451,1577398092.24,0.8128022660418246,0.568710487030773,8.590220371153297,-0.3385167566811166,0.5598928175019051,6.474330055199599,0.7807377604166663,-0.9967859578450518,9.12931894938151,-1.6557646960746952,-2.3907917301829267,0.5143328410823171,-2.989047911108994,1.1693442740091464,0.9332052091272868,-2.5233314150855657,-16.11727759951637,1.1885506766183036,-9.433666500829776,-26.52812442765568,-1.774251543209873,-26.933751173594928,-38.64389501316584,-5.110150169810997,29.86572618084883,34.94554766825411,34.70593344715009,1577398091.999,-27.68963719846547,-51.11494741205568,16.023417
103452,1577398092.25,0.1113011796160439,0.1916237255561636,9.590996665098608,0.347422018953649,0.1229510145233899,10.682139472924208,1.0321289347330724,-0.1528298726399741,11.589361155192057,-2.1745635241996952,-2.6044147770579267,0.3922625285823171,-2.073520567358994,-0.5854164681783538,0.5212179044397867,-2.3554847353980657,-0.7211594354538688,0.5476815359933036,-9.433666500829776,-25.88889251373626,-0.6824044396961103,-26.80314472853536,-43.390163251100745,-32.879826530036134,29.91364902506964,34.72989486926049,34.65801060292928,1577398091.999,-27.68963719846547,-51.11494741205568,16.023417
103453,1577398092.26,0.2765010941668246,-0.120819591094226,9.90942548589939,-1.0543830530678353,-0.2924429735137189,8.5812275161371,0.1534569254557288,2.0701863688151034,8.786948111979166,-2.0830107898246952,-2.6044147770579267,-0.0044659870426828,-2.226108457983994,-0.4480873666158537,0.7195821622522867,-2.3707435244605657,2.925691150483631,-1.3749258858816964,-10.02635758988714,-28.44582016941392,-0.6824044396961103,-26.80314472853536,-48.50152904579988,-34.05526256644779,29.86572618084883,34.8017791355917,34.70593344715009,1577398091.999,-27.68963719846547,-51.11494741205568,16.023417
103454,1577398092.27,0.0466577347918246,0.2071860363471792,9.444950363829076,0.5760682774985709,-0.0865416307402813,10.975429176293348,0.5054045694986975,-0.673568733723958,8.743852482096354,-3.9140654773246952,-1.780440167682927,-0.0960187214176828,-0.8833350204839938,-0.2649818978658537,0.0176778653772866,-2.7979896182105657,0.6063552129836309,-0.3068106515066964,-9.828793893534687,-25.88889251373626,-0.6824044396961103,-26.933751173594928,-50.327016829621,-7.167163233531377,29.96157186929044,34.8017791355917,34.70593344715009,1577398091.999,-27.68963719846547,-51.11494741205568,16.023417
103455,1577398092.28,0.1280605912371371,0.0946585583198354,9.217501206114232,0.7221145787681021,0.1480901319550301,8.478276844750381,1.1925404459635414,-2.3566925008138013,8.985666849772135,-3.1511260241996952,-2.4823444645579267,-0.0655011432926828,-5.064243223608994,-3.957608850990854,1.5740743497522869,-3.7745521182105657,-0.7059006463913691,1.5547616141183036,-9.532448349006003,-24.29081272893773,0.1364808879392175,-25.627686722999226,-50.327016829621,-7.167163233531377,29.86572618084883,34.8017791355917,34.70593344715009,1577398091.999,-27.68963719846547,-51.11494741205568,16.023417
103456,1577398092.29,-0.3651449507550498,0.009664399384289,10.519946909239234,-1.1597279261147102,-0.0230952867461412,9.18696053615663,0.3078829325358074,1.1532071329752598,7.830464548746744,-1.8083525866996952,-2.4060505192454267,0.5143328410823171,0.5204735732660063,-5.7734047494283525,0.6280294278772867,-2.6454017275855657,-4.551115490141369,1.1885506766183036,-10.322703134415825,-26.84774038461538,1.2283279914529803,-25.36647383288008,-35.35801700228783,-6.432515710774094,29.86572618084883,34.753856291370894,34.8497019798125,1577398091.999,-27.68963719846547,-51.11494741205568,16.023417
103457,1577398092.3,0.3363561356707309,0.0204383068549917,10.103355820372046,0.9064681066001332,-0.3570864183379376,9.208508351098036,0.3497814615885412,0.1979206705729159,11.027920865885417,-2.8459502429496952,-3.0316608708079267,-0.0349835651676828,-3.874057676733994,-6.429532679115853,0.5669942716272867,-1.1805579775855657,-2.536955333891369,1.0054452078683036,-10.322703134415825,-26.84774038461538,1.2283279914529803,-27.4561769538332,-46.67604126197876,-35.377628107410885,29.86572618084883,34.61008775870848,34.70593344715009,1577398091.999,-27.68963719846547,-51.11494741205568,16.023417
103458,1577398092.31,0.2645300858660434,-0.6140251330864135,9.183982382872044,0.8753434850181021,1.2637881055878426,12.306605299340225,1.00818691813151,0.9018159586588534,12.234598502604165,-3.1206084460746952,-3.0926960270579267,0.4532976848323171,-4.179233457983994,-0.0513588509908536,1.0247579435022869,-2.3097083682105657,4.604157947358631,0.5476815359933036,-9.334884652653546,-24.93004464285714,0.1364808879392175,-27.4561769538332,-46.67604126197876,-35.377628107410885,29.817803336628028,34.8017791355917,34.70593344715009,1577398091.999,-27.68963719846547,-51.11494741205568,16.023417
103459,1577398092.32,0.7242168046160433,0.5639220837104605,10.56663384161228,1.150676675936071,-0.3953936449004376,9.136682301293348,0.1869757486979163,0.590569742838541,12.30163614908854,-1.3658477038871952,-2.0245807926829267,0.1176043254573171,-0.5171240829839938,-3.652433069740854,1.4520040372522869,-2.9810950869605657,10.677155994233631,-0.0931876046316964,-9.73001204535846,-26.847740384615385,0.4094426638176641,-27.19496406371407,-46.67604126197876,-33.026756034587585,29.86572618084883,34.562164914487674,34.8017791355917,1577398091.999,-27.68963719846547,-51.11494741205568,16.023417
103460,1577398092.33,-0.1951566328839555,-0.6906395862114135,10.151239853575172,0.6873986546958364,0.573060926632765,11.469831819115614,0.8178478861490882,-0.6400499104817711,10.92856149698893,-2.9680205554496952,-2.5433796208079267,-0.3401593464176828,-3.980869200171494,-0.0666176400533536,0.1855245450647866,-3.1031653994605657,16.75015404110863,-0.0626700265066964,-9.828793893534687,-27.16735634157509,-0.6824044396961103,-17.33417746171653,-44.3029071430113,-7.0936984812556485,30.15326324617366,34.753856291370894,34.681972025039684,1577398091.999,-27.68963719846547,-51.11494741205568,16.023417
103461,1577398092.34,-0.0299567183331743,0.1928208263862417,10.74500186529392,1.2991171788657585,0.0642930738495613,10.044084730492568,0.9387550699869788,2.1396182169596347,11.078199100748696,-1.4116240710746952,-2.3602741520579267,-0.0044659870426828,1.9853173232660064,-1.8518959603658536,1.2383809903772869,-1.2110755557105657,19.03897240048363,-0.7950919015066964,-9.828793893534687,-27.16735634157509,-0.6824044396961103,-10.73855198620824,-38.64389501316584,-4.816291160708081,29.86572618084883,34.8017791355917,34.70593344715009,1577398091.999,-27.68963719846547,-51.11494741205568,16.023417
103462,1577398092.35,0.3124141190691684,-0.3674223620903197,9.952521115782202,-1.2195829676186165,-0.5294689378691877,8.188578443871474,0.9674854899088536,0.6169059611002597,11.26015842692057,-2.3271514148246952,-2.5433796208079267,-0.1265362995426828,-1.0664404892339938,-3.255704554115854,-0.7147440096227133,-2.8895423525855657,16.26187279110863,-2.3514883858816966,-9.828793893534687,-29.08505208333333,0.9553662155745456,-10.73855198620824,-38.64389501316584,-4.816291160708081,30.009494713511245,34.8017791355917,34.70593344715009,1577398091.999,-27.68963719846547,-51.11494741205568,16.023417
