,timestamp,acc_x_dashboard,acc_y_dashboard,acc_z_dashboard,acc_x_above_suspension,acc_y_above_suspension,acc_z_above_suspension,acc_x_below_suspension,acc_y_below_suspension,acc_z_below_suspension,gyro_x_dashboard,gyro_y_dashboard,gyro_z_dashboard,gyro_x_above_suspension,gyro_y_above_suspension,gyro_z_above_suspension,gyro_x_below_suspension,gyro_y_below_suspension,gyro_z_below_suspension,mag_x_dashboard,mag_y_dashboard,mag_z_dashboard,mag_x_above_suspension,mag_y_above_suspension,mag_z_above_suspension,temp_dashboard,temp_above_suspension,temp_below_suspension,timestamp_gps,latitude,longitude,speed
16544,1577399170.84,-0.98772789489746,-0.0556651885986328,10.633726963500976,-0.4269270326195686,0.941330018578506,11.792202313381289,-0.1480414693196611,0.1795081197102855,11.914288523356118,1.4728546142578125,0.8308410644531251,4.167938232421875,-3.144613126429116,-0.4192445336318597,4.524789205411585,-1.3613019670758928,-0.3000895182291667,2.3756481352306547,1.084589084031051,-10.250058294329126,0.0,-4.645330800886364,-60.95018315018314,-2.9362410103526866,30.5845688441609,33.699553718513194,31.25548866325217,1577399170.0,-27.696572502034087,-51.11097440802418,22.710833
16545,1577399170.85,-0.7459135272216787,-0.852934341430664,11.440572922973631,-0.6998660218773811,-0.2964722397222742,8.076401336818789,-0.0139661763509111,0.4572355122884106,12.314120200602211,-0.1445770263671875,-1.274871826171875,3.954315185546875,5.308756014195884,-3.68462539300686,4.250131002286585,0.9885515485491072,7.054646809895833,3.993079775855655,0.903824236692542,-9.30968597374847,0.8131454772079753,-3.571693875397591,-64.74863654863654,9.700745616481653,30.728337376823312,33.747476562734,31.447180040135382,1577399170.0,-27.696572502034087,-51.11097440802418,22.710833
16546,1577399170.86,-0.68127008239746,-0.4878185882568359,11.233474479370116,2.04388908066168,-0.4161823227300867,8.31821570449457,0.8431580179850253,1.7884116353352864,7.846539902750651,-0.6786346435546875,-0.5271911621093749,3.893280029296875,-0.3064783608041157,1.1981871069931402,3.090463033536585,2.819606236049107,0.6764729817708333,4.633948916480655,1.3557363550388128,-9.96794659815493,0.4065727386039876,-5.718967726375147,-62.84940984940984,10.592768201905251,30.48872315571929,34.03501362805883,31.447180040135382,1577399170.0,-27.696572502034087,-51.11097440802418,22.710833
16547,1577399170.87,-0.2862268084716787,0.4351461517333984,7.911519675903319,-1.7868335755883185,-0.6556024887457121,9.913951110988709,-0.2078965108235674,-1.5814272013346355,12.103430454508462,-0.2971649169921875,-0.5424499511718749,4.045867919921875,0.3649083579458844,-2.78435683831936,4.234872213224085,-0.5831037248883928,-6.800333658854166,5.518958682105655,2.349943015400604,-11.19043061490978,0.4878872863247865,-1.9612384871644155,-52.403663003663,1.8955479940251492,30.249108934615272,33.747476562734,31.47114146224579,1577399170.0,-27.696572502034087,-51.11097440802418,22.710833
16548,1577399170.88,-0.62380924255371,-1.4490905548095705,8.256284714965819,-0.5993095521508186,-1.4863904648199304,12.029228277736756,0.3260104593912754,0.1914791280110668,10.195251731363932,-2.6775360107421875,-3.624725341796875,4.259490966796875,3.4471837485708843,0.1300718726181402,4.158578267911585,1.1106218610491072,8.397420247395834,5.732581728980655,1.626883626046571,-8.93353704551621,-0.4878872863247798,-4.108512338141983,-50.029629629629625,-2.564564933092851,30.249108934615272,33.891245095396414,31.447180040135382,1577399170.0,-27.696572502034087,-51.11097440802418,22.710833
16549,1577399170.89,-0.2215833636474599,-0.527322915649414,8.50528168762207,0.6456753111304303,-1.407381810034774,11.169709881740662,-0.2438095357259111,2.1331766743977862,9.646979551188153,1.8695831298828125,-0.3898620605468749,4.717254638671875,2.1044103110708843,-0.0530335961318597,4.097543111661585,-1.1781964983258928,14.043172200520834,2.9554821196056547,1.084589084031051,-10.250058294329126,-1.3010327635327552,-6.255786189119516,-61.42498982498982,0.1115028231779464,30.392877467277685,33.891245095396414,31.447180040135382,1577399170.0,-27.696572502034087,-51.11097440802418,22.710833
16550,1577399170.9,0.0549469281005859,0.0329202728271484,9.776602769165038,-2.3207405458031625,-0.5550460190191492,8.325398309475037,-1.1583945699055986,-0.8332391825358071,7.985403599039713,1.1371612548828125,0.983428955078125,4.122161865234375,-0.6726892983041157,-5.08843398675686,4.891000142911585,-1.9716535295758928,11.693318684895834,2.6197887602306547,1.4461187787080676,-10.438132758445256,-1.3010327635327552,2.333309214790685,-65.22344322344321,9.626410401029688,30.608530266271305,33.65163087429239,31.30341150747297,1577399170.0,-27.696572502034087,-51.11097440802418,22.710833
16551,1577399170.91,-1.04518873474121,-0.6733692169189452,11.047923850708006,0.5846231687964464,0.4229853591546778,10.87043467422113,-1.6061102803548175,-0.0946279703776045,8.797037961832682,1.3202667236328125,-1.000213623046875,4.747772216796875,1.539835115758384,3.2123472632431405,4.524789205411585,0.6223406110491072,-5.488077799479166,2.1620250883556547,2.892237557416128,-9.873909366096864,-0.3252581908831888,-3.034875412653199,-63.32421652421653,-1.9698832094771224,30.48872315571929,33.819360829065204,31.35133435169377,1577399170.0,-27.696572502034087,-51.11097440802418,22.710833
16552,1577399170.92,-1.2271480609130858,0.1885433807373046,11.3711410748291,-0.7501442567406624,-0.5382866073980554,6.922396136623475,1.978009604899088,-2.1572327006022136,9.60388392130534,0.3131866455078124,0.1289367675781251,3.832244873046875,2.1959630454458843,-1.91460586175686,4.921517721036585,1.2326921735491072,-14.155069986979166,3.993079775855655,1.4461187787080658,-10.250058294329126,0.9757745726495798,-6.255786189119516,-62.374603174603166,-4.497280534843986,30.48872315571929,33.939167939617214,31.25548866325217,1577399170.0,-27.696572502034087,-51.11097440802418,22.710833
16553,1577399170.93,-1.1768698260498036,-1.025316860961914,8.797374290161132,-1.6407872743187872,-1.92692357028868,12.532010626369567,0.2422134012858066,0.0645864400227855,13.939783127848306,-0.6938934326171875,-0.8781433105468749,4.228973388671875,2.5926915610708843,-7.16362929925686,3.853402486661585,0.9580339704241072,-4.450480143229167,5.488441103980655,1.084589084031051,-8.745462581400078,-0.6505163817663776,-5.718967726375147,-64.74863654863654,10.444097771001324,30.34495462305688,33.699553718513194,31.20756581903136,1577399170.0,-27.696572502034087,-51.11097440802418,22.710833
16554,1577399170.94,-0.6501454608154287,-0.2627636322021484,10.06270986755371,0.2530262388648053,0.108147840844131,10.705234759670349,-0.0067835713704423,-0.8188739725748696,12.13216087443034,0.9235382080078124,-2.526092529296875,4.457855224609375,0.2123204673208842,-0.6939027367568598,2.571664205411585,5.016871861049108,1.6225179036458333,7.716224307105655,1.53650120237732,-10.53216999050332,-1.0570891203703685,-5.718967726375147,-64.74863654863654,10.444097771001324,30.512684577829692,33.84332225117561,31.447180040135382,1577399170.0,-27.696572502034087,-51.11097440802418,22.710833
16555,1577399170.95,-0.2862268084716787,0.5668272430419922,10.288961924438476,-0.7166254334984754,-0.1073303085699309,11.320544586330506,0.5582480204264321,2.313938899739583,9.952240262858073,1.9916534423828125,0.2510070800781251,3.862762451171875,2.2264806235708843,-0.5565736351943598,4.723153463224085,2.667018345424108,7.420857747395834,5.198524111793155,1.2653539313695563,-10.81428168667752,-0.4878872863247798,-6.255786189119516,-50.029629629629625,7.0990130756628185,30.5845688441609,33.91520651750682,31.27945008536257,1577399170.0,-27.696572502034087,-51.11097440802418,22.710833
16556,1577399170.96,-0.3436876483154287,-0.977432827758789,9.410289915161131,-0.5681849305687874,0.7354286758050684,9.63263241592035,-1.8096174214680985,-2.3200384134928385,12.0411812113444,-2.6775360107421875,-4.753875732421875,4.778289794921875,4.057535311070884,-3.0437562523818595,4.768929830411585,-1.8190656389508928,14.073689778645834,1.6432262602306549,3.0730024047546407,-11.19043061490978,-0.8131454772079686,-1.9612384871644155,-46.23117623117623,-2.564564933092851,30.48872315571929,33.747476562734,31.39925719591458,1577399170.0,-27.696572502034087,-51.11097440802418,22.710833
16557,1577399170.97,-0.2431311785888661,-0.8888473663330078,8.493310679321288,0.0734611143530866,-0.3659040878668054,11.401947442775818,-1.03629028523763,-2.114137070719401,10.2024343363444,-0.5107879638671875,-0.8476257324218749,4.442596435546875,1.8907872641958845,6.1420347632431405,4.585824361661585,0.7138933454241072,20.940144856770832,2.5587536039806547,2.1691781680620985,-10.250058294329126,0.0,3.943764603023849,-55.25250305250305,9.403404754673788,30.34495462305688,33.747476562734,31.30341150747297,1577399170.0,-27.696572502034087,-51.11097440802418,22.710833
16558,1577399170.98,-0.0372298358154287,0.2184709014892578,9.450991343383787,-0.2138430848656624,-0.4975851791753997,9.789452624660584,0.7282363382975253,-0.6381117472330733,6.812244785563151,1.3507843017578125,0.0068664550781251,4.564666748046875,0.1512853110708845,-0.61760879144436,4.158578267911585,0.6070818219866072,5.559285481770834,3.336951846168155,2.4403254390698583,-10.156021062271062,-0.4065727386039843,-4.913740032258559,-64.03642653642653,3.9397664189542336,30.5606074220505,33.7953994069548,31.375295773804176,1577399170.0,-27.696572502034087,-51.11097440802418,22.710833
16559,1577399170.99,-1.404318983764648,-1.60231946105957,9.86518823059082,-1.2313787904320683,-1.340344163550399,9.149003680568788,-0.9070033955891924,0.0837400533040355,11.303767100016277,1.2897491455078125,1.441192626953125,4.656219482421875,6.407388826695884,-3.86773086175686,3.182015767911585,1.0495867047991072,-9.760538736979166,4.176185244605655,2.1691781680620985,-10.626207222561389,-0.3252581908831888,-5.182149263630755,-63.32421652421653,-1.8212127785731853,30.392877467277685,33.84332225117561,31.30341150747297,1577399170.0,-27.696572502034087,-51.11097440802418,22.710833
16560,1577399171.0,-0.4921281512451161,0.2531868255615234,8.876382944946288,0.4637159849585553,-0.974031309546493,10.166539386135192,0.3188278544108066,-3.191527817789713,12.48171431681315,1.0150909423828125,0.4341125488281251,4.106903076171875,4.027017732945884,-0.1751039086318597,4.494271627286585,6.908961704799108,-4.480997721354167,5.274818057105655,0.0,-9.873909366096864,0.6505163817663843,0.1860353638131292,-64.27382987382987,-3.7539283803243206,30.680414532602512,33.699553718513194,31.39925719591458,1577399171.0,-27.69636825301194,-51.11098054846157,22.685877
16561,1577399171.01,-0.2167949603271474,-0.6937199310302734,11.209532462768554,-0.2210256898461311,-1.031492149390243,12.800161212307067,-1.6539943135579422,-0.6033958231608072,12.627760618082682,0.1605987548828125,-2.571868896484375,4.610443115234375,0.7921544516958843,3.670110935118141,4.677377096036585,0.2561296735491072,2.599080403645833,5.335853213355655,2.1691781680620985,-11.002356150793648,0.6505163817663843,-5.718967726375147,-63.7990231990232,-3.530922733968421,30.36891604516728,33.891245095396414,31.39925719591458,1577399171.0,-27.69636825301194,-51.11098054846157,22.685877
16562,1577399171.02,-0.0755370623779287,0.6793547210693359,10.667245786743162,-0.3946053102074592,0.7198663650140533,10.79382022109613,0.2541844095865884,0.615252821858724,9.688878080240883,1.9611358642578125,0.2510070800781251,4.320526123046875,2.0128575766958843,0.9082701148056403,4.356942525724085,2.789088657924107,3.056844075520833,4.664466494605655,2.349943015400604,-11.19043061490978,1.1384036680911775,-1.1560107930478336,-63.79902319902319,10.221092124645423,30.5366459999401,33.74747656273399,31.447180040135382,1577399171.0,-27.69636825301194,-51.11098054846157,22.685877
16563,1577399171.03,-0.2814384051513662,0.1789665740966796,9.477327561645506,-0.5801559388695686,-0.0714172836675867,10.633408709865662,2.499945566813151,-0.5339639750162759,10.283837192789711,0.7404327392578125,-0.9696960449218748,4.228973388671875,-0.5811365639291157,-0.1751039086318597,4.005990377286585,0.5918230329241072,5.284627278645833,4.176185244605655,2.1691781680620985,-9.873909366096864,-0.3252581908831888,-6.255786189119516,-63.32421652421653,-3.1592466567085857,30.48872315571929,33.891245095396414,31.447180040135382,1577399171.0,-27.69636825301194,-51.11098054846157,22.685877
16564,1577399171.04,-0.83449898864746,-0.2735375396728515,7.990528330688476,-0.2713039247094124,-1.4049876083746178,7.482639325100038,-0.6675832295735673,0.6200412251790355,10.11384887491862,1.0150909423828125,-0.9086608886718748,4.717254638671875,5.552896639195884,4.1889097632431405,4.768929830411585,6.573268345424108,13.982137044270834,2.9249645414806547,2.7114727100776186,-11.566579543142042,0.8131454772079753,2.333309214790685,-48.13040293040292,-2.2672240712849896,30.5845688441609,33.84332225117561,31.30341150747297,1577399171.0,-27.69636825301194,-51.11098054846157,22.685877
16565,1577399171.05,-0.5843049151611318,-0.6602011077880859,10.12735331237793,-0.4532632508812874,-0.6340546738043055,11.737135675197694,1.214259275309244,-1.5275576639811197,12.5008679300944,0.6031036376953125,-0.3898620605468749,4.671478271484375,3.2945958579458843,-2.9522035180068595,4.036507955411585,-0.6288800920758928,17.278035481770832,3.1996227446056547,1.084589084031051,-10.626207222561389,-0.6505163817663776,2.333309214790685,-65.22344322344321,6.9503426447588845,30.512684577829692,33.939167939617214,31.447180040135382,1577399171.0,-27.69636825301194,-51.11098054846157,22.685877
16566,1577399171.06,0.0537498272705078,0.5309142181396485,11.912230650024412,0.3835102293433209,-0.8339705124273528,10.049223504787538,-0.5921658772786459,-0.6177610331217452,6.946320078531901,3.0292510986328125,1.074981689453125,4.595184326171875,0.9752599204458844,-1.1669251976943602,4.311166158536585,3.521510532924108,3.926595052083334,4.038856143043155,1.626883626046571,-9.685834901980732,-0.8131454772079686,2.333309214790685,-57.62653642653642,6.9503426447588845,30.48872315571929,33.86728367328601,31.447180040135382,1577399171.0,-27.69636825301194,-51.11098054846157,22.685877
16567,1577399171.07,-0.8608352069091787,-0.8337807281494141,11.65844527404785,-0.1635648500023811,0.2470115371331935,10.994933160549255,-0.94052221883138,-0.9218246439615884,9.728382407633465,1.9916534423828125,2.143096923828125,4.778289794921875,4.027017732945884,-5.42412734613186,4.372201314786585,4.192897251674108,-9.852091471354166,3.4742809477306547,1.626883626046571,-11.566579543142042,-0.4878872863247798,2.333309214790685,-65.22344322344321,-1.9698832094771224,30.392877467277685,33.939167939617214,31.447180040135382,1577399171.0,-27.69636825301194,-51.11098054846157,22.685877
16568,1577399171.08,-0.5519831927490224,-0.2831143463134765,9.039188657836911,-2.4548158387719123,-0.399422911108993,8.900006707912539,-0.2485979390462236,-0.2035641459147134,13.288560276285809,-0.9685516357421876,-0.2372741699218749,4.320526123046875,2.6232091391958843,-4.96636367425686,4.555306783536585,2.178737095424107,-2.6499430338541665,4.511878603980655,1.4461187787080658,-11.37850507902591,0.0,-5.718967726375147,-45.75636955636956,7.322018722018717,30.5366459999401,33.939167939617214,31.25548866325217,1577399171.0,-27.69636825301194,-51.11098054846157,22.685877
16569,1577399171.09,-0.7147889056396475,-0.5955576629638671,11.6009844342041,0.4529420774878526,0.3643274184808502,11.271463452297304,-0.1839544942220053,-1.0056217020670573,12.221943436686198,1.3813018798828125,-2.175140380859375,4.976654052734375,1.7839757407583845,0.25214218511814,4.067025533536585,-2.917698451450893,4.552205403645833,5.198524111793155,2.1691781680620985,-11.37850507902591,-0.3252581908831888,-1.9612384871644268,-61.42498982498982,7.024677860210852,30.36891604516728,33.891245095396414,31.447180040135382,1577399171.0,-27.69636825301194,-51.11098054846157,22.685877
16570,1577399171.1,-0.6381744525146474,0.1310825408935546,11.826039390258789,0.1381045591773053,-0.9620603012457116,7.473062518459413,-1.3954205342610673,1.0629685323079416,8.899988633219401,2.6020050048828125,2.539825439453125,4.381561279296875,2.1959630454458843,8.76654648199314,4.311166158536585,0.8969988141741072,5.132039388020833,5.305335635230655,2.1691781680620985,-11.37850507902591,-0.3252581908831888,-1.9612384871644155,-64.27382987382987,10.667103417357222,30.48872315571929,33.891245095396414,31.111720130589752,1577399171.0,-27.69636825301194,-51.11098054846157,22.685877
16571,1577399171.11,-0.3700238665771474,-0.048482583618164,9.702382517700194,-1.0757556825219123,-0.6795445053472743,10.937472320705506,0.8120333964029941,-1.6759981669108073,9.874428708902997,0.6793975830078125,-0.5119323730468749,4.595184326171875,3.5387364829458843,-0.7854554711318598,4.250131002286585,1.9345964704241072,0.1881917317708333,3.871009463355655,1.9884133207235888,-11.19043061490978,-1.7889200498575484,-1.9612384871644155,-64.27382987382987,10.667103417357222,30.392877467277685,33.84332225117561,31.20756581903136,1577399171.0,-27.69636825301194,-51.11098054846157,22.685877
16572,1577399171.12,-0.4418499163818349,0.2460042205810546,7.995316734008788,-0.1396228334008186,0.6037475844964747,8.555241668850037,-0.9093975972493484,-1.8052850565592449,10.6238138285319,-1.2126922607421875,-3.777313232421875,4.900360107421875,2.4401036704458843,-1.85357070550686,4.433236471036585,5.261012486049108,3.026326497395833,4.298255557105655,2.530707862739113,-11.37850507902591,-1.951549145299146,-0.3507830989312626,-47.65559625559625,-2.1928888558330213,30.48872315571929,33.699553718513194,31.30341150747297,1577399171.0,-27.69636825301194,-51.11098054846157,22.685877
16573,1577399171.13,-0.3436876483154287,-0.7056909393310546,9.377968192749025,-0.1635648500023816,-0.7082749252691491,10.608269592434022,0.0422975626627602,0.2633051778157552,10.10187786661784,0.6641387939453125,-0.2830505371093749,4.656219482421875,0.5480138266958842,0.3131773413681402,3.853402486661585,0.4544939313616072,3.484090169270833,4.542396182105655,1.807648473385084,-11.002356150793648,-0.6505163817663776,-4.108512338141966,-57.62653642653642,7.322018722018717,30.48872315571929,33.96312936172762,31.351334351693776,1577399171.0,-27.69636825301194,-51.11098054846157,22.685877
16574,1577399171.14,-0.2646789935302724,-0.038905776977539,10.839628306274411,0.4301971617163678,-0.2725302231207117,8.0045752870141,0.2972800394694003,0.4213224873860668,9.14419720255534,2.9682159423828125,1.685333251953125,4.686737060546875,2.8978673423208843,-0.7244203148818598,4.952035299161585,-0.7204328264508928,-3.657023111979168,4.389808291480655,1.807648473385084,-11.002356150793648,-0.6505163817663776,3.406946140279458,-59.52576312576312,7.842365230182486,30.680414532602512,33.891245095396414,31.30341150747297,1577399171.0,-27.69636825301194,-51.11098054846157,22.685877
16575,1577399171.15,-0.5519831927490224,-0.412401235961914,11.033558640747067,-0.7429616517601936,-0.3922403061285242,11.31815038467035,-1.9101738911946609,0.5027253438313793,10.87999340616862,1.9306182861328125,2.417755126953125,4.290008544921875,3.752359529820884,-5.60723281488186,4.463754049161585,2.880641392299107,-6.434122721354167,2.6808239164806547,3.253767252093146,-9.497760437864605,0.6505163817663843,-1.4244200244200351,-64.74863654863654,-2.4902297176408887,30.392877467277685,33.891245095396414,31.30341150747297,1577399171.0,-27.69636825301194,-51.11098054846157,22.685877
16576,1577399171.16,-0.9218873492431632,-0.2364274139404296,10.782167466430662,-0.8291529115258186,0.5031911147699122,11.239141729885192,0.7186595316569003,-1.1827926249186196,11.744300205485024,0.0232696533203124,-0.908660888671875,4.503631591796875,2.3180333579458843,0.6183531226181402,4.799447408536585,4.589625767299108,-2.3752848307291665,3.1996227446056547,2.89223755741613,-10.061983830212997,0.813145477207982,-2.4980569499088072,-62.84940984940984,-3.679593164872359,30.440800311498485,33.939167939617214,31.30341150747297,1577399171.0,-27.69636825301194,-51.11098054846157,22.685877
16577,1577399171.17,-0.5256469744873037,-0.4291606475830078,10.389518394165036,0.5846231687964459,-0.7130633285894622,10.7243883729516,0.5019842814127597,-1.933374845377604,10.204828538004556,1.1981964111328125,-0.3898620605468749,4.656219482421875,4.408487459508384,-2.31133437738186,4.417977681974085,1.3242449079241072,-1.9327799479166663,5.656287783668155,2.530707862739113,-9.873909366096864,0.6505163817663843,-1.9612384871644155,-50.029629629629625,8.585717384702152,30.680414532602512,33.86728367328601,31.30341150747297,1577399171.0,-27.69636825301194,-51.11098054846157,22.685877
16578,1577399171.18,-0.3532644549560537,0.5500678314208984,9.963350498657226,0.5020232115210553,-0.1576085434332117,9.48658611465082,-0.5981513814290361,1.6447595357259113,10.207222739664711,2.4188995361328125,0.7392883300781251,4.564666748046875,1.7381993735708845,2.8461363257431405,4.707894674161585,2.880641392299107,-1.2156168619791667,7.472083682105655,2.530707862739113,-9.873909366096864,0.6505163817663843,3.406946140279458,-44.33194953194953,7.0990130756628185,30.48872315571929,33.939167939617214,31.39925719591458,1577399171.0,-27.69636825301194,-51.11098054846157,22.685877
16579,1577399171.19,-0.5807136126708974,-0.134673843383789,9.24509000061035,-0.9033731629906624,-1.203874668921493,8.392435955959414,0.2374249979654941,1.1180351704915354,10.02286921183268,-0.0530242919921875,-2.678680419921875,4.595184326171875,3.3251134360708843,-3.5320375023818595,3.975472799161585,2.911158970424107,-0.9409586588541669,5.824134463355655,2.7114727100776186,-10.061983830212997,-1.138403668091164,2.333309214790685,-50.029629629629625,-3.456587518516453,30.680414532602512,33.84332225117561,31.25548866325217,1577399171.0,-27.69636825301194,-51.11098054846157,22.685877
16580,1577399171.2,-0.3424905474853505,-0.240018716430664,10.184814152221678,0.4397739683569928,0.0482927993402247,10.235971234279724,-1.864684059651692,0.0550096333821605,9.318973923746745,0.9540557861328124,-2.236175537109375,4.640960693359375,0.4564610923208843,0.0995542944931402,4.372201314786585,1.5073503766741072,0.7985432942708333,4.115150088355655,2.9826199810853824,-10.720244454619454,-0.5692018340455788,2.333309214790685,-63.32421652421653,-2.564564933092851,30.440800311498485,34.03501362805883,31.543025728577,1577399171.0,-27.69636825301194,-51.11098054846157,22.685877
16581,1577399171.21,-0.7674613421630849,-0.3118447662353515,10.53556469543457,-1.1356107240258186,-0.4532924484625086,9.31300649428949,-0.7310295735677079,-0.6728276713053384,8.349322251383462,0.4352569580078124,-0.0541687011718748,4.778289794921875,2.1196691001333843,-4.55437636956936,4.356942525724085,-0.6899152483258928,-5.762736002604166,2.9554821196056547,2.7114727100776186,-10.81428168667752,0.1626290954415977,2.333309214790685,-62.84940984940985,-1.2265310549574522,30.392877467277685,33.86728367328601,31.543025728577,1577399171.0,-27.69636825301194,-51.11098054846157,22.685877
16582,1577399171.22,-0.1856703387451161,0.3681085052490234,8.991304624633788,0.4517449766577741,-0.2485882065191492,10.01570468154535,-1.3044408711751296,-2.2625775736490885,10.561564585367838,1.5338897705078125,0.7392883300781251,4.167938232421875,-0.1538904701791157,-1.97564101800686,5.409798971036585,3.277369907924107,-12.903849283854166,4.115150088355655,2.7114727100776186,-10.81428168667752,0.1626290954415977,2.333309214790685,-58.57614977614978,7.0990130756628185,30.5845688441609,33.65163087429239,31.447180040135382,1577399171.0,-27.69636825301194,-51.11098054846157,22.685877
16583,1577399171.23,-0.7578845355224599,-0.546476528930664,8.763855466918944,-1.6168452577172248,-1.3187963486089929,10.6860811463891,0.9532912943522128,0.6583484517415354,12.077094236246744,-1.7925262451171875,-1.549530029296875,4.839324951171875,3.935464998570884,-2.7080628930068595,4.158578267911585,2.178737095424107,-4.114786783854167,6.709144228980655,2.349943015400604,-10.061983830212997,-0.162629095441591,4.48058306576823,-61.42498982498982,-2.2672240712849896,30.392877467277685,33.699553718513194,31.39925719591458,1577399171.0,-27.69636825301194,-51.11098054846157,22.685877
16584,1577399171.24,-0.556771596069335,-0.4339490509033203,10.582251627807617,0.1237393492163678,-0.1264839218511805,11.088307025295348,-0.4233746602376299,-0.2610249857584634,10.865628196207682,0.6031036376953125,-1.519012451171875,4.671478271484375,2.0738927329458843,0.1300718726181402,3.120980611661585,0.5002702985491072,2.324422200520833,4.267737978980655,2.349943015400606,-10.061983830212997,-0.3252581908831888,-34.17034625182773,-46.23117623117623,7.247683506566751,30.680414532602505,33.939167939617214,31.30341150747297,1577399171.0,-27.69636825301194,-51.11098054846157,22.685877
16585,1577399171.25,-0.2096123553466786,0.0113724578857421,11.708723508911133,0.0531104002417589,-0.1456375351324304,10.46940589614496,-0.0319226888020834,-1.2199027506510416,8.883229221598308,0.9235382080078124,-0.3288269042968749,4.747772216796875,2.1654454673208843,0.4657652319931396,4.540047994474085,2.331324986049107,-2.482096354166667,4.191444033668155,3.434532099431656,-11.19043061490978,0.4878872863247865,-18.065792369496076,-53.35327635327635,7.099013075662818,30.680414532602512,33.7714379848444,31.543025728577,1577399171.0,-27.69636825301194,-51.11098054846157,22.685877
16586,1577399171.26,-0.3197456317138661,0.2699462371826172,10.269808311157226,-0.0294895570336311,0.9437242202386622,9.285473175197694,0.1081381083170566,-1.0870245585123697,9.740353415934246,0.0385284423828124,1.319122314453125,3.923797607421875,1.7076817954458845,0.6488707007431402,4.952035299161585,0.1645769391741072,-5.091349283854167,6.098792666480655,3.434532099431656,-11.19043061490978,0.4878872863247865,-6.255786189119516,-63.32421652421653,7.247683506566751,30.5845688441609,33.747476562734,31.39925719591458,1577399171.0,-27.69636825301194,-51.11098054846157,22.685877
16587,1577399171.27,-0.6094440325927724,0.0544680877685546,9.434231931762694,-0.9895644227562872,0.0842058242425685,10.87043467422113,0.1392627298990879,1.1970438252766915,10.034840220133464,-1.9451141357421875,-3.014373779296875,4.351043701171875,-0.1538904701791157,2.2052671851181405,4.707894674161585,0.5002702985491072,-3.992716471354168,5.335853213355655,3.9768266414471753,-9.497760437864605,0.3252581908831954,-1.9612384871644155,-46.23117623117623,-3.3079170876125223,30.34495462305688,33.939167939617214,31.447180040135382,1577399171.0,-27.69636825301194,-51.11098054846157,22.685877
16588,1577399171.28,-0.83449898864746,-0.1370680450439453,9.86399112976074,-2.0130856324730844,-0.9429066879644624,11.518066223293395,-0.4377398701985673,0.1483834981282552,12.223140537516276,-0.2819061279296875,-1.808929443359375,4.427337646484375,1.9975987876333845,-3.94402480706936,4.265389791349085,-0.8882795061383928,6.184895833333334,5.000159853980655,3.524914523100908,-10.720244454619452,-0.5692018340455787,6.627856916745797,-61.42498982498982,-2.118553640381053,30.680414532602512,33.93916793961722,31.375295773804176,1577399171.0,-27.69636825301194,-51.11098054846157,22.685877
16589,1577399171.29,-0.5663484027099599,-0.9798270294189452,9.458173948364257,0.7198955625952741,-1.6276483627691491,11.741924078518004,-0.5311137349446611,1.0581801289876291,7.4443140238444,-1.0906219482421875,-0.5424499511718749,4.137420654296875,3.935464998570884,4.5856382788681405,4.677377096036585,0.5613054547991072,10.869344075520834,3.4742809477306547,2.349943015400604,-10.438132758445256,0.4878872863247865,28.637413889265726,-57.15172975172975,7.768030014730519,30.392877467277685,33.84332225117561,31.447180040135382,1577399171.0,-27.69636825301194,-51.11098054846157,22.685877
16590,1577399171.3,0.0393846173095703,-0.5057751007080078,10.365576377563476,0.6720115293921491,-1.3906223984136803,10.8393100526391,1.223836081949869,-0.1484975077311197,8.31340922648112,-0.5718231201171875,-1.061248779296875,4.717254638671875,-2.198568204554116,0.2521421851181402,4.585824361661585,-0.8730207170758928,0.9511311848958331,2.5892711821056547,2.349943015400604,-10.438132758445256,0.4878872863247865,5.017401528512633,-53.35327635327634,7.024677860210852,30.392877467277685,33.699553718513194,31.25548866325217,1577399171.0,-27.69636825301194,-51.11098054846157,22.685877
16591,1577399171.31,-0.4298789080810537,0.163404263305664,10.072286674194334,-1.7365553407250374,1.6045238784417872,8.615096710353944,0.6157088602701816,-1.9345719462076825,9.8576692972819,-0.0072479248046875,0.815582275390625,4.290008544921875,3.935464998570884,-3.3794496117568595,4.646859517911585,-0.5678449358258928,-6.922403971354167,2.3451305571056547,2.1691781680620985,-9.685834901980732,0.3252581908831955,2.333309214790685,-50.029629629629625,-2.564564933092851,30.392877467277685,33.747476562734,31.447180040135382,1577399171.0,-27.69636825301194,-51.11098054846157,22.685877
16592,1577399171.32,-0.5591657977294912,-0.9846154327392578,9.88434184387207,0.5858202696265244,-0.8255908066168054,12.609822180324644,-0.2545834431966142,-0.0670946512858076,13.404679056803383,-2.1587371826171875,-2.129364013671875,4.320526123046875,-1.969686368616616,1.6864683569931405,4.036507955411585,0.4392351422991072,1.3326009114583333,4.878089541480655,1.9884133207235888,-10.061983830212997,-0.8131454772079686,-6.255786189119516,-60.47537647537647,9.329069539221818,30.392877467277685,33.7953994069548,31.30341150747297,1577399171.0,-27.69636825301194,-51.11098054846157,22.685877
16593,1577399171.33,-0.0827196673583974,-0.3190273712158203,10.77019645812988,-0.9895644227562872,1.547063038598037,7.829798565822695,-0.1935313008626298,-2.5259397562662755,10.4705849222819,0.8319854736328125,-0.0236511230468748,4.381561279296875,3.752359529820884,-5.54619765863186,3.731332174161585,-0.2626691545758928,3.423055013020833,5.946204775855655,3.434532099431656,-10.061983830212997,0.4878872863247865,-6.255786189119516,-61.42498982498982,6.9503426447588845,30.249108934615272,33.699553718513194,31.447180040135382,1577399171.0,-27.69636825301194,-51.11098054846157,22.685877
16594,1577399171.34,0.1016338604736328,-0.105943423461914,10.633726963500976,0.8228462339819929,-0.0402926620855554,11.270266351467225,0.2853090311686191,0.0645864400227855,9.218417454020184,-0.5107879638671875,-0.2983093261718749,3.984832763671875,-0.2454432045541157,11.84882187261814,4.005990377286585,0.0119890485491072,1.4394124348958333,5.793616885230655,3.434532099431656,-10.061983830212997,0.4878872863247865,-1.9612384871644155,-61.42498982498982,6.9503426447588845,30.5845688441609,33.84332225117561,31.447180040135382,1577399171.0,-27.69636825301194,-51.11098054846157,22.685877
16595,1577399171.35,0.4440046978759765,-0.240018716430664,9.070313279418944,0.1452871641577741,-0.993184922827743,14.497650189357849,-0.6556122212727861,1.4268871846516926,9.668527366129558,-1.0448455810546875,0.0373840332031251,3.923797607421875,2.2875157798208843,-8.29277968988186,3.853402486661585,-0.3542218889508928,1.1647542317708333,4.481361025855655,3.6152969467701626,-10.061983830212997,0.6505163817663843,0.7228538265575211,-44.806756206756205,7.024677860210852,30.46476173360889,33.84332225117561,31.25548866325217,1577399171.0,-27.69636825301194,-51.11098054846157,22.685877
16596,1577399171.36,-0.0994790789794912,-0.2448071197509765,9.4557797467041,-1.5462163087426155,-0.9429066879644616,9.475812207180116,-0.5861803731282549,-1.280954892985026,12.49488242594401,-0.2971649169921875,1.563262939453125,4.259490966796875,1.9060460532583845,0.4657652319931404,5.028329244474085,0.5460466657366072,11.876424153645834,2.6808239164806547,2.349943015400604,-10.061983830212997,-0.8131454772079686,2.333309214790692,-56.67692307692308,2.192888855833017,30.34495462305688,33.74747656273399,31.27945008536257,1577399171.0,-27.69636825301194,-51.11098054846157,22.685877
16597,1577399171.37,-0.5424063861083974,-0.5967547637939453,9.43662613342285,1.170005474704649,-0.7106691269293055,11.610242987209412,1.8415401102701816,-1.1325143900553385,7.365305369059245,0.2826690673828124,2.509307861328125,4.015350341796875,4.912027498570884,-0.9075257836318598,3.120980611661585,-1.2392316545758928,10.625203450520834,2.5892711821056547,2.1691781680620985,-9.497760437864605,-0.3252581908831888,2.333309214790685,-50.029629629629625,6.9503426447588845,30.680414532602512,33.747476562734,31.543025728577,1577399171.0,-27.69636825301194,-51.11098054846157,22.685877
16598,1577399171.38,-0.5519831927490224,-0.5345055206298828,10.11418520324707,1.6057501768530864,0.4864317031488184,11.861634161525815,2.131238511149088,0.7780585347493479,6.03412924601237,0.1300811767578124,1.105499267578125,4.076385498046875,-4.151693204554116,6.4777281226181405,4.524789205411585,0.0730242047991072,2.324422200520833,3.840491885230655,2.1691781680620985,-9.497760437864605,-0.3252581908831888,2.333309214790685,-50.029629629629625,6.9503426447588845,30.680414532602512,33.891245095396414,31.447180040135382,1577399171.0,-27.69636825301194,-51.11098054846157,22.685877
16599,1577399171.39,-1.0380061297607412,-0.3693056060791015,10.760619651489256,-3.3358820497094124,0.405028846703506,8.665374945217225,-0.7178614644368486,-0.6129726298014321,10.5088921488444,0.2826690673828125,0.830841064453125,3.847503662109375,7.414468904820884,-8.50640273675686,4.219613424161585,-1.8495832170758928,-7.044474283854167,3.4132457914806547,4.338356336124196,-9.685834901980732,-0.3252581908831854,-4.108512338141983,-50.029629629629625,-1.3752014858613844,30.5606074220505,33.747476562734,31.39925719591458,1577399171.0,-27.69636825301194,-51.11098054846157,22.685877
16600,1577399171.4,-0.8273163836669912,-0.6039373687744141,10.928213767700194,1.216692407077696,-1.1919036606207123,10.88360278335199,0.6564102884928379,-1.513192454020182,11.387564158121744,-1.5483856201171875,-0.2677917480468749,3.832244873046875,1.158365389195884,-1.10589004144436,3.761849752286585,0.2866472516741072,-2.192179361979167,4.359290713355655,0.903824236692542,-10.061983830212997,-0.4878872863247798,-1.9612384871644268,-57.15172975172975,2.0442184249290847,30.5845688441609,33.7953994069548,31.327372929583376,1577399171.0,-27.69636825301194,-51.11098054846157,22.685877
16601,1577399171.41,-0.1282094989013662,0.0831985076904296,10.600208140258788,-0.5322719056664437,-0.2318287948980554,13.199992889553162,-0.6101223897298174,-1.83401547648112,10.17849231974284,1.0761260986328125,0.5561828613281251,4.198455810546875,-0.0318201576791157,-6.55327773675686,3.944955221036585,0.1035417829241072,5.284627278645833,6.373450869605655,2.7114727100776186,-10.061983830212997,0.4878872863247865,1.2596722893019128,-58.57614977614978,10.815773848261154,30.392877467277685,33.84332225117561,31.5909485727978,1577399171.0,-27.69636825301194,-51.11098054846157,22.685877
16602,1577399171.42,0.2835931866455078,-0.3908534210205078,11.00722242248535,-1.006323834377381,0.2350405288324122,9.280684771877382,-1.1967017964680986,1.5585682759602864,10.556776182047525,0.1300811767578124,0.4341125488281251,4.015350341796875,5.003580232945884,-4.02031875238186,4.555306783536585,-0.6899152483258928,0.7985432942708333,5.274818057105655,2.7114727100776186,-10.061983830212997,0.4878872863247865,2.333309214790685,-65.22344322344321,9.329069539221818,30.680414532602512,33.939167939617214,31.447180040135382,1577399171.0,-27.69636825301194,-51.11098054846157,22.685877
16603,1577399171.43,-0.614232435913085,-0.5392939239501953,9.070313279418944,0.5355420347632434,-1.4289296249761805,11.113446142726987,-0.3347891988118491,1.507092940266927,10.909920926920572,-0.2971649169921875,-0.3898620605468749,4.167938232421875,-0.2759607826791158,5.6995298804306405,3.639779439786585,1.5226091657366072,0.4475911458333332,2.787635439918155,2.982619981085384,-10.53216999050332,0.5692018340455853,5.017401528512627,-61.424989824989815,8.139706091990352,30.32099320094648,34.01105220594842,31.47114146224579,1577399171.0,-27.69636825301194,-51.11098054846157,22.685877
16604,1577399171.44,-0.0779312640380849,-0.2902969512939453,9.108620505981444,0.0183944761694928,0.4792490981683497,5.833034381252382,0.1272917215983066,-1.1181491800944008,12.524809946695964,0.1300811767578124,0.1899719238281251,4.564666748046875,4.301675936070884,-4.75274062738186,5.623422017911585,1.0190691266741072,12.669881184895834,5.305335635230655,3.434532099431656,-10.061983830212997,-0.162629095441591,-4.108512338141983,-63.32421652421653,-1.8212127785731853,30.392877467277685,33.65163087429239,31.543025728577,1577399171.0,-27.69636825301194,-51.11098054846157,22.685877
16605,1577399171.45,-1.2415132708740233,-0.6278793853759765,10.894694944458006,-1.3319352601586312,-0.3036548447027429,9.826562750393006,0.6276798685709629,0.3901978658040355,9.92231274210612,1.3202667236328125,0.4951477050781251,4.808807373046875,3.752359529820884,4.6771910132431405,4.463754049161585,1.4157976422991072,11.449178059895834,3.993079775855655,3.253767252093146,-9.497760437864605,-1.3010327635327552,28.10059542652133,-48.13040293040292,6.9503426447588845,30.48872315571929,33.891245095396414,31.447180040135382,1577399171.0,-27.69636825301194,-51.11098054846157,22.685877
16606,1577399171.46,-0.0348356341552724,-0.7140706451416016,11.806885776977538,0.1452871641577741,-1.1799326523199305,12.845651043850037,-0.3898558369954423,-0.5650885965983071,7.939913767496744,1.9306182861328125,1.258087158203125,4.625701904296875,4.362711092320884,-0.0225160180068597,4.311166158536585,3.796168736049107,6.291707356770833,3.2911754789806547,3.253767252093146,-9.497760437864605,-1.3010327635327552,7.164675379490178,-61.899796499796494,7.619359583826587,30.392877467277685,33.65163087429239,31.39925719591458,1577399171.0,-27.69636825301194,-51.11098054846157,22.685877
16607,1577399171.47,-0.3975571856689444,-0.5117606048583984,10.85997902038574,0.4720956907691026,-0.3671011886968836,10.475391400295347,-1.1883220906575516,-0.3759466654459634,10.038431522623698,0.5115509033203125,0.5104064941406251,4.442596435546875,3.1420079673208843,1.2592222632431405,4.173837056974085,2.316066196986607,1.1647542317708333,3.855750674293155,2.8018551337468764,-9.027574277574274,0.0813145477208022,-0.0823738675590554,-53.11587301587301,0.5203465081637648,30.440800311498485,33.891245095396414,31.20756581903136,1577399171.0,-27.69636825301194,-51.11098054846157,22.685877
16608,1577399171.48,-0.1617283221435536,-0.9750386260986328,10.69597620666504,-0.6567703919945687,-0.0091680405035242,10.144991571193788,-2.2046606953938794,-1.3168679178873697,9.828938877360024,-0.2056121826171875,-0.7560729980468749,4.564666748046875,1.4635411704458845,-2.2808167992568595,4.280648580411585,2.697535923549107,-1.0935465494791667,1.8568493071056549,2.530707862739113,-10.626207222561389,-1.3010327635327552,-1.9612384871644155,-44.33194953194953,-6.578666567499058,30.392877467277685,33.939167939617214,31.30341150747297,1577399171.0,-27.69636825301194,-51.11098054846157,22.685877
16609,1577399171.49,-0.1018732806396474,0.4255693450927734,10.595419736938476,0.997622955173399,0.2182811172113185,9.304626788478943,-0.1935313008626298,-2.4541137064615883,10.089906858317056,2.5104522705078125,0.8308410644531251,4.351043701171875,-2.442708829554116,9.16327499761814,2.998910299161585,4.589625767299108,0.0661214192708333,5.763099307105655,3.434532099431656,-9.30968597374847,0.1626290954415977,-1.9612384871644155,-60.47537647537647,11.113114710069022,30.48872315571929,33.747476562734,31.447180040135382,1577399171.0,-27.69636825301194,-51.11098054846157,22.685877
16610,1577399171.5,-0.270664497680663,-0.1705868682861328,9.464159452514648,0.0734611143530866,0.2470115371331935,12.290196258693786,0.3499524759928379,0.6128586201985669,10.37002845255534,1.6559600830078125,1.410675048828125,4.366302490234375,6.529459139195884,0.8014585913681402,4.433236471036585,0.8054460797991072,-4.542032877604167,5.976722353980655,3.163384828423892,-9.591797669922666,0.5692018340455888,-6.255786189119516,-57.62653642653642,7.545024368374619,30.5845688441609,33.891245095396414,31.20756581903136,1577399171.0,-27.69636825301194,-51.11098054846157,22.685877
16611,1577399171.51,-1.0954669696044912,-0.5847837554931641,10.186011253051756,-0.5849443421898811,-0.394634507788681,9.940287329250427,0.9341376810709628,-0.1197670878092451,10.659726853434243,0.9540557861328124,-1.488494873046875,4.534149169921875,0.8379308188833843,2.00690292730564,3.655038228849085,0.8817400251116072,3.789265950520833,6.739661807105655,0.5422945420155274,-8.93353704551621,-0.162629095441591,0.7228538265575212,-60.95018315018315,9.180399108317886,30.5366459999401,33.91520651750682,31.27945008536257,1577399171.0,-27.69636825301194,-51.11098054846157,22.685877
16612,1577399171.52,-0.7219715106201162,-0.2831143463134765,10.832445701293944,-0.3981966126976936,-1.1703558456793055,9.589536786037538,-0.7226498677571611,1.122823573811848,10.597477610270182,1.6864776611328125,0.6172180175781251,4.778289794921875,6.956705232945884,-2.4334046898818595,4.646859517911585,1.8430437360491072,4.552205403645833,0.4225231352306547,2.530707862739113,-9.497760437864605,0.3252581908831954,-1.9612384871644155,-64.27382987382987,6.9503426447588845,30.392877467277685,33.747476562734,31.25548866325217,1577399171.0,-27.69636825301194,-51.11098054846157,22.685877
16613,1577399171.53,-0.8584410052490224,-0.8361749298095703,9.987292515258789,-1.006323834377381,-0.6268720688238367,9.67093964248285,-1.9269333028157547,-2.5115745463053383,8.320591831461588,1.5033721923828125,0.6172180175781251,4.503631591796875,1.4330235923208845,-1.5789125023818598,3.731332174161585,1.9345964704241072,4.735310872395833,3.4437633696056547,4.699886030801212,-9.497760437864605,0.3252581908831954,6.627856916745797,-63.32421652421653,9.923751262837555,30.5366459999401,33.84332225117561,31.39925719591458,1577399171.0,-27.69636825301194,-51.11098054846157,22.685877
16614,1577399171.54,-0.6022614276123037,-0.6470329986572265,11.113764396362305,0.8012984190405866,-0.3228084579839929,12.599048272853944,0.2613670145670566,1.2712640767415364,9.089130564371745,1.7780303955078125,0.235748291015625,4.427337646484375,-0.6726892983041157,1.4728453101181402,4.738412252286585,2.514430454799107,-3.870646158854168,3.3827282133556547,3.976826641447179,-9.12161150963234,0.4878872863247898,7.70149384223457,-65.22344322344321,6.9503426447588845,30.48872315571929,33.55578518585078,31.30341150747297,1577399171.0,-27.69636825301194,-51.11098054846157,22.685877
16615,1577399171.55,-0.690846889038085,0.4423287567138672,10.487680662231444,-1.7952132813988655,-0.0785998886480559,9.703261364894958,-0.5370992390950518,-0.8907000223795573,10.377211057535806,1.3507843017578125,0.2815246582031251,4.381561279296875,5.049356600133384,-4.03557754144436,3.838143697599085,3.582545689174108,-7.303873697916666,3.2606579008556547,2.7114727100776186,-10.061983830212997,-0.8131454772079686,-4.108512338141966,-61.424989824989815,7.099013075662818,30.728337376823312,33.93916793961722,31.351334351693776,1577399171.0,-27.69636825301194,-51.11098054846157,22.685877
16616,1577399171.56,-0.3819948748779286,-0.7020996368408202,9.247484202270506,1.3830894224585553,-1.8790395370855555,11.612637188869568,1.855905320231119,-3.481226218668619,11.97174936319987,-0.0530242919921875,-3.411102294921875,4.381561279296875,2.3485509360708843,1.7475035132431402,3.456673971036585,0.9885515485491072,-3.3823649088541665,4.633948916480655,2.892237557416128,-9.497760437864605,1.3010327635327683,2.870127677535077,-57.15172975172975,7.024677860210852,30.201186090394465,33.747476562734,31.25548866325217,1577399171.0,-27.69636825301194,-51.11098054846157,22.685877
16617,1577399171.57,0.0585382305908203,-0.9247603912353516,10.090243186645507,1.5602603453101176,-0.0666288803472742,11.500109710842224,0.8168217997233066,-0.6752218729654946,10.544805173746743,3.0292510986328125,-0.6645202636718749,4.900360107421875,2.5316564048208843,-1.7315003930068598,4.463754049161585,4.498073032924108,-0.2695719401041667,5.671546572730655,4.8806508781397175,-10.061983830212997,-0.4878872863247798,2.333309214790685,-57.62653642653642,7.545024368374619,30.48872315571929,33.891245095396414,31.20756581903136,1577399171.0,-27.69636825301194,-51.11098054846157,22.685877
16618,1577399171.58,0.1459265911865234,0.4495113616943359,10.551127006225585,-0.4305183351098035,0.175185487328506,8.417575073391053,-0.654415120442708,1.0725453389485673,9.099904471842448,2.5409698486328125,0.2204895019531251,4.335784912109375,1.829752107945884,-1.02959609613186,4.250131002286585,1.5836443219866072,-4.389444986979167,5.732581728980655,4.8806508781397175,-10.061983830212997,-0.4878872863247798,12.264450775561873,-60.237973137973135,7.879532837908469,30.512684577829692,33.7953994069548,31.423218618024983,1577399171.0,-27.69636825301194,-51.11098054846157,22.685877
16619,1577399171.59,-0.5280411761474599,0.0305260711669921,9.757449155883789,0.6648289244116803,-0.8830516464605555,11.533628534084412,0.5630364237467441,-0.9625260721842446,11.1984222269694,0.8625030517578125,-1.091766357421875,4.381561279296875,1.2804357016958845,-0.2666566430068597,4.311166158536585,2.483912876674107,-5.396525065104167,1.8263317289806549,3.0730024047546407,-11.19043061490978,0.8131454772079753,-6.255786189119516,-48.13040293040292,-3.1592466567085857,30.48872315571929,33.939167939617214,31.25548866325217,1577399171.0,-27.69636825301194,-51.11098054846157,22.685877
16620,1577399171.6,-0.3484760516357412,-0.3238157745361328,9.78139117248535,-0.9967470277367562,-0.0426868637457117,10.662139129787535,-0.7274382710774736,-0.9673144755045572,9.99174459025065,0.9235382080078124,-0.3593444824218749,4.351043701171875,2.8368321860708843,-8.20122695550686,4.280648580411585,3.460475376674107,-0.4221598307291667,3.871009463355655,3.79606179410867,-8.93353704551621,-0.4878872863247798,0.1860353638131292,-48.13040293040292,0.1115028231779464,30.48872315571929,33.939167939617214,31.20756581903136,1577399171.0,-27.69636825301194,-51.11098054846157,22.685877
16621,1577399171.61,-0.2407369769287099,-0.5776011505126952,8.912295969848632,-1.360665680080506,-0.5741996323003992,11.296602569728943,0.9173782694498692,-3.095759751383463,8.35171645304362,0.7709503173828125,-0.0541687011718748,4.351043701171875,4.942545076695884,2.3578550757431405,3.792367330411585,0.5613054547991072,-2.7109781901041665,4.054114932105655,2.1691781680620985,-8.369313653167819,-0.6505163817663776,0.1860353638131292,-63.32421652421653,9.626410401029688,30.48872315571929,33.747476562734,31.25548866325217,1577399171.0,-27.69636825301194,-51.11098054846157,22.685877
16622,1577399171.62,-0.2598905902099599,-0.1095347259521484,9.54556230895996,-0.545440014797303,-0.830379209937118,8.193717218166443,-0.2055023091634111,-0.3532017496744791,6.91519545694987,0.6183624267578124,0.495147705078125,4.381561279296875,0.8226720298208843,0.7556822241806402,3.899178853849085,2.743312290736607,-17.359415690104168,3.1538463774181547,2.1691781680620985,-8.369313653167819,-0.6505163817663776,-5.18214926363075,-59.52576312576313,8.139706091990352,30.392877467277685,33.7953994069548,31.471141462245782,1577399171.0,-27.69636825301194,-51.11098054846157,22.685877
16623,1577399171.63,-0.4993107562255849,0.6338648895263671,8.660904795532225,0.0471248960913678,1.0610401015863185,7.147451092678163,-1.03629028523763,-2.576217991129557,11.64613793741862,1.1676788330078125,2.661895751953125,3.832244873046875,3.0199376548208843,0.7404234351181402,4.036507955411585,0.7138933454241072,-12.842814127604166,6.129310244605655,3.434532099431656,-9.30968597374847,-0.162629095441591,0.1860353638131292,-50.029629629629625,-1.3752014858613844,30.48872315571929,33.891245095396414,31.30341150747297,1577399171.0,-27.69636825301194,-51.11098054846157,22.685877
16624,1577399171.64,-0.5112817645263662,-0.5440823272705078,10.147704026489256,0.8252404356421491,0.0363217910394435,9.776284515529726,0.0458888651529941,-0.7829609476725259,11.83049146525065,-1.6399383544921875,-3.624725341796875,4.137420654296875,-0.6116541420541157,7.7594664038681405,4.433236471036585,0.4392351422991072,-2.7720133463541665,5.396888369605655,3.615296946770161,-9.12161150963234,0.6505163817663843,-5.182149263630755,-50.029629629629625,6.9503426447588845,30.680414532602512,33.699553718513194,31.447180040135382,1577399171.0,-27.69636825301194,-51.11098054846157,22.685877
16625,1577399171.65,-0.0061052142333979,0.3705027069091797,11.560283005981445,-0.3287647645531624,-0.3060490463628992,9.9199366151391,0.0051874369303378,1.3933683614095052,9.249542075602214,1.3660430908203125,0.1747131347656251,3.969573974609375,2.9283849204458843,-5.88189101800686,3.639779439786585,-0.4762922014508928,-1.9175211588541667,3.3216930571056547,3.0730024047546407,-8.55738811728395,-0.162629095441591,-5.182149263630755,-50.029629629629625,6.9503426447588845,30.392877467277685,33.747476562734,31.30341150747297,1577399171.0,-27.69636825301194,-51.11098054846157,22.685877
16626,1577399171.66,-0.2958036151123037,0.1598129608154296,10.004051926879882,-0.6663471986351936,0.2122956130609283,9.812197540432068,0.2338336954752602,-0.7494421244303383,9.65416215616862,-0.8464813232421875,0.4646301269531251,3.435516357421875,3.1267491782583843,-3.94402480706936,3.960214010099085,-0.0337873186383927,-4.862467447916667,3.657386416480655,3.0730024047546407,-8.55738811728395,-0.162629095441591,-3.0348754126531934,-49.55482295482295,6.9503426447588845,30.5366459999401,33.84332225117561,31.51906430646659,1577399171.0,-27.69636825301194,-51.11098054846157,22.685877
16627,1577399171.67,-0.6764816790771475,-0.5608417388916015,8.4980990826416,0.6289158995093366,-0.0522636703863367,10.901559295803162,-0.4999891133626298,0.6463774434407542,10.281442991129556,-2.2197723388671875,-2.465057373046875,3.801727294921875,-3.877035001429116,-0.2971742211318597,3.944955221036585,0.0119890485491072,-0.2695719401041667,3.626868838355655,3.9768266414471753,-7.993164724935555,0.6505163817663843,0.1860353638131292,-42.43272283272283,-2.564564933092851,30.5845688441609,33.55578518585078,31.25548866325217,1577399171.0,-27.69636825301194,-51.11098054846157,22.685877
16628,1577399171.68,0.4224568829345703,-0.230441909790039,9.005669834594725,-0.9129499696312874,-0.2030983749761804,8.986197967678162,-0.7130730611165361,0.2537283711751293,7.827386289469401,-0.5718231201171875,-0.6034851074218749,3.710174560546875,1.8602696860708845,-0.9990785180068598,3.883920064786585,-0.4762922014508928,2.690633138020833,4.023597353980655,3.0730024047546407,-10.061983830212997,-0.8131454772079686,-6.255786189119516,-63.32421652421653,9.477739970125754,30.392877467277685,33.747476562734,31.447180040135382,1577399171.0,-27.69636825301194,-51.11098054846157,22.685877
16629,1577399171.69,0.2680308758544921,-0.1646013641357421,8.857229331665039,-1.4540395448266,0.5510751479730372,7.329410418850038,1.1017317972819003,-1.2187056498209634,6.381288486735026,-0.1750946044921875,1.914215087890625,3.572845458984375,1.2499181235708845,-1.2432191430068598,3.639779439786585,-0.3847394670758928,-3.687540690104168,3.1080700102306547,3.79606179410867,-9.30968597374847,0.8131454772079753,-6.255786189119516,-63.32421652421653,9.477739970125754,30.440800311498485,33.65163087429239,31.20756581903136,1577399171.0,-27.69636825301194,-51.11098054846157,22.685877
16630,1577399171.7,0.3458424298095702,0.2076969940185546,7.878000852661132,0.4613217832983991,-1.205071769751571,8.254769360500429,1.0825781840006503,-0.4609408243815102,8.484594645182291,-1.9451141357421875,1.319122314453125,3.740692138671875,-0.0623377358041157,-2.2808167992568604,4.829964986661585,-1.1781964983258928,-7.486979166666666,3.764197939918155,3.79606179410867,-9.30968597374847,0.8131454772079753,-6.255786189119516,-60.95018315018315,8.734387815606087,30.5366459999401,33.891245095396414,31.423218618024983,1577399171.0,-27.69636825301194,-51.11098054846157,22.685877
16631,1577399171.71,0.1543062969970703,0.5811924530029297,9.261849412231443,-1.0613904725609749,0.8623213637933497,9.436307879787538,0.8120333964029941,1.2425336568196614,8.107507883707681,-1.6094207763671875,1.776885986328125,3.191375732421875,-1.3440760170541155,0.5573179663681402,4.280648580411585,-1.4223371233258928,-10.065714518229166,0.9108043852306548,2.892237557416128,-7.993164724935555,-1.3010327635327552,-6.255786189119516,-65.22344322344321,-2.564564933092851,30.48872315571929,33.65163087429239,31.20756581903136,1577399171.0,-27.69636825301194,-51.11098054846157,22.685877
16632,1577399171.72,-0.5855020159912099,-0.2855085479736328,10.317692344360353,0.1788059873999616,-0.6915155136480555,8.710864776760195,0.4744509623209629,-3.526716050211588,8.579165610758464,-1.8230438232421875,1.715850830078125,3.191375732421875,0.6700841391958843,1.4118101538681402,3.792367330411585,0.5918230329241072,-13.880411783854166,0.7276989164806548,4.338356336124197,-9.12161150963234,0.3252581908831954,-5.182149263630755,-48.13040293040292,6.9503426447588845,30.392877467277685,33.939167939617214,31.447180040135382,1577399171.0,-27.69636825301194,-51.11098054846157,22.685877
16633,1577399171.73,0.3566163372802733,-0.0424970794677734,9.38036239440918,1.4381560606421488,0.4038317458734283,10.450252282863708,0.5343060038248696,-0.0108309122721354,10.179689420572917,-2.9521942138671875,1.731109619140625,2.977752685546875,-5.189290860804116,-1.1516664086318595,4.509530416349085,-0.2626691545758928,-8.326212565104166,6.327674502418155,3.615296946770161,-9.497760437864605,-0.9757745726495664,-1.4244200244200351,-56.2021164021164,8.808723031058053,30.632491688381705,33.891245095396414,31.30341150747297,1577399171.0,-27.69636825301194,-51.11098054846157,22.685877
16634,1577399171.74,-0.0013168109130849,0.2292448089599609,9.269032017211911,-1.5091061830101935,0.2925013686761623,7.573618988185975,-0.0738212178548173,0.6990498799641918,7.769925449625651,-2.0061492919921875,1.349639892578125,3.130340576171875,0.4259435141958843,4.2499449194931405,2.937875142911585,-2.459934779575893,-6.037394205729167,4.786536807105655,3.615296946770161,-9.497760437864605,-0.9757745726495664,-1.9612384871644155,-50.029629629629625,7.247683506566751,30.48872315571929,33.699553718513194,31.447180040135382,1577399171.0,-27.69636825301194,-51.11098054846157,22.685877
16635,1577399171.75,-0.4562151263427724,-0.5632359405517577,8.644145383911132,-0.2401793031273811,-1.4361122299566491,11.284631561428162,0.1967235697428378,1.0605743306477855,9.350098545328777,-2.5859832763671875,1.471710205078125,3.252410888671875,-2.717367032679116,7.48480820074314,2.876839986661585,1.5989031110491072,-7.013956705729167,3.1385875883556547,3.615296946770161,-9.873909366096864,-0.6505163817663776,-1.9612384871644155,-50.029629629629625,7.247683506566751,30.48872315571929,33.891245095396414,31.5909485727978,1577399171.0,-27.69636825301194,-51.11098054846157,22.685877
16636,1577399171.76,-0.4633977313232412,0.2651578338623047,7.968980515747069,-0.4197444276390999,-0.7561589584722742,8.018940496975038,0.7186595316569003,-1.826832871500651,7.451496628824869,-1.2126922607421875,2.082061767578125,3.069305419921875,-2.290120938929116,-1.0295960961318598,4.738412252286585,-2.795628138950893,-8.112589518229166,2.7113414946056547,2.892237557416128,-9.497760437864605,0.3252581908831954,-0.3507830989312626,-59.05095645095645,9.403404754673788,30.34495462305688,33.939167939617214,31.20756581903136,1577399171.0,-27.69636825301194,-51.11098054846157,22.685877
16637,1577399171.77,-0.8608352069091787,-0.0341173736572265,8.86920033996582,-1.2409555970726935,0.0411101943597565,5.48348093886957,-0.2162762166341147,-0.0108309122721354,4.912445768229167,-3.318405151367188,0.052642822265625,3.374481201171875,-2.854696134241616,3.792181247618141,4.524789205411585,-0.3847394670758928,-9.592692057291666,3.871009463355655,1.9884133207235888,-10.061983830212997,0.1626290954415977,3.675355371651653,-64.03642653642652,8.176873699716337,30.440800311498485,33.819360829065204,31.423218618024983,1577399171.0,-27.69636825301194,-51.11098054846157,22.685877
16638,1577399171.78,-0.7842207537841788,0.3752911102294922,9.654498484497068,-0.5083298890648812,-0.9333298813238368,7.690934869533632,-0.2892993672688799,-1.7645836283365883,8.433119309488932,-4.233932495117188,0.5561828613281251,3.282928466796875,-2.473226407679116,2.1442320288681405,4.005990377286585,-1.8801007952008928,-20.044962565104168,3.2606579008556547,1.9884133207235888,-10.061983830212997,0.1626290954415977,2.333309214790685,-57.62653642653642,7.0990130756628185,30.5366459999401,33.939167939617214,31.447180040135382,1577399171.0,-27.69636825301194,-51.11098054846157,22.685877
16639,1577399171.79,-0.7411251239013662,0.0903811126708984,8.550771519165037,-2.270462310939881,-0.0881766952886805,12.022045672756288,0.4337495340983066,-3.6847333597819008,7.657397971598307,-3.806686401367188,-0.8476257324218749,3.527069091796875,-2.747884610804116,-7.7434632836318595,4.433236471036585,-5.206516810825892,-20.624796549479168,4.420325869605655,3.253767252093146,-9.497760437864605,0.6505163817663843,-6.255786189119516,-41.48310948310948,7.693694799278552,30.5366459999401,33.891245095396414,31.39925719591458,1577399171.0,-27.69636825301194,-51.11098054846157,22.685877
16640,1577399171.8,-0.596275923461913,-0.5716156463623047,9.921451969604492,-1.1332165223656625,-1.0650109726324304,11.040422992092225,1.2597491068522129,-2.509180344645182,11.26306567179362,-3.989791870117188,-2.175140380859375,3.557586669921875,0.4564610923208843,-4.66118789300686,4.768929830411585,-4.809788295200892,-13.300577799479166,4.725501650855655,2.9826199810853824,-9.403723205806536,0.4065727386039943,-6.255786189119516,-41.48310948310948,7.693694799278552,30.36891604516728,33.84332225117561,31.30341150747297,1577399171.0,-27.69636825301194,-51.11098054846157,22.685877
16641,1577399171.81,0.5278017559814453,-1.3102268585205077,9.74308394592285,0.4649130857886335,-0.250982408179306,10.951837530666443,-0.5909687764485674,1.157539497884114,12.54037225748698,-3.3184051513671875,-1.793670654296875,3.588104248046875,-3.098836759241616,-0.3582093773818597,4.967294088224085,-0.0032697405133927,-2.1616617838541665,5.274818057105655,2.349943015400604,-10.061983830212997,-1.4636618589743595,-1.6928292557922309,-60.71277981277981,8.474214561524203,30.5366459999401,33.74747656273399,31.32737292958337,1577399171.0,-27.69636825301194,-51.11098054846157,22.685877
16642,1577399171.82,-0.2886210101318349,0.1310825408935546,10.705553013305662,0.4254087583960553,0.5223447280511622,8.354128729396914,-0.3563370137532549,2.453999696858723,9.216023252360026,-2.0977020263671875,-1.061248779296875,3.466033935546875,1.2804357016958845,-0.5718324242568598,4.067025533536585,1.6294206891741072,-1.2766520182291667,4.481361025855655,2.349943015400604,-10.061983830212997,-1.4636618589743595,2.333309214790685,-62.374603174603166,10.815773848261154,30.5845688441609,33.891245095396414,31.6388714170186,1577399171.0,-27.69636825301194,-51.11098054846157,22.685877
16643,1577399171.83,-0.5184643695068349,-0.019752163696289,8.493310679321288,-2.12441600967035,0.0171681777581935,11.66291542373285,-1.5797740620930985,-0.1101902811686196,12.776201121012368,-2.1892547607421875,-0.3593444824218749,3.527069091796875,-2.107015470179116,-3.2573792992568595,3.182015767911585,-4.382542201450892,-2.5278727213541665,4.267737978980655,3.9768266414471753,-10.626207222561389,0.6505163817663843,2.333309214790685,-48.13040293040292,-4.94329182755579,30.48872315571929,33.891245095396414,31.447180040135382,1577399171.0,-27.69636825301194,-51.11098054846157,22.685877
16644,1577399171.84,-0.0300472308349599,-1.676539712524414,9.06073647277832,0.5163884214819928,0.4912201064691309,8.124285370021912,1.654792380777994,-0.1939873392740884,11.011674497477212,-5.057907104492188,-4.875946044921875,3.984832763671875,-1.893392423304116,2.1747496069931405,5.013070455411585,-4.931858607700892,2.904256184895833,4.206702822730655,3.434532099431656,-9.685834901980732,-0.162629095441591,2.333309214790685,-48.13040293040292,-4.94329182755579,30.392877467277685,33.747476562734,31.447180040135382,1577399171.0,-27.69636825301194,-51.11098054846157,22.685877
16645,1577399171.85,0.4511873028564452,-0.3238157745361328,8.136574631958007,-0.6735298036156624,-0.2856983322515715,9.431519476467225,0.7653464640299472,-1.772963334147135,8.952661069742838,-2.4639129638671875,-0.7408142089843749,3.572845458984375,-2.503743985804116,-0.3124330101943597,4.204354635099085,-3.1770978655133923,8.977254231770834,3.443763369605655,2.078795744392844,-9.215648741690408,-1.2197182158119628,1.5280815206741032,-57.38913308913308,7.061845467936836,30.46476173360889,33.699553718513194,31.32737292958337,1577399171.0,-27.69636825301194,-51.11098054846157,22.685877
16646,1577399171.86,-0.3676296649169912,-0.670975015258789,10.296144529418944,0.1452871641577741,-0.3371736679449305,9.0388704042016,-1.6492059102376295,2.13078247273763,8.028499228922525,-1.4263153076171875,0.4341125488281251,3.710174560546875,-0.3369959389291157,2.2052671851181405,4.982552877286585,-2.643040248325893,5.071004231770833,2.0704723539806547,3.253767252093146,-8.745462581400078,0.3252581908831954,-6.255786189119516,-57.62653642653642,-2.564564933092851,30.249108934615272,33.891245095396414,31.447180040135382,1577399171.0,-27.69636825301194,-51.11098054846157,22.685877
16647,1577399171.87,-0.4514267230224599,-0.2926911529541015,10.370364780883788,0.5235710264624616,-2.1567669296636804,9.891206195217224,1.827174900309244,-0.5411465799967446,8.567194602457683,-0.4192352294921875,1.990509033203125,3.435516357421875,0.3954259360708843,-2.2197816430068595,3.700814596036585,-2.063206263950893,1.7751057942708333,1.9484020414806549,3.253767252093146,-8.745462581400078,0.3252581908831954,-6.255786189119516,-57.62653642653642,-2.564564933092851,30.5366459999401,33.699553718513194,31.25548866325217,1577399171.0,-27.69636825301194,-51.11098054846157,22.685877
16648,1577399171.88,-0.5591657977294912,-0.172981069946289,10.84681091125488,-0.7872543824730842,0.5139650222406158,11.714390759426209,-0.0007980672200522,0.0334618184407548,11.193633823649089,-0.9685516357421876,-1.457977294921875,3.374481201171875,-1.283040860804116,-0.4497621117568597,4.341683736661585,-1.2850080217633928,0.4781087239583333,3.809974307105655,3.615296946770161,-9.12161150963234,0.9757745726495798,-3.840103106769776,-52.641066341066335,4.014101634406201,30.5845688441609,33.91520651750682,31.351334351693776,1577399171.0,-27.69636825301194,-51.11098054846157,22.685877
16649,1577399171.89,-0.500507857055663,-0.5009866973876953,10.958141288452149,1.4166082457007427,-0.3706924911871179,9.445884686428164,1.242989695231119,2.109234657796224,10.365240049235023,-2.0519256591796875,-1.671600341796875,3.420257568359375,-2.656331876429116,-2.2197816430068595,4.128060689786585,1.2021745954241072,-3.1077067057291665,4.878089541480655,3.524914523100908,-9.215648741690403,0.0813145477208022,28.10059542652133,-61.42498982498982,6.9503426447588845,30.392877467277685,33.891245095396414,31.25548866325217,1577399171.0,-27.69636825301194,-51.11098054846157,22.685877
16650,1577399171.9,-0.5376179827880849,-0.1490390533447265,8.5364063092041,0.0471248960913678,-1.0075501327886804,9.089148639064884,1.2549607035319004,0.3878036641438793,11.231941050211589,-1.3957977294921875,-0.8476257324218749,2.947235107421875,3.721841951695884,-5.48516250238186,4.158578267911585,-1.3918195452008928,-4.358927408854167,5.183265322730655,4.338356336124197,-8.369313653167819,-0.6505163817663776,-5.718967726375147,-49.55482295482295,-3.382252303064485,30.5845688441609,33.747476562734,31.30341150747297,1577399171.0,-27.69636825301194,-51.11098054846157,22.685877
16651,1577399171.91,-0.0396240374755849,0.2938882537841796,7.6433690899658195,-2.0837145814476936,0.6683910293206935,12.148938360744568,-0.0786096211751298,0.1795081197102855,12.709163474527994,-0.4497528076171875,-1.885223388671875,3.649139404296875,-0.6421717201791157,-0.6633851586318598,3.792367330411585,0.0119890485491072,3.056844075520833,5.702064150855655,4.338356336124197,-8.369313653167819,-0.6505163817663776,-5.182149263630755,-50.029629629629625,-2.564564933092851,30.48872315571929,33.891245095396414,31.01587444214814,1577399171.0,-27.69636825301194,-51.11098054846157,22.685877
16652,1577399171.92,0.0824802471923828,-1.4443021514892578,9.300156638793943,0.0351538877905871,-0.6879242111578215,10.228788629299256,-0.861513564046224,1.0964873555501295,10.501709543863932,-0.9685516357421876,-1.305389404296875,3.527069091796875,2.4553624595083843,-0.8007142601943597,3.746590963224085,0.8664812360491072,15.935262044270832,1.8568493071056549,1.084589084031051,-8.745462581400078,0.0,-1.9612384871644155,-50.029629629629625,-1.3008662704094192,30.249108934615272,33.7953994069548,31.5669871506874,1577399171.0,-27.69636825301194,-51.11098054846157,22.685877
16653,1577399171.93,0.2321178509521484,-0.4686649749755859,8.865609037475584,1.1269098448218366,-0.4592779526128992,7.631079828029725,0.7138711283365878,-1.2306766581217448,6.309462436930338,-0.4802703857421875,-0.908660888671875,3.466033935546875,-1.2830408608041155,0.1911070288681402,3.456673971036585,-2.276829310825893,10.442097981770834,1.8873668852306549,2.349943015400606,-8.557388117283947,-0.162629095441591,4.48058306576823,-62.374603174603166,7.247683506566751,30.440800311498485,33.55578518585078,31.447180040135382,1577399171.0,-27.69636825301194,-51.11098054846157,22.685877
16654,1577399171.94,-0.4107252947998037,-0.4722562774658203,10.329663352661132,-0.3790429994164436,-1.0267037460699304,8.780296624904725,-0.0810038228352861,-1.7645836283365883,5.078842783610026,0.1300811767578124,-0.8781433105468749,3.679656982421875,0.3954259360708843,-0.4802796898818597,3.304086080411585,-1.3002668108258928,-3.931681315104168,1.5821911039806549,2.7114727100776186,-8.181239189051688,-0.8131454772079686,2.333309214790685,-49.08001628001628,0.1115028231779464,30.5845688441609,33.65163087429239,31.30341150747297,1577399171.0,-27.69636825301194,-51.11098054846157,22.685877
16655,1577399171.95,-0.8273163836669912,-0.335786782836914,9.458173948364257,-1.638393072658631,0.8958401870355372,12.90071768203363,0.4026249125162753,0.6631368550618479,7.702887803141276,1.1066436767578125,0.9834289550781252,3.527069091796875,1.2804357016958845,-2.4944398461318595,2.754769674161585,0.0119890485491072,-10.431925455729166,2.3451305571056547,2.7114727100776186,-8.181239189051688,-0.8131454772079686,-6.255786189119516,-49.08001628001628,0.1115028231779464,30.392877467277685,33.891245095396414,31.447180040135382,1577399171.0,-27.69636825301194,-51.11098054846157,22.685877
16656,1577399171.96,-0.3520673541259761,-0.5931634613037109,10.0686953717041,-0.243770605617616,-0.7238372360601649,8.682134356838318,-0.0031922688802084,0.6619397542317708,12.352427427164711,-0.9227752685546876,-2.770233154296875,3.420257568359375,0.1665441001333842,-2.1892640648818595,3.639779439786585,1.2479509626116072,-2.741495768229167,4.664466494605655,2.4403254390698605,-8.839499813458144,0.406572738603991,-21.018293914590203,-55.96471306471307,9.44057236239977,30.392877467277685,33.7235151406236,31.47114146224579,1577399171.0,-27.69636825301194,-51.11098054846157,22.685877
16657,1577399171.97,0.046567222290039,-0.3477577911376953,11.134115110473632,-0.0725851869164436,0.5941707778558497,11.86642256484613,-0.3659138203938799,0.3423138326009106,11.334891721598307,1.0150909423828125,-1.549530029296875,3.801727294921875,0.9447423423208844,-1.97564101800686,2.724252096036585,1.9956316266741072,8.366902669270834,4.359290713355655,3.0730024047546407,-10.061983830212997,-0.162629095441591,-6.255786189119516,-49.08001628001628,7.247683506566751,30.5366459999401,33.699553718513194,31.543025728577,1577399171.0,-27.69636825301194,-51.11098054846157,22.685877
16658,1577399171.98,0.0202310040283203,0.3274070770263672,10.494863267211914,0.2865450621069928,-0.0091680405035242,8.907189312893006,-1.108116335042317,1.6950377705891926,11.375593149820965,0.9540557861328124,-1.396942138671875,3.191375732421875,0.5480138266958843,0.5878355444931402,3.578744283536585,2.209254673549107,10.533650716145834,2.7723766508556547,3.0730024047546407,-8.93353704551621,-1.7889200498575484,-6.255786189119516,-50.029629629629625,-2.2672240712849896,30.48872315571929,33.747476562734,31.447180040135382,1577399171.0,-27.69636825301194,-51.11098054846157,22.685877
16659,1577399171.99,0.0681150372314453,-0.3525461944580078,7.751108164672851,1.1508518614233991,-0.6244778671636805,9.462644098049257,0.0075816385904941,-0.0838540629069009,10.793802146402994,0.8930206298828125,-2.068328857421875,3.923797607421875,0.6090489829458843,-0.3887269555068597,2.358041158536585,2.758571079799107,15.569051106770834,1.2159801664806549,3.0730024047546407,-8.93353704551621,-1.7889200498575484,-6.255786189119516,-49.08001628001628,-2.564564933092851,30.48872315571929,33.699553718513194,31.447180040135382,1577399171.0,-27.69636825301194,-51.11098054846157,22.685877
16660,1577399172.0,-0.0348356341552729,-0.2950853546142578,9.926240372924804,-1.9137262635766,-0.4377301376714929,9.754736700588316,-0.2737370564778646,-0.9649202738444014,5.594793241373698,0.3131866455078124,-2.098846435546875,3.755950927734375,2.9894200766958843,-3.4710023461318595,3.609261861661585,0.6681169782366072,11.723836263020834,3.2606579008556547,3.253767252093146,-8.181239189051688,0.1626290954415977,10.922404618700908,-52.878469678469685,2.192888855833017,30.53664599994009,33.819360829065204,31.25548866325217,1577399172.0,-27.69616422104267,-51.111003648583065,22.8241
16661,1577399172.01,0.7001842755126952,-0.5704185455322265,8.694423618774413,1.4237908506812114,0.1440608657464747,10.190481402736756,1.156798435465494,-0.2969380106608072,8.813797373453776,1.0150909423828125,-0.2983093261718749,3.649139404296875,0.2123204673208842,1.83905624761814,2.785287252286585,0.8359636579241072,-7.654825846354167,2.8334118071056547,1.9884133207235888,-7.805090260819425,-1.4636618589743595,4.48058306576823,-50.029629629629625,6.9503426447588845,30.5366459999401,33.84332225117561,31.447180040135382,1577399172.0,-27.69616422104267,-51.111003648583065,22.8241
16662,1577399172.02,-0.4418499163818349,-0.5871779571533203,10.679216795043944,0.1428929624976178,-0.4784315658941492,9.642209222560975,-0.4377398701985673,-2.260183371988932,10.83450357462565,2.5104522705078125,-0.3288269042968749,3.588104248046875,7.902750154820884,-6.67534804925686,4.921517721036585,-0.8425031389508928,-11.194864908854166,4.145667666480655,3.0730024047546407,-8.181239189051688,1.788920049857555,4.48058306576823,-50.029629629629625,6.9503426447588845,30.48872315571929,33.891245095396414,31.447180040135382,1577399172.0,-27.69616422104267,-51.111003648583065,22.8241
16663,1577399172.03,-0.6094440325927724,-0.2615665313720703,10.085454783325194,-0.0654025819359749,0.088994227562881,8.900006707912539,0.4026249125162753,1.8219304585774736,13.477702207438153,2.4799346923828125,-0.6340026855468749,3.588104248046875,0.5480138266958843,-1.88408828363186,2.174935689786585,-0.2321515764508928,-1.0325113932291667,3.4742809477306547,3.0730024047546407,-8.181239189051688,1.788920049857555,-1.9612384871644155,-50.029629629629625,6.9503426447588845,30.48872315571929,33.84332225117561,31.39925719591458,1577399172.0,-27.69616422104267,-51.111003648583065,22.8241
16664,1577399172.04,-0.0037110125732416,-0.3716998077392578,12.36114346130371,1.5375154295386333,-0.0390955612554778,10.267095855861756,1.2537636027018222,-0.8607725016276041,12.293769486490884,1.9153594970703125,-2.205657958984375,3.771209716796875,-0.4285486733041159,1.6406919898056405,2.770028463224085,-1.1934552873883928,9.648640950520834,2.9859996977306547,3.796061794108672,-8.369313653167819,-0.162629095441591,-4.9137400322585645,-60.71277981277981,8.176873699716337,30.48872315571929,33.891245095396414,31.49510288435619,1577399172.0,-27.69616422104267,-51.111003648583065,22.8241
16665,1577399172.05,0.3195062115478515,-0.536899722290039,10.786955869750976,-1.1667353456078495,0.376298426781631,11.670098028713316,-0.7370150777180986,-0.2562365824381509,10.29101979777018,1.2897491455078125,-1.641082763671875,3.527069091796875,2.2569982016958843,-2.1587464867568595,3.700814596036585,1.5989031110491072,11.357625325520834,3.0775524321056547,2.892237557416128,-9.12161150963234,0.6505163817663843,4.48058306576823,-57.62653642653642,7.247683506566751,30.5366459999401,33.939167939617214,31.39925719591458,1577399172.0,-27.69616422104267,-51.111003648583065,22.8241
16666,1577399172.06,0.2931699932861328,0.1502361541748046,9.688017307739257,0.1835943907202741,0.5462867446527248,8.59833729873285,-0.0187545796712236,-0.1508917093912759,7.348545957438151,1.1371612548828125,-0.9696960449218748,3.404998779296875,4.362711092320884,-0.1140687523818597,3.853402486661585,0.3781999860491072,7.909138997395833,3.901527041480655,3.0730024047546407,-8.181239189051688,0.1626290954415977,2.333309214790685,-50.029629629629625,7.0990130756628185,30.5366459999401,34.03501362805883,31.25548866325217,1577399172.0,-27.69616422104267,-51.111003648583065,22.8241
16667,1577399172.07,-0.2910152117919912,0.0245405670166015,8.35205278137207,0.9784693418921492,-1.9963554184332115,8.842545868068788,-0.4449224751790361,-1.3910881693522137,7.908789145914713,1.9611358642578125,-0.8628845214843748,3.969573974609375,4.179605623570884,-3.95928359613186,3.548226705411585,0.5002702985491072,0.7985432942708333,3.687903994605655,3.1633848284238937,-7.899127492877492,0.406572738603991,6.627856916745797,-49.08001628001628,6.9503426447588845,30.32099320094648,33.699553718513194,31.20756581903136,1577399172.0,-27.69616422104267,-51.111003648583065,22.8241
16668,1577399172.08,-0.0946906756591787,-0.3525461944580078,8.622597568969725,-1.3331323609887091,-0.3108374496832122,9.781072918850036,-1.1607887715657548,-0.3352452372233072,9.478188334147136,0.8014678955078125,-0.4508972167968749,3.862762451171875,1.3414708579458845,-3.73040176019436,3.136239400724085,2.438136509486607,2.858479817708333,5.000159853980655,2.1691781680620985,-7.240866868471033,0.0,15.753770783400402,-56.67692307692308,7.247683506566751,30.680414532602512,33.819360829065204,31.351334351693776,1577399172.0,-27.69616422104267,-51.111003648583065,22.8241
16669,1577399172.09,0.1543062969970703,-0.489015689086914,10.525987888793944,1.007199761814024,-1.206268870581649,10.951837530666443,2.5526180033365886,1.757287013753255,9.345310142008463,2.7851104736328125,-0.7865905761718749,3.862762451171875,5.247720857945884,1.80853866949314,3.731332174161585,-0.9035382952008928,-3.992716471354168,2.5282360258556547,3.434532099431656,-8.93353704551621,-0.4878872863247798,28.10059542652133,-50.029629629629625,7.0990130756628185,30.48872315571929,33.84332225117561,31.111720130589752,1577399172.0,-27.69616422104267,-51.111003648583065,22.8241
16670,1577399172.1,0.1088164654541015,-0.4004302276611328,10.85399351623535,0.0088176695288678,-0.7729183700933681,11.172104083400818,1.1998940653483066,-0.8428159891764321,9.924706943766276,1.6254425048828125,-0.0236511230468748,4.167938232421875,7.628091951695884,-3.3794496117568595,3.822884908536585,1.8430437360491072,-4.572550455729167,1.5516735258556549,2.7114727100776186,-7.805090260819425,1.4636618589743662,28.10059542652133,-50.029629629629625,7.0990130756628185,30.392877467277685,33.84332225117561,31.20756581903136,1577399172.0,-27.69616422104267,-51.111003648583065,22.8241
16671,1577399172.11,-0.2598905902099599,0.2041056915283203,10.81568628967285,-0.0055475404320686,1.3579211074456934,10.370046527248476,-0.0331197896321611,-1.395876572672526,11.456996006266277,1.8848419189453125,-0.786590576171875,3.603363037109375,1.9518224204458845,2.4188902319931405,3.273568502286585,3.216334751674107,-3.748575846354168,2.1315075102306547,2.9826199810853824,-7.89912749287749,1.0570891203703752,-0.8876015616756432,-50.029629629629625,-7.024677860210856,30.46476173360889,33.84332225117561,31.25548866325217,1577399172.0,-27.69616422104267,-51.111003648583065,22.8241
16672,1577399172.12,0.0872686505126953,-0.2711433380126953,10.166857639770509,1.2729561460913676,-0.0522636703863372,11.00450996718988,1.4764243570963531,-1.186383927408854,10.583112400309243,0.6488800048828125,-2.587127685546875,3.984832763671875,0.9752599204458844,-0.5565736351943599,2.495370260099085,3.246852329799107,-1.3071695963541663,3.367469424293155,2.349943015400604,-8.93353704551621,0.4878872863247865,1.2596722893019074,-59.52576312576312,8.43704695379822,30.34495462305688,33.819360829065204,31.30341150747297,1577399172.0,-27.69616422104267,-51.111003648583065,22.8241
16673,1577399172.13,0.1495178936767578,-0.7404068634033203,10.92342536437988,-1.7509205506859749,-1.5558223129644615,6.946338153225038,-0.3395776021321611,-0.5698769999186197,10.353269040934244,1.8085479736328125,-0.7255554199218749,3.801727294921875,2.8063146079458843,-2.3418519555068595,2.937875142911585,1.5683855329241072,0.1576741536458333,6.861732119605655,2.530707862739113,-7.993164724935555,0.3252581908831954,-4.108512338141983,-61.42498982498982,6.9503426447588845,30.392877467277685,33.891245095396414,31.6388714170186,1577399172.0,-27.69616422104267,-51.111003648583065,22.8241
16674,1577399172.14,0.2835931866455078,-0.077213003540039,10.032782346801756,-0.7860572816430061,1.1256835464105373,10.492150811916442,-0.0953690327962236,1.1970438252766915,8.243977378336588,1.1676788330078125,-1.732635498046875,3.862762451171875,3.0809728110708843,-4.69170547113186,2.998910299161585,3.460475376674107,-8.051554361979166,4.756019228980655,4.699886030801212,-8.369313653167819,0.9757745726495798,-4.108512338141983,-61.42498982498982,6.9503426447588845,30.34495462305688,33.699553718513194,31.39925719591458,1577399172.0,-27.69616422104267,-51.111003648583065,22.8241
16675,1577399172.15,0.2153584393310546,0.3465606903076171,8.974545213012695,0.426605859226134,-0.8507299240484462,8.756354608303162,-0.0355139912923178,-1.9728791727701824,10.71958189493815,1.1219024658203125,-0.0846862792968748,3.878021240234375,2.8826085532583843,-3.0284974633193595,4.021249166349085,0.3324236188616072,3.880818684895833,2.9707409086681547,3.976826641447179,-7.993164724935557,0.813145477207982,5.017401528512627,-60.00056980056979,7.619359583826587,30.5366459999401,33.7953994069548,31.35133435169377,1577399172.0,-27.69616422104267,-51.111003648583065,22.8241
16676,1577399172.16,0.1543062969970703,-0.201711489868164,8.361629588012695,-0.6352225770531624,0.2565883437738185,8.902400909572695,0.2422134012858066,-0.8907000223795571,8.356504856363932,0.1911163330078124,1.013946533203125,3.649139404296875,0.9752599204458844,9.49896835699314,2.266488424161585,1.6294206891741072,7.024129231770833,2.4672008696056547,2.349943015400604,-9.685834901980732,-0.4878872863247798,5.017401528512633,-62.84940984940984,9.403404754673788,30.48872315571929,33.84332225117561,31.30341150747297,1577399172.0,-27.69616422104267,-51.111003648583065,22.8241
16677,1577399172.17,0.8773551983642577,-0.3333925811767578,10.279385117797853,2.2186658018530863,-0.2461940048589929,9.840927960353945,-0.2102907124837236,0.1244414815266918,7.152221421305338,1.3202667236328125,1.471710205078125,3.984832763671875,-3.358236173304116,8.76654648199314,3.975472799161585,1.8125261579241072,-1.1240641276041667,2.5587536039806547,1.4461187787080658,-7.993164724935555,0.6505163817663843,-1.9612384871644155,-65.22344322344321,9.329069539221818,30.5845688441609,33.65163087429239,31.447180040135382,1577399172.0,-27.69616422104267,-51.111003648583065,22.8241
16678,1577399172.18,0.0609324322509765,0.0616506927490234,10.703158811645508,-1.8275350038109748,1.0227328750238185,8.545664862209414,-2.163959267171224,1.745316005452474,9.967802573649088,1.4423370361328125,2.356719970703125,3.771209716796875,3.904947420445884,-6.76690078363186,4.036507955411585,0.8664812360491072,-7.136027018229167,2.9554821196056547,3.434532099431656,-8.181239189051688,0.4878872863247865,-1.9612384871644155,-65.22344322344321,6.9503426447588845,30.392877467277685,33.84332225117561,31.25548866325217,1577399172.0,-27.69616422104267,-51.111003648583065,22.8241
16679,1577399172.19,-0.3879803790283193,-0.1179144317626953,11.017996329956054,0.1668349790991807,-0.1013448044195404,9.861278674465272,0.8443551188151035,-2.10815156656901,10.970973069254557,0.5115509033203125,1.441192626953125,3.694915771484375,-1.3593348061166155,1.0913755835556405,3.838143697599085,0.8969988141741072,-0.9867350260416666,4.282996768043155,2.440325439069861,-8.463350885225882,0.5692018340455853,-6.255786189119516,-48.13040293040292,-4.348610103940052,30.632491688381705,33.7953994069548,31.447180040135382,1577399172.0,-27.69616422104267,-51.111003648583065,22.8241
16680,1577399172.2,0.0896628521728515,0.1430535491943359,11.323257041625975,0.8755186705054303,-0.8830516464605555,9.740371490627382,-0.0043893697102861,-0.5579059916178384,9.280666697184245,1.8085479736328125,0.8613586425781251,3.984832763671875,7.353433748570884,-2.3113343773818595,2.907357564786585,0.3781999860491072,0.7680257161458333,3.901527041480655,3.615296946770161,-8.745462581400078,1.3010327635327683,-1.9612384871644155,-61.42498982498982,6.9503426447588845,30.5366459999401,33.84332225117561,31.25548866325217,1577399172.0,-27.69616422104267,-51.111003648583065,22.8241
16681,1577399172.21,0.0441730206298828,0.0664390960693359,11.301709226684569,-2.050195758205506,1.3962283340081934,10.508910223537535,0.8216102030436191,0.2178153462727855,9.850486692301432,0.2826690673828124,0.8613586425781251,3.282928466796875,-0.1233728920541157,1.7475035132431402,4.128060689786585,1.2937273297991072,0.8290608723958333,5.793616885230655,3.253767252093146,-8.745462581400078,0.3252581908831954,-4.108512338141983,-53.82808302808303,7.693694799278552,30.392877467277685,33.747476562734,31.20756581903136,1577399172.0,-27.69616422104267,-51.111003648583065,22.8241
16682,1577399172.22,-0.1617283221435536,0.172981069946289,9.38515079772949,-0.3862256043969124,-0.2414056015386804,10.616649298244567,-1.7114551534016922,1.7932000386555988,9.608672324625651,0.0080108642578125,0.1289367675781251,3.588104248046875,6.071695467320884,2.5714781226181405,2.632699361661585,-1.3613019670758928,-1.0019938151041667,4.633948916480655,2.7114727100776186,-7.805090260819425,-0.8131454772079686,28.637413889265726,-54.3028897028897,7.322018722018717,30.5606074220505,33.891245095396414,31.25548866325217,1577399172.0,-27.69616422104267,-51.111003648583065,22.8241
16683,1577399172.23,0.008259995727539,-0.134673843383789,8.852440928344725,-0.0761764894066785,-0.8818545456304773,8.011757891994568,-0.2952848714192709,0.3722413533528637,9.863654801432292,-1.0295867919921875,-0.5119323730468749,3.740692138671875,1.4940587485708845,-4.15764785394436,4.738412252286585,-1.5444074358258928,3.453572591145833,3.535316103980655,2.7114727100776186,-7.428941332587162,-0.4878872863247798,-1.4244200244200291,-52.403663003663,1.895547994025148,30.5845688441609,33.747476562734,31.423218618024983,1577399172.0,-27.69616422104267,-51.111003648583065,22.8241
16684,1577399172.24,-0.4705803363037099,-0.6542156036376953,9.178052354125976,0.1692291807593365,-1.6180715561285242,7.453908905178163,2.143209519449869,-2.059070432535808,8.121873093668619,-0.8464813232421875,1.441192626953125,3.771209716796875,-1.801839688929116,6.4166929663681405,3.487191549161585,5.688258579799108,4.704793294270833,3.1385875883556547,3.434532099431656,-8.55738811728395,0.8131454772079753,6.627856916745797,-56.67692307692308,9.477739970125754,30.392877467277685,33.939167939617214,31.447180040135382,1577399172.0,-27.69616422104267,-51.111003648583065,22.8241
16685,1577399172.25,0.1495178936767578,-0.5823895538330078,10.61217914855957,1.3663300108374614,-0.6747561020269618,12.369204913478942,1.661974985758463,0.3040066060384105,10.17130971476237,0.5878448486328125,1.441192626953125,3.984832763671875,-2.747884610804116,4.8908140601181405,4.494271627286585,-0.4152570452008928,1.8666585286458333,3.871009463355655,2.7114727100776186,-8.93353704551621,-0.4878872863247798,-1.9612384871644155,-64.27382987382987,6.9503426447588845,30.392877467277685,33.891245095396414,31.20756581903136,1577399172.0,-27.69616422104267,-51.111003648583065,22.8241
16686,1577399172.26,-0.1784877337646474,-0.0915782135009765,11.33881935241699,0.4517449766577741,-0.1264839218511805,10.566371063381286,-0.0426965962727861,0.4189282857259105,11.332497519938151,0.6336212158203125,2.463531494140625,3.923797607421875,2.9283849204458843,-6.70586562738186,4.585824361661585,2.605983189174107,-0.3000895182291667,3.4437633696056547,3.253767252093146,-8.369313653167819,0.6505163817663843,-5.182149263630755,-53.82808302808303,6.9503426447588845,30.512684577829692,33.891245095396414,31.447180040135382,1577399172.0,-27.69616422104267,-51.111003648583065,22.8241
16687,1577399172.27,-0.3221398333740224,-0.2352303131103515,11.596196030883789,0.1512726683081647,0.5881852737054596,12.156120965725036,0.2972800394694004,0.0214908101399739,10.96259336344401,-1.9756317138671875,-2.007293701171875,3.618621826171875,-0.6574305092416158,3.990545505430641,3.822884908536585,-2.780369349888393,-0.2848307291666667,2.5587536039806547,3.253767252093146,-8.369313653167819,0.6505163817663843,-5.182149263630755,-48.13040293040293,8.288376522894286,30.392877467277685,33.7714379848444,31.423218618024983,1577399172.0,-27.69616422104267,-51.111003648583065,22.8241
16688,1577399172.28,0.295564194946289,-0.3716998077392578,11.150874522094725,0.767779595798399,-1.0817703842535242,10.520881231838318,0.6803523050944004,-1.1133607767740883,9.46262602335612,-0.0530242919921875,1.044464111328125,3.679656982421875,2.8368321860708843,-2.3113343773818595,2.968392721036585,0.5918230329241072,-0.4526774088541667,4.511878603980655,2.7114727100776186,-7.052792404354904,-1.138403668091164,3.406946140279458,-57.62653642653642,6.9503426447588845,30.48872315571929,33.747476562734,31.39925719591458,1577399172.0,-27.69616422104267,-51.111003648583065,22.8241
16689,1577399172.29,0.027413609008789,0.2148795989990234,10.178828648071288,-0.5418487123070687,0.7426112807855372,8.756354608303162,0.2661554178873691,0.960017860921223,9.29024350382487,0.5268096923828125,1.105499267578125,3.618621826171875,6.315836092320884,-1.7009828148818598,4.982552877286585,3.216334751674107,-1.2461344401041667,5.213782900855655,2.892237557416128,-8.369313653167819,-0.3252581908831888,3.406946140279458,-57.62653642653642,6.9503426447588845,30.392877467277685,33.699553718513194,31.25548866325217,1577399172.0,-27.69616422104267,-51.111003648583065,22.8241
16690,1577399172.3,-0.5196614703369131,-0.0233434661865234,9.040385758666991,-1.4899525697289435,-1.579764329566024,9.237589141994569,-0.6580064229329423,-0.2490539774576822,8.897594431559245,0.0385284423828125,0.1441955566406251,3.771209716796875,2.1044103110708843,-2.0671937523818595,3.273568502286585,-2.215794154575893,-0.9714762369791669,5.274818057105655,2.892237557416128,-8.745462581400078,1.3010327635327683,-1.9612384871644155,-50.029629629629625,7.0990130756628185,30.704375954712912,33.747476562734,31.39925719591458,1577399172.0,-27.69616422104267,-51.111003648583065,22.8241
16691,1577399172.31,-0.9278728533935536,-0.2160766998291015,11.095807883911132,-0.1839155641137098,-0.0594462753668059,9.398000653225036,-0.6556122212727861,0.9540323567708324,10.30538500773112,-0.3887176513671875,-1.976776123046875,3.923797607421875,-0.0928553139291157,-3.806695705506861,3.807626119474085,0.8664812360491072,4.659016927083333,3.962562197730655,2.892237557416128,-8.745462581400078,1.3010327635327683,-5.18214926363075,-43.382336182336175,-3.4565875185164563,30.34495462305688,33.7714379848444,31.25548866325217,1577399172.0,-27.69616422104267,-51.111003648583065,22.8241
16692,1577399172.32,-0.70042369567871,-0.3597287994384765,10.346422764282226,-0.939286187893006,-1.1128950058355556,8.813815448146913,0.3451640726725254,-3.016751096598307,8.435513511149088,0.0995635986328124,3.424835205078125,3.466033935546875,2.3180333579458843,1.5643980444931402,3.273568502286585,0.4392351422991072,4.857381184895833,3.2301403227306547,2.1691781680620985,-8.369313653167819,-1.3010327635327552,-4.108512338141983,-46.23117623117623,-0.1858380386299179,30.5845688441609,33.747476562734,31.20756581903136,1577399172.0,-27.69616422104267,-51.111003648583065,22.8241
16693,1577399172.33,-0.1401805072021474,-0.891241567993164,9.987292515258789,0.3104870787085553,0.2350405288324122,11.926277606350038,2.1839109476725254,-0.1532859110514322,9.52008686319987,-1.7009735107421875,-1.488494873046875,4.015350341796875,-0.1538904701791157,2.5409605444931405,3.883920064786585,1.6599382672991072,-3.992716471354168,2.6808239164806547,0.5422945420155274,-7.805090260819425,-1.138403668091164,-4.108512338141983,-65.22344322344321,9.477739970125754,30.5366459999401,33.699553718513194,31.30341150747297,1577399172.0,-27.69616422104267,-51.111003648583065,22.8241
16694,1577399172.34,-0.3233369342041005,0.0975637176513671,10.346422764282226,0.546315942233946,-0.0355042587652434,9.07598052993402,0.2972800394694008,-0.5471320841471358,10.258698075358073,0.3437042236328125,0.1136779785156251,3.633880615234375,-0.7947596108041157,1.2134458960556402,3.624520650724085,0.7138933454241072,-7.517496744791666,2.6655651274181547,2.1691781680620985,-8.369313653167819,0.0,-4.913740032258559,-61.18758648758648,1.9327156017511329,30.53664599994009,33.7714379848444,31.39925719591458,1577399172.0,-27.69616422104267,-51.111003648583065,22.8241
16695,1577399172.35,-0.4083310931396474,-0.7332242584228515,10.164463438110351,0.7294723692358991,-0.744187950171493,10.106684344631288,0.4145959208170566,-1.6592387552897134,11.20560483194987,-0.4802703857421875,-3.166961669921875,3.832244873046875,-0.4590662514291157,1.6254332007431402,3.395638814786585,-0.4152570452008928,-2.6804606119791665,3.993079775855655,2.1691781680620985,-8.369313653167819,0.0,-1.4244200244200351,-34.36100936100936,10.295427340097389,30.249108934615272,33.747476562734,31.20756581903136,1577399172.0,-27.69616422104267,-51.111003648583065,22.8241
16696,1577399172.36,0.0226252056884765,-0.1394622467041015,11.517187376098631,0.5594840513648054,0.012379774437881,10.611860894924256,-0.8734845723470048,-2.7533889139811194,8.42114830118815,-0.1140594482421875,-0.3898620605468749,3.282928466796875,-1.5576990639291155,-0.4192445336318597,3.792367330411585,3.887721470424107,-0.9714762369791669,5.793616885230655,1.9884133207235888,-8.93353704551621,-0.8131454772079686,-1.4244200244200351,-49.55482295482295,7.322018722018717,30.392877467277685,33.699553718513194,31.39925719591458,1577399172.0,-27.69616422104267,-51.111003648583065,22.8241
16697,1577399172.37,0.3183091107177734,0.1227028350830078,9.254666807250976,-0.4125618226586311,-0.2821070297613367,9.469826703029726,0.4600857523600253,0.7086266866048168,8.006951413981119,-0.6328582763671875,-0.2830505371093748,3.450775146484375,4.728922029820884,-1.0601136742568598,4.738412252286585,-1.1781964983258928,-6.251017252604167,5.702064150855655,2.801855133746875,-8.839499813458144,-0.0813145477207955,-1.4244200244200351,-49.55482295482295,7.322018722018717,30.608530266271305,33.84332225117561,31.447180040135382,1577399172.0,-27.69616422104267,-51.111003648583065,22.8241
16698,1577399172.38,-0.2766500018310537,0.4902127899169921,8.526829502563476,-0.588535644680116,0.093782630883194,11.351669207912536,0.9951898234049472,0.0538125325520829,10.257500974527996,-0.0530242919921875,0.1899719238281251,3.557586669921875,0.5327550376333844,0.0385191382431402,3.777108541349085,0.5307878766741072,-2.985636393229167,3.809974307105655,3.615296946770161,-7.993164724935555,0.0,3.406946140279458,-42.43272283272283,-4.348610103940056,30.680414532602512,33.7953994069548,31.423218618024983,1577399172.0,-27.69616422104267,-51.111003648583065,22.8241
16699,1577399172.39,-0.0946906756591787,-0.5153519073486328,9.798150584106445,-0.1468054383812874,-0.9381182846441491,12.01246886611566,-0.7705339009602861,0.0143082051595043,9.541634678141277,-1.7620086669921875,-2.220916748046875,3.832244873046875,-0.3064783608041157,-0.2056214867568597,4.005990377286585,-2.063206263950893,1.7751057942708333,2.7418590727306547,3.615296946770161,-7.993164724935555,0.0,2.333309214790685,-42.43272283272283,-2.118553640381053,30.392877467277685,33.84332225117561,31.447180040135382,1577399172.0,-27.69616422104267,-51.111003648583065,22.8241
16700,1577399172.4,-0.2910152117919912,-0.508169302368164,9.71195932434082,-0.8243645082055061,-0.8231966049566493,8.86648788467035,0.7378131449381503,0.0190966084798168,7.417977805582682,-0.0225067138671875,1.074981689453125,3.496551513671875,1.2804357016958845,4.3720152319931405,4.067025533536585,-0.8425031389508928,-1.9480387369791667,2.7723766508556547,2.349943015400604,-8.93353704551621,0.1626290954415977,-4.108512338141983,-42.43272283272283,6.9503426447588845,30.5845688441609,33.84332225117561,31.25548866325217,1577399172.0,-27.69616422104267,-51.111003648583065,22.8241
16701,1577399172.41,0.1267729779052734,-0.2507926239013672,10.40148940246582,0.2817566587866803,-0.3156258530035242,8.990986370998476,2.5310701883951823,-0.1269496927897134,10.19046332804362,-0.8159637451171875,0.952911376953125,3.359222412109375,0.7616368735708843,3.792181247618141,3.853402486661585,-1.4528547014508928,-2.7109781901041665,3.657386416480655,2.2595605917313515,-7.89912749287749,-0.7318309294871731,2.333309214790685,-57.62653642653642,6.9503426447588845,30.5606074220505,33.891245095396414,31.39925719591458,1577399172.0,-27.69616422104267,-51.111003648583065,22.8241
16702,1577399172.42,0.4368220928955078,0.7703343841552734,8.883565549926757,-0.004350439601991,0.6863475417718653,8.81022414565668,0.2434105021158852,-0.9242188456217448,9.363266654459634,-0.2971649169921875,2.051544189453125,3.008270263671875,0.2886144126333844,-3.19634414300686,3.517709127286585,-3.0092511858258923,-4.389444986979167,2.7418590727306547,2.892237557416128,-6.488569012006511,0.6505163817663843,-5.718967726375135,-60.47537647537648,8.43704695379822,30.48872315571929,33.891245095396414,31.49510288435619,1577399172.0,-27.69616422104267,-51.111003648583065,22.8241
16703,1577399172.43,0.0800860455322265,-0.1035492218017578,9.304945042114255,0.2697856504858991,-0.1240897201910242,9.323780401760194,0.4624799540201816,-0.8930942240397134,8.2104585550944,-1.4873504638671875,1.105499267578125,2.703094482421875,-1.5271814858041155,3.2733824194931405,3.029427877286585,-1.8801007952008928,-6.800333658854167,2.4977184477306547,2.892237557416128,-6.488569012006511,0.6505163817663843,-5.718967726375147,-64.74863654863654,8.214041307442319,30.392877467277685,33.699553718513194,31.25548866325217,1577399172.0,-27.69616422104267,-51.111003648583065,22.8241
16704,1577399172.44,0.3219004132080078,-0.0532709869384765,9.66646949279785,0.1692291807593365,-1.9317119736089927,12.237523822170347,0.4936045756022129,-2.209905137125651,9.68049837443034,-2.2502899169921875,1.349639892578125,2.703094482421875,-4.182210782679116,3.639593356993141,3.212533346036585,1.3852800641741072,-5.304972330729167,5.000159853980655,2.530707862739113,-7.240866868471033,0.3252581908831954,-6.255786189119516,-50.029629629629625,7.247683506566751,30.392877467277685,33.747476562734,31.25548866325217,1577399172.0,-27.69616422104267,-51.111003648583065,22.8241
16705,1577399172.45,0.2608482708740234,0.2041056915283203,9.793362180786133,0.6456753111304303,0.7809185073480372,10.616649298244567,-1.797646413167317,-0.1652569193522134,9.019698716227214,-1.5026092529296875,1.456451416015625,3.206634521484375,-1.3745935951791155,3.1207945288681405,4.768929830411585,-2.673557826450893,-5.213419596354167,5.915687197730655,3.073002404754637,-9.497760437864605,-0.6505163817663775,-4.108512338141983,-65.22344322344321,6.9503426447588845,30.704375954712912,33.65163087429239,31.25548866325217,1577399172.0,-27.69616422104267,-51.111003648583065,22.8241
16706,1577399172.46,-0.0994790789794912,-0.278325942993164,8.653722190551758,-0.4101676209984748,0.0973739333734283,9.751145398098084,0.2362278971354165,-0.152088810221354,10.441854502360025,-2.5249481201171875,0.9529113769531252,2.947235107421875,-1.496663907679116,5.4096128882431405,3.273568502286585,-4.992893763950892,0.7069905598958335,4.176185244605655,1.9884133207235888,-8.55738811728395,0.1626290954415977,2.333309214790685,-50.029629629629625,-3.7539283803243206,30.5366459999401,33.74747656273399,31.30341150747297,1577399172.0,-27.69616422104267,-51.111003648583065,22.8241
16707,1577399172.47,-0.3460818499755849,-0.4914098907470703,9.81969839904785,-0.0055475404320686,-1.886222142066024,8.998168975978944,0.2446076029459628,0.1100762715657543,10.635784836832682,-1.3652801513671875,1.868438720703125,2.886199951171875,-2.503743985804116,-2.2197816430068595,3.120980611661585,-1.2697492327008928,8.763631184895834,2.1315075102306547,1.9884133207235888,-8.55738811728395,0.1626290954415977,2.333309214790685,-46.23117623117623,-1.3752014858613844,30.5845688441609,33.747476562734,31.39925719591458,1577399172.0,-27.69616422104267,-51.111003648583065,22.8241
16708,1577399172.48,-0.6645106707763663,-0.374094009399414,9.898707053833007,-1.0829382875023812,-0.3299910629644617,7.769943524318788,0.6420450785319004,-0.8763348124186195,6.654227475992839,-1.3042449951171875,2.600860595703125,3.099822998046875,-0.7947596108041157,-3.62359023675686,4.219613424161585,0.2256120954241072,3.8808186848958335,2.0399547758556547,2.349943015400604,-9.30968597374847,0.1626290954415977,2.333309214790685,-4.448188848188844,7.396353937470683,30.48872315571929,33.84332225117561,31.543025728577,1577399172.0,-27.69616422104267,-51.111003648583065,22.8241
16709,1577399172.49,-0.1677138262939448,-0.307056362915039,9.45697684753418,-0.5346661073265999,1.056251698266006,8.753960406643007,1.0538477640787751,1.26886987508138,5.555288913981119,-2.9369354248046875,1.532745361328125,2.962493896484375,2.6232091391958843,3.700628513243141,4.616341939786585,1.9956316266741072,-8.967081705729166,1.0633922758556549,2.621090286408368,-8.08720195699362,0.0813145477208022,2.333309214790685,-64.27382987382987,7.396353937470683,30.5366459999401,33.891245095396414,31.447180040135382,1577399172.0,-27.69616422104267,-51.111003648583065,22.8241
16710,1577399172.5,0.1159990704345703,0.4207809417724609,7.36803589904785,0.8874896788062114,-0.5095561874761805,8.518131543117615,0.1117294108072915,-0.6129726298014326,8.816191575113931,-1.3652801513671875,2.021026611328125,2.672576904296875,-1.7560633217416155,4.0820982398056405,3.151498189786585,-2.124241420200893,-10.370890299479166,3.016517275855655,2.892237557416128,-7.240866868471033,-0.6505163817663776,-4.108512338141983,-56.67692307692308,2.2672240712849816,30.5845688441609,33.84332225117561,31.447180040135382,1577399172.0,-27.69616422104267,-51.111003648583065,22.8241
16711,1577399172.51,-0.1760935321044912,-0.0269347686767578,8.004893540649412,-0.0773735902367561,-1.3714687851324303,6.778744037014101,1.0897607889811192,-2.925771433512369,9.943860557047524,-2.6165008544921875,1.258087158203125,3.130340576171875,0.7921544516958843,-7.19414687738186,3.975472799161585,-3.619602748325893,-6.159464518229167,3.779456728980655,2.892237557416128,-7.240866868471033,-0.6505163817663776,-6.255786189119516,-57.62653642653642,9.477739970125754,30.5366459999401,33.939167939617214,31.447180040135382,1577399172.0,-27.69616422104267,-51.111003648583065,22.8241
16712,1577399172.52,-0.0946906756591787,-0.4195838409423827,9.5707014263916,-0.2306024964867561,0.1536376723870997,8.428348980861756,0.1560221415201816,-2.487632529703776,10.37002845255534,-2.1587371826171875,0.5867004394531251,3.008270263671875,-5.250326017054116,2.2052671851181405,2.876839986661585,-2.398899623325893,-0.9714762369791669,6.190345400855655,3.615296946770161,-7.993164724935555,-0.3252581908831888,-5.182149263630755,-55.72730972730972,9.477739970125754,30.48872315571929,33.699553718513194,31.73471710546021,1577399172.0,-27.69616422104267,-51.111003648583065,22.8241
16713,1577399172.53,0.1746570111083984,-0.0796072052001953,9.848428818969726,-0.0258982545433972,-0.4892054733648528,10.765089801174256,-0.7011020528157547,0.2010559346516922,9.747536020914714,-2.1892547607421875,1.136016845703125,3.115081787109375,-1.313558438929116,0.1605894507431404,4.738412252286585,-0.3542218889508928,-2.1769205729166665,4.588172549293155,3.796061794108668,-8.181239189051686,-0.3252581908831888,-0.887601561675649,-57.62653642653642,9.700745616481656,30.512684577829692,33.84332225117561,31.399257195914583,1577399172.0,-27.69616422104267,-51.111003648583065,22.8241
16714,1577399172.54,0.4559757061767577,-0.1083376251220703,9.472539158325194,-0.5179066957055062,0.539104139672256,10.980567950588318,0.6085262552897128,-1.9441487528483072,10.954213657633463,-3.715133666992188,1.258087158203125,3.038787841796875,-0.6421717201791157,-1.3652894555068598,4.585824361661585,5.749293736049108,0.3102620442708333,2.3756481352306547,3.253767252093146,-9.497760437864605,-1.3010327635327552,2.333309214790685,-57.62653642653642,9.626410401029688,30.48872315571929,33.699553718513194,31.39925719591458,1577399172.0,-27.69616422104267,-51.111003648583065,22.8241
16715,1577399172.55,0.0058657940673828,-0.6829460235595702,8.917084373168944,-0.8363355165062873,-1.117683409155868,11.00450996718988,0.4552973490397128,-1.2210998514811195,10.65015004679362,-2.7690887451171875,1.197052001953125,3.221893310546875,-2.564779142054116,3.761663669493141,3.212533346036585,0.8664812360491072,4.033406575520833,1.8873668852306549,3.253767252093146,-9.497760437864605,-1.3010327635327552,3.406946140279458,-65.22344322344321,-2.2672240712849896,30.5366459999401,33.891245095396414,31.20756581903136,1577399172.0,-27.69616422104267,-51.111003648583065,22.8241
16716,1577399172.56,-0.0372298358154287,-0.7499836700439453,8.359235386352537,-0.3455241761742561,-1.311613743628524,9.984580059963315,-0.3730964253743486,-0.5339639750162759,8.445090317789713,-1.9145965576171875,1.898956298828125,3.191375732421875,-3.815999845179116,4.4330503882431405,2.846322408536585,-5.572727748325892,-2.3447672526041665,3.1691051664806547,2.892237557416128,-9.12161150963234,0.3252581908831954,7.70149384223457,-49.08001628001628,7.0990130756628185,30.5845688441609,33.699553718513194,31.30341150747297,1577399172.0,-27.69616422104267,-51.111003648583065,22.8241
16717,1577399172.57,0.2117671368408208,-0.3980360260009765,9.740689744262694,0.2649972471655871,-0.0809940903082122,7.989012976223085,1.5721924235026037,0.4955427388509115,8.642611954752605,-1.2432098388671875,2.051544189453125,3.298187255859375,0.1970616782583842,-0.6481263695693597,4.570565572599085,0.7444109235491072,-4.587809244791667,3.1843639555431547,2.89223755741613,-9.30968597374847,-1.138403668091164,-4.645330800886369,-49.55482295482295,2.713235363996781,30.5845688441609,33.819360829065204,31.47114146224579,1577399172.0,-27.69616422104267,-51.111003648583065,22.8241
16718,1577399172.58,-0.0300472308349599,0.1454477508544921,9.946591087036133,-0.6615587953148812,0.586988172875381,9.737977288967226,-0.0642444112141923,-1.9178125345865884,12.031604404703776,-2.3418426513671875,0.7698059082031251,3.038787841796875,-1.1304529701791155,-3.71514297113186,3.090463033536585,-2.398899623325893,1.1952718098958333,3.748939150855655,2.349943015400604,-7.052792404354904,0.1626290954415977,0.1860353638131292,-42.43272283272283,-6.132655274787254,30.392877467277685,33.699553718513194,31.20756581903136,1577399172.0,-27.69616422104267,-51.111003648583065,22.8241
16719,1577399172.59,0.3578134381103515,0.1334767425537109,9.716747727661131,-0.0965272035180061,-0.3730866928472742,10.401171148830503,0.6324682718912754,-1.1540622049967446,9.579941904703777,-1.5789031982421875,1.593780517578125,3.160858154296875,-2.259603360804116,-1.5789125023818598,3.822884908536585,-2.337864467075893,3.6061604817708335,3.840491885230655,2.349943015400604,-7.052792404354904,0.1626290954415977,-4.108512338141983,-42.43272283272283,-6.132655274787254,30.48872315571929,33.747476562734,31.20756581903136,1577399172.0,-27.69616422104267,-51.111003648583065,22.8241
16720,1577399172.6,-0.2431311785888661,-0.3345896820068359,10.201573563842771,0.7127129576148054,-0.4257591293707117,8.145833184963319,1.7481662455240878,-0.9074594340006508,8.562406199137369,-1.9756317138671875,1.944732666015625,2.962493896484375,-0.5201014076791157,-1.3958070336318598,4.189095846036585,1.6904558454241072,-0.4221598307291667,3.3216930571056547,2.7114727100776204,-8.181239189051686,0.1626290954415977,-6.255786189119516,-50.029629629629625,11.113114710069022,30.46476173360889,33.747476562734,31.73471710546021,1577399172.0,-27.69616422104267,-51.111003648583065,22.8241
16721,1577399172.61,-0.5304353778076162,-0.2184709014892578,8.256284714965819,-0.1216663209496472,0.2110985122308502,9.806212036281677,-0.3970384419759111,-1.0199869120279947,10.250318369547523,-2.6470184326171875,0.4951477050781251,3.099822998046875,-2.869954923304116,0.92352890386814,4.173837056974085,-1.7732892717633928,-4.557291666666667,5.106971377418155,3.434532099431656,-8.55738811728395,-1.138403668091164,14.680133857911622,-48.13040293040293,7.545024368374618,30.48872315571929,33.699553718513194,31.27945008536257,1577399172.0,-27.69616422104267,-51.111003648583065,22.8241
16722,1577399172.62,-0.6932410906982412,-0.3716998077392578,8.739913450317381,-0.6591645936547249,-0.5909590439214929,11.978950042873477,-1.4840059956868483,0.5817339986165355,12.18243910929362,-2.1587371826171875,-1.183319091796875,3.740692138671875,-2.747884610804116,7.54584335699314,4.067025533536585,-3.680637904575893,6.383260091145833,5.000159853980655,4.338356336124197,-7.617015796703295,-0.6505163817663776,-6.255786189119516,-50.029629629629625,7.545024368374619,30.5845688441609,33.65163087429239,31.25548866325217,1577399172.0,-27.69616422104267,-51.111003648583065,22.8241
16723,1577399172.63,-0.6692990740966788,-1.1043255157470702,11.62013804748535,-1.2529266053734749,-0.5694112289800867,11.212805511623474,0.1943293680826816,-0.0958250712076821,11.294190293375651,-0.2056121826171875,0.6477355957031251,3.771209716796875,1.6771642173208845,-1.91460586175686,4.005990377286585,-5.145481654575892,11.662801106770834,3.2911754789806547,4.338356336124197,-7.617015796703295,-0.6505163817663776,5.554219991257025,-65.22344322344321,8.139706091990352,30.5366459999401,33.699553718513194,31.447180040135382,1577399172.0,-27.69616422104267,-51.111003648583065,22.8241
16724,1577399172.64,0.1483207928466801,-0.5237316131591797,9.406698612670898,1.043112786716368,-1.292460130347274,8.021334698635194,1.0466651590983065,0.174719716389973,6.07243647257487,-1.8383026123046875,1.548004150390625,3.282928466796875,-1.954427579554116,3.914251560118141,3.334603658536585,-3.894260951450893,5.620320638020833,2.2840954008556547,3.796061794108672,-7.805090260819425,-0.4878872863247832,5.554219991257025,-65.22344322344321,8.139706091990352,30.48872315571929,33.699553718513194,31.30341150747297,1577399172.0,-27.69616422104267,-51.111003648583065,22.8241
16725,1577399172.65,-0.0276530291748037,-0.2472013214111328,9.127774119262694,0.6696173277319928,-0.4125910202398529,8.544467761379336,-0.3551399129231772,-0.2550394816080732,7.195317051188151,-0.9990692138671876,1.868438720703125,3.374481201171875,0.1970616782583842,-4.38652968988186,4.097543111661585,-0.7204328264508928,-7.944742838541666,2.1009899321056547,2.349943015400604,-7.428941332587162,1.1384036680911775,-5.718967726375135,-53.82808302808303,2.192888855833017,30.48872315571929,33.7953994069548,31.39925719591458,1577399172.0,-27.69616422104267,-51.111003648583065,22.8241
16726,1577399172.66,-0.5232527728271474,-0.7044938385009765,9.077495884399411,-2.4069318055687874,0.041110194359756,8.308638897853944,-1.594139272054036,-1.261801279703776,11.009280295817057,-0.9990692138671876,0.1899719238281251,3.466033935546875,0.2428380454458842,-1.2127015648818598,4.128060689786585,-1.6969953264508928,-4.480997721354167,4.054114932105655,3.0730024047546407,-8.55738811728395,-1.138403668091164,-5.182149263630755,-50.029629629629625,-5.835314412979392,30.48872315571929,33.891245095396414,31.447180040135382,1577399172.0,-27.69616422104267,-51.111003648583065,22.8241
16727,1577399172.67,-0.5017049578857412,-0.2472013214111328,10.427825620727535,0.1955653990210553,0.2972897719964747,12.49849180312738,-0.9477048238118486,-1.9273893412272132,13.674026743570964,-0.5413055419921875,-1.457977294921875,3.404998779296875,3.691324373570884,1.2897398413681402,4.494271627286585,-2.276829310825893,6.932576497395833,6.129310244605655,3.0730024047546407,-8.55738811728395,-1.138403668091164,0.1860353638131292,-48.13040293040292,10.369762555549354,30.48872315571929,33.891245095396414,31.39925719591458,1577399172.0,-27.69616422104267,-51.111003648583065,22.8241
16728,1577399172.68,-0.4226963031005849,-0.6087257720947266,11.870332120971678,0.929388207858946,-1.002761729468368,8.874867590480898,0.2481989054361977,0.5063166463216137,11.928653733317056,0.3894805908203124,0.2662658691406251,3.511810302734375,2.3638097251333843,0.9235289038681403,4.295907369474085,-1.7580304827008928,13.173421223958334,4.511878603980655,2.982619981085384,-8.275276421109751,-1.0570891203703652,-1.692829255792225,-56.91432641432641,10.109589301467471,30.512684577829692,33.699553718513194,31.351334351693776,1577399172.0,-27.69616422104267,-51.111003648583065,22.8241
16729,1577399172.69,-0.3676296649169912,-0.144250650024414,10.19079965637207,0.2386610289038678,-1.060222569312118,11.81614432998285,-0.1336762593587236,-2.8611279886881507,9.350098545328777,-0.7854461669921875,0.4341125488281251,3.618621826171875,2.1959630454458843,-1.5483949242568598,2.846322408536585,2.270289829799107,12.761433919270834,2.6503063383556547,3.79606179410867,-7.805090260819425,1.1384036680911775,-1.4244200244200351,-57.15172975172975,10.741438632809189,30.5366459999401,33.747476562734,31.30341150747297,1577399172.0,-27.69616422104267,-51.111003648583065,22.8241
16730,1577399172.7,-0.0420182391357412,0.0137666595458984,8.301774546508788,0.8898838804663678,0.7450054824456934,9.711641070705507,-0.0283313863118486,3.622370107014973,7.413189402262369,-1.9145965576171875,-0.6645202636718749,3.527069091796875,-2.198568204554116,2.4494078101181405,3.883920064786585,-1.4528547014508928,9.465535481770834,1.0939098539806549,2.1691781680620985,-9.497760437864605,-0.9757745726495664,-6.255786189119516,-48.13040293040292,-3.7539283803243206,30.728337376823312,33.84332225117561,31.20756581903136,1577399172.0,-27.69616422104267,-51.111003648583065,22.8241
16731,1577399172.71,-0.0887051715087885,-0.6853402252197265,9.605417350463869,-1.609662652736756,-0.332385264624618,11.002115765529725,-1.795252211507161,-0.1604685160319009,7.992586204020182,-0.1750946044921875,1.166534423828125,3.801727294921875,4.088052889195884,-0.6939027367568598,3.395638814786585,0.5613054547991072,6.444295247395833,2.3451305571056547,2.1691781680620985,-9.497760437864605,-0.9757745726495664,6.627856916745797,-50.029629629629625,7.396353937470683,30.36891604516728,33.747476562734,31.30341150747297,1577399172.0,-27.69616422104267,-51.111003648583065,22.8241
16732,1577399172.72,0.295564194946289,-0.469862075805664,9.668863694458008,0.7869332090796489,-0.3706924911871179,8.52172284560785,0.145248234049479,-2.045902323404948,7.615499442545572,0.9540557861328124,1.746368408203125,3.740692138671875,-0.7337244545541158,1.7932798804306405,3.639779439786585,-1.3765607561383928,-7.456461588541666,4.389808291480655,2.7114727100776186,-7.805090260819425,-0.162629095441591,-0.887601561675649,-60.00056980056981,7.3220187220187185,30.5366459999401,33.699553718513194,31.30341150747297,1577399172.0,-27.69616422104267,-51.111003648583065,22.8241
16733,1577399172.73,0.0106541973876953,-0.1753752716064453,8.541194712524414,-0.1061040101586311,-0.3802692978277429,10.346104510646912,-0.7537744893391923,0.011914003499348,12.594241794840494,0.2216339111328124,1.807403564453125,3.649139404296875,0.4869786704458843,0.6793882788681402,4.219613424161585,1.2937273297991072,-2.1006266276041665,3.962562197730655,1.9884133207235888,-7.052792404354904,-1.4636618589743595,-4.108512338141983,-56.67692307692308,7.545024368374619,30.680414532602512,33.65163087429239,31.447180040135382,1577399172.0,-27.69616422104267,-51.111003648583065,22.8241
16734,1577399172.74,-0.1928529437255849,-0.766743081665039,9.314521848754882,-0.3287647645531624,-0.083388291968368,8.782690826564881,-0.1456472676595048,-0.4190422953287759,11.583888694254556,-0.8464813232421875,-0.9696960449218748,3.954315185546875,1.5245763266958845,5.2875425757431405,3.212533346036585,-1.2392316545758928,1.6530354817708333,2.6503063383556547,3.615296946770161,-7.240866868471033,-0.9757745726495664,-3.571693875397591,-56.2021164021164,7.024677860210852,30.5366459999401,33.84332225117561,31.30341150747297,1577399172.0,-27.69616422104267,-51.111003648583065,22.8241
16735,1577399172.75,-0.3041833209228505,-0.1717839691162109,11.759001743774412,0.5092058165015241,-0.8471386215582117,11.765866095119568,-0.0618502095540361,-1.5419228739420572,11.423477183024088,1.6712188720703125,0.876617431640625,3.664398193359375,-5.158773282679116,2.7851011694931405,2.602181783536585,-0.4152570452008928,2.721150716145833,2.4977184477306547,3.615296946770161,-7.240866868471033,-0.9757745726495664,-3.571693875397591,-47.65559625559625,10.146756909193456,30.608530266271305,33.891245095396414,31.447180040135382,1577399172.0,-27.69616422104267,-51.111003648583065,22.8241
16736,1577399172.76,-0.2407369769287099,-0.7092822418212891,9.975321506958007,0.3835102293433214,-0.1204984177007903,10.030069891506288,0.0638453776041665,-0.5172045633951826,8.80422056681315,-0.1140594482421875,1.227569580078125,3.252410888671875,2.3180333579458843,-1.0448548851943595,4.448495260099085,2.880641392299107,1.759847005208333,4.771278018043155,4.519121183462703,-7.428941332587162,-0.162629095441591,-4.108512338141966,-55.72730972730972,10.072421693741488,30.5366459999401,33.86728367328601,31.25548866325217,1577399172.0,-27.69616422104267,-51.111003648583065,22.8241
16737,1577399172.77,-0.4083310931396474,0.0233434661865234,8.680058408813476,-2.287221722560975,-0.4616721542730554,11.576724163967224,-2.0274897725423173,-1.216311448160807,10.4322776957194,0.2826690673828124,0.1594543457031251,3.618621826171875,0.7616368735708843,1.99164413824314,3.517709127286585,2.544948032924107,0.8290608723958333,4.176185244605655,1.4461187787080658,-9.873909366096864,-0.6505163817663776,-4.108512338141983,-42.43272283272283,7.0990130756628185,30.5845688441609,33.747476562734,31.25548866325217,1577399172.0,-27.69616422104267,-51.111003648583065,22.8241
16738,1577399172.78,-0.7076063006591787,-0.010175357055664,8.395148411254882,0.5139942198218366,-1.1727500473394616,10.786637616115662,-1.6300522969563798,-0.4214364969889322,10.748312314860026,1.1371612548828125,0.1899719238281251,3.740692138671875,2.4401036704458843,-1.1516664086318598,3.426156392911585,-1.3918195452008928,2.202351888020833,3.932044619605655,2.530707862739113,-8.369313653167819,-0.9757745726495664,-6.255786189119516,-2.548962148962147,-4.794621396651859,30.5366459999401,33.84332225117561,31.39925719591458,1577399172.0,-27.69616422104267,-51.111003648583065,22.8241
16739,1577399172.79,-0.5064933612060537,-0.5189432098388671,9.976518607788083,-1.7772567689476937,0.3810868301019435,11.830509539943789,-0.9453106221516924,-0.0168164164225259,11.24391205851237,1.1829376220703125,0.2967834472656251,4.106903076171875,5.522379061070884,-1.7925355492568598,3.914437642911585,1.6599382672991072,10.411580403645834,3.779456728980655,3.0730024047546407,-7.805090260819425,1.4636618589743662,2.333309214790685,-4.448188848188844,-1.8212127785731853,30.46476173360889,33.939167939617214,31.447180040135382,1577399172.0,-27.69616422104267,-51.111003648583065,22.8241
16740,1577399172.8,0.640329234008789,-0.7356184600830078,9.688017307739257,1.1927503904761334,-0.9429066879644616,8.634250323635195,0.5546567179361978,1.4711799153645828,8.029696329752603,0.6793975830078125,0.8003234863281251,3.862762451171875,2.0281163657583843,1.1981871069931396,3.807626119474085,-0.5373273577008928,3.651936848958333,2.543494814918155,1.9884133207235888,-8.181239189051688,-1.138403668091164,-0.350783098931257,-59.52576312576312,6.9503426447588845,30.48872315571929,33.74747656273399,31.375295773804176,1577399172.0,-27.69616422104267,-51.111003648583065,22.8241
16741,1577399172.81,0.3099294049072265,-0.2998737579345703,9.352829075317382,0.0734611143530866,1.4105935439691308,8.564818475490663,-0.6771600362141923,0.7062324849446605,8.68929888712565,0.7404327392578125,0.8613586425781251,4.290008544921875,3.782877107945884,-3.4404847680068595,3.456673971036585,0.0730242047991072,-5.823771158854167,1.9789196196056549,2.7114727100776186,-8.93353704551621,-0.4878872863247798,0.1860353638131292,-57.62653642653642,6.9503426447588845,30.5845688441609,33.891245095396414,31.39925719591458,1577399172.0,-27.69616422104267,-51.111003648583065,22.8241
16742,1577399172.82,-0.8105569720458975,0.2771288421630859,9.810121592407226,-1.6048742494164436,-1.6539845810308678,6.939155548244569,0.6683812967936191,-2.8778874003092443,10.654938450113931,1.5949249267578125,1.197052001953125,3.801727294921875,7.872232576695884,-11.71074843988186,2.998910299161585,5.291530064174108,-6.251017252604167,2.1925426664806547,4.157591488785688,-10.061983830212997,1.788920049857555,-39.00171241652724,-64.74863654863654,7.322018722018717,30.392877467277685,33.699553718513194,31.30341150747297,1577399172.0,-27.69616422104267,-51.111003648583065,22.8241
16743,1577399172.83,-0.5184643695068349,-0.5333084197998047,9.668863694458008,0.0231828794898053,0.0937826308831935,12.462578778225035,0.4936045756022129,-4.501156125895181,14.04512800089518,1.4118194580078125,0.113677978515625,3.740692138671875,-0.9778650795541156,2.6325132788681405,3.182015767911585,3.765651157924107,-1.4292399088541667,4.756019228980655,1.4461187787080658,-7.240866868471033,0.6505163817663843,-0.8876015616756432,-46.23117623117623,10.518432986453288,30.5606074220505,33.84332225117561,31.30341150747297,1577399172.0,-27.69616422104267,-51.111003648583065,22.8241
16744,1577399172.84,-0.1186326922607412,-0.3309983795166015,10.449373435668944,0.8168607298316021,-0.4844170700445403,8.80304154067621,-0.3539428120930986,-0.0611091471354165,9.886399717203776,1.6559600830078125,-0.6340026855468749,3.954315185546875,3.691324373570884,1.06085800543064,4.067025533536585,0.1035417829241072,3.117879231770833,7.258460635230655,3.0730024047546407,-7.805090260819425,-0.4878872863247798,28.10059542652133,-56.67692307692308,10.815773848261156,30.392877467277685,33.7235151406236,31.351334351693776,1577399172.0,-27.69616422104267,-51.111003648583065,22.8241
16745,1577399172.85,-0.2263717669677724,-0.2639607330322265,10.830051499633788,-0.9153441712914436,0.3643274184808497,11.47137929092035,-0.5766035664876299,0.021490810139973,11.94062474161784,1.7780303955078125,-0.1457214355468749,4.290008544921875,1.8602696860708845,1.7475035132431402,3.700814596036585,3.155299595424107,6.932576497395833,2.7723766508556547,3.79606179410867,-8.181239189051688,-0.4878872863247798,0.1860353638131292,-48.13040293040292,-3.7539283803243206,30.392877467277685,33.939167939617214,31.447180040135382,1577399172.0,-27.69616422104267,-51.111003648583065,22.8241
16746,1577399172.86,-0.4083310931396474,0.3537432952880859,10.20995326965332,0.6744057310523054,-1.144019627417587,8.375676544338319,-0.3132413838704423,-2.2530007670084635,12.3859462504069,1.2287139892578125,1.136016845703125,3.679656982421875,3.0504552329458843,0.7404234351181402,4.067025533536585,3.765651157924107,12.486775716145834,2.6503063383556547,2.7114727100776186,-9.30968597374847,0.1626290954415977,0.1860353638131292,-46.23117623117623,-2.564564933092851,30.392877467277685,33.65163087429239,31.543025728577,1577399172.0,-27.69616422104267,-51.111003648583065,22.8241
