,timestamp,acc_x_dashboard,acc_y_dashboard,acc_z_dashboard,acc_x_above_suspension,acc_y_above_suspension,acc_z_above_suspension,acc_x_below_suspension,acc_y_below_suspension,acc_z_below_suspension,gyro_x_dashboard,gyro_y_dashboard,gyro_z_dashboard,gyro_x_above_suspension,gyro_y_above_suspension,gyro_z_above_suspension,gyro_x_below_suspension,gyro_y_below_suspension,gyro_z_below_suspension,mag_x_dashboard,mag_y_dashboard,mag_z_dashboard,mag_x_above_suspension,mag_y_above_suspension,mag_z_above_suspension,temp_dashboard,temp_above_suspension,temp_below_suspension,timestamp_gps,latitude,longitude,speed
11413,1577399119.53,0.4176684796142577,-0.4554968658447265,5.658575913696288,-1.444462738185975,-0.1240897201910242,8.186534613185975,-0.2007139058430986,-0.8595754007975258,8.085960068766276,-2.0671844482421875,0.5867004394531251,-0.226593017578125,1.2499181235708845,1.2592222632431402,0.6185392054115852,-2.704075404575893,-10.553995768229166,2.4977184477306547,4.8806508781397175,-8.181239189051688,1.4636618589743662,-6.255786189119516,-49.08001628001628,7.396353937470683,30.92002875370653,36.047773085332615,33.17240243208434,1577399119.0,-27.70681045455603,-51.10884240499378,24.68423
11414,1577399119.54,-0.1246181964111318,-0.5069722015380859,9.291776932983398,-0.042657666164491,-1.1128950058355551,8.901203808742617,1.5171257853190097,0.3447080342610673,9.782251944986978,-2.1587371826171875,0.2052307128906251,-0.501251220703125,-2.412191251429116,-0.0072572289443595,0.6032804163490852,-3.4212384905133923,-4.862467447916667,2.497718447730655,3.524914523100908,-8.839499813458144,-0.0813145477207955,2.333309214790685,-65.22344322344321,7.247683506566751,30.728337376823312,36.33531015065744,33.17240243208434,1577399119.0,-27.70681045455603,-51.10884240499378,24.68423
11415,1577399119.55,-0.5184643695068349,-0.757166275024414,9.630556467895508,0.8635476622046491,-1.3547093735113367,9.505739727932069,1.6667633890787754,1.6088465108235677,10.511286350504555,-1.5483856201171875,0.2815246582031251,-0.348663330078125,-4.395833829554116,0.6183531226181402,0.8931974085365852,-1.9411359514508928,-1.3682047526041667,-1.3780139741443451,5.60371026749375,-8.181239189051688,-0.162629095441591,3.406946140279458,-63.32421652421653,10.518432986453288,30.5366459999401,36.28738730643664,33.17240243208434,1577399119.0,-27.70681045455603,-51.10884240499378,24.68423
11416,1577399119.56,-0.0084994158935537,-1.0995371124267577,9.67365209777832,-0.0103359437523811,-1.127260215796493,10.152174176174256,0.4744509623209629,-0.1054018778483072,11.279825083414712,-3.1658172607421875,-0.9696960449218748,-0.440216064453125,-1.4661463295541155,4.9518492163681405,1.2899259241615852,-2.856663295200893,2.324422200520833,-1.1338733491443451,1.9884133207235888,-6.67664347612264,0.1626290954415977,-1.9612384871644155,-48.13040293040292,-1.9698832094771224,30.680414532602512,36.14361877377422,33.17240243208434,1577399119.0,-27.70681045455603,-51.10884240499378,24.68423
11417,1577399119.57,-0.1760935321044912,-1.7770961822509763,11.314877335815428,-1.4396743348656624,-1.0195211410894618,10.882405682521911,-0.1001574361165361,-2.9904148783365883,9.218417454020184,-1.8535614013671875,-1.000213623046875,-0.043487548828125,-1.1609705483041155,-1.7315003930068598,-0.7547518102134148,-7.190159388950892,-1.7344156901041667,-1.1949085053943451,3.253767252093146,-8.55738811728395,0.4878872863247865,28.10059542652133,-50.029629629629625,6.9503426447588845,30.89606733159613,36.28738730643664,33.31617096474676,1577399119.0,-27.70681045455603,-51.10884240499378,24.68423
11418,1577399119.58,0.5014655377197265,-0.1298854400634765,10.377547385864256,1.2214808103980084,-0.4580808517828211,9.953455438381289,-0.4185862569173174,-2.081815348307291,11.281022184244792,-0.9685516357421876,-0.6034851074218749,-0.043487548828125,-0.9473475014291156,-3.89824843988186,0.6795743616615852,1.2174333844866072,-3.718058268229167,-0.9660266694568452,5.242180572816732,-9.30968597374847,0.1626290954415977,28.10059542652133,-61.42498982498982,6.9503426447588845,30.92002875370653,36.11965735166382,33.17240243208434,1577399119.0,-27.70681045455603,-51.10884240499378,24.68423
11419,1577399119.59,0.3362656231689452,-0.3621230010986327,8.775826475219725,0.6097622862280866,-0.3587214828863367,7.755578314357851,0.0387062601725253,-0.7422595194498696,9.235176865641275,-0.5718231201171875,-0.5119323730468749,-0.379180908203125,-4.090658048304116,2.6935484351181405,-0.3580232945884147,-0.4152570452008928,-0.5747477213541667,1.8568493071056549,2.530707862739113,-8.745462581400078,0.9757745726495798,-5.182149263630755,-42.43272283272283,-6.727336998402988,30.728337376823312,36.14361877377422,33.17240243208434,1577399119.0,-27.70681045455603,-51.10884240499378,24.68423
11420,1577399119.6,0.7983465435791015,-1.12347912902832,8.31374555480957,-0.6400109803734749,0.5606519546136622,9.515316534572694,1.0514535624186192,-0.5267813700358072,10.0875126566569,-2.2197723388671875,-0.6645202636718749,-0.409698486328125,-0.4895838295541157,-0.5718324242568598,-0.3275057164634147,-0.4457746233258928,2.385457356770833,-0.0657581147693452,3.253767252093146,-7.993164724935555,0.9757745726495798,-6.255786189119516,-50.029629629629625,-1.672542347669255,30.92002875370653,36.19154161799503,33.17240243208434,1577399119.0,-27.70681045455603,-51.10884240499378,24.68423
11421,1577399119.61,0.214161338500977,-0.9642647186279296,10.195588059692382,0.6145506895483991,-1.5821585312261803,9.14182107558832,1.1400390238444005,-3.950489744059244,7.128279404703775,-1.1821746826171875,-0.939178466796875,-0.363922119140625,3.752359529820884,1.5643980444931402,0.4354337366615852,-0.9035382952008928,2.507527669270833,0.9718395414806548,2.801855133746875,-7.711053028761359,0.0813145477208056,-3.571693875397591,-57.15172975172975,7.024677860210852,30.94399017581693,36.19154161799503,33.12447958786354,1577399119.0,-27.70681045455603,-51.10884240499378,24.68423
11422,1577399119.62,-0.1138442889404287,-1.188122573852539,9.745478147583007,0.4601246824683214,-0.705880723608993,8.539679358059022,0.8814652445475254,0.9887482808430984,11.004491892496745,0.0995635986328124,-0.2372741699218749,-0.440216064453125,-3.465047696741616,-1.85357070550686,-0.0681063024009147,-1.2392316545758928,-0.5137125651041667,-0.7676624116443451,2.530707862739113,-9.873909366096864,0.3252581908831954,30.247869277498904,-46.23117623117623,7.545024368374619,30.728337376823312,36.33531015065744,33.24428669841555,1577399119.0,-27.70681045455603,-51.10884240499378,24.68423
11423,1577399119.63,-0.0611718524169912,-1.0133458526611328,9.98010991027832,-0.2880633363305061,-0.1959157699957117,9.749948297268007,-0.5622383565266924,-1.472491025797526,12.67325044962565,0.0995635986328124,0.3425598144531251,-0.165557861328125,0.3954259360708843,3.761663669493141,-0.1749178258384147,-0.2321515764508928,1.7445882161458333,-0.8592151460193452,2.892237557416128,-9.12161150963234,0.3252581908831954,3.943764603023849,-47.65559625559625,-2.1928888558330213,30.92002875370653,36.28738730643664,33.17240243208434,1577399119.0,-27.70681045455603,-51.10884240499378,24.68423
11424,1577399119.64,-0.6573280657958974,-1.0468646759033202,11.881106028442382,1.495616900485899,-1.3571035751714928,10.623831903225035,0.1584163431803378,-2.6887454691569004,10.982944077555338,-0.5107879638671875,-1.641082763671875,-0.348663330078125,2.5926915610708843,0.9845640601181402,-0.7547518102134148,-1.4223371233258928,0.0050862630208333,-1.0423206147693451,3.9768266414471753,-7.993164724935555,0.9757745726495798,-5.182149263630755,-50.029629629629625,7.247683506566751,30.92002875370653,36.19154161799503,32.54940545721389,1577399119.0,-27.70681045455603,-51.10884240499378,24.68423
11425,1577399119.65,-0.1796848345947255,-1.216852993774414,9.388742100219726,-0.2581358155785535,-1.7341903366461022,9.265122461086364,0.1620076456705727,0.442870302327474,8.0955368754069,-1.2432098388671875,-2.373504638671875,-0.531768798828125,-1.4356287514291155,-2.99797988519436,-0.4495760289634147,-0.4915509905133928,-6.067911783854167,-1.0118030366443451,3.434532099431652,-8.181239189051688,1.3010327635327683,-1.9612384871644155,-50.029629629629625,3.382252303064483,30.84814448737532,36.095695929553415,33.07655674364274,1577399119.0,-27.70681045455603,-51.10884240499378,24.68423
11426,1577399119.66,0.3649960430908203,-0.7595604766845703,7.463803965454101,-0.8315471131859749,1.4656601821527246,8.31821570449457,0.2541844095865878,-2.6624092508951818,9.548817283121746,0.6183624267578125,-2.098846435546875,-0.165557861328125,0.5480138266958843,-1.91460586175686,-0.6631990758384148,1.9956316266741072,-3.1382242838541665,0.2089000883556547,3.9768266414471753,-7.993164724935555,-0.9757745726495664,2.333309214790685,-50.029629629629625,-0.1858380386299179,30.728337376823312,36.33531015065744,33.02863389942193,1577399119.0,-27.70681045455603,-51.10884240499378,24.68423
11427,1577399119.67,0.1279700787353515,-0.5823895538330078,9.29057983215332,1.1245156431616803,-0.0426868637457117,10.27667266250238,0.1344743265787754,-3.045481516520182,11.437842392985026,1.3202667236328125,-2.404022216796875,-0.074005126953125,-1.3745935951791155,7.4542906226181405,0.7711270960365852,-0.8119855608258928,-0.5442301432291667,0.4835582914806547,3.9768266414471753,-7.993164724935555,0.6505163817663843,-4.108512338141983,-63.32421652421653,9.329069539221818,30.728337376823312,36.19154161799503,33.12447958786354,1577399119.0,-27.70681045455603,-51.10884240499378,24.68423
11428,1577399119.68,0.161488901977539,-0.259172329711914,10.109396799926756,0.8036926207007429,-1.637225169409774,8.121891168361756,1.1113086039225253,0.5075137471516918,10.784225339762369,1.4728546142578125,-2.739715576171875,-0.196075439453125,0.5174962485708843,-9.63555312738186,-0.5106111852134148,3.399440220424107,2.812703450520833,-0.4930042085193452,2.7114727100776186,-8.93353704551621,0.1626290954415977,-4.645330800886364,-49.55482295482295,7.024677860210852,30.728337376823312,36.19154161799503,33.17240243208434,1577399119.0,-27.70681045455603,-51.10884240499378,24.68423
11429,1577399119.69,0.7624335186767578,-0.9798270294189452,8.917084373168944,-0.1910981690941785,-0.4305475326910242,9.68889615493402,0.1512337381998696,1.4568147054036449,10.082724253336588,-0.4192352294921875,-2.297210693359375,-0.531768798828125,-0.9320887123666156,-4.24920058831936,0.1760343225990852,0.0272478376116072,3.575642903645833,0.4682995024181548,2.169178168062095,-9.497760437864605,-0.3252581908831854,-1.692829255792225,-56.43951973951974,8.2512089151683,30.872105909485725,36.50304010543026,33.17240243208434,1577399119.0,-27.70681045455603,-51.10884240499378,24.68423
11430,1577399119.7,0.9060856182861328,-0.7308300567626953,9.86518823059082,0.7725679991187115,-0.744187950171493,10.190481402736756,0.7737261698404941,-2.231452952067057,13.66205573527018,0.9235382080078124,-2.159881591796875,-0.501251220703125,3.1420079673208843,0.1911070288681402,-0.9378572789634148,2.087184361049107,12.181599934895834,-1.957847958519345,1.9884133207235888,-8.55738811728395,-0.4878872863247798,2.333309214790685,-57.62653642653642,6.9503426447588845,30.680414532602512,36.33531015065744,33.17240243208434,1577399119.0,-27.70681045455603,-51.10884240499378,24.68423
11431,1577399119.71,0.333871421508789,-0.6470329986572265,11.86195241516113,2.5442772276343364,-0.5789880356207117,13.152108856350036,0.0506772684733066,-0.1413149027506509,13.403481955973309,2.5714874267578125,-1.519012451171875,-0.318145751953125,0.8531896079458843,1.0761167944931402,-0.7242342320884148,-0.5373273577008928,17.766316731770832,-2.1409534272693453,1.807648473385084,-7.993164724935555,-1.3010327635327552,-1.4244200244200351,-64.74863654863654,7.024677860210852,30.680414532602512,36.33531015065744,33.12447958786354,1577399119.0,-27.70681045455603,-51.10884240499378,24.68423
11432,1577399119.72,0.3685873455810546,-1.3078326568603516,10.27339961364746,0.0997973326148053,-2.314784239233993,8.184140411525819,0.0482830668131503,1.0701511372884105,9.15616821085612,1.5186309814453125,-0.8628845214843748,-0.577545166015625,-3.236165860804116,-0.0530335961318597,0.2218106897865852,0.1035417829241072,14.775594075520834,-2.2019885835193453,3.253767252093146,-8.369313653167819,-0.3252581908831888,-3.571693875397591,-61.899796499796494,9.403404754673788,30.96795159792733,36.14361877377422,33.17240243208434,1577399119.0,-27.70681045455603,-51.10884240499378,24.68423
11433,1577399119.73,0.3099294049072265,-0.3333925811767578,8.694423618774413,0.0016350645483995,-0.389846104468368,9.328568805080506,0.4541002482096352,-1.6987430826822916,8.686904685465494,0.3131866455078124,-1.213836669921875,-0.562286376953125,4.439005037633384,-0.0225160180068597,-0.6021639195884148,1.2937273297991072,-2.161661783854167,-1.1643909272693451,4.338356336124197,-9.12161150963234,0.0,2.870127677535077,-64.74863654863654,7.024677860210852,30.92002875370653,36.28738730643664,33.07655674364274,1577399119.0,-27.70681045455603,-51.10884240499378,24.68423
11434,1577399119.74,0.6092046124267577,-0.3764882110595703,8.960180003051757,2.532306219333555,-1.203874668921493,9.304626788478943,-1.938904311116536,-2.499603538004557,10.391576267496744,0.4047393798828124,-1.763153076171875,-0.562286376953125,1.3719884360708845,0.8624937476181402,0.0997403772865852,3.429957798549107,-1.4292399088541667,0.1173473539806547,3.615296946770161,-7.993164724935555,0.0,-3.571693875397591,-64.74863654863654,-2.341559286736952,30.872105909485725,36.14361877377422,33.22032527630515,1577399119.0,-27.70681045455603,-51.10884240499378,24.68423
11435,1577399119.75,0.975517466430664,-0.3405751861572265,8.186852866821289,1.351964800876524,-0.6412372787847742,11.322938787990662,-0.1288878560384111,-0.1748337259928384,8.694087290445964,0.9540557861328124,-1.305389404296875,-0.440216064453125,-4.517904142054116,0.2826597632431402,-0.5106111852134148,3.033229282924107,3.514607747395833,0.2699352446056547,4.157591488785688,-10.061983830212997,0.4878872863247865,2.870127677535077,-64.74863654863654,-2.341559286736952,30.872105909485725,36.19154161799503,33.17240243208434,1577399119.0,-27.70681045455603,-51.10884240499378,24.68423
11436,1577399119.76,0.9575609539794924,-1.1127052215576172,9.097846598510742,-1.214619378810975,-1.3451325668707117,8.952679144435976,1.0490593607584628,-0.8787290140787758,8.243977378336588,1.3050079345703125,0.1594543457031251,-0.684356689453125,-0.2454432045541157,0.2216246069931402,-0.0528475133384147,0.9275163922991072,0.7985432942708333,0.6971813383556548,2.892237557416128,-9.497760437864605,-0.3252581908831888,28.10059542652133,-59.52576312576312,6.9503426447588845,30.704375954712912,36.19154161799503,33.17240243208434,1577399119.0,-27.70681045455603,-51.10884240499378,24.68423
11437,1577399119.77,-0.2383427752685536,-0.7882908966064452,11.902653843383789,0.8659418638648058,-0.4532924484625086,11.095489630275818,0.8910420511881504,-0.6369146464029953,11.55635537516276,3.0597686767578125,-0.4203796386718749,-0.379180908203125,0.6090489829458844,2.4036314429306405,-1.0751863805259148,0.8664812360491072,1.775105794270833,-0.7218860444568452,3.0730024047546407,-8.55738811728395,0.1626290954415977,28.10059542652133,-59.52576312576312,6.9503426447588845,30.92002875370653,36.38323299487824,33.19636385419474,1577399119.0,-27.70681045455603,-51.10884240499378,24.68423
11438,1577399119.78,0.0609324322509765,-0.0987608184814453,12.1755928326416,1.4166082457007427,-0.725034336890243,8.940708136135195,1.233412888590494,1.90093911336263,14.48087270304362,2.8156280517578125,0.0373840332031251,-0.684356689453125,-4.945150235804116,1.2287046851181402,-0.6631990758384148,1.9651140485491072,9.038289388020834,-2.8123401460193453,3.79606179410867,-8.55738811728395,-0.8131454772079686,10.9224046187009,-49.08001628001628,-2.564564933092851,30.5366459999401,36.19154161799503,33.31617096474676,1577399119.0,-27.70681045455603,-51.10884240499378,24.68423
11439,1577399119.79,0.333871421508789,-1.1426327423095703,10.916242759399411,-0.8195761048851936,0.5606519546136622,10.777060809475037,0.5989494486490878,-2.571429587809245,11.638955332438153,-0.5413055419921875,-2.007293701171875,-0.745391845703125,2.0738927329458843,-0.3582093773818597,-0.2969881383384147,1.8430437360491072,10.991414388020834,-1.2559436616443451,3.434532099431656,-7.052792404354904,0.1626290954415977,4.48058306576823,-46.23117623117623,6.9503426447588845,30.728337376823312,36.19154161799503,33.02863389942193,1577399119.0,-27.70681045455603,-51.10884240499378,24.68423
11440,1577399119.8,0.6930016705322265,-0.9810241302490234,10.197982261352536,0.7426404783667588,-1.348723869360946,10.580736273342223,-0.6125165913899736,-1.3276418253580728,7.966249985758463,0.9693145751953124,-0.969696044921875,-0.333404541015625,2.5011388266958843,4.0820982398056405,-1.7007967320884148,-1.5596662248883928,-1.047770182291667,-1.5916370210193451,3.9768266414471753,-6.864717940238773,0.3252581908831954,3.406946140279458,-50.029629629629625,7.247683506566751,30.80022164315452,36.23946446221584,33.17240243208434,1577399119.0,-27.70681045455603,-51.10884240499378,24.68423
11441,1577399119.81,0.640329234008789,-0.3333925811767578,10.435008225708009,2.6615931089819926,1.0299154800042871,10.21442341933832,0.3284046610514316,-1.326444724527995,7.755560239664713,2.0526885986328125,-0.6645202636718749,-0.592803955078125,-3.480306485804116,-1.7315003930068598,-0.2359529820884147,0.8054460797991072,-4.053751627604167,-0.0047229585193452,3.79606179410867,-9.685834901980732,-1.138403668091164,2.333309214790685,-42.43272283272283,-2.4158945021889204,30.872105909485725,36.047773085332615,33.17240243208434,1577399119.0,-27.70681045455603,-51.10884240499378,24.68423
11442,1577399119.82,0.774404526977539,-0.3621230010986327,7.782232786254882,-0.7357790467797248,-2.5709638168707123,6.931972943264101,2.131238511149088,1.6136349141438802,7.286296714274088,1.4728546142578125,-0.6645202636718749,-0.745391845703125,4.118570467320884,1.90009140386814,-0.6631990758384148,1.9345964704241072,-6.617228190104167,-0.8286975678943452,3.9768266414471753,-10.250058294329126,0.0,-6.255786189119516,-42.43272283272283,-2.4158945021889204,30.680414532602512,36.19154161799503,33.36409380896756,1577399119.0,-27.70681045455603,-51.10884240499378,24.68423
11443,1577399119.83,0.4463988995361327,-1.054047280883789,8.97693941467285,-1.4875583680687874,-0.0139564438238367,10.267095855861756,-0.1839544942220048,-3.6488203348795567,10.72676449991862,0.4962921142578124,-0.3593444824218749,-0.592803955078125,3.0199376548208843,-0.8770082055068598,-0.6937166539634148,-0.4152570452008928,-2.4058024088541665,1.7347789946056549,2.349943015400604,-8.181239189051688,-0.162629095441591,-4.108512338141983,-53.82808302808303,7.545024368374619,30.5845688441609,36.33531015065744,32.64525114565549,1577399119.0,-27.70681045455603,-51.10884240499378,24.68423
11444,1577399119.84,-0.1437718096923818,-0.6374561920166015,12.0989783795166,1.7110950498999613,-0.0678259811773528,9.372861535793396,0.2853090311686196,0.7373571065266927,12.407494065348306,2.3578643798828125,-1.854705810546875,-0.150299072265625,-3.495565274866616,1.7627623023056402,-0.9988924352134148,2.483912876674107,7.024129231770834,0.2241588774181546,5.242180572816732,-9.30968597374847,0.4878872863247865,0.1860353638131292,-50.029629629629625,7.396353937470683,30.848144487375325,36.19154161799503,33.148441009973936,1577399119.0,-27.70681045455603,-51.10884240499378,24.68423
11445,1577399119.85,0.659482847290039,-1.1809399688720703,11.502822166137694,2.1803585752905863,-1.2685181137457116,9.503345526271913,0.5869784403483066,1.0246613057454417,11.765848020426432,1.7169952392578125,-1.396942138671875,-0.287628173828125,0.6700841391958843,0.0385191382431402,0.8321622522865852,1.2937273297991072,13.280232747395834,-2.7818225678943453,5.242180572816732,-9.30968597374847,0.4878872863247865,-1.9612384871644155,-42.43272283272283,-4.94329182755579,30.728337376823312,36.38323299487824,33.17240243208434,1577399119.0,-27.70681045455603,-51.10884240499378,24.68423
11446,1577399119.86,0.487100327758789,-0.5943605621337891,11.476485947875975,-1.1571585389672248,-0.9093878647222744,9.40997166152582,-1.5294958272298171,-2.485238328043619,10.338903830973306,0.7099151611328125,-1.244354248046875,-0.074005126953125,4.393228670445884,-1.0601136742568598,-0.6326814977134148,0.8664812360491072,9.953816731770834,-3.3311389741443453,1.807648473385084,-7.240866868471033,-0.9757745726495664,-6.255786189119516,-49.08001628001628,6.9503426447588845,31.063797286368946,36.33531015065744,33.22032527630515,1577399119.0,-27.70681045455603,-51.10884240499378,24.68423
11447,1577399119.87,0.2835931866455077,-1.0660182891845702,10.701961710815429,1.1269098448218366,-0.9812139145269616,13.745870868068788,-1.258951039632161,-1.8699285013834637,7.259960496012369,1.3202667236328125,-1.580047607421875,-0.058746337890625,3.5387364829458843,4.1583921851181405,-1.2735506383384148,3.674098423549107,4.002888997395833,-0.1267932710193452,3.0730024047546367,-8.181239189051688,0.6505163817663842,-6.255786189119516,-41.48310948310948,7.545024368374619,30.92002875370653,36.52700152754066,33.22032527630515,1577399119.0,-27.70681045455603,-51.10884240499378,24.68423
11448,1577399119.88,0.2333149517822265,-0.316633169555664,9.80772739074707,1.5506835386694926,-1.2589413071050866,7.810644952541444,1.74098364054362,1.0366323140462237,9.631417240397134,1.0150909423828125,-1.580047607421875,-0.287628173828125,-0.4895838295541156,-3.91350722894436,0.0081876429115852,0.6986345563616072,-4.526774088541667,-0.5235217866443452,3.9768266414471753,-8.369313653167819,1.3010327635327683,-4.108512338141983,-50.029629629629625,-2.4158945021889204,30.872105909485725,36.311348728547046,33.26824812052595,1577399119.0,-27.70681045455603,-51.10884240499378,24.68423
11449,1577399119.89,1.042555112915039,-0.5799953521728515,7.923490684204101,-2.3901723939476933,0.7617648940667872,11.04281719375238,1.3459403666178378,-2.3966528666178384,11.502485837809244,1.5033721923828125,-1.091766357421875,0.017547607421875,6.315836092320884,-8.93364883050686,0.5880216272865852,0.5918230329241072,4.002888997395833,1.4296032133556549,3.9768266414471753,-8.369313653167819,1.3010327635327683,-40.07534934201602,-43.85714285714285,7.173348291114784,30.872105909485725,36.38323299487824,33.31617096474676,1577399119.0,-27.70681045455603,-51.10884240499378,24.68423
11450,1577399119.9,0.898903013305664,-0.5536591339111328,9.297762437133787,0.8755186705054303,-1.7066570175543052,8.95028494277582,1.7146474222819004,-1.2282824564615884,11.993297178141276,1.5644073486328125,-0.8781433105468749,-0.074005126953125,3.721841951695884,9.28534531011814,-1.7007967320884148,-1.1476789202008928,12.303670247395834,0.7887340727306548,3.0730024047546407,-8.181239189051688,-0.4878872863247798,-4.645330800886364,-47.65559625559625,7.619359583826587,30.728337376823312,36.28738730643664,33.17240243208434,1577399119.0,-27.70681045455603,-51.10884240499378,24.68423
11451,1577399119.91,0.6175843182373046,-0.8265981231689452,11.098202085571288,3.624062176364805,-2.2142277695074304,13.109013226467225,2.1958819559733067,-0.7638073343912758,9.158562412516275,1.2897491455078125,-0.618743896484375,-0.241851806640625,0.2733556235708843,1.6559507788681402,0.4964688929115852,2.331324986049107,14.134724934895834,-1.2559436616443451,2.621090286408368,-9.591797669922668,0.0813145477208054,-3.571693875397591,-60.0005698005698,7.619359583826587,30.80022164315452,36.479078683319855,33.02863389942193,1577399119.0,-27.70681045455603,-51.10884240499378,24.68423
11452,1577399119.92,1.001853684692383,-0.9127893829345702,10.166857639770509,0.8479853514136338,-0.1971128708257903,9.117879058986755,-0.7465918843587236,0.4811775288899735,13.67642094523112,2.2968292236328125,0.4341125488281251,-0.409698486328125,-0.9778650795541156,-3.30315566644436,0.5575040491615852,0.8512224469866072,19.322713216145832,-1.0575794038318451,3.253767252093146,-10.250058294329126,-1.3010327635327552,1.2596722893019128,-65.22344322344321,7.247683506566751,30.728337376823312,36.23946446221584,33.07655674364273,1577399119.0,-27.70681045455603,-51.10884240499378,24.68423
11453,1577399119.93,0.0345962139892578,-0.4387374542236328,11.964903086547851,2.146839752048399,-1.5079382797613363,16.793689581447694,1.0466651590983065,-3.043087314860025,12.467349106852213,2.2357940673828125,0.3425598144531251,-0.165557861328125,8.482584139195884,13.34418320074314,-1.0904451695884148,3.674098423549107,27.501424153645832,-1.866295224144345,3.253767252093146,-10.250058294329126,-1.3010327635327552,-6.255786189119516,-57.62653642653642,6.9503426447588845,30.872105909485725,36.19154161799503,33.17240243208434,1577399119.0,-27.70681045455603,-51.10884240499378,24.68423
11454,1577399119.94,0.420062681274414,-1.1330559356689451,12.094189976196288,0.7198955625952741,-2.520685582007431,14.952548504787536,1.214259275309244,-1.1277259867350258,6.395653696695963,0.6793975830078125,-0.4203796386718749,-0.287628173828125,3.752359529820884,-0.6939027367568598,-0.1749178258384147,2.911158970424107,19.597371419270832,-0.9507678803943452,3.434532099431656,-7.805090260819425,-2.114178240740737,-4.108512338141983,-63.32421652421653,9.329069539221818,31.01587444214814,35.99985024111181,33.17240243208434,1577399119.0,-27.70681045455603,-51.10884240499378,24.68423
11455,1577399119.95,0.7109581829833984,-0.9307458953857422,9.99926352355957,1.1340924498023053,-1.0147327377691493,6.3142689149437885,2.2126413675944003,1.0893047505696605,2.4332499491373696,1.0608673095703125,0.4798889160156251,-0.226593017578125,2.8368321860708843,-2.7690980492568595,0.3133634241615852,3.948756626674107,-2.6804606119791665,-3.849937802269345,3.2537672520931444,-8.181239189051686,-0.1626290954415911,2.333309214790685,-56.67692307692308,-0.1858380386299179,30.84814448737532,36.28738730643664,33.22032527630515,1577399119.0,-27.70681045455603,-51.10884240499378,24.68423
11456,1577399119.96,-0.0061052142333974,0.0975637176513671,9.6090086529541,0.1812001890601183,0.1177246474847565,8.629461920314881,0.7366160441080722,-2.7186729899088538,7.862102213541666,1.4728546142578125,0.4646301269531251,-0.257110595703125,3.2488194907583843,2.4036314429306405,-0.5106111852134148,0.5613054547991072,-18.732706705729168,0.5445934477306548,3.9768266414471753,-8.745462581400078,0.6505163817663843,2.870127677535072,-56.2021164021164,-2.2672240712849896,30.92002875370653,36.28738730643664,33.17240243208434,1577399119.0,-27.70681045455603,-51.10884240499378,24.68423
11457,1577399119.97,0.008259995727539,-0.0987608184814453,9.032006052856444,1.4668864805640238,-2.4895609604254,8.536088055568788,-0.0762154195149736,-4.2976489847819,12.685221457926431,2.1137237548828125,0.5561828613281251,-0.196075439453125,-0.5811365639291157,0.3742124976181402,1.3204435022865852,3.307887486049107,-5.762736002604167,2.1620250883556547,3.9768266414471753,-8.745462581400078,0.6505163817663843,3.406946140279458,-57.62653642653642,-2.2672240712849896,30.92002875370653,36.19154161799503,33.12447958786354,1577399119.0,-27.70681045455603,-51.10884240499378,24.68423
11458,1577399119.98,0.3697844464111328,-1.3365630767822263,10.32487494934082,0.8156636290015241,-0.5406808090582117,9.714035272365663,-0.0666386128743486,1.3119655049641927,11.456996006266277,0.8319854736328125,-0.6034851074218749,-0.226593017578125,-3.083577970179116,-4.63067031488186,0.2218106897865852,-0.3237043108258928,1.2563069661458333,4.237220400855655,3.615296946770161,-9.12161150963234,0.0,28.637413889265726,-62.84940984940984,7.024677860210852,30.872105909485725,36.33531015065744,33.17240243208434,1577399119.0,-27.70681045455603,-51.10884240499378,24.68423
11459,1577399119.99,0.3398569256591801,-0.8361749298095703,10.974900700073242,-0.3910140077172249,-0.6472227829351653,12.579894659572693,-0.8962294881184891,0.4500529073079423,13.696771659342447,1.4118194580078125,-0.2525329589843749,-0.241851806640625,4.866251131383384,1.9000914038681405,0.2370694788490852,3.170558384486607,6.413777669270834,-0.6761096772693452,3.073002404754637,-8.557388117283947,3.3584246494910985e-15,3.406946140279458,-45.28156288156288,-2.8619057949007214,30.872105909485725,36.45511726120945,33.17240243208434,1577399119.0,-27.70681045455603,-51.10884240499378,24.68423
11460,1577399120.0,0.7863755352783203,-0.6254851837158203,11.529158384399413,2.2545788267554303,-1.6396193710699305,13.853609942775815,-1.6013218770345046,-2.1165312723795573,13.08265893351237,1.1066436767578125,-0.5119323730468749,0.200653076171875,2.2264806235708843,1.86957382574314,-1.0904451695884148,-1.1476789202008928,16.881306966145832,-2.3850940522693453,2.892237557416128,-9.497760437864605,0.6505163817663843,-5.182149263630755,-46.23117623117623,-1.9698832094771224,30.77626022104412,36.33531015065744,33.17240243208434,1577399120.0,-27.706597467508548,-51.10890988762228,24.52889
11461,1577399120.01,0.3578134381103515,-0.4842272857666015,11.871529221801756,3.55702452988043,-0.8806574448003992,11.950219622951598,-0.5263253316243486,-1.0415347269694009,11.39714096476237,1.2287139892578125,-0.0541687011718748,-0.135040283203125,-3.480306485804116,0.9235289038681402,0.0387052210365852,2.880641392299107,21.855672200520832,-2.4766467866443453,2.892237557416128,-9.497760437864605,0.6505163817663843,28.10059542652133,-0.6497354497354497,7.247683506566751,30.92002875370653,36.19154161799503,33.17240243208434,1577399120.0,-27.706597467508548,-51.10890988762228,24.52889
11462,1577399120.02,1.195784019165039,-1.5448586212158202,9.0344002545166,-0.4987530824242561,-1.0099443344488368,7.307862603908632,-0.5574499532063799,1.7908058369954427,6.963079490152994,0.4047393798828124,1.044464111328125,0.017547607421875,4.698404451695884,-4.69170547113186,-0.5716463414634148,-0.7204328264508928,11.632283528645834,-0.6761096772693452,2.349943015400604,-8.181239189051688,-0.8131454772079686,28.10059542652133,-0.6497354497354497,6.9503426447588845,31.01587444214814,36.28738730643664,32.88486536675951,1577399120.0,-27.706597467508548,-51.10890988762228,24.52889
11463,1577399120.03,0.9204508282470704,-0.3896563201904297,9.546759409790038,0.5068116148413683,0.3439767043695221,9.6517860292016,0.1201091166178383,-3.952883945719401,6.553671006266276,0.7099151611328125,1.212310791015625,-0.135040283203125,1.1125890220083845,5.2722837866806405,-0.4495760289634147,0.8512224469866072,-9.836832682291666,-0.4167102632068452,2.1691781680620985,-9.30968597374847,-0.3252581908831854,-0.3507830989312513,-48.13040293040292,-5.017627043007758,30.80022164315452,36.26342588432624,33.17240243208434,1577399120.0,-27.706597467508548,-51.10890988762228,24.52889
11464,1577399120.04,0.4703409161376952,0.2603694305419922,9.082284287719723,0.0734611143530866,-1.3499209701910242,10.068377118068788,1.4081896097819002,-0.5339639750162759,10.427489292399088,1.1981964111328125,0.7392883300781251,-0.104522705078125,0.4564610923208843,-1.91460586175686,0.4354337366615852,2.026149204799107,-8.448282877604166,2.8639293852306547,3.615296946770161,-8.369313653167819,0.3252581908831954,-1.9612384871644155,-48.13040293040292,-7.768030014730527,30.728337376823312,36.28738730643664,33.17240243208434,1577399120.0,-27.706597467508548,-51.10890988762228,24.52889
11465,1577399120.05,0.2668337750244141,-0.7787140899658203,9.688017307739257,1.2202837095679302,-0.9812139145269616,8.342157721096132,0.4648741556803378,2.7006024678548166,8.54325258585612,0.1911163330078124,1.074981689453125,-0.409698486328125,-3.541341642054116,-2.1892640648818595,-0.2054354039634147,2.178737095424107,-6.891886393229167,1.5821911039806549,3.615296946770161,-8.369313653167819,0.3252581908831954,-1.9612384871644155,-61.42498982498982,10.667103417357222,30.728337376823312,36.14361877377422,33.12447958786354,1577399120.0,-27.706597467508548,-51.10890988762228,24.52889
11466,1577399120.06,0.1112106671142578,-1.1569979522705078,10.38712419250488,-1.6192394593773811,-0.9716371078863368,9.726006280666445,-0.2198675191243486,-2.5738237894694005,12.16807389933268,1.2897491455078125,1.288604736328125,-0.135040283203125,0.5174962485708843,-1.7315003930068598,0.2828458460365852,-2.704075404575893,-7.349650065104167,2.2230602446056547,3.0730024047546407,-7.805090260819425,-0.162629095441591,30.247869277498904,-50.029629629629625,7.693694799278552,30.872105909485725,36.28738730643664,33.17240243208434,1577399120.0,-27.706597467508548,-51.10890988762228,24.52889
11467,1577399120.07,0.1842338177490239,-0.6171054779052734,11.14728321960449,1.0131852659644145,-1.100923997534774,12.822906128078552,0.9616710001627596,0.3782268575032543,13.29334867960612,-0.0377655029296875,-0.557708740234375,-0.043487548828125,-1.1914881264291155,1.9306089819931405,-0.7700105992759148,0.4239763532366072,3.331502278645833,-1.1186145600818451,3.3441496757624005,-9.215648741690408,-0.4065727386039843,12.532860006934063,-50.029629629629625,2.267224071284982,30.872105909485725,36.26342588432623,33.17240243208434,1577399120.0,-27.706597467508548,-51.10890988762228,24.52889
11468,1577399120.08,0.3865438580322265,-0.5033808990478515,11.924201658325194,1.0024113584937115,-1.309219541968368,8.392435955959414,-1.5294958272298171,2.6191996114095044,10.781831138102213,1.1981964111328125,0.7392883300781251,0.170135498046875,4.637369295445884,-9.20830703363186,0.8016446741615852,3.429957798549107,7.817586263020833,-1.866295224144345,3.434532099431656,-8.181239189051688,0.8131454772079753,4.48058306576823,-63.32421652421653,9.180399108317888,31.01587444214814,36.33531015065744,33.12447958786354,1577399120.0,-27.706597467508548,-51.10890988762228,24.52889
11469,1577399120.09,1.0162188946533202,-1.092354507446289,9.920254868774412,-0.3359473695336311,-0.4927967758550867,9.206464520412538,-0.0618502095540361,-0.1508917093912759,6.493815964762369,-1.1821746826171875,1.502227783203125,-0.257110595703125,1.3414708579458845,2.6325132788681405,1.0457852991615852,1.4463152204241072,-4.358927408854167,-0.3709338960193452,3.434532099431656,-8.181239189051688,0.8131454772079753,4.48058306576823,-63.32421652421653,9.180399108317888,30.680414532602512,36.19154161799503,33.36409380896756,1577399120.0,-27.706597467508548,-51.10890988762228,24.52889
11470,1577399120.1,1.156279691772461,-0.3728969085693359,8.551968619995117,2.424567144626524,-2.4081581039800866,8.667769146877381,0.9413202860514316,-2.497209336344401,7.441919822184245,-0.4497528076171875,1.410675048828125,-0.394439697265625,0.4259435141958843,11.75726913824314,-0.7547518102134148,0.6833757672991072,-10.889689127604166,-1.4085315522693451,2.2595605917313533,-8.651425349342015,-0.4065727386039843,2.333309214790685,-57.62653642653642,-1.2265310549574535,30.728337376823312,36.047773085332615,33.02863389942193,1577399120.0,-27.706597467508548,-51.10890988762228,24.52889
11471,1577399120.11,1.3250709088134769,0.2172738006591796,7.3871895123291,0.6205361936987901,-0.6280691696539149,8.294273687893005,0.4373408365885415,-1.7346561075846354,9.740353415934244,-0.8464813232421875,2.509307861328125,-0.531768798828125,1.1431066001333845,-2.1434876976943595,1.0915616663490852,-0.2779279436383928,-7.074991861979166,0.5598522367931549,2.7114727100776186,-8.55738811728395,-0.162629095441591,-16.72374621263511,-61.18758648758648,2.267224071284981,30.77626022104412,36.16758019588463,33.07655674364273,1577399120.0,-27.706597467508548,-51.10890988762228,24.52889
11472,1577399120.12,0.9108740216064452,-0.7523778717041015,8.397542612915037,0.1476813658179303,-1.060222569312118,9.752342498928163,-0.2031081075032549,0.1531719014485668,10.877599204508464,0.0385284423828124,2.448272705078125,-0.470733642578125,-2.595296720179116,2.8461363257431405,0.1912931116615852,-1.3918195452008928,0.4933675130208333,1.6432262602306549,3.0730024047546407,-9.685834901980732,-0.4878872863247798,2.870127677535077,-49.55482295482295,7.024677860210852,30.5845688441609,36.33531015065744,32.98071105520113,1577399120.0,-27.706597467508548,-51.10890988762228,24.52889
11473,1577399120.13,0.0154426007080078,-1.188122573852539,11.560283005981445,0.3847073301733991,-0.0905708969488367,12.34526289687738,0.7042943216959628,-0.7925377543131509,10.954213657633463,-0.3887176513671875,2.082061767578125,-0.562286376953125,-0.0318201576791157,2.1137144507431405,-0.3580232945884147,-0.9950910295758928,-0.4831949869791667,1.9484020414806549,3.0730024047546407,-9.685834901980732,-0.4878872863247798,2.333309214790685,-65.22344322344321,7.247683506566751,30.728337376823312,36.14361877377422,33.36409380896756,1577399120.0,-27.706597467508548,-51.10890988762228,24.52889
11474,1577399120.14,-0.3257311358642568,-0.7116764434814453,11.571056913452148,1.610538580173399,-1.9652307968511804,11.370822821193787,2.054624058024088,1.2090148335774729,13.492067417399088,0.1300811767578125,2.417755126953125,-0.760650634765625,-2.198568204554116,-1.1516664086318598,-0.0528475133384147,1.5989031110491072,5.894978841145833,-0.3709338960193452,3.253767252093148,-9.4977604378646,-0.162629095441591,-3.034875412653199,-34.83581603581603,9.329069539221818,30.89606733159613,36.28738730643664,33.17240243208434,1577399120.0,-27.706597467508548,-51.10890988762228,24.52889
11475,1577399120.15,0.4248510845947265,-1.398812319946289,11.419025108032226,0.0423364927710558,0.3296114944085846,12.509265710598084,-0.2701457539876298,-0.496853849283854,12.86478658243815,-1.4263153076171875,1.136016845703125,-0.287628173828125,-1.954427579554116,0.4047300757431402,0.1607755335365852,1.0953630719866072,14.836629231770832,-1.7594837007068451,3.434532099431656,-10.438132758445256,-0.162629095441591,4.748992297140437,-64.98603988603988,2.5273973253668656,30.680414532602512,36.095695929553415,33.10051816575314,1577399120.0,-27.706597467508548,-51.10890988762228,24.52889
11476,1577399120.16,0.3673902447509765,-0.4746504791259765,10.751042844848632,-0.4580516542015999,-0.2437998031988367,10.511304425197691,0.6827465067545566,-2.401441269938151,6.084407480875651,-1.3652801513671875,1.807403564453125,-0.409698486328125,2.9283849204458843,4.5246031226181405,-0.1444002477134147,1.1716570172991072,10.869344075520834,-1.3474963960193451,3.253767252093146,-9.873909366096864,0.3252581908831954,2.333309214790685,-65.22344322344321,9.329069539221818,30.680414532602512,36.19154161799503,33.17240243208434,1577399120.0,-27.706597467508548,-51.10890988762228,24.52889
11477,1577399120.17,0.6738480572509765,-1.3245920684814452,11.232277378540038,2.0678310972632428,-1.8527033188238369,11.366034417873474,0.2541844095865878,-0.9002768290201821,7.607119736735026,0.1911163330078124,1.471710205078125,-0.287628173828125,0.6700841391958843,0.5268003882431402,-1.0904451695884148,2.636500767299107,0.5238850911458333,-1.957847958519345,3.253767252093146,-9.873909366096864,0.3252581908831954,2.333309214790685,-65.22344322344321,6.9503426447588845,30.728337376823312,36.19154161799503,32.98071105520113,1577399120.0,-27.706597467508548,-51.10890988762228,24.52889
11478,1577399120.18,1.1083956585693358,-0.3980360260009765,9.240301597290038,0.1716233824194932,-0.2916838364019622,6.81106575942621,-0.4844268025716146,-0.7350769144694014,8.372067167154947,-0.1598358154296875,3.119659423828125,-0.730133056640625,2.3485509360708843,0.2826597632431404,-0.2054354039634147,0.7444109235491072,-6.235758463541667,0.3004528227306549,2.621090286408368,-9.591797669922666,-0.2439436431623866,-1.692829255792225,-59.28835978835978,0.5203465081637666,30.82418306526492,36.35927157276784,33.24428669841555,1577399120.0,-27.706597467508548,-51.10890988762228,24.52889
11479,1577399120.19,0.8103175518798827,-0.4650736724853515,7.842087827758788,0.6073680845679303,-0.2773186264410242,9.101119647365662,0.0865902933756503,-6.050204600016276,9.838515684000653,-0.6938934326171875,3.150177001953125,-0.623321533203125,-3.358236173304116,17.61664413824314,-0.7547518102134148,-0.8425031389508928,-6.800333658854167,0.5751110258556548,2.1691781680620985,-7.617015796703295,0.0,-1.4244200244200351,-60.95018315018314,-6.058320059335285,30.872105909485725,36.38323299487824,33.22032527630515,1577399120.0,-27.706597467508548,-51.10890988762228,24.52889
11480,1577399120.2,0.1399410870361328,-0.6973112335205077,11.012010825805662,1.593779168552305,-1.7976366806402428,12.16090936904535,0.4792393656412754,-2.037522617594401,10.22877055460612,-0.4497528076171875,1.776885986328125,-0.806427001953125,-1.923910001429116,2.5714781226181405,-0.9073397008384148,-0.8425031389508928,-4.053751627604167,1.6737438383556549,3.0730024047546407,-10.061983830212997,0.1626290954415977,2.870127677535077,-62.84940984940984,7.024677860210852,30.92002875370653,35.95192739689101,33.17240243208434,1577399120.0,-27.706597467508548,-51.10890988762228,24.52889
11481,1577399120.21,0.7624335186767578,-0.4770446807861327,10.162069236450192,0.4924464048804303,0.8335909438714747,10.267095855861756,-1.946086916097005,2.7365154927571607,11.557552475992836,0.0995635986328124,2.783966064453125,-0.592803955078125,-3.846517423304116,-3.5015199242568595,0.2828458460365852,-2.002171107700893,-0.4526774088541667,1.4601207914806549,3.0730024047546407,-10.061983830212997,0.1626290954415977,-4.108512338141983,-41.48310948310948,-3.7539283803243206,30.728337376823312,36.28738730643664,33.12447958786354,1577399120.0,-27.706597467508548,-51.10890988762228,24.52889
11482,1577399120.22,0.4021061688232421,-1.2623428253173827,10.570280619506836,-0.9692137086449591,-0.9045994614019618,13.110210327297304,-0.4269659627278646,-0.4166480936686202,10.27306328531901,-0.0682830810546875,3.134918212890625,-0.653839111328125,1.1431066001333845,4.7077085913681405,-0.6326814977134148,1.4157976422991072,3.056844075520833,-2.1867297944568453,3.3441496757624005,-9.027574277574276,-0.8944600249287742,2.601718446162881,-44.09454619454619,-1.932715601751135,30.80022164315452,36.11965735166383,33.148441009973936,1577399120.0,-27.706597467508548,-51.10890988762228,24.52889
11483,1577399120.23,0.046567222290039,-0.2376245147705078,11.782943760375977,2.5921612608374613,0.1895506972894435,11.461802484279724,0.4744509623209629,-3.976825962320963,7.4443140238444,0.2216339111328124,2.753448486328125,-0.409698486328125,0.7616368735708843,0.8624937476181402,0.0081876429115852,-1.8801007952008928,-11.011759440104166,-2.1714710053943453,3.0730024047546407,-6.67664347612264,-0.4878872863247798,7.70149384223457,-2.548962148962147,7.0990130756628185,30.728337376823312,36.19154161799503,33.31617096474676,1577399120.0,-27.706597467508548,-51.10890988762228,24.52889
11484,1577399120.24,-0.0324414324951162,-0.8960299713134765,9.369588486938476,-0.4795994691430061,-1.5725817245855551,7.212094537502382,0.6875349100748691,-1.1468796000162758,7.789079062906901,-2.4028778076171875,2.661895751953125,-0.897979736328125,0.8531896079458843,2.2968199194931405,0.7100919397865852,-1.2697492327008928,-18.458048502604168,-0.3098987397693452,2.1691781680620985,-6.864717940238773,-0.9757745726495664,-0.8876015616756432,-0.6497354497354497,7.0990130756628185,30.680414532602512,36.479078683319855,33.22032527630515,1577399120.0,-27.706597467508548,-51.10890988762228,24.52889
11485,1577399120.25,0.4918887310791015,-0.6087257720947266,6.824552122192382,0.2075364073218366,-1.1200776108160242,3.532206585842226,0.905407261149088,-3.2346234476725257,10.21440534464518,-1.7009735107421875,2.173614501953125,-0.562286376953125,-4.212728360804116,2.2357847632431405,-0.8768221227134148,-0.2626691545758928,-15.619913736979166,0.8192516508556548,2.349943015400604,-9.30968597374847,-0.4878872863247798,-0.3507830989312626,-42.9075295075295,-1.5982071322172895,30.728337376823312,36.19154161799503,33.12447958786354,1577399120.0,-27.706597467508548,-51.10890988762228,24.52889
11486,1577399120.26,0.1375468853759765,-0.1789665740966796,8.680058408813476,0.4816724974097272,0.0590667068109284,10.76868110366449,0.964065201822916,-2.0351284159342447,9.48776514078776,-0.2056121826171875,1.731109619140625,-0.394439697265625,-0.1844080483041155,5.3943540991806405,0.0844815882240852,2.453395298549108,-11.164347330729166,1.0481334867931549,2.349943015400604,-9.4977604378646,-0.4878872863247798,0.7228538265575211,-51.92885632885633,0.0371676077259808,30.84814448737532,36.311348728547046,33.24428669841555,1577399120.0,-27.706597467508548,-51.10890988762228,24.52889
11487,1577399120.27,-0.0108936175537099,-0.852934341430664,9.968138901977538,-0.8076050965844124,-1.6108889511480553,8.8856414979516,0.0937728983561191,-0.7398653177897133,9.06040014444987,-0.9380340576171876,1.349639892578125,-0.287628173828125,-2.992025235804116,-0.9990785180068598,-0.2359529820884147,-8.990696498325892,-6.312052408854167,2.0094371977306547,2.1691781680620985,-9.873909366096864,0.3252581908831954,-3.571693875397591,-57.15172975172975,7.024677860210852,30.728337376823312,36.19154161799503,33.12447958786354,1577399120.0,-27.706597467508548,-51.10890988762228,24.52889
11488,1577399120.28,0.4440046978759765,-0.738012661743164,8.692029417114258,0.7294723692358991,0.3715100234613184,9.271107965236755,0.1320801249186191,1.055785927327473,9.60388392130534,-2.3418426513671875,1.166534423828125,-0.836944580078125,-4.731527188929116,3.3954527319931405,1.3204435022865852,-1.6969953264508928,-5.427042643229167,1.2770153227306549,2.530707862739113,-9.873909366096864,-1.951549145299146,28.10059542652133,-56.67692307692308,7.396353937470683,30.872105909485725,36.38323299487824,33.36409380896756,1577399120.0,-27.706597467508548,-51.10890988762228,24.52889
11489,1577399120.29,-0.103070381469726,-1.0480617767333984,10.148901127319334,0.0040292662085553,-0.6172952621832117,9.733188885646912,1.1280680155436191,0.5434267720540356,9.474597031656902,-1.0295867919921875,0.647735595703125,-0.531768798828125,-0.5506189858041157,8.52240585699314,-0.5411287633384148,-0.3237043108258928,-5.976359049479167,-1.5306018647693451,3.253767252093146,-8.745462581400078,-0.6505163817663776,28.10059542652133,-56.67692307692308,7.545024368374619,30.656453110492105,36.28738730643664,33.36409380896756,1577399120.0,-27.706597467508548,-51.10890988762228,24.52889
11490,1577399120.3,-0.3221398333740224,-0.2567781280517578,12.795691062622067,1.0981794248999617,-0.2701360214605559,11.21639681411371,1.1280680155436191,-0.5387523783365884,10.80936445719401,0.1300811767578124,-0.1457214355468749,-0.165557861328125,-1.939168790491616,2.1594908179306405,-0.8005281774009148,-0.4610334123883928,-7.776896158854166,-1.6374133882068451,2.530707862739113,-9.873909366096864,-0.6505163817663776,15.753770783400396,-65.22344322344321,7.173348291114785,30.872105909485725,36.28738730643664,33.17240243208434,1577399120.0,-27.706597467508548,-51.10890988762228,24.52889
11491,1577399120.31,0.5038597393798827,-0.9343371978759764,8.838075718383788,-1.7581031556664437,-2.017903233374618,6.378912359768007,-0.3419718037923174,-2.0231574076334637,6.7499955423990885,-1.7925262451171875,0.5867004394531251,-0.775909423828125,1.3719884360708845,0.3436949194931402,0.3133634241615852,-2.246311732700893,-12.720743815104166,1.3075329008556549,1.9884133207235888,-9.30968597374847,-0.162629095441591,3.406946140279458,-65.22344322344321,7.247683506566751,30.728337376823312,36.38323299487824,33.31617096474676,1577399120.0,-27.706597467508548,-51.10890988762228,24.52889
11492,1577399120.32,0.9587580548095702,-1.7603367706298827,7.834905222778319,0.5499072447241804,-0.7274285385503992,7.485033526760194,0.5797958353678379,-0.1006134745279946,7.506563267008463,-2.7996063232421875,0.2204895019531251,-0.653839111328125,2.6537267173208843,1.93060898199314,-0.8463045445884148,0.2561296735491072,-12.751261393229166,-0.5540393647693452,2.7114727100776186,-7.805090260819425,-1.7889200498575484,3.406946140279458,-65.22344322344321,-0.1858380386299179,31.01587444214814,36.33531015065744,33.12447958786354,1577399120.0,-27.706597467508548,-51.10890988762228,24.52889
11493,1577399120.33,0.506253941040039,-0.1179144317626953,9.055948069458006,0.5163884214819928,-0.5741996323003992,10.154568377834412,-1.4552755757649734,-1.7095169901529947,11.028433909098307,-0.3734588623046876,0.0984191894531251,-0.516510009765625,-8.607259610804116,6.5082457007431405,-0.1749178258384147,-4.382542201450892,-8.906046549479166,-0.0047229585193452,3.434532099431656,-8.93353704551621,-1.4636618589743595,-1.9612384871644155,-57.62653642653642,-2.564564933092851,30.77626022104412,36.38323299487824,32.88486536675951,1577399120.0,-27.706597467508548,-51.10890988762228,24.52889
11494,1577399120.34,0.104028062133789,-0.757166275024414,10.45895024230957,-0.0534315736351942,0.3260201919183497,6.778744037014101,1.3722765848795566,-0.3986915812174483,9.40516518351237,0.5878448486328125,0.6477355957031251,-0.379180908203125,-0.2149256264291156,-0.86174941644436,0.1760343225990852,-3.4059797014508923,0.5849202473958333,0.5751110258556548,2.1691781680620985,-7.993164724935555,0.0,-1.9612384871644213,-57.15172975172975,8.734387815606086,30.92002875370653,36.23946446221584,33.22032527630515,1577399120.0,-27.706597467508548,-51.10890988762228,24.52889
11495,1577399120.35,-0.1904587420654286,-1.7076643341064452,10.561900913696288,0.3487943052710553,-1.088952989233993,10.384411737209412,1.951673386637369,-1.1349085917154946,6.560853611246745,-1.6094207763671875,-0.2677917480468749,-0.043487548828125,-1.0389002358041155,3.3649351538681405,0.8626798304115852,0.4697527204241072,-8.509318033854166,-0.3098987397693452,3.253767252093146,-9.873909366096864,-1.6262909544159505,0.1860353638131292,-65.22344322344321,11.113114710069022,30.872105909485725,36.14361877377422,33.17240243208434,1577399120.0,-27.706597467508548,-51.10890988762228,24.52889
11496,1577399120.36,-0.2670731951904286,-0.680551821899414,8.962574204711913,-1.3175700501976937,-1.483996263159774,6.733254205471132,0.5103639872233067,-1.9824559794108072,10.118637278238932,-0.7244110107421875,2.295684814453125,-0.989532470703125,0.2428380454458842,0.9845640601181402,-0.8768221227134148,-1.7885480608258928,-10.096232096354166,-0.8286975678943452,2.530707862739113,-9.497760437864605,-1.3010327635327552,0.1860353638131292,-65.22344322344321,11.113114710069022,30.728337376823312,36.19154161799503,33.17240243208434,1577399120.0,-27.706597467508548,-51.10890988762228,24.52889
11497,1577399120.37,0.1315613812255864,-0.3405751861572265,8.853638029174803,0.5906086729468366,-0.0378984604253997,12.061550000148864,0.4469176432291665,0.174719716389973,12.939006833902994,-2.280807495117188,-3.716278076171875,-0.592803955078125,-4.639974454554116,0.98456406011814,-0.3427645055259147,-3.4975324358258923,-2.588907877604167,-0.2488635835193452,3.253767252093146,-9.873909366096864,0.6505163817663843,-0.887601561675649,-61.8997964997965,4.645950965747918,30.77626022104412,36.07173450744301,33.10051816575314,1577399120.0,-27.706597467508548,-51.10890988762228,24.52889
11498,1577399120.38,0.4751293194580077,-0.6829460235595702,10.956944187622067,0.2003538023413678,-0.1671853500738367,8.320609906154726,0.5774016337076816,-1.2474360697428384,9.189687034098307,0.6488800048828125,0.2204895019531251,-0.684356689453125,-1.801839688929116,-6.98052383050686,-1.2735506383384148,-3.863743373325893,1.5614827473958333,-0.2183460053943452,2.349943015400604,-7.805090260819425,-0.8131454772079686,31.32150620298768,-50.029629629629625,7.247683506566751,30.92002875370653,36.19154161799503,33.31617096474676,1577399120.0,-27.706597467508548,-51.10890988762228,24.52889
11499,1577399120.39,0.592445200805664,-2.090736599731445,10.990463010864255,1.5961733702124614,-1.560610716284774,14.339632879787535,0.5558538187662754,1.0701511372884105,10.20961694132487,-1.5178680419921875,-0.7560729980468749,-0.653839111328125,-7.447591642054116,6.2946226538681405,-0.0833650914634147,-4.840305873325892,-1.1545817057291667,-0.9812854585193452,2.1691781680620985,-7.993164724935555,-1.951549145299146,3.406946140279458,-65.22344322344321,6.9503426447588845,30.77626022104412,36.047773085332615,33.31617096474676,1577399120.0,-27.706597467508548,-51.10890988762228,24.52889
11500,1577399120.4,0.5182249493408203,-1.188122573852539,9.09904369934082,0.1740175840796491,-1.4696310531988366,7.432361090236757,-0.4592876851399736,-0.1891989359537759,11.191239621988933,-1.5789031982421875,-0.6034851074218749,-0.653839111328125,-4.548421720179116,-4.60015273675686,-1.4871736852134148,1.9345964704241072,1.8056233723958333,-1.5916370210193451,1.4461187787080658,-9.12161150963234,-0.9757745726495664,3.406946140279458,-46.23117623117623,-2.2672240712849896,30.728337376823312,36.28738730643664,33.22032527630515,1577399120.0,-27.706597467508548,-51.10890988762228,24.52889
11501,1577399120.41,0.6151901165771484,-0.469862075805664,9.919057767944334,0.6600405210913682,0.4122114516839747,9.50454262710199,1.3974157023111973,-1.2881374979654947,9.694863584391276,0.4810333251953124,-0.7560729980468749,-0.730133056640625,0.1512853110708842,-0.4955384789443595,0.3591397913490852,-0.5373273577008928,9.099324544270834,-0.9660266694568452,2.1691781680620985,-9.12161150963234,0.0,3.406946140279463,-47.18078958078958,-4.720286181199889,30.752298798933715,36.26342588432624,33.17240243208434,1577399120.0,-27.706597467508548,-51.10890988762228,24.52889
11502,1577399120.42,0.6546944439697265,-1.063624087524414,10.1836170513916,1.1867648863257427,-1.311613743628524,7.925566632228945,0.3786828959147129,-3.703886973063151,8.287073008219402,-0.2971649169921875,-0.4508972167968749,-0.806427001953125,-0.7642420326791157,-1.7620179711318598,-0.8768221227134148,1.1106218610491072,10.258992513020834,-0.5540393647693452,2.530707862739113,-8.369313653167819,0.0,2.333309214790685,-65.22344322344321,7.0990130756628185,30.728337376823312,35.99985024111181,32.98071105520113,1577399120.0,-27.706597467508548,-51.10890988762228,24.52889
11503,1577399120.43,0.4847061260986328,-0.8984241729736328,9.697594114379882,-0.1324402284203499,-0.0977535019293054,10.69805215468988,-1.3140176778157546,1.8961507100423176,6.546488401285807,0.4352569580078124,-1.183319091796875,-1.081085205078125,-4.212728360804116,0.6488707007431402,-1.8839022008384148,-0.6288800920758928,-3.5959879557291665,0.5751110258556548,2.892237557416128,-9.12161150963234,-1.6262909544159505,-3.571693875397591,-45.75636955636956,-3.084911441256624,30.872105909485725,36.38323299487824,33.17240243208434,1577399120.0,-27.706597467508548,-51.10890988762228,24.52889
11504,1577399120.44,0.649906040649414,-0.8421604339599609,8.858426432495117,1.0000171568335554,-1.6180715561285242,9.886417791896912,-0.3683080220540361,-0.1844105326334634,9.036458127848308,-0.6175994873046875,-0.4203796386718749,-1.081085205078125,0.5174962485708843,1.5033628882431402,-0.1444002477134147,3.338405064174107,-6.586710611979167,-1.5916370210193451,2.89223755741613,-7.993164724935556,3.3584246494910985e-15,-3.571693875397591,-45.75636955636956,-3.084911441256624,30.752298798933715,36.19154161799503,33.17240243208434,1577399120.0,-27.706597467508548,-51.10890988762228,24.52889
11505,1577399120.45,-0.0324414324951162,-0.2831143463134765,9.747872349243163,0.4936435057105084,-0.4963880783453216,10.34730161147699,-0.3826732320149736,-1.5155866556803383,12.71874028116862,1.0456085205078125,-0.4814147949218749,-0.318145751953125,0.3801671470083843,1.9763853491806405,-0.2054354039634147,0.3019060407366072,0.0356038411458332,-0.7371448335193452,2.7114727100776186,-7.805090260819425,0.1626290954415977,-4.108512338141966,-48.13040293040292,2.564564933092849,30.872105909485725,36.11965735166382,33.10051816575314,1577399120.0,-27.706597467508548,-51.10890988762228,24.52889
11506,1577399120.46,-0.0946906756591787,-0.8265981231689452,12.0606711529541,2.010370257419493,-0.6795445053472743,9.445884686428164,-0.0953690327962236,1.1922554219563792,8.397206284586588,1.6864776611328125,-0.3288269042968749,-0.653839111328125,-3.327718595179116,3.0292417944931405,0.2218106897865852,1.2021745954241072,-1.0935465494791667,-1.2559436616443451,3.253767252093146,-9.12161150963234,-0.6505163817663776,-6.255786189119516,-50.029629629629625,7.545024368374619,30.92002875370653,36.19154161799503,33.31617096474676,1577399120.0,-27.706597467508548,-51.10890988762228,24.52889
11507,1577399120.47,0.4631583111572265,-1.0085574493408205,10.523593687133788,0.0878263243140241,-2.578146421851181,6.977462774807069,1.2405954935709629,0.069374843343098,7.140250413004557,0.0690460205078124,-0.0541687011718748,-0.684356689453125,1.5245763266958845,0.4657652319931402,-0.9073397008384148,1.7820085797991072,-9.028116861979166,-3.3921741303943453,2.349943015400604,-9.30968597374847,-0.4878872863247798,-5.182149263630755,-48.13040293040292,-2.118553640381053,31.01587444214814,36.19154161799503,33.17240243208434,1577399120.0,-27.706597467508548,-51.10890988762228,24.52889
11508,1577399120.48,0.5385756634521484,-1.253963119506836,7.721180643920897,1.004805560153868,-0.5095561874761805,8.756354608303162,1.1879230570475254,-4.146814280192057,9.072371152750652,-1.9756317138671875,-1.061248779296875,-0.928497314453125,-0.8557947670541157,0.7404234351181402,-1.0599275914634148,-2.734592982700893,-9.882609049479166,-1.4390491303943451,3.615296946770161,-8.369313653167817,-1.3010327635327552,-5.182149263630755,-48.13040293040292,-2.118553640381053,30.80022164315452,36.14361877377422,33.17240243208434,1577399120.0,-27.706597467508548,-51.10890988762228,24.52889
11509,1577399120.49,0.7097610821533202,-0.2855085479736328,9.790967979125975,0.9808635435523052,-0.5179358932867278,7.863317389064882,2.0031487223307285,-1.4258040934244791,9.162153715006507,2.3578643798828125,-1.488494873046875,-0.562286376953125,-1.069417813929116,-1.0601136742568598,-0.6326814977134148,1.1563982282366072,-4.908243815104167,-0.1878284272693452,3.9768266414471753,-9.12161150963234,-1.3010327635327552,-1.4244200244200351,-57.15172975172975,7.247683506566751,30.92002875370653,36.21550304010543,33.26824812052595,1577399120.0,-27.706597467508548,-51.10890988762228,24.52889
11510,1577399120.5,0.276410581665039,-0.3238157745361328,10.34881696594238,-0.2066604798851936,0.0243507827386622,6.773955633693788,0.9556854960123692,-0.0216048197428384,7.159404026285807,1.2287139892578125,-0.3898620605468749,-0.989532470703125,-6.501546720179116,-0.1445863305068597,-1.3345857945884148,1.3852800641741072,-9.211222330729166,1.9789196196056549,2.1691781680620985,-8.369313653167819,-0.6505163817663776,2.333309214790685,-55.72730972730972,6.9503426447588845,30.872105909485725,36.047773085332615,33.22032527630515,1577399120.0,-27.706597467508548,-51.10890988762228,24.52889
11511,1577399120.51,0.4823119244384765,-0.7092822418212891,8.646539585571288,0.6049738829077741,0.1799738906488185,10.52566963515863,0.3954423075358066,-0.5890306131998697,9.515298459879558,-0.6328582763671875,-0.2067565917968749,-0.714874267578125,1.1583653891958845,1.2592222632431402,0.8626798304115852,1.6904558454241072,-6.647745768229167,0.8192516508556548,2.530707862739113,-10.250058294329126,-0.9757745726495664,-5.718967726375147,-57.15172975172975,9.700745616481653,30.92002875370653,36.33531015065744,33.31617096474676,1577399120.0,-27.706597467508548,-51.10890988762228,24.52889
11512,1577399120.52,0.2213439434814453,-0.6290764862060546,9.939408482055663,-0.8674601380883186,-1.1523993332281337,12.059155798488709,-0.0965661336263022,-1.4772794291178384,11.929850834147135,-0.5260467529296875,-2.083587646484375,-0.638580322265625,-0.4438074623666157,-1.83831191644436,-0.6937166539634148,-0.5373273577008928,0.9663899739583331,-1.5153430757068451,4.067209065116433,-8.839499813458144,-0.2439436431623899,-0.6191923303034583,-59.763166463166456,8.474214561524201,30.872105909485725,36.02381166322221,33.10051816575314,1577399120.0,-27.706597467508548,-51.10890988762228,24.52889
11513,1577399120.53,0.3578134381103515,-1.0229226593017575,11.000039817504884,1.8762949644507427,0.6683910293206935,10.829733245998474,-0.1863486958821611,-0.0886424662272134,9.06040014444987,-0.2666473388671875,-1.274871826171875,-0.592803955078125,3.2335607016958843,-2.1892640648818595,0.0081876429115852,-0.5373273577008928,2.171834309895833,-1.7137073335193451,3.434532099431656,-9.685834901980732,-1.138403668091164,-5.718967726375147,-60.95018315018314,7.619359583826587,30.77626022104412,36.19154161799503,33.12447958786354,1577399120.0,-27.706597467508548,-51.10890988762228,24.52889
11514,1577399120.54,0.305141001586914,-0.7308300567626953,9.951379490356445,0.3871015318335553,-0.878263243140243,7.961479657131288,-0.4808355000813799,-0.7111348978678383,9.690075181070965,-0.4802703857421875,-1.183319091796875,-0.348663330078125,2.2264806235708843,0.3436949194931402,0.4354337366615852,0.8359636579241072,-4.053751627604167,-1.1338733491443451,3.434532099431656,-9.685834901980732,-1.138403668091164,-5.718967726375147,-64.74863654863654,-0.7061845467936874,30.728337376823312,36.14361877377422,33.17240243208434,1577399120.0,-27.706597467508548,-51.10890988762228,24.52889
11515,1577399120.55,0.487100327758789,-0.575206948852539,8.682452610473632,-0.2497561097680061,-1.6468019760503991,8.976621161037539,-0.2485979390462236,-2.080618247477213,10.341298032633462,-1.1821746826171875,-1.335906982421875,-0.775909423828125,4.210123201695884,-5.63775039300686,-1.9144197789634148,0.5002702985491072,-6.128946940104167,-1.3474963960193451,3.434532099431656,-9.685834901980732,-1.138403668091164,-6.255786189119516,-56.67692307692308,-1.9698832094771224,30.872105909485725,36.28738730643664,33.17240243208434,1577399120.0,-27.706597467508548,-51.10890988762228,24.52889
11516,1577399120.56,1.6339229229736327,-1.006163247680664,6.288250950317382,1.142472155612852,-0.6149010605230555,10.147385772853942,-0.7094817586263021,-1.6340996378580728,9.257921781412762,-0.8159637451171875,-1.610565185546875,-0.470733642578125,0.1970616782583845,-0.2208802758193596,0.2370694788490852,-0.6441388811383928,2.065022786458333,0.1631237211681548,3.615296946770161,-9.12161150963234,-0.3252581908831888,0.9912630579297168,-63.08681318681317,-2.2300564635590057,30.48872315571929,36.23946446221584,33.05259532153234,1577399120.0,-27.706597467508548,-51.10890988762228,24.52889
11517,1577399120.57,0.8043320477294921,-0.4159925384521484,10.073483775024412,0.6289158995093366,-0.6699676987066493,5.924014044338319,0.6492276835123691,-1.5155866556803383,7.947096372477213,0.0843048095703124,-0.5271911621093749,-0.653839111328125,-6.532064298304116,2.1137144507431405,-0.9683748570884148,-4.382542201450892,2.660115559895833,1.5211559477306549,3.4345320994316557,-11.002356150793648,-0.3252581908831854,29.17423235201012,-59.52576312576312,9.923751262837555,30.82418306526492,36.28738730643664,33.17240243208434,1577399120.0,-27.706597467508548,-51.10890988762228,24.52889
11518,1577399120.58,1.3705607403564453,-0.5009866973876953,8.323322361450195,0.9736809385718366,0.8599271621331934,9.340539813381287,0.4912103739420566,-0.3017264139811197,10.5471993754069,-0.4497528076171875,0.4035949707031251,-0.959014892578125,-0.4285486733041157,-2.9522035180068595,-0.8463045445884148,-4.504612513950892,3.6366780598958335,-0.2183460053943452,3.0730024047546407,-10.81428168667752,-0.162629095441591,29.17423235201012,-59.52576312576312,9.923751262837555,30.872105909485725,36.19154161799503,32.88486536675951,1577399120.0,-27.706597467508548,-51.10890988762228,24.52889
11519,1577399120.59,0.8007407452392578,-1.0013748443603514,9.553942014770508,0.1165567442358991,-1.637225169409774,7.9471144471703505,0.6228914652506504,-0.6680392679850259,16.934929404703777,-0.8769989013671875,0.5256652832031251,-0.653839111328125,-0.1844080483041157,3.853216403868141,-0.3580232945884147,-2.612522670200893,26.524861653645832,-1.866295224144345,3.0730024047546407,-10.81428168667752,-0.162629095441591,2.333309214790685,-41.48310948310948,-3.7539283803243206,30.728337376823312,35.95192739689101,33.31617096474676,1577399120.0,-27.706597467508548,-51.10890988762228,24.52889
11520,1577399120.6,0.8198943585205077,-0.6159083770751953,11.177210740356443,0.9186143003882428,-0.7561589584722742,12.934236505275818,1.6284561625162752,0.1124704732259105,13.360386326090492,0.1300811767578124,-0.2067565917968749,-0.959014892578125,-3.602376798304116,-0.5413148461318598,-1.7923494664634148,0.5002702985491072,40.74605305989584,-4.307701474144345,2.349943015400604,-7.805090260819425,-1.138403668091164,4.48058306576823,-50.029629629629625,-1.3752014858613844,30.728337376823312,36.28738730643664,33.02863389942193,1577399120.0,-27.706597467508548,-51.10890988762228,24.52889
11521,1577399120.61,0.9072827191162108,-1.2491747161865234,10.661260282592773,1.2609851377905863,-0.9045994614019616,10.56397686172113,0.6204972635904946,-0.1305409952799482,6.85773461710612,-0.3887176513671875,1.609039306640625,-0.989532470703125,1.6161290610708845,-3.5472962914443595,0.0844815882240852,-4.367283412388392,29.36299641927084,-3.1480335053943453,3.705679370439416,-8.839499813458144,-0.5692018340455787,0.7228538265575212,-1.5993487993488031,7.024677860210852,30.82418306526492,36.16758019588463,33.10051816575314,1577399120.0,-27.706597467508548,-51.10890988762228,24.52889
11522,1577399120.62,1.0257957012939452,-0.8289923248291016,9.173263950805664,-0.3143995545922249,-0.9596660995855556,9.316597796779725,0.5367002054850254,-3.883452097574869,6.831398398844401,0.0080108642578124,1.990509033203125,-0.897979736328125,5.613931795445884,-1.3652894555068598,-0.6937166539634148,-0.6288800920758928,6.993611653645833,-1.866295224144345,4.519121183462703,-7.805090260819425,-0.8131454772079686,-1.9612384871644155,-46.23117623117623,-2.564564933092851,30.5845688441609,36.28738730643664,33.17240243208434,1577399120.0,-27.706597467508548,-51.10890988762228,24.52889
11523,1577399120.63,0.544561167602539,-0.4722562774658203,11.471697544555663,2.0678310972632428,0.9078111953363184,12.065141302639098,1.3770649881998691,-1.3168679178873697,6.809850583902994,0.7404327392578125,1.349639892578125,-0.775909423828125,-3.297201017054116,10.56708359136814,-1.7313143102134148,0.4697527204241072,-1.0935465494791667,-0.6761096772693452,4.519121183462703,-7.805090260819425,-0.8131454772079686,-1.9612384871644155,-46.23117623117623,-2.564564933092851,30.728337376823312,36.33531015065744,33.02863389942193,1577399120.0,-27.706597467508548,-51.10890988762228,24.52889
11524,1577399120.64,0.9024943157958984,-0.7332242584228515,8.806951096801757,1.6416632017554302,-1.9867786117925863,9.891206195217224,1.118491208902994,-0.3663698588053384,8.435513511149088,-0.2361297607421875,2.005767822265625,-0.959014892578125,-2.534261563929116,-0.2361390648818597,0.4354337366615852,-2.612522670200893,-6.922403971354167,-0.6761096772693452,2.711472710077622,-8.369313653167817,-0.1626290954415911,1.2596722893019128,-46.23117623117623,-6.727336998402988,30.84814448737532,36.047773085332615,33.02863389942193,1577399120.0,-27.706597467508548,-51.10890988762228,24.52889
11525,1577399120.65,0.4559757061767577,-0.7811082916259765,9.44380873840332,-1.085332489162537,-0.408999717749618,8.083583941799256,0.4636770548502597,-1.096601365152995,9.633811442057292,-0.3276824951171875,2.204132080078125,-1.050567626953125,0.3649083579458844,2.0984556616806405,-1.3193270055259148,0.3019060407366072,-4.969278971354167,1.5821911039806549,2.892237557416128,-9.12161150963234,-1.3010327635327552,2.870127677535072,-53.82808302808302,7.693694799278552,30.77626022104412,36.23946446221584,33.00467247731153,1577399120.0,-27.706597467508548,-51.10890988762228,24.52889
11526,1577399120.66,-0.2335543719482412,-0.6781576202392577,11.023981834106444,1.244225726169493,-0.6364488754644617,12.13457315078363,1.183134653727213,0.2154211446126293,12.819296750895182,0.8625030517578125,1.105499267578125,-0.806427001953125,-2.473226407679116,3.853216403868141,-0.6631990758384148,-1.7885480608258928,1.8056233723958333,-0.5845569428943452,2.892237557416128,-9.12161150963234,-1.3010327635327552,-6.255786189119516,-46.23117623117623,-4.348610103940056,30.5845688441609,36.19154161799503,33.17240243208434,1577399120.0,-27.706597467508548,-51.10890988762228,24.52889
11527,1577399120.67,0.6451176373291015,-0.8313865264892578,11.028770237426755,1.2873213560523051,-1.4696310531988366,9.642209222560975,1.1687694437662752,0.9288932393391918,12.646914231363931,1.5338897705078125,1.776885986328125,-0.592803955078125,-1.7408045326791155,-4.17290664300686,-0.4495760289634147,0.1340593610491072,6.810506184895833,-1.927330380394345,2.892237557416128,-9.12161150963234,-1.3010327635327552,-6.255786189119516,-46.23117623117623,-4.348610103940056,30.728337376823312,36.14361877377422,32.98071105520113,1577399120.0,-27.706597467508548,-51.10890988762228,24.52889
11528,1577399120.68,0.1531091961669926,-1.2132616912841796,11.249036790161131,-1.1822976563988654,-0.8902342514410241,11.992118152004334,0.9592767985026036,-1.732261905924479,8.39002367960612,0.2521514892578124,1.609039306640625,-0.394439697265625,0.8074132407583843,2.8461363257431405,-0.1138826695884147,1.6599382672991072,6.169637044270834,-1.2254260835193451,3.4345320994316557,-8.55738811728395,-0.4878872863247798,5.285810759884818,-64.98603988603988,9.663578008755673,30.80022164315452,36.23946446221584,33.07655674364273,1577399120.0,-27.706597467508548,-51.10890988762228,24.52889
11529,1577399120.69,0.745674107055664,-0.9534908111572266,9.515634788208008,1.0981794248999617,-1.8718569321050864,11.160133075100036,0.7497841532389317,-1.4748852274576822,6.783514365641276,-0.1750946044921875,0.4341125488281251,-0.348663330078125,5.095132967320884,2.8156187476181405,0.3438810022865852,2.361842564174107,-8.143107096354166,-2.9344104585193453,2.530707862739113,-9.12161150963234,0.0,-0.8876015616756432,-50.029629629629625,-2.564564933092851,30.680414532602512,36.14361877377422,33.17240243208434,1577399120.0,-27.706597467508548,-51.10890988762228,24.52889
11530,1577399120.7,0.4463988995361327,-0.5728127471923827,8.273044126586914,2.0558600889624614,0.2733477553949122,8.837757464748476,-0.1552240743001298,-1.5945953104654946,10.494526938883464,-0.2361297607421875,0.7698059082031251,-0.409698486328125,1.2499181235708845,0.5573179663681402,0.5575040491615852,2.911158970424107,-7.685343424479167,-0.2183460053943452,2.530707862739113,-9.12161150963234,0.0,-4.645330800886364,-43.85714285714285,7.024677860210852,30.872105909485725,36.33531015065744,33.31617096474676,1577399120.0,-27.706597467508548,-51.10890988762228,24.52889
11531,1577399120.71,0.8821436016845703,-0.1873462799072265,7.4757749737548815,0.2626030455054303,-1.8981931503668048,7.1785757142601945,0.7210537333170566,-3.780501426188151,10.130608286539712,1.1981964111328125,1.349639892578125,-0.257110595703125,-0.8252771889291157,-2.9522035180068595,0.7711270960365852,-4.596165248325892,-6.006876627604167,1.2159801664806549,2.530707862739113,-9.12161150963234,0.0,-4.645330800886364,-43.85714285714285,7.024677860210852,30.728337376823312,36.19154161799503,33.12447958786354,1577399120.0,-27.706597467508548,-51.10890988762228,24.52889
11532,1577399120.72,1.1443086834716798,-0.5404910247802734,9.242695798950194,0.8838983763159771,0.1548347732171783,11.072744714504331,0.3200249552408852,-0.4812915384928385,9.510510056559244,0.3589630126953124,1.334381103515625,-0.196075439453125,0.975259920445884,8.11041855230564,-0.7242342320884148,-0.8425031389508928,-0.7425944010416666,1.4753795805431549,2.5307078627391117,-8.181239189051686,-0.3252581908831854,15.485361552028204,-52.16625966625966,9.440572362399772,30.872105909485725,36.16758019588463,32.98071105520113,1577399120.0,-27.706597467508548,-51.10890988762228,24.52889
11533,1577399120.73,0.525407554321289,-1.063624087524414,10.03757075012207,1.782921099704649,-0.715457530249618,11.785019708400815,0.4840277689615879,2.607228603108723,11.085894748942057,0.3437042236328124,2.356719970703125,-0.348663330078125,-4.182210782679116,3.5785582007431405,0.8016446741615852,1.2326921735491072,-0.3611246744791667,-0.7066272553943452,3.434532099431656,-8.93353704551621,-0.4878872863247798,28.10059542652133,-65.22344322344321,10.667103417357222,30.872105909485725,36.14361877377422,33.22032527630515,1577399120.0,-27.706597467508548,-51.10890988762228,24.52889
11534,1577399120.74,0.0585382305908203,-0.862511148071289,11.028770237426755,-0.1228634217797249,-0.6699676987066493,8.730018390041444,0.7306305399576816,-0.3113032206217447,11.423477183024088,1.7475128173828125,2.051544189453125,0.078582763671875,2.5316564048208843,-2.1892640648818595,0.1607755335365852,1.2326921735491072,-1.9175211588541667,-0.9202503022693452,3.615296946770161,-8.369313653167819,-0.9757745726495664,4.48058306576823,-55.72730972730972,-3.3079170876125223,30.92002875370653,36.047773085332615,33.12447958786354,1577399120.0,-27.706597467508548,-51.10890988762228,24.52889
11535,1577399120.75,0.032202012329102,-0.4387374542236328,10.6049965435791,-2.366230377346131,0.4074230483636622,10.6477739198266,0.2853090311686191,-3.706281174723306,10.480161728922525,0.1758575439453125,2.387237548828125,-0.455474853515625,0.8226720298208843,2.4494078101181405,-0.6631990758384148,-0.9035382952008928,-1.9480387369791667,-1.1033557710193451,2.9826199810853824,-7.711053028761361,-0.2439436431623899,4.48058306576823,-55.72730972730972,-3.3079170876125223,30.80022164315452,35.95192739689101,33.17240243208434,1577399120.0,-27.706597467508548,-51.10890988762228,24.52889
11536,1577399120.76,0.6810306622314453,-1.171363162231445,8.833287315063476,1.8559442503394143,-2.132824913062118,8.589957592922303,1.490789567057291,0.3075979085286458,7.433540116373697,-2.0671844482421875,1.013946533203125,-0.012969970703125,1.2194005454458845,3.853216403868141,0.1912931116615852,-0.1100812639508928,-10.508219401041666,-0.8897327241443451,3.615296946770161,-8.745462581400078,-1.6262909544159505,17.632635403005764,-56.91432641432641,7.359186329744702,30.872105909485725,36.40719441698865,33.22032527630515,1577399120.0,-27.706597467508548,-51.10890988762228,24.52889
11537,1577399120.77,0.822288560180664,-0.7787140899658203,7.121433128051757,-0.8890079530297249,0.5438925429925685,6.680581768947694,-0.1743776875813799,-1.7597952250162758,9.158562412516275,0.0080108642578124,1.441192626953125,-0.104522705078125,-0.7337244545541157,-6.46172500238186,0.6185392054115852,3.674098423549107,-11.042277018229166,1.5821911039806549,4.157591488785688,-7.428941332587162,0.4878872863247865,0.1860353638131292,-42.43272283272283,-7.024677860210856,30.872105909485725,36.28738730643664,33.31617096474676,1577399120.0,-27.706597467508548,-51.10890988762228,24.52889
11538,1577399120.78,0.2596511700439453,-0.3477577911376953,8.833287315063476,0.6145506895483991,1.5686108535394434,4.724519012600038,-0.2725399556477861,-3.452495798746744,11.219970041910807,0.4352569580078124,1.868438720703125,-0.348663330078125,0.3649083579458843,11.45209335699314,0.8626798304115852,1.0495867047991072,-5.610148111979167,1.9789196196056549,2.530707862739113,-10.250058294329126,-0.6505163817663776,0.1860353638131292,-42.43272283272283,-7.024677860210856,30.872105909485725,36.19154161799503,33.02863389942193,1577399120.0,-27.706597467508548,-51.10890988762228,24.52889
11539,1577399120.79,0.056144028930664,-0.4483142608642578,10.116579404907226,1.2466199278296488,-1.8407323105230555,10.87043467422113,0.9939927225748691,-2.6791686625162754,11.622195920817056,0.3131866455078125,0.998687744140625,-0.287628173828125,-2.168050626429116,1.86957382574314,-0.6631990758384148,3.246852329799107,-2.1006266276041665,0.7582164946056548,3.524914523100908,-9.779872134038795,-0.4065727386039843,0.1860353638131292,-42.43272283272283,-7.024677860210856,30.80022164315452,36.28738730643664,33.22032527630515,1577399120.0,-27.706597467508548,-51.10890988762228,24.52889
11540,1577399120.8,-0.0108936175537099,-0.5416881256103515,9.680834702758789,0.6061709837378526,0.0303362868890533,9.505739727932069,-0.1432530659993491,0.6846846700032552,9.241162369791668,0.4352569580078124,2.509307861328125,-0.257110595703125,-2.564779142054116,-0.7091615258193597,1.0000089319740852,-0.3999982561383928,-1.2766520182291663,1.7652965727306549,1.807648473385084,-7.617015796703295,-0.3252581908831888,-3.034875412653199,-57.62653642653642,1.8955479940251492,30.872105909485725,36.21550304010543,33.12447958786354,1577399120.0,-27.706597467508548,-51.10890988762228,24.52889
11541,1577399120.81,-0.2551021868896474,-1.1162965240478515,11.023981834106444,-1.4779815614281624,0.2733477553949122,10.513698626857847,-0.0187545796712236,-1.2210998514811195,10.75788912150065,-2.5859832763671875,-2.068328857421875,-0.012969970703125,3.3251134360708843,-3.1963441430068595,-1.2125154820884148,1.9345964704241072,3.056844075520833,-1.866295224144345,2.7114727100776186,-9.30968597374847,-0.162629095441591,2.333309214790685,-42.43272283272283,-2.118553640381053,30.728337376823312,36.19154161799503,32.88486536675951,1577399120.0,-27.706597467508548,-51.10890988762228,24.52889
11542,1577399120.82,0.1064222637939453,-0.8768763580322265,11.950537876586912,2.7334191587866803,0.1536376723870997,13.4442014588891,0.8623116312662753,-1.87232270304362,12.486502720133464,-0.1445770263671875,-0.4814147949218749,-0.043487548828125,-1.893392423304116,0.8930113257431402,-0.2664705602134147,1.1106218610491072,6.505330403645833,-1.866295224144345,3.253767252093146,-7.240866868471033,0.9757745726495798,2.333309214790685,-42.43272283272283,-2.118553640381053,30.728337376823312,36.19154161799503,33.31617096474676,1577399120.0,-27.706597467508548,-51.10890988762228,24.52889
11543,1577399120.83,0.2416946575927734,-1.1079168182373047,10.79054717224121,0.6720115293921491,-1.981990208472274,11.385188031154724,0.0985613016764316,-0.2873612040201821,9.321368125406902,-0.2361297607421875,0.1899719238281251,-0.196075439453125,-2.503743985804116,3.1207945288681405,0.7711270960365852,1.3547624860491072,5.833943684895833,-1.5306018647693451,3.073002404754637,-8.55738811728395,0.3252581908831955,-6.255786189119516,-42.43272283272283,6.9503426447588845,30.80022164315452,36.047773085332615,32.98071105520113,1577399120.0,-27.706597467508548,-51.10890988762228,24.52889
11544,1577399120.84,0.477523521118164,-0.3190273712158203,8.917084373168944,-0.1013156068383191,0.4074230483636628,8.995774774318788,-0.1731805867513022,-2.1356848856608077,6.378894285074869,-0.9075164794921876,0.6782531738281251,-0.196075439453125,0.441202303258384,4.21942734136814,-0.0375887242759147,3.750392368861608,-9.821573893229168,-0.7676624116443451,3.9768266414471753,-8.745462581400078,0.0,-1.4244200244200291,-48.6052096052096,2.192888855833017,30.728337376823312,36.16758019588463,33.17240243208434,1577399120.0,-27.706597467508548,-51.10890988762228,24.52889
11545,1577399120.85,-0.0994790789794912,0.0065840545654296,8.759067063598632,-1.1116687074242562,-2.1017002914800864,8.900006707912539,-0.4928065083821611,-3.055058323160807,7.923154355875651,-0.0835418701171875,0.0373840332031251,-0.226593017578125,0.8226720298208843,2.9682066382431405,0.2828458460365852,0.7749285016741072,-19.037882486979168,-0.6455920991443452,2.1691781680620985,-8.745462581400078,-0.6505163817663776,-6.255786189119516,-62.374603174603166,9.626410401029688,30.872105909485725,36.33531015065744,33.12447958786354,1577399120.0,-27.706597467508548,-51.10890988762228,24.52889
11546,1577399120.86,0.5134365460205077,-0.3238157745361328,8.167699253540038,0.7486259825171491,-1.472025254858993,10.13062636123285,0.9485028910319004,-3.2849016825358066,9.170533420817058,-1.2432098388671875,-0.2372741699218749,-0.196075439453125,-3.175130704554116,-0.8159730492568598,-0.8463045445884148,0.1645769391741072,-18.030802408854168,1.9484020414806549,4.338356336124197,-10.626207222561389,0.6505163817663843,-6.255786189119516,-62.374603174603166,9.626410401029688,30.680414532602512,35.99985024111181,32.98071105520113,1577399120.0,-27.706597467508548,-51.10890988762228,24.52889
11547,1577399120.87,-0.0336385333251948,-1.1294646331787108,9.254666807250976,0.0950089292944933,-0.3635098862066497,7.361732141262148,-0.175574788411458,-0.3460191446940103,9.061597245279948,-0.2971649169921875,-0.1304626464843749,-0.257110595703125,0.3649083579458844,1.5033628882431405,0.618539205411585,-0.3389630998883928,-14.322916666666666,2.6960827055431547,3.434532099431655,-9.12161150963234,-0.162629095441591,1.796490752046299,-53.35327635327635,9.626410401029688,30.82418306526492,36.23946446221584,33.17240243208434,1577399120.0,-27.706597467508548,-51.10890988762228,24.52889
11548,1577399120.88,-0.3508702532958974,-0.6877344268798827,10.444585032348632,0.221901617282774,-1.790454075659774,9.275896368557069,0.7521783548990879,-1.1061781717936197,10.264683579508462,-0.3276824951171875,-0.0541687011718748,-0.440216064453125,-4.212728360804116,1.4423277319931402,-1.6397615758384148,1.2937273297991072,-9.028116861979166,-1.1033557710193451,3.79606179410867,-7.805090260819425,-1.138403668091164,1.2596722893019128,-57.62653642653642,9.626410401029688,30.77626022104412,36.19154161799503,33.12447958786354,1577399120.0,-27.706597467508548,-51.10890988762228,24.52889
11549,1577399120.89,-0.1976413470458974,-0.9846154327392578,10.279385117797853,2.5969496641577736,1.1639907729730372,13.535181121975036,0.2422134012858066,-0.9433724589029946,13.671632541910808,-1.3652801513671875,-3.960418701171875,0.109100341796875,-2.137533048304116,-7.8044984398818595,2.083382955411585,-0.8425031389508928,-1.8870035807291667,-1.7442249116443451,2.1691781680620985,-8.745462581400078,-1.6262909544159505,5.554219991257025,-65.22344322344321,7.247683506566751,30.728337376823312,36.28738730643664,33.17240243208434,1577399120.0,-27.706597467508548,-51.10890988762228,24.52889
11550,1577399120.9,0.1926135235595703,0.1047463226318359,10.1070025982666,-3.067731463771912,-1.2206340805425868,9.06520662246332,-0.5933629781087236,-0.7949319559733071,11.583888694254556,-0.0225067138671875,-1.274871826171875,-0.135040283203125,4.088052889195884,-12.96196914300686,0.4354337366615852,0.0730242047991072,4.948933919270833,-0.0962756928943452,3.434532099431656,-8.55738811728395,-0.4878872863247798,2.870127677535077,-64.74863654863654,7.322018722018717,30.872105909485725,36.28738730643664,33.17240243208434,1577399120.0,-27.706597467508548,-51.10890988762228,24.52889
11551,1577399120.91,0.3350685223388671,-1.025316860961914,9.927437473754882,0.8144665281714459,0.0135768752679596,10.64059131484613,0.7821058756510415,-0.6333233439127602,8.030893430582681,-1.7009735107421875,-1.274871826171875,-0.394439697265625,-1.2525232826791155,2.6935484351181405,-0.8768221227134148,-3.970554896763392,-4.206339518229167,-1.3322376069568451,3.163384828423892,-8.463350885225884,-0.7318309294871731,2.601718446162881,-61.18758648758648,3.5680903416944,30.77626022104412,35.97588881900141,32.86090394464911,1577399120.0,-27.706597467508548,-51.10890988762228,24.52889
11552,1577399120.92,0.2524685650634765,-0.268749136352539,8.117421018676756,0.5642724546851179,-2.3291494491949303,6.0892139588891006,1.7050706156412754,-1.084630356852213,9.522481064860028,-2.3113250732421875,-2.404022216796875,-0.623321533203125,1.4330235923208845,1.6864683569931402,-0.3580232945884147,-1.3613019670758928,-3.5959879557291665,0.2699352446056547,2.892237557416128,-7.617015796703295,-0.3252581908831888,-0.3507830989312626,-56.2021164021164,-4.868956612103822,30.728337376823312,36.19154161799503,33.41201665318837,1577399120.0,-27.706597467508548,-51.10890988762228,24.52889
11553,1577399120.93,0.573291587524414,-0.3381809844970703,7.765473374633788,-0.8937963563500374,0.673179432641006,8.890429901271913,0.7593609598795567,0.0358560201009105,7.978220994059244,-1.5483856201171875,-1.030731201171875,-0.714874267578125,-7.295003751429116,-5.14946914300686,-1.0294100133384148,-2.490452357700893,-2.3142496744791665,0.8192516508556548,4.519121183462703,-9.30968597374847,-0.162629095441591,-0.3507830989312626,-56.2021164021164,-4.868956612103822,30.872105909485725,36.28738730643664,32.98071105520113,1577399120.0,-27.706597467508548,-51.10890988762228,24.52889
11554,1577399120.94,0.2704250775146484,-0.526125814819336,9.933422977905272,-0.0582199769555061,0.4792490981683497,8.294273687893007,-0.6149107930501299,-2.5594585795084632,8.121873093668619,-1.4263153076171875,-1.045989990234375,-0.760650634765625,-1.1609705483041155,3.944769138243141,0.8626798304115852,1.3242449079241072,-0.3000895182291667,-0.2793811616443452,3.79606179410867,-10.061983830212997,-0.162629095441591,-1.9612384871644155,-49.08001628001628,10.518432986453288,30.89606733159613,36.047773085332615,32.98071105520113,1577399120.0,-27.706597467508548,-51.10890988762228,24.52889
11555,1577399120.95,0.2117671368408203,-1.5664064361572263,9.431837730102538,0.9078403929175396,-1.4133673141851648,10.063588714748477,1.3219983500162753,-0.3041206156412764,10.200040134684244,-2.5249481201171875,-0.8171081542968749,-0.806427001953125,-3.495565274866616,-2.3876283226943595,0.5575040491615852,3.094264439174107,-2.4210611979166665,-0.0352405366443452,3.0730024047546407,-8.181239189051688,-0.4878872863247798,-1.692829255792225,-49.79222629222629,10.629935809631236,30.92002875370653,36.19154161799503,33.22032527630515,1577399120.0,-27.706597467508548,-51.10890988762228,24.52889
11556,1577399120.96,-0.3173514300537099,-1.1282675323486326,8.687241013793944,-1.6910655091820683,0.060263807641006,9.776284515529726,-0.4904123067220048,0.1028936665852855,13.685997751871744,0.0385284423828124,-0.7560729980468749,-0.714874267578125,-0.0623377358041157,-2.0366761742568595,0.0387052210365852,-7.922581263950892,0.3407796223958333,-0.7066272553943452,4.157591488785688,-10.061983830212997,-0.8131454772079686,6.627856916745797,-59.52576312576312,7.0990130756628185,30.728337376823312,36.19154161799503,33.02863389942193,1577399120.0,-27.706597467508548,-51.10890988762228,24.52889
11557,1577399120.97,0.2811989849853515,-1.044470474243164,10.188405454711914,0.4230145567358991,-1.4313238266363366,12.551164239650818,-0.7920817159016923,-0.6321262430826821,11.878375498453776,-0.4802703857421875,-1.061248779296875,-0.714874267578125,-2.442708829554116,7.36273788824314,-0.8157869664634148,-2.520969935825893,2.477010091145833,-0.8286975678943452,4.338356336124197,-9.497760437864605,-0.3252581908831888,6.627856916745797,-50.029629629629625,-2.4158945021889204,30.92002875370653,36.19154161799503,33.17240243208434,1577399120.0,-27.706597467508548,-51.10890988762228,24.52889
11558,1577399120.98,-0.1138442889404291,-0.9307458953857422,11.583027921752928,2.6304684873999613,-0.6077184555425867,11.406735846096131,-0.7058904561360674,-1.3695403544108071,8.670145273844401,-0.5870819091796875,-1.381683349609375,-0.699615478515625,3.2030431235708843,-3.1963441430068595,-1.0599275914634148,-2.612522670200893,6.078084309895833,-0.9202503022693452,3.0730024047546407,-7.428941332587162,-0.4878872863247798,6.627856916745797,-44.33194953194953,6.9503426447588845,30.872105909485725,35.99985024111181,33.12447958786354,1577399120.0,-27.706597467508548,-51.10890988762228,24.52889
11559,1577399120.99,0.8246827618408202,-1.2048819854736328,8.232342698364256,-0.3742545960961316,-0.947695091284774,6.084425555568788,0.6851407084147129,0.4847688313802079,7.984206498209635,-1.3042449951171875,-1.091766357421875,-0.714874267578125,0.1970616782583842,-2.9369447289443595,0.3133634241615852,-1.5596662248883928,-2.985636393229167,-1.3169788178943451,2.892237557416128,-8.745462581400078,0.3252581908831954,0.9912630579297168,-56.91432641432641,0.8920225854235975,30.872105909485725,36.07173450744301,33.10051816575314,1577399120.0,-27.706597467508548,-51.10890988762228,24.52889
11560,1577399121.0,0.2165555401611328,-0.5608417388916015,8.692029417114258,0.8779128721655866,-0.9692429062261804,8.56003007217035,0.4026249125162753,-3.380669748942057,7.183346042887369,-0.6328582763671875,-1.671600341796875,-0.409698486328125,-0.6421717201791157,-2.4944398461318595,-0.6937166539634148,0.4392351422991072,-10.737101236979166,-1.866295224144345,3.434532099431656,-8.181239189051688,0.4878872863247865,2.333309214790685,-42.43272283272283,-6.132655274787254,30.872105909485725,36.28738730643664,33.12447958786354,1577399121.0,-27.70638505693338,-51.10897505500261,24.276508
11561,1577399121.01,0.1471236920166015,-0.3477577911376953,9.17565815246582,1.8715065611304305,-1.2110572739019618,10.645379718166444,0.7138711283365878,-5.303213682047526,9.01730451456706,-0.1445770263671875,-2.312469482421875,-0.531768798828125,0.3649083579458843,-1.82305312738186,-0.1749178258384147,-4.382542201450892,-10.401407877604166,-0.7981799897693452,4.8806508781397175,-9.30968597374847,-1.138403668091164,2.333309214790685,-42.43272283272283,-6.132655274787254,30.5845688441609,36.047773085332615,32.98071105520113,1577399121.0,-27.70638505693338,-51.10897505500261,24.276508
11562,1577399121.02,-0.2527079852294911,-0.6721721160888672,9.006866935424803,-0.9356948854027718,-0.5682141281500086,6.620726727443788,-0.0893835286458334,-0.1508917093912764,9.400376780192056,-0.2971649169921875,-2.159881591796875,-0.531768798828125,-4.304281095179116,-2.37236953363186,-0.3275057164634147,-4.443577357700892,-9.958902994791666,2.1467662992931547,2.1691781680620985,-8.369313653167819,-1.951549145299146,16.290589246144794,-56.67692307692308,9.477739970125754,30.752298798933715,36.19154161799503,33.07655674364274,1577399121.0,-27.70638505693338,-51.10897505500261,24.276508
11563,1577399121.03,-0.8560468035888662,-0.9367313995361328,10.42064301574707,0.3272464903296491,-0.7848893783941493,9.223223932033632,-0.904609193929036,0.7948179463704417,12.3476390238444,0.6488800048828125,-0.8476257324218749,-0.653839111328125,-1.7408045326791155,0.4657652319931402,-0.2969881383384147,-0.3237043108258928,-3.901163736979168,0.3309704008556547,1.626883626046571,-8.55738811728395,0.1626290954415977,-0.8876015616756432,-57.62653642653642,6.9503426447588845,30.872105909485725,36.14361877377422,33.12447958786354,1577399121.0,-27.70638505693338,-51.10897505500261,24.276508
11564,1577399121.04,-0.2167949603271474,-0.6661866119384765,12.25938989074707,1.344782195896055,-0.8543212265386805,12.369204913478942,1.3459403666178378,-2.147655893961588,13.683603550211588,-1.3652801513671875,-6.218719482421875,-0.226593017578125,-3.968587735804116,-4.90532851800686,-0.7242342320884148,0.9580339704241072,8.916219075520834,-1.3169788178943451,4.157591488785688,-9.30968597374847,-0.4878872863247798,1.2596722893019128,-61.42498982498982,6.9503426447588845,30.728337376823312,36.33531015065744,32.88486536675951,1577399121.0,-27.70638505693338,-51.10897505500261,24.276508
11565,1577399121.05,-0.0875080706787099,-0.8122329132080077,12.644856358032223,-0.0606141786156624,-2.2238045761480554,13.286184149318789,-0.2102907124837236,1.946428944905599,12.905488010660807,-0.3276824951171875,-3.289031982421875,-0.287628173828125,0.8226720298208843,-9.29985976800686,0.8626798304115852,0.3781999860491072,20.726521809895832,-2.3850940522693453,3.615296946770161,-9.497760437864605,-0.6505163817663776,7.164675379490178,-64.74863654863654,8.808723031058054,30.5366459999401,36.14361877377422,33.31617096474676,1577399121.0,-27.70638505693338,-51.10897505500261,24.276508
11566,1577399121.06,0.5984307049560547,-1.5987281585693358,9.885538944702148,0.359568212741759,-0.5239213974371185,10.31617698989496,0.4253698282877602,-1.5000243448893225,8.695284391276042,0.2368927001953124,-2.907562255859375,-0.211334228515625,0.6853429282583843,0.2521421851181402,0.2218106897865852,-1.7122541155133928,15.080769856770832,-2.827598935081845,4.338356336124197,-9.497760437864605,0.3252581908831954,0.4544445951853308,-60.23797313797313,3.716760772598335,30.872105909485725,36.23946446221584,33.12447958786354,1577399121.0,-27.70638505693338,-51.10897505500261,24.276508
11567,1577399121.07,-0.2981978167724599,-0.795473501586914,11.414236704711913,1.5315299253882426,-0.0163506454839929,10.607072491603944,-0.5885745747884111,-2.221876145426432,6.879282432047526,1.1981964111328125,-2.800750732421875,0.017547607421875,1.8602696860708845,-5.79033828363186,-0.2054354039634147,-0.0185285295758927,-2.6499430338541665,-1.6526721772693451,2.349943015400604,-9.30968597374847,-0.4878872863247798,-37.92807549103848,-64.74863654863654,-2.9362410103526866,30.728337376823312,35.99985024111181,33.12447958786354,1577399121.0,-27.70638505693338,-51.10897505500261,24.276508
11568,1577399121.08,0.4128800762939452,-0.297479556274414,9.78857377746582,0.2075364073218366,-2.1328249130621177,5.555306988674257,1.0490593607584628,-2.2530007670084635,8.069200657145181,0.5878448486328125,-3.838348388671875,-0.043487548828125,1.9518224204458845,-6.91948867425686,0.1302579554115852,-0.9340558733258928,-15.101114908854166,1.0939098539806549,4.338356336124197,-9.12161150963234,0.6505163817663843,-30.41261701261704,-64.74863654863654,-3.233581872160554,30.728337376823312,36.19154161799503,33.22032527630515,1577399121.0,-27.70638505693338,-51.10897505500261,24.276508
11569,1577399121.09,0.563714780883789,-0.8457517364501953,8.834484415893554,0.1261335508765241,-2.0993060898199305,10.28385526748285,-0.0833980244954423,-0.5411465799967446,12.18243910929362,-0.0072479248046875,-3.426361083984375,-0.516510009765625,-1.4966639076791155,-3.1658265648818595,0.4354337366615852,-1.4223371233258928,-0.6968180338541667,2.9249645414806547,3.976826641447179,-8.181239189051686,-0.3252581908831888,2.870127677535077,-49.55482295482295,10.592768201905251,30.872105909485725,36.19154161799503,32.98071105520113,1577399121.0,-27.70638505693338,-51.10897505500261,24.276508
11570,1577399121.1,0.2045845318603515,-1.1091139190673829,11.421419309692382,1.1544431639136332,-0.9500892929449312,10.44905518203363,0.4050191141764316,0.2680935811360673,10.06357064005534,1.7169952392578125,-3.502655029296875,0.017547607421875,0.8684483970083844,-3.69988418206936,-0.3885408727134147,-2.322605678013393,3.758748372395833,0.7734752836681548,3.615296946770161,-7.617015796703295,0.0,30.784687740243285,-64.27382987382987,10.815773848261152,30.77626022104412,36.095695929553415,33.148441009973936,1577399121.0,-27.70638505693338,-51.10897505500261,24.276508
11571,1577399121.11,-0.0946906756591787,-0.7212532501220703,12.247418882446288,-0.0869503968773811,-0.5837764389410242,14.263018426662535,0.5319118021647129,0.5721571919759105,12.225534739176432,1.7780303955078125,-2.800750732421875,0.078582763671875,-0.2149256264291157,-5.85137343988186,1.0152677210365852,-2.398899623325893,9.709676106770834,-3.1785510835193453,3.615296946770161,-7.617015796703295,0.0,32.39514312847645,-62.374603174603166,10.815773848261154,30.92002875370653,36.047773085332615,33.22032527630515,1577399121.0,-27.70638505693338,-51.10897505500261,24.276508
11572,1577399121.12,-0.1329979022216787,-0.5967547637939453,11.368746873168943,-1.5857206361351937,-0.1456375351324305,9.199281915432069,-0.6077281880696611,1.8841797017415365,11.775424827067056,2.1442413330078125,-2.190399169921875,-0.104522705078125,1.9213048423208845,-1.6704652367568598,-0.2054354039634147,4.314967564174108,14.409383138020834,-3.2395862397693453,2.349943015400604,-8.55738811728395,-0.8131454772079686,-6.255786189119516,-50.029629629629625,-1.3752014858613844,30.728337376823312,36.28738730643664,33.22032527630515,1577399121.0,-27.70638505693338,-51.10897505500261,24.276508
11573,1577399121.13,-0.0108936175537099,-1.319803665161133,10.961732590942384,1.933755804294493,-1.2876717270269615,15.627713372951598,-1.2302206197102858,-6.349479807535807,10.300596604410806,0.1605987548828124,-4.509735107421875,0.353240966796875,-1.801839688929116,5.8063414038681405,-2.0364900914634148,-1.5749250139508928,11.632283528645834,-1.5306018647693451,3.9768266414471753,-10.250058294329126,-0.6505163817663776,30.247869277498904,-49.08001628001628,7.693694799278552,30.728337376823312,35.95192739689101,33.17240243208434,1577399121.0,-27.70638505693338,-51.10897505500261,24.276508
11574,1577399121.14,0.5996278057861327,-1.226429800415039,9.167278446655272,0.6480695127905866,-1.1703558456793055,6.898454120021913,0.8180189005533853,0.3866065633138021,8.738380021158854,0.8777618408203125,-3.197479248046875,0.154876708984375,0.532755037633384,-5.14946914300686,0.0844815882240852,1.4615740094866072,2.919514973958333,0.1020885649181547,2.4403254390698588,-8.839499813458144,-1.0570891203703685,16.290589246144794,-56.2021164021164,-1.5238719167653212,30.656453110492105,36.11965735166382,33.148441009973936,1577399121.0,-27.70638505693338,-51.10897505500261,24.276508
11575,1577399121.15,0.065720835571289,-0.4554968658447265,10.82286889465332,-0.3263705628930061,-0.2677418198003992,10.829733245998474,0.1081381083170566,-2.786907737223306,11.485726426188153,2.5409698486328125,-3.441619873046875,0.231170654296875,5.949625154820884,3.761663669493141,-1.3651033727134148,-3.985813685825893,6.200154622395833,2.1925426664806547,4.157591488785688,-9.685834901980732,0.4878872863247865,-5.182149263630755,-42.43272283272283,-7.1733482911147926,30.728337376823312,36.28738730643664,33.17240243208434,1577399121.0,-27.70638505693338,-51.10897505500261,24.276508
11576,1577399121.16,0.8055291485595703,-0.632667788696289,8.5364063092041,0.6504637144507428,-0.7753125717535243,8.718047381740663,1.422554819742838,0.2082385396321605,10.281442991129556,2.5714874267578125,-2.037811279296875,0.017547607421875,5.186685701695884,-4.60015273675686,1.7476895960365852,0.6833757672991072,14.012654622395834,-1.6526721772693451,4.157591488785688,-9.685834901980732,0.4878872863247865,-5.182149263630755,-42.43272283272283,-2.4158945021889204,30.872105909485725,36.33531015065744,32.98071105520113,1577399121.0,-27.70638505693338,-51.10897505500261,24.276508
11577,1577399121.17,0.6139930157470702,-1.2216413970947264,10.181222849731444,1.591384966892149,-1.9484713852300863,11.085912823635192,0.8311870096842441,-4.699874863688151,7.628667551676432,1.8390655517578125,-1.915740966796875,0.109100341796875,4.301675936070884,8.36981796636814,-0.6021639195884148,5.016871861049108,9.770711263020834,0.1783825102306547,2.349943015400604,-8.181239189051688,-0.162629095441591,3.943764603023849,-56.2021164021164,7.024677860210852,30.92002875370653,36.28738730643664,33.12447958786354,1577399121.0,-27.70638505693338,-51.10897505500261,24.276508
11578,1577399121.18,0.305141001586914,-0.268749136352539,11.081442673950194,1.849958746189024,-1.1919036606207116,14.076270697170347,-0.5718151631673174,-0.6991638895670571,8.169757126871744,1.7932891845703125,-2.281951904296875,0.048065185546875,-3.815999845179116,-0.5718324242568598,-0.3885408727134147,-0.2016339983258928,1.1037190755208333,-0.7066272553943452,2.2595605917313533,-9.215648741690403,-0.569201834045582,3.943764603023849,-56.2021164021164,7.024677860210852,30.80022164315452,36.19154161799503,33.12447958786354,1577399121.0,-27.70638505693338,-51.10897505500261,24.276508
11579,1577399121.19,0.0585382305908203,-0.958279214477539,11.148480320434569,-0.0606141786156628,-1.4241412216558686,10.771075305324644,-0.9596758321126296,-0.439393009440104,12.778595322672526,2.2663116455078125,-1.213836669921875,0.414276123046875,-0.0470789467416159,0.7861998023056402,0.3438810022865852,2.544948032924107,3.911336263020833,0.3767467680431549,2.7114727100776186,-7.805090260819425,-0.4878872863247798,1.5280815206740974,-44.0945461945462,2.007050817203097,30.872105909485725,36.16758019588463,33.22032527630515,1577399121.0,-27.70638505693338,-51.10897505500261,24.276508
11580,1577399121.2,-0.3580528582763662,-1.5568296295166015,13.200311143188475,1.5985675718726176,0.1416666640863185,14.284566241603942,-0.5861803731282549,-1.656844553629557,12.728317087809245,2.6630401611328125,-1.946258544921875,0.688934326171875,3.2030431235708843,3.822698825743141,-0.7242342320884148,6.542750767299108,16.209920247395832,-0.4319690522693452,2.7114727100776186,-7.805090260819425,-0.4878872863247798,4.48058306576823,-50.029629629629625,8.734387815606086,30.77626022104412,35.856081708449395,33.02863389942193,1577399121.0,-27.70638505693338,-51.10897505500261,24.276508
11581,1577399121.21,0.3027467999267578,-1.7316063507080075,11.323257041625975,3.233807305759336,-0.3587214828863367,11.251112738185974,-0.4760470967610674,-0.4645321268717446,13.166455991617838,1.8085479736328125,-1.702117919921875,0.170135498046875,5.949625154820884,-5.85137343988186,1.2594083460365852,2.300807407924107,15.355428059895834,-1.2559436616443451,2.530707862739113,-7.240866868471033,-1.3010327635327552,-1.9612384871644155,-62.374603174603166,7.247683506566751,30.872105909485725,36.19154161799503,33.02863389942193,1577399121.0,-27.70638505693338,-51.10897505500261,24.276508
11582,1577399121.22,0.5661089825439453,-0.5871779571533203,10.13932432067871,-0.1803242616234754,-0.5047677841558684,10.350892913967224,0.4648741556803383,-1.242647666422526,10.170112613932291,2.6477813720703125,-1.381683349609375,0.521087646484375,0.5632726157583843,0.0995542944931402,-1.3651033727134148,2.132960728236607,15.309651692708334,-1.6374133882068451,3.1633848284238897,-9.215648741690408,0.4065727386039944,0.1860353638131235,-50.029629629629625,-1.9698832094771177,30.80022164315452,36.19154161799503,33.12447958786354,1577399121.0,-27.70638505693338,-51.10897505500261,24.276508
11583,1577399121.23,0.8294711651611327,-0.1370680450439453,9.324098655395506,-0.0725851869164436,0.1895506972894435,11.895152984768004,-0.1264936543782548,-5.748535190836589,11.586282895914714,2.8766632080078125,-1.091766357421875,0.688934326171875,2.7757970298208843,2.9376890601181405,0.4964688929115852,1.2937273297991072,20.177205403645832,0.9718395414806548,4.8806508781397175,-8.55738811728395,1.1384036680911775,2.333309214790685,-50.029629629629625,-2.564564933092851,30.872105909485725,36.33531015065744,33.22032527630515,1577399121.0,-27.70638505693338,-51.10897505500261,24.276508
11584,1577399121.24,0.851018980102539,-0.8577227447509765,10.346422764282226,-0.0127301454125374,-1.8742511337652428,10.001339471584412,0.0434946634928378,1.0988815572102857,7.66218637491862,2.9071807861328125,-1.213836669921875,-0.043487548828125,4.088052889195884,-6.67534804925686,-2.1280428258384148,1.2326921735491072,20.940144856770832,2.5282360258556547,4.8806508781397175,-8.55738811728395,1.1384036680911775,2.333309214790685,-50.029629629629625,7.0990130756628185,30.92002875370653,36.19154161799503,32.83694252253871,1577399121.0,-27.70638505693338,-51.10897505500261,24.276508
11585,1577399121.25,1.0664971295166017,-1.236006607055664,9.977715708618163,1.8595355528296489,-0.1623969467535242,8.351734527736756,-3.3490890889485674,2.3845678487141924,7.4826212504069,3.0292510986328125,-0.4508972167968749,0.292205810546875,3.1725255454458843,-0.7854554711318598,0.3133634241615852,3.643580845424107,10.106404622395834,-1.3169788178943451,3.253767252093146,-7.617015796703295,-0.9757745726495664,-5.718967726375147,-60.95018315018314,10.592768201905251,31.01587444214814,36.047773085332615,32.98071105520113,1577399121.0,-27.70638505693338,-51.10897505500261,24.276508
11586,1577399121.26,0.9132682232666016,-0.6482300994873047,10.249457597045897,1.150851861423399,-0.8866429489507898,11.088307025295348,0.5965552469889316,-0.4346046061197916,14.642481315104163,2.9834747314453125,0.6019592285156251,0.368499755859375,0.593790193883384,1.7322447241806405,-0.0223299352134147,2.361842564174108,17.918904622395832,1.2464977446056549,3.073002404754637,-8.93353704551621,-0.4878872863247832,1.259672289301907,-52.87846967846968,-3.084911441256624,30.92002875370653,36.26342588432624,33.10051816575314,1577399121.0,-27.70638505693338,-51.10897505500261,24.276508
11587,1577399121.27,0.3290830181884765,-0.297479556274414,13.875476011352536,1.4022430357398052,0.0195623794183497,12.86241045547113,-1.0338960835774735,2.0086781880696614,12.203986924235023,5.3791046142578125,1.227569580078125,0.780487060546875,3.3861485923208843,-2.0061585961318595,-0.4190584508384147,3.918239048549107,28.111775716145832,-3.636314755394345,2.892237557416128,-6.488569012006511,0.0,2.333309214790685,-65.22344322344321,-0.1858380386299179,30.728337376823312,36.33531015065744,32.98071105520113,1577399121.0,-27.70638505693338,-51.10897505500261,24.276508
11588,1577399121.28,1.3729549420166016,-0.7164648468017578,12.934554758911132,0.1165567442358991,-0.3659040878668054,12.28301365371332,-1.6180812886555984,-2.0159748026529947,5.864140928141276,2.2357940673828125,1.990509033203125,-0.012969970703125,0.6700841391958843,1.7780210913681402,-0.5106111852134148,2.483912876674107,9.557088216145834,-3.2395862397693453,2.892237557416128,-6.488569012006511,0.0,2.333309214790685,-65.22344322344321,-0.1858380386299179,30.680414532602512,36.14361877377422,33.31617096474676,1577399121.0,-27.70638505693338,-51.10897505500261,24.276508
11589,1577399121.29,1.0425551129150392,-1.3964181182861328,8.996093027954101,1.5411067320288676,-0.6843329086675868,12.443425164943786,-0.2390211324055986,-1.539528672281901,4.6694342997233065,0.6946563720703125,3.241729736328125,0.109100341796875,4.027017732945884,5.5622007788681405,0.5269864710365852,3.979274204799107,-7.746378580729167,-0.0962756928943452,2.7114727100776226,-9.12161150963234,-0.8131454772079753,-0.8876015616756432,-65.22344322344321,6.9503426447588845,30.94399017581693,36.047773085332615,32.98071105520113,1577399121.0,-27.70638505693338,-51.10897505500261,24.276508
11590,1577399121.3,0.8103175518798827,0.0017956512451171,8.902719163208006,0.2877421629370714,-1.1116979050054772,8.676148852687929,-1.063823604329427,-2.999991684977213,11.314541007486978,3.914260864257813,2.692413330078125,0.658416748046875,2.3638097251333843,2.7393248023056405,-0.1596590367759147,1.3242449079241072,-6.571451822916666,1.0939098539806549,3.79606179410867,-8.93353704551621,1.1384036680911775,-3.303284644025395,-47.41819291819292,4.385777711666036,30.872105909485725,36.095695929553415,33.148441009973936,1577399121.0,-27.70638505693338,-51.10897505500261,24.276508
11591,1577399121.31,0.9252392315673827,-0.2088940948486328,9.304945042114255,0.9617099302710552,-0.2294345932378992,9.208858722072694,-0.3132413838704423,0.7996063496907542,10.494526938883464,4.1889190673828125,3.363800048828125,0.109100341796875,-0.0623377358041157,9.16327499761814,0.8016446741615852,-0.1100812639508928,7.176717122395833,3.718421572730655,3.434532099431656,-8.93353704551621,-0.4878872863247798,-1.4244200244200351,-47.65559625559625,7.619359583826587,30.728337376823312,35.99985024111181,33.17240243208434,1577399121.0,-27.70638505693338,-51.10897505500261,24.276508
11592,1577399121.32,0.6834248638916015,-0.5512649322509765,9.2642436138916,1.2538025328101177,-0.8136197983160243,7.954297052150819,2.0498356547037755,1.5753276875813802,7.212076462809245,2.9376983642578125,4.645538330078125,-0.043487548828125,0.6700841391958843,-3.62359023675686,-0.9683748570884148,0.8664812360491072,-1.5207926432291667,-0.0657581147693452,3.434532099431656,-8.93353704551621,-0.4878872863247798,-1.9612384871644155,-61.42498982498982,7.545024368374619,30.728337376823312,36.19154161799503,33.17240243208434,1577399121.0,-27.70638505693338,-51.10897505500261,24.276508
11593,1577399121.33,0.4475960003662109,-0.3202244720458984,10.181222849731444,-0.7262022401390998,-0.5454692123785242,11.231959124904725,0.5845842386881503,-0.6321262430826821,10.396364670817055,0.2826690673828125,3.791046142578125,-0.180816650390625,0.7006017173208843,6.2030699194931405,-0.9378572789634148,0.7138933454241072,-4.206339518229167,-0.1878284272693452,2.078795744392844,-9.027574277574274,-0.7318309294871731,-1.9612384871644155,-61.42498982498982,7.545024368374619,30.728337376823312,36.19154161799503,33.02863389942193,1577399121.0,-27.70638505693338,-51.10897505500261,24.276508
11594,1577399121.34,0.3554192364501952,0.0017956512451171,11.548311997680663,-0.0893445985375379,-0.2234490890875086,14.485679181057067,-0.7621541951497393,-0.1257525919596358,12.697192466227213,1.9611358642578125,4.065704345703125,0.017547607421875,-0.2759607826791156,5.6079771460556405,-0.0223299352134147,-0.9798322405133928,2.385457356770833,-1.2406848725818451,3.253767252093146,-7.993164724935555,0.0,2.333309214790685,-2.074155474155475,-4.348610103940056,30.872105909485725,36.07173450744301,33.05259532153234,1577399121.0,-27.70638505693338,-51.10897505500261,24.276508
11595,1577399121.35,1.0114304913330077,-0.5345055206298828,12.151650816040036,1.5123763121069926,-1.0937413925543056,11.42588945937738,-0.8902439839680986,-0.917036240641276,7.485015452067057,2.2357940673828125,4.462432861328125,0.444793701171875,2.3180333579458843,0.0080015601181402,0.4659513147865852,0.4392351422991072,-0.4221598307291667,0.2089000883556547,2.7114727100776186,-7.805090260819425,0.8131454772079753,-1.9612384871644155,-2.548962148962147,1.4495367013133498,30.728337376823312,35.99985024111181,33.12447958786354,1577399121.0,-27.70638505693338,-51.10897505500261,24.276508
11596,1577399121.36,0.563714780883789,-1.2479776153564452,10.88511813781738,1.304080767673399,-1.261335508765243,6.474680426174257,-1.440910365804036,-1.3025027079264322,8.26791939493815,0.4047393798828124,5.713653564453125,0.292205810546875,5.369791170445884,4.2499449194931405,1.1983731897865852,4.131862095424108,-7.227579752604167,0.6056286039806548,2.7114727100776186,-7.805090260819425,0.8131454772079753,6.627856916745797,-48.13040293040292,8.288376522894284,30.728337376823312,36.19154161799503,33.22032527630515,1577399121.0,-27.70638505693338,-51.10897505500261,24.276508
11597,1577399121.37,0.305141001586914,-0.2962824554443359,9.292974033813476,-1.2373642945824592,-0.8339705124273522,9.396803552394958,1.395021500651041,-0.6632508646647134,8.301438218180339,0.5420684814453125,3.867340087890625,0.307464599609375,-0.2454432045541159,4.7229673804306405,-0.3427645055259147,1.5226091657366074,-11.377970377604166,0.4682995024181547,3.886444217777923,-8.275276421109753,-0.7318309294871731,5.554219991257014,-45.75636955636955,-1.9698832094771177,30.80022164315452,36.407194416988645,33.19636385419474,1577399121.0,-27.70638505693338,-51.10897505500261,24.276508
11598,1577399121.38,1.1263521710205078,0.3561374969482421,8.282620933227538,2.0893789122046487,-0.3850577011480554,11.842480548244568,1.386641794840494,-1.1085723734537758,7.944702170817057,1.0150909423828125,4.584503173828125,0.170135498046875,-3.144613126429116,6.6303160132431405,1.1068204554115852,0.8359636579241072,-14.673868815104166,1.3685680571056549,2.1691781680620985,-7.993164724935555,-0.9757745726495664,-0.3507830989312626,-49.55482295482295,-2.4902297176408887,30.728337376823312,35.95192739689101,33.02863389942193,1577399121.0,-27.70638505693338,-51.10897505500261,24.276508
11599,1577399121.39,0.5876567974853515,-0.2663549346923828,9.079890086059567,-0.5179066957055062,-1.3690745834722742,5.48348093886957,-0.6029397847493486,-3.828385459391276,7.044482346598307,0.5878448486328125,5.042266845703125,0.139617919921875,3.0199376548208843,1.0761167944931402,1.6561368616615852,-2.582005092075893,-15.619913736979166,3.687903994605655,3.79606179410867,-9.30968597374847,0.4878872863247865,-6.255786189119516,-40.53349613349613,7.396353937470683,30.872105909485725,36.14361877377422,33.17240243208434,1577399121.0,-27.70638505693338,-51.10897505500261,24.276508
11600,1577399121.4,0.295564194946289,-0.766743081665039,9.55873041809082,0.8491824522437116,0.0387159926995997,5.41883749404535,-1.2374032246907547,0.0909226582845043,8.9766030863444,-1.0295867919921875,4.462432861328125,0.109100341796875,-3.419271329554116,9.28534531011814,-1.1209627477134148,-1.6054425920758928,-15.192667643229166,3.1691051664806547,3.79606179410867,-9.30968597374847,0.4878872863247865,-6.255786189119516,-40.53349613349613,7.396353937470683,30.680414532602512,35.99985024111181,32.88486536675951,1577399121.0,-27.70638505693338,-51.10897505500261,24.276508
11601,1577399121.41,0.4320336895751953,-0.2328361114501953,9.34205516784668,1.535121227878477,-0.6520111862554778,9.138229773098084,0.6049349527994785,0.9025570210774728,10.584309501139323,-0.5718231201171875,3.562164306640625,0.124359130859375,-1.374593595179116,6.0962583960556405,1.625619283536585,-0.2016339983258928,-6.434122721354166,-0.4930042085193452,3.344149675762397,-8.463350885225884,-0.4065727386039843,-1.6928292557922309,-58.81355311355311,7.061845467936834,30.82418306526492,36.19154161799503,33.07655674364273,1577399121.0,-27.70638505693338,-51.10897505500261,24.276508
11602,1577399121.42,0.5972336041259765,-0.7308300567626953,10.121367808227538,-1.233772992092225,0.0171681777581935,8.665374945217225,-0.4329514668782548,-2.5546701761881505,8.627049643961588,-2.0366668701171875,4.981231689453125,0.139617919921875,-4.914632657679116,-0.2666566430068597,0.4964688929115852,-1.0256086077008928,-4.023234049479167,0.6056286039806548,3.434532099431656,-7.805090260819425,-0.8131454772079686,4.48058306576823,-60.47537647537647,7.693694799278552,30.92002875370653,36.28738730643664,33.17240243208434,1577399121.0,-27.70638505693338,-51.10897505500261,24.276508
11603,1577399121.43,0.5493495709228515,0.1693897674560547,10.339240159301756,0.4900522032202741,1.298066065941787,9.953455438381289,0.7162653299967441,-1.537134470621745,7.334180747477213,-1.6399383544921875,4.737091064453125,-0.012969970703125,0.5480138266958843,3.0292417944931405,0.7711270960365852,1.4157976422991072,-10.767618815104166,0.0868297758556547,2.892237557416128,-9.12161150963234,-0.6505163817663776,2.333309214790685,-65.22344322344321,9.329069539221818,30.728337376823312,35.95192739689101,33.12447958786354,1577399121.0,-27.70638505693338,-51.10897505500261,24.276508
11604,1577399121.44,0.2632424725341796,-0.5811924530029297,8.884762650756835,0.767779595798399,-2.5350507919683687,8.698893768459413,1.1065202006022128,0.6751078633626292,8.205670151774088,-3.2726287841796875,4.233551025390625,-0.135040283203125,-3.480306485804116,9.31586288824314,1.5951017054115852,2.239772251674107,-16.016642252604168,-0.9202503022693452,3.6152969467701626,-8.74546258140008,0.3252581908831953,-5.718967726375147,-62.84940984940984,7.024677860210852,30.728337376823312,35.95192739689101,33.12447958786354,1577399121.0,-27.70638505693338,-51.10897505500261,24.276508
11605,1577399121.45,0.6163872174072265,-0.4531026641845703,7.35606489074707,0.1584552732886339,0.4433360732660065,7.723256591945741,-0.1528298726399741,-2.847959879557292,9.466217325846351,-3.0132293701171875,4.584503173828125,-0.348663330078125,-2.549520352991616,2.8003599585556405,0.7863858850990852,-1.5444074358258926,-12.140909830729166,2.0552135649181547,3.0730024047546407,-8.55738811728395,-0.4878872863247798,-5.718967726375147,-63.79902319902319,7.024677860210852,30.77626022104412,36.16758019588463,33.148441009973936,1577399121.0,-27.70638505693338,-51.10897505500261,24.276508
11606,1577399121.46,0.4152742779541015,-0.3477577911376953,8.864411936645507,-1.3032048402367562,-0.0283216537847742,6.680581768947694,0.2470018046061191,-2.4349600931803383,6.898436045328776,-2.5859832763671875,3.913116455078125,-0.104522705078125,-4.670492032679116,2.9987242163681405,0.9847501429115852,-3.467014857700893,-8.539835611979166,0.9718395414806548,2.349943015400604,-9.685834901980732,-0.8131454772079686,0.1860353638131292,-45.28156288156288,7.247683506566751,30.92002875370653,36.33531015065744,33.12447958786354,1577399121.0,-27.70638505693338,-51.10897505500261,24.276508
11607,1577399121.47,0.0824802471923828,-0.038905776977539,10.085454783325194,0.7414433775366803,-2.1854973495855554,8.974226959377381,1.6380329691569002,1.4747712178548176,6.596766636149089,-3.0437469482421875,3.730010986328125,-0.379180908203125,-10.255208829554116,7.42377304449314,-0.2359529820884147,-1.3307843889508928,-11.683146158854166,0.5140758696056548,3.434532099431656,-8.181239189051688,-0.162629095441591,0.7228538265575211,-60.95018315018314,7.024677860210852,30.92002875370653,36.28738730643664,33.12447958786354,1577399121.0,-27.70638505693338,-51.10897505500261,24.276508
11608,1577399121.48,-0.0875080706787099,-0.9319429962158202,8.111435514526367,0.4804753965796491,0.1871564956292872,8.50975183730707,0.9389260843912752,0.2058443379720043,10.973367270914713,-4.264450073242188,4.996490478515625,-0.501251220703125,-1.7408045326791155,-0.1445863305068597,2.876839986661585,-4.046848842075892,-12.262980143229166,2.3146129789806547,3.434532099431656,-8.55738811728395,0.3252581908831921,2.333309214790685,-50.029629629629625,-3.7539283803243206,30.70437595471291,36.19154161799503,32.789019678317906,1577399121.0,-27.70638505693338,-51.10897505500261,24.276508
11609,1577399121.49,-0.1760935321044912,-0.7595604766845703,10.901877549438476,-1.2792628236351942,-1.206268870581649,10.6477739198266,0.2074974772135415,-1.7574010233561197,12.619380912272137,-3.5320281982421875,2.539825439453125,-0.257110595703125,-4.655233243616616,8.14093613043064,0.0844815882240852,-6.930759974888392,-1.688639322916667,0.4225231352306548,2.530707862739113,-7.993164724935555,-0.9757745726495664,3.406946140279458,-46.23117623117623,-3.828263595776286,30.728337376823312,36.11965735166382,33.05259532153234,1577399121.0,-27.70638505693338,-51.10897505500261,24.276508
11610,1577399121.5,0.0824802471923828,-1.2216413970947264,11.766184348754882,2.862706048435117,-1.3523151718511803,9.90078300185785,0.2422134012858066,0.088528456624348,6.539305796305339,-2.9827117919921875,2.204132080078125,-0.012969970703125,-2.076497892054116,1.1066343726181402,1.3204435022865852,-0.2321515764508928,-3.2602945963541665,-0.9507678803943452,2.7114727100776186,-9.685834901980732,-0.4878872863247798,3.406946140279458,-50.029629629629625,-1.9698832094771224,30.728337376823312,36.28738730643664,33.22032527630515,1577399121.0,-27.70638505693338,-51.10897505500261,24.276508
11611,1577399121.51,-0.0300472308349599,-1.4993687896728514,10.039964951782226,0.6193390928687116,-1.223028282202743,8.5791836854516,-0.6963136494954424,0.0238850118001293,6.5632478129069005,-3.4404754638671875,3.394317626953125,-0.318145751953125,-5.433431485804116,6.9660093726181405,2.022347799161585,-2.032688685825893,-13.971964518229166,-1.6526721772693451,3.253767252093146,-8.369313653167819,-0.6505163817663776,5.554219991257025,-60.47537647537647,7.545024368374619,30.728337376823312,36.14361877377422,33.17240243208434,1577399121.0,-27.70638505693338,-51.10897505500261,24.276508
11612,1577399121.52,-0.0731428607177729,-0.4195838409423827,8.887156852416991,-1.0566020692406628,-0.2952751388921966,7.714876886135194,0.3894568033854165,-2.997597483317057,9.740353415934244,-3.5015106201171875,1.868438720703125,-0.516510009765625,-2.671590665491616,2.8003599585556405,0.6032804163490852,-5.389622279575892,-17.557779947916668,0.4225231352306548,3.253767252093146,-7.993164724935557,-0.1626290954415911,3.406946140279458,-42.43272283272283,-5.835314412979392,30.84814448737532,36.26342588432624,33.12447958786354,1577399121.0,-27.70638505693338,-51.10897505500261,24.276508
11613,1577399121.53,0.353025034790039,-0.575206948852539,8.174881858520507,1.2202837095679302,-2.228592979468368,9.790649725490663,0.9532912943522128,0.3351312276204418,10.513680552164711,-3.0132293701171875,1.258087158203125,-0.196075439453125,-5.921712735804116,2.8766539038681405,1.6256192835365852,-6.915501185825892,-4.328409830729167,2.8944469633556547,3.0730024047546407,-9.685834901980732,-0.4878872863247798,-6.255786189119516,-57.62653642653642,9.923751262837555,30.5366459999401,36.14361877377422,33.12447958786354,1577399121.0,-27.70638505693338,-51.10897505500261,24.276508
11614,1577399121.54,0.1662773052978515,-1.5688006378173829,9.182840757446288,-1.2289845887719124,-0.2246461899175867,9.271107965236755,0.1488395365397128,-0.3352452372233072,7.0684243631998696,-2.5859832763671875,1.959991455078125,-0.531768798828125,-1.4661463295541155,-8.75054336175686,0.9237149866615852,-3.924778529575893,-4.145304361979167,2.9249645414806547,3.434532099431656,-8.55738811728395,0.4878872863247865,-6.255786189119516,-56.67692307692308,7.0990130756628185,30.77626022104412,35.95192739689101,32.98071105520113,1577399121.0,-27.70638505693338,-51.10897505500261,24.276508
