,timestamp,acc_x_dashboard,acc_y_dashboard,acc_z_dashboard,acc_x_above_suspension,acc_y_above_suspension,acc_z_above_suspension,acc_x_below_suspension,acc_y_below_suspension,acc_z_below_suspension,gyro_x_dashboard,gyro_y_dashboard,gyro_z_dashboard,gyro_x_above_suspension,gyro_y_above_suspension,gyro_z_above_suspension,gyro_x_below_suspension,gyro_y_below_suspension,gyro_z_below_suspension,mag_x_dashboard,mag_y_dashboard,mag_z_dashboard,mag_x_above_suspension,mag_y_above_suspension,mag_z_above_suspension,temp_dashboard,temp_above_suspension,temp_below_suspension,timestamp_gps,latitude,longitude,speed
1671,1577395447.13,-0.2679111657714834,0.035075054321289,9.14303715484619,-0.8078386772341839,0.0797093967344704,9.718998861173304,-0.6294470174153639,0.2924916361490878,9.54648008626302,-0.2498626708984375,0.2222061157226562,-0.090789794921875,-0.1008568740472559,0.0895058236471036,0.0932274795160062,0.0321524483816966,0.3603980654761904,0.0454130626860119,23.045230280907365,-11.203627436551546,3.6489049145299135,67.76799721659921,-1.5492231807652364,9.555484330484315,37.86884116572318,35.975888819001405,32.64525114565549,1577395447.0,-27.717691190667978,-51.09905645795548,0.008519679
1672,1577395447.14,-0.6078878015136713,0.4708197564697264,9.822990426330565,-0.625879351062309,0.6184047702696263,9.663932222989713,-0.6402209248860671,0.3571350809733066,9.45071201985677,-0.2193450927734375,0.2527236938476562,-0.045013427734375,-0.3755150771722559,0.6388222298971036,0.4746972060785062,0.1237051827566966,-0.5398704892113095,-0.015622093563988,22.72404240242782,-10.823843455651492,4.3786858974359,67.76799721659921,1.7122993050563151,9.555484330484315,37.84487974361278,35.616467487345375,32.6931739898763,1577395447.0,-27.717691190667978,-51.09905645795548,0.008519679
1673,1577395447.15,-0.5528211633300771,0.1452083306884765,9.25317043121338,-0.348151958484184,0.4603874606993137,10.291213057950646,-0.7503542012532546,0.3930481058756503,10.013349409993491,-0.0667572021484375,-0.1440048217773437,-0.029754638671875,-0.4365502334222559,-0.2461875357278963,-0.0441016220464938,0.0931876046316966,-0.2346947079613094,0.0759306408110119,23.366418159386907,-10.44405947475144,5.838247863247863,68.15468187696808,-3.3430605479670894,9.555484330484315,37.91676400994399,35.76023602000779,32.64525114565549,1577395447.0,-27.717691190667978,-51.09905645795548,0.008519679
1674,1577395447.16,-0.3301604089355458,0.542645806274414,9.73679916656494,-0.4487084282107465,0.3119469577696262,9.762094491056118,-0.793449831136067,0.2900974344889316,10.133059493001303,0.5435943603515625,-0.2965927124023437,0.031280517578125,0.417941954077744,-0.9480918326028964,0.0169335342035061,0.2152579171316966,0.3146216982886905,-0.046139671688988,21.11810301003009,-10.44405947475144,4.3786858974359,63.32112362235719,-2.772294112948318,-8.309116809116826,37.86884116572318,35.856081708449395,32.64525114565549,1577395447.0,-27.717691190667978,-51.09905645795548,0.008519679
1675,1577395447.17,-0.4570530969238271,0.4061763116455078,10.33774378326416,-0.7695314506716839,0.1862513706114231,9.869833565763146,-0.5875484883626295,0.4026249125162753,9.583590211995444,-0.0972747802734375,0.2832412719726562,-0.365447998046875,-0.192409608422256,0.5777870736471036,0.2305565810785061,0.0931876046316965,-0.1431419735863094,-0.152951195126488,22.402854523948275,-10.823843455651492,3.6489049145299135,68.54136653733694,-0.4076903107276934,8.309116809116802,37.9646868541648,36.07173450744302,32.57336687932429,1577395447.0,-27.717691190667978,-51.09905645795548,0.008519679
1676,1577395447.18,-0.6366182214355462,0.3882197991943359,9.60990647857666,0.0492855171017525,0.8889495578672825,9.565769954923304,-0.6617687398274733,0.2996742411295566,9.891245125325524,-0.6771087646484375,0.0696182250976562,-0.106048583984375,-0.680690858422256,1.2796913705221036,-0.2882422470464938,-0.0288827078683033,-0.2652122860863095,-0.046139671688988,24.49057573406532,-12.153087388801676,3.831350160256412,68.54136653733694,2.0384515536384704,8.72457264957264,37.94072543205439,36.14361877377422,32.64525114565549,1577395447.0,-27.717691190667978,-51.09905645795548,0.008519679
1677,1577395447.19,-0.3493140222167958,0.0518344659423828,9.147825558166502,-0.6833401909060589,0.25209191626572,10.169108773282678,-0.7742962178548171,0.3188278544108066,9.840966890462242,0.0858306884765625,-0.0524520874023437,0.000762939453125,0.570529844702744,-0.2767051138528963,0.2915917373285062,0.1542227608816966,0.1925513857886905,0.1064482189360119,22.563448463188045,-9.874383503401363,4.926021634615379,68.54136653733694,1.875375429347392,-8.724572649572671,37.91676400994399,35.856081708449395,32.45355976877228,1577395447.0,-27.717691190667978,-51.09905645795548,0.008519679
1678,1577395447.2,-0.6078878015136708,0.6767210992431639,9.98579613922119,-0.7168590141482464,0.1898426731016575,9.915323397306116,-0.6761339497884108,0.3068568461100254,9.704497395833332,0.4825592041015625,0.1611709594726562,-0.090789794921875,0.570529844702744,-0.2461875357278963,0.1695214248285061,0.2152579171316966,0.4977271670386905,0.1980009533110119,22.2422605847085,-10.254167484301416,4.926021634615379,69.50807818825913,-1.9569134914929305,11.632763532763512,37.772995477281576,35.99985024111181,32.357714080330666,1577395447.0,-27.717691190667978,-51.09905645795548,0.008519679
1679,1577395447.21,-0.5204994409179677,0.3535038751220703,9.593147066955565,-0.328998345202934,0.5226367038633762,9.776459701017052,-0.7144411763509108,0.3870626017252597,9.709285799153646,-0.4177093505859375,0.0238418579101562,-0.182342529296875,-0.4060326552972559,0.4862343392721036,0.1542626357660061,0.0474112374441966,-0.3720238095238095,-0.107174827938988,22.161963615088617,-10.539005469976454,4.652353766025643,68.34802420715252,-2.119989615784008,8.72457264957264,37.86884116572319,35.999850241111815,32.47752119088268,1577395447.0,-27.717691190667978,-51.09905645795548,0.008519679
1680,1577395447.22,-0.3397372155761708,0.3822342950439453,9.538080428771972,-0.568418511218559,0.3358889743711887,10.252905831388146,-0.783873024495442,0.2805206278483066,10.06602184651693,0.0858306884765625,-0.2050399780273437,0.214385986328125,0.356906797827744,-0.3682578482278963,0.0474511123285061,0.2152579171316966,0.0704810732886905,-0.198727562313988,21.278696949269868,-10.254167484301416,4.196240651709401,68.54136653733694,1.7122993050563151,9.555484330484315,37.91676400994399,35.99985024111181,32.45355976877228,1577395447.0,-27.717691190667978,-51.09905645795548,0.008519679
1681,1577395447.23,-0.4642357019042958,0.3942053033447265,9.815807821350097,-0.1757694389529339,0.3885614108946262,9.141996261075647,-0.5564238667805983,0.2805206278483066,9.766746638997397,-0.1277923583984375,0.1611709594726562,0.092315673828125,-0.1924096084222559,1.0355507455221036,0.2305565810785061,0.1237051827566966,0.3451392764136905,0.0759306408110119,21.278696949269868,-10.254167484301416,4.196240651709401,63.90115061291049,1.7122993050563151,7.893660968660963,37.91676400994399,35.95192739689101,32.50148261299308,1577395447.0,-27.717691190667978,-51.09905645795548,0.008519679
1682,1577395447.24,-0.658166036376953,0.245764800415039,10.115083028869629,-0.8509343071169964,-0.3153338771913102,9.939265413907677,-0.592336891682942,0.4792393656412754,9.58478731282552,-0.3108978271484375,0.5578994750976562,0.214385986328125,-0.3755150771722559,0.1200234017721036,0.2305565810785061,-0.1204354422433033,0.0704810732886905,-0.168209984188988,22.88463634166759,-10.254167484301416,3.466459668803423,68.54136653733694,1.7122993050563151,6.231837606837594,37.725072633060776,35.80815886422859,32.597328301434686,1577395447.0,-27.717691190667978,-51.09905645795548,0.008519679
1683,1577395447.25,-0.5408501550292963,0.2936488336181641,9.217257406311036,-0.3062534294314496,0.5836888461973606,10.080523311856895,-0.7611281087239576,0.3379814676920566,9.921172646077476,-0.3414154052734375,-0.3576278686523437,0.016021728515625,0.1890601181402439,-0.1241172232278963,0.0169335342035061,-0.0136239188058033,-0.1431419735863095,0.0759306408110119,23.60730906824657,-10.349113479526428,3.37523704594017,68.73470886752139,-0.8969186836009257,9.555484330484315,37.9886482762752,35.856081708449395,32.7171354119867,1577395447.0,-27.717691190667978,-51.09905645795548,0.008519679
1684,1577395447.26,-0.4235342736816396,0.360686480102539,9.921152694396971,-0.4774388481326215,0.1611122531797825,9.149178866056117,-0.5755774800618483,0.3164336527506504,9.678161177571614,0.3604888916015625,0.1001358032226562,-0.029754638671875,-0.650173280297256,0.6693398080221036,-0.0441016220464938,0.1237051827566966,0.3451392764136905,0.0759306408110119,23.527012098626685,-11.393519427001571,4.56113114316239,67.76799721659921,-2.2015276779295467,4.570014245014226,37.91676400994399,35.99985024111181,32.45355976877228,1577395447.0,-27.717691190667978,-51.09905645795548,0.008519679
1685,1577395447.27,-0.5671863732910146,0.6982689141845703,10.285071346740722,-1.2531601860232464,0.242515109625095,10.363039107755334,-0.6090963033040357,0.4505089457194003,9.481836641438802,-0.1277923583984375,-0.1134872436523437,-0.304412841796875,0.082248594702744,-0.3682578482278963,0.3831444717035062,0.0626700265066966,-0.5398704892113095,-0.229245140438988,23.527012098626685,-11.393519427001571,4.56113114316239,67.76799721659921,-2.2015276779295467,4.570014245014226,38.0605325426064,35.95192739689101,32.789019678317906,1577395447.0,-27.717691190667978,-51.09905645795548,0.008519679
1686,1577395447.28,-0.6533776330566405,0.3822342950439453,9.34175589263916,0.0756217353634712,0.7045960300352513,9.618442391446742,-0.7335947896321607,0.2996742411295566,9.891245125325524,-0.7991790771484375,0.4968643188476562,0.031280517578125,-0.802761170922256,1.0965859017721036,-0.1966895126714938,0.1542227608816966,-0.3567650204613095,0.1980009533110119,24.65116967330509,-8.924923551151231,3.2840144230769246,69.31473585807468,-2.5276799265117016,4.570014245014226,37.91676400994399,35.95192739689101,32.45355976877228,1577395447.0,-27.717691190667978,-51.09905645795548,0.008519679
1687,1577395447.29,-0.417548769531249,0.2529474053955078,9.21486320465088,-0.4319490165896527,0.242515109625095,9.97517843881002,-0.7288063863118482,0.4193843241373691,9.955888570149742,-0.0972747802734375,-0.1134872436523437,0.077056884765625,0.662082579077744,-0.8565390982278964,0.0169335342035061,-0.1204354422433033,0.2230689639136905,0.1064482189360119,24.16938785558577,-10.44405947475144,4.013795405982907,69.50807818825913,-2.119989615784008,-8.309116809116826,37.91676400994399,36.28738730643664,32.64525114565549,1577395447.0,-27.717691190667978,-51.09905645795548,0.008519679
1688,1577395447.3,-0.533667550048827,0.2984372369384765,10.057622189025878,-0.627076451892387,0.1647035556700168,9.815964028409631,-0.6533890340169264,0.3595292826334629,9.530917775472004,0.4215240478515625,0.3442764282226562,-0.090789794921875,0.021213438452744,0.1047646127096036,0.0474511123285061,0.0931876046316966,-0.0973656063988094,0.0148954845610119,24.008793916346,-10.064275493851389,3.6489049145299135,68.15468187696808,-2.038451553638469,-0.8309116809116928,37.91676400994399,35.99985024111181,32.64525114565549,1577395447.0,-27.717691190667978,-51.09905645795548,0.008519679
1689,1577395447.31,-0.6940790612792967,0.590529839477539,10.021709164123534,-0.1590100273318402,0.8817669528868137,10.147560958341272,-0.1206791646321608,0.3906539042154941,10.080387056477868,0.0247955322265625,-0.0829696655273437,-0.029754638671875,-0.741726014672256,0.5472694955221036,0.0474511123285061,0.1542227608816966,-0.5398704892113095,0.2285185314360119,24.008793916346,-10.064275493851389,3.6489049145299135,67.96133954678365,-2.119989615784008,6.647293447293441,37.91676400994399,35.80815886422859,32.597328301434686,1577395447.0,-27.717691190667978,-51.09905645795548,0.008519679
1690,1577395447.32,-0.4546588952636708,0.2505532037353515,9.195709591369628,-0.5803895195193403,0.1108340183165012,10.48753759408346,-0.7000759663899733,0.3116452494303379,9.994195796712242,0.3910064697265625,0.0696182250976562,-0.060272216796875,0.356906797827744,0.2726112923971036,-0.3187598251714938,-0.0594002859933033,0.3756568545386905,0.0759306408110119,24.16938785558577,-11.01373544610152,2.736678685897437,68.15468187696808,-2.038451553638469,6.231837606837594,37.9646868541648,36.14361877377422,32.45355976877228,1577395447.0,-27.717691190667978,-51.09905645795548,0.008519679
1691,1577395447.33,-0.5324704492187494,0.4073734124755859,9.95347441680908,-0.4259635124392621,0.2185730930235325,9.558587349942837,-0.6246586140950514,0.3762886942545566,9.548874287923176,-0.3261566162109375,-0.0371932983398437,-0.106048583984375,-0.2229271865472559,0.5625282845846036,0.0779686904535061,-0.0288827078683033,-0.1431419735863094,0.0606718517485119,24.089090885965888,-10.349113479526428,2.8279013087606826,67.86466838169143,-2.64998701973001,3.946830484330481,37.94072543205439,36.047773085332615,32.54940545721389,1577395447.0,-27.717691190667978,-51.09905645795548,0.008519679
1692,1577395447.34,-0.5743689782714834,0.2888604302978516,9.387245724182128,-0.539688091296684,0.42447443579697,10.798783809903773,-0.7862672261555983,0.2924916361490878,9.81702487386068,-0.6160736083984375,0.1611709594726562,-0.273895263671875,0.356906797827744,-0.4598105826028963,-0.1966895126714938,0.1847403390066966,-0.6619408017113095,-0.015622093563988,24.811763612544866,-11.01373544610152,3.831350160256412,67.76799721659921,-3.179984423676012,8.72457264957264,37.9646868541648,35.95192739689101,32.64525114565549,1577395447.0,-27.717691190667978,-51.09905645795548,0.008519679
1693,1577395447.35,-0.4762067102050771,0.025498247680664,9.102335726623537,-0.3313925468630903,0.6567119968321262,9.656749618009242,-0.803026637776692,0.2637612162272129,9.958282771809898,0.0247955322265625,-0.0219345092773437,0.031280517578125,0.204318907202744,-0.1241172232278963,-0.3797949814214938,0.3068106515066966,0.1009986514136905,0.2895536876860119,24.811763612544866,-11.01373544610152,3.831350160256412,67.76799721659921,-3.179984423676012,8.72457264957264,37.86884116572318,35.99985024111181,32.6931739898763,1577395447.0,-27.717691190667978,-51.09905645795548,0.008519679
1694,1577395447.36,-0.3948038537597645,0.4803965631103515,9.873268661193846,-0.5420822929568403,-0.054365896234279,9.541827938321742,-0.6402209248860671,0.4074133158365879,9.759564034016927,0.7572174072265625,0.0696182250976562,0.153350830078125,-0.4670678115472559,0.7608925423971036,-0.1051367782964938,0.1237051827566966,0.1315162295386905,0.0148954845610119,23.68760603786645,-11.203627436551546,4.743576388888888,67.76799721659921,-2.2015276779295467,8.72457264957264,37.9646868541648,35.80815886422859,32.789019678317906,1577395447.0,-27.717691190667978,-51.09905645795548,0.008519679
1695,1577395447.37,-0.586339986572265,0.4552574456787109,10.285071346740722,-0.4271606132693402,0.4304599399473606,9.783642305997525,-0.6150818074544264,0.3715002909342441,9.650627858479815,-0.2651214599609375,0.2069473266601562,0.077056884765625,-0.512844178734756,0.5625282845846036,0.0627099013910061,-0.0288827078683033,-0.4483177548363095,-0.229245140438988,23.767903007486343,-10.349113479526428,4.652353766025643,66.31792974021594,-2.160758646856777,-1.4540954415954532,37.84487974361278,35.9040045526702,32.64525114565549,1577395447.0,-27.717691190667978,-51.09905645795548,0.008519679
1696,1577395447.38,-0.5983109948730458,0.3343502618408203,8.810243124084472,-0.8006560722537152,0.2449093112852512,10.348673897794397,-0.8006324361165358,0.3547408793131504,10.010955208333336,-0.4024505615234375,-0.3881454467773437,-0.060272216796875,0.387424375952744,-0.7955039419778964,-0.1051367782964938,0.0016348702566966,0.1925513857886905,-0.168209984188988,23.84819997710623,-13.292439331501834,4.196240651709401,69.50807818825913,-3.4245986101126284,9.97094017094016,37.91676400994399,35.95192739689101,32.6931739898763,1577395447.0,-27.717691190667978,-51.09905645795548,0.008519679
1697,1577395447.39,-0.3660734338378896,-0.1349132635498037,8.987414046936035,-0.5540533012576215,0.27124552954697,9.812372725919396,-0.7766904195149733,0.2900974344889316,9.886456722005212,0.0553131103515625,-0.0524520874023437,-0.121307373046875,0.417941954077744,0.3946816048971036,-0.2882422470464938,0.1542227608816966,0.6503150576636905,0.2285185314360119,23.84819997710623,-13.292439331501834,4.196240651709401,69.50807818825913,-3.4245986101126284,6.647293447293441,37.9646868541648,35.856081708449395,32.64525114565549,1577395447.0,-27.717691190667978,-51.09905645795548,0.008519679
1698,1577395447.4,-0.5983109948730463,0.5725733270263671,10.24197571685791,-0.5995431328005902,0.4220802341368137,9.47957869515768,-0.6665571431477858,0.3954423075358066,9.548874287923176,0.2841949462890625,0.4510879516601562,-0.151824951171875,-0.589138124047256,0.0284706673971036,0.0474511123285061,0.3373282296316966,-0.0515892392113094,-0.046139671688988,23.4467151290068,-10.918789450876506,3.922572783119657,68.54136653733694,-2.2015276779295467,4.570014245014226,37.82091832150238,35.95192739689101,32.64525114565549,1577395447.0,-27.717691190667978,-51.09905645795548,0.008519679
1699,1577395447.41,-0.5216965417480458,0.2601300103759765,9.463860177307128,-0.4020214958376996,0.5525642246153294,9.933279909757289,-0.6952875630696608,0.3284046610514316,9.875682814534509,-0.3108978271484375,0.1916885375976562,-0.121307373046875,-0.2992211318597559,0.3336464486471036,-0.0135840439214938,0.1694815499441966,-0.3109886532738095,0.0759306408110119,24.008793916346,-10.064275493851389,3.2840144230769246,68.25135304206029,-2.160758646856777,4.777742165242141,37.9646868541648,35.927965974780605,32.597328301434686,1577395447.0,-27.717691190667978,-51.09905645795548,0.008519679
1700,1577395447.42,-0.3828328454589833,0.3487154718017578,9.35372690093994,-0.4894098564334027,0.2473035129454075,9.26170634408346,-0.6234615132649733,0.2517902079264316,9.541691682942709,0.0247955322265625,-0.4796981811523437,-0.151824951171875,-0.1008568740472559,0.6388222298971036,0.3831444717035062,0.0321524483816966,0.1009986514136905,-0.168209984188988,24.16938785558577,-9.874383503401363,4.196240651709401,69.31473585807468,-3.5061366722581666,5.400925925925918,37.772995477281576,35.95192739689101,32.597328301434686,1577395447.0,-27.717691190667978,-51.09905645795548,0.008519679
1701,1577395447.43,-0.5408501550292958,0.2721010186767578,9.727222359924315,-0.7216474174685589,0.1706890598204075,9.266494747403774,-0.611490504964192,0.3164336527506504,9.579998909505209,-0.4024505615234375,-0.1134872436523437,-0.060272216796875,0.112766172827744,-0.0630820669778963,0.2000390029535061,0.2152579171316966,0.1620338076636905,-0.137692406063988,24.811763612544866,-10.633951465201466,4.196240651709401,69.31473585807468,-3.3430605479670894,6.231837606837594,37.91676400994399,35.76023602000779,32.789019678317906,1577395447.0,-27.717691190667978,-51.09905645795548,0.008519679
1702,1577395447.44,-0.6509834313964843,0.4588487481689453,9.923546896057127,-0.7072822075076214,0.2401209079649387,9.687874239591274,-0.6665571431477858,0.3595292826334629,9.369309163411458,-0.1583099365234375,0.1916885375976562,-0.151824951171875,-0.3449974990472559,0.6083046517721036,0.1084862685785061,0.1237051827566966,-0.1736595517113094,0.0759306408110119,24.811763612544866,-10.633951465201466,4.196240651709401,70.08810517881243,-2.2015276779295467,7.893660968660963,37.86884116572318,35.95192739689101,32.64525114565549,1577395447.0,-27.717691190667978,-51.09905645795548,0.008519679
1703,1577395447.45,-0.4833893151855458,0.2254140863037109,9.43153845489502,-0.1063375908084027,0.8602191379454075,9.465213485196742,-0.8054208394368483,0.2900974344889316,10.087569661458335,0.3452301025390625,-0.0219345092773437,-0.045013427734375,0.204318907202744,-0.6123984732278964,-0.0746192001714938,0.0931876046316966,0.0399634951636905,0.1064482189360119,23.687606037866452,-11.01373544610152,3.831350160256412,67.76799721659921,-2.2015276779295467,8.72457264957264,37.84487974361278,35.76023602000779,32.789019678317906,1577395447.0,-27.717691190667978,-51.09905645795548,0.008519679
1704,1577395447.46,-0.5193023400878896,0.7317877374267577,10.306619161682129,-0.5899663261599651,0.0868920017149392,9.897366884854945,-0.6342354207356764,0.4361437357584629,9.744001723225912,0.3910064697265625,-0.1134872436523437,-0.060272216796875,-0.0093041396722559,0.0895058236471035,0.0474511123285061,0.0474112374441966,0.2535865420386905,-0.107174827938988,23.205824220147136,-11.393519427001571,4.926021634615379,67.76799721659921,-2.446141864366163,6.231837606837594,37.91676400994399,35.97588881900141,32.64525114565549,1577395447.0,-27.717691190667978,-51.09905645795548,0.008519679
1705,1577395447.47,-0.6509834313964843,0.5665878228759765,9.803836813049315,-0.5564475029177778,0.2688513278868137,9.762094491056118,-0.6833165547688795,0.3643176859537754,9.421981599934895,-0.7076263427734375,0.1916885375976562,0.031280517578125,-0.2534447646722559,0.4862343392721036,0.2915917373285062,0.0626700265066966,-0.4483177548363095,-0.198727562313988,23.205824220147136,-11.01373544610152,4.926021634615379,68.15468187696808,-3.0169082993849345,-8.724572649572671,37.91676400994399,35.99985024111181,32.6931739898763,1577395447.0,-27.717691190667978,-51.09905645795548,0.008519679
1706,1577395447.48,-0.5863399865722646,0.0470460626220703,8.719263460998533,-0.8629053154177777,0.4172918308165012,10.774841793302208,-0.850910670979817,0.2948858378092441,9.826601680501303,-0.8602142333984375,0.0085830688476562,-0.334930419921875,0.265354063452744,-0.2156699576028963,-0.1356543564214938,-0.0594002859933033,0.0399634951636905,0.0148954845610119,23.205824220147136,-11.01373544610152,4.926021634615379,68.15468187696808,-3.0169082993849345,-8.724572649572671,37.91676400994399,35.99985024111181,32.6931739898763,1577395447.0,-27.717691190667978,-51.09905645795548,0.008519679
1707,1577395447.49,-0.3828328454589833,0.3403357659912109,9.359712405090333,-0.2859027153201214,0.5058772922422824,9.278465755704556,-0.7192295796712233,0.3667118876139316,9.809842268880212,0.3910064697265625,0.0391006469726562,-0.121307373046875,0.143283750952744,0.3336464486471036,-0.1356543564214938,0.3068106515066966,0.2230689639136905,0.1064482189360119,23.767903007486343,-10.539005469976455,3.922572783119661,68.15468187696808,-3.0169082993849345,-8.724572649572671,37.91676400994399,35.856081708449395,32.50148261299308,1577395447.0,-27.717691190667978,-51.09905645795548,0.008519679
1708,1577395447.5,-0.5576095666503896,0.4660313531494141,10.514914706115722,-0.6833401909060589,0.1383673374082981,9.883001674894006,-0.6055050008138014,0.3583321818033848,9.670978572591146,-0.1583099365234375,0.0696182250976562,-0.151824951171875,-0.0855980849847559,-0.0630820669778963,0.0016747451410061,0.0626700265066966,-0.4330589657738095,0.0454130626860119,23.366418159386907,-9.684491512951334,3.2840144230769246,66.99462789586146,-2.6092179886572406,6.231837606837594,37.91676400994399,35.95192739689101,32.57336687932429,1577395447.0,-27.717691190667978,-51.09905645795548,0.008519679
1709,1577395447.51,-0.6222530114746093,0.6432022760009765,9.58357026031494,0.1570245918087837,0.740509054937595,9.458030880216274,-0.735988991292317,0.3571350809733066,9.886456722005212,-0.4634857177734375,-0.0524520874023437,-0.151824951171875,-0.772243592797256,0.4557167611471036,-0.2272070907964938,0.0321524483816966,-0.0515892392113094,-0.3513154529389881,23.84819997710623,-11.393519427001571,3.831350160256412,67.76799721659921,-2.364603802220624,5.400925925925918,37.91676400994399,35.76023602000779,32.50148261299308,1577395447.0,-27.717691190667978,-51.09905645795548,0.008519679
1710,1577395447.52,-0.390015450439452,-0.0487220037841787,8.906011190490721,-0.5037750663943402,-0.0088760646913102,10.066158101895958,-0.6928933614095045,0.2398191996256503,9.881668318684898,-0.6160736083984375,-0.2050399780273437,-0.090789794921875,0.234836485327744,0.4251991830221036,0.0474511123285061,0.1237051827566966,0.1009986514136905,0.0454130626860119,23.84819997710623,-11.393519427001571,3.831350160256412,67.76799721659921,-2.364603802220624,5.400925925925918,37.725072633060776,35.80815886422859,32.6931739898763,1577395447.0,-27.717691190667978,-51.09905645795548,0.008519679
1711,1577395447.53,-0.5348646508789052,0.5378574029541016,9.83256723297119,-0.6905227958865277,0.2317412021543918,9.431694661954555,-0.7156382771809889,0.3870626017252597,9.551268489583332,-0.0209808349609375,0.1459121704101562,-0.228118896484375,-0.1618920302972559,-0.0020469107278964,0.1390038467035061,0.2152579171316966,-0.1278831845238094,-0.152951195126488,23.12552725052725,-10.349113479526428,3.922572783119657,67.76799721659921,-2.2830657400750853,7.478205128205117,37.89280258783359,35.95192739689101,32.7171354119867,1577395447.0,-27.717691190667978,-51.09905645795548,0.008519679
1712,1577395447.54,-0.6294356164550781,0.1859097589111328,9.497379000549316,-0.6186967460818402,0.7740278781797825,10.533027425626427,-0.7814788228352858,0.3475582743326816,9.963071175130212,-0.2803802490234375,0.4358291625976562,0.031280517578125,-0.0093041396722559,0.0284706673971036,-0.1661719345464938,0.0626700265066966,-0.4483177548363095,-0.137692406063988,23.205824220147136,-11.393519427001571,3.466459668803423,68.54136653733694,-1.5492231807652364,6.231837606837594,37.91676400994399,35.95192739689101,32.50148261299308,1577395447.0,-27.717691190667978,-51.09905645795548,0.008519679
1713,1577395447.55,-0.4953603234863271,0.1476025323486328,9.336967489318846,-0.5229286796755902,0.3861672092344699,9.896169784024863,-0.7958440327962233,0.3307988627115878,10.063627644856776,0.2994537353515625,-0.2965927124023437,-0.029754638671875,0.356906797827744,-0.2156699576028963,-0.3797949814214938,0.0016348702566966,0.2535865420386905,0.2285185314360119,22.72404240242782,-11.583411417451597,3.6489049145299135,69.31473585807468,-1.5492231807652364,0.4154558404558297,37.91676400994399,35.856081708449395,32.50148261299308,1577395447.0,-27.717691190667978,-51.09905645795548,0.008519679
1714,1577395447.56,-0.4199429711914052,0.4492719415283203,9.88404256866455,-0.2212592704959027,0.3694077976133762,9.003132564786586,-0.6497977315266921,0.3834712992350254,9.833784285481777,0.1010894775390625,0.2222061157226562,-0.045013427734375,-0.680690858422256,0.8219276986471036,-0.0441016220464938,0.0931876046316966,0.3451392764136905,0.2590361095610119,23.687606037866452,-11.583411417451597,4.196240651709401,67.76799721659921,-1.8753754293473912,-7.8936609686609795,37.91676400994399,35.76023602000779,32.789019678317906,1577395447.0,-27.717691190667978,-51.09905645795548,0.008519679
1715,1577395447.57,-0.6749254479980468,0.6072892510986327,9.866086056213378,-0.6522155693240277,0.3741962009336892,9.904549489835413,-0.6581774373372389,0.3367843668619785,9.583590211995444,-0.6160736083984375,0.1611709594726562,-0.151824951171875,-0.3297387099847559,0.1352821908346036,0.1695214248285061,0.0931876046316965,-0.4178001767113095,-0.076657249813988,22.72404240242782,-10.823843455651492,4.013795405982902,67.76799721659921,-2.2015276779295463,-8.437694987151191e-15,37.91676400994399,35.99985024111181,32.7171354119867,1577395447.0,-27.717691190667978,-51.09905645795548,0.008519679
1716,1577395447.58,-0.5815515832519521,-0.0415393988037099,8.690533041076659,-0.4008243950076215,0.3119469577696262,9.683085836270962,-0.7742962178548171,0.3475582743326816,10.051656636555991,-0.4329681396484375,-0.2050399780273437,-0.243377685546875,-0.1618920302972559,-0.0325644888528963,0.1084862685785061,0.1237051827566966,-0.1126243954613094,0.1674833751860119,24.329981794825542,-9.684491512951334,3.2840144230769246,67.76799721659921,-2.2015276779295467,7.893660968660963,37.91676400994399,35.856081708449395,32.357714080330666,1577395447.0,-27.717691190667978,-51.09905645795548,0.008519679
1717,1577395447.59,-0.3612850305175771,0.063805474243164,9.492590597229002,-0.453496831531059,0.2568803195860325,9.714210457852992,-0.7024701680501295,0.2996742411295566,9.888850923665368,0.2079010009765625,-0.0524520874023437,0.183868408203125,0.417941954077744,-0.3987754263528963,-0.1966895126714938,0.2762930733816966,0.6197974795386905,-0.076657249813988,24.329981794825542,-10.064275493851389,4.3786858974359,68.54136653733694,-2.038451553638469,7.893660968660963,37.9646868541648,35.76023602000779,32.50148261299308,1577395447.0,-27.717691190667978,-51.09905645795548,0.008519679
1718,1577395447.6,-0.5911283898925771,0.6372167718505859,10.365277102355956,-0.3649113701052777,0.4986946872618137,8.749347188810022,-0.582760085042317,0.4936045756022129,9.62309453938802,0.2994537353515624,0.1764297485351562,-0.243377685546875,-0.985866639672256,-0.2156699576028963,0.1695214248285061,0.0931876046316966,-0.1736595517113094,-0.198727562313988,23.446715129006797,-10.72889746042648,4.469908520299144,67.76799721659921,-3.5061366722581666,6.231837606837594,37.84487974361278,35.99985024111181,32.64525114565549,1577395447.0,-27.717691190667978,-51.09905645795548,0.008519679
1719,1577395447.61,-0.5456385583496083,0.2625242120361328,9.25317043121338,-0.5337025871462933,0.4867236789610329,10.409726040128382,-0.7671136128743483,0.3918510050455722,9.84695239461263,-0.1888275146484375,0.0391006469726562,-0.151824951171875,-0.2381859756097559,0.4862343392721036,0.0016747451410061,0.2457754952566966,-0.3415062313988095,-0.152951195126488,22.88463634166759,-10.633951465201466,4.56113114316239,67.96133954678365,-0.5707664350187711,6.231837606837594,37.86884116572318,35.9040045526702,32.47752119088268,1577395447.0,-27.717691190667978,-51.09905645795548,0.008519679
1720,1577395447.62,-0.3062183923339834,0.245764800415039,9.04726908843994,-0.2739317070193402,0.3382831760313449,9.177909285977991,-0.6162789082845045,0.2541844095865878,9.730833614095053,-0.2193450927734375,-0.2660751342773437,-0.060272216796875,-0.4060326552972559,1.4322792611471036,0.5052147842035062,0.1847403390066966,0.4672095889136905,-0.015622093563988,23.84819997710623,-11.01373544610152,4.926021634615379,69.50807818825913,-2.4461418643661625,6.647293447293441,37.9646868541648,35.856081708449395,32.45355976877228,1577395447.0,-27.717691190667978,-51.09905645795548,0.008519679
1721,1577395447.63,-0.4355052819824208,0.303225640258789,9.521321017150878,-1.0879602714724652,-0.0471832912538102,9.778853902677213,-0.5971252950032545,0.3451640726725254,9.503384456380209,0.0858306884765625,0.1916885375976562,-0.243377685546875,-0.1008568740472559,-0.9786094107278964,-0.0135840439214938,0.1847403390066966,0.0094459170386905,0.1369657970610119,22.88463634166759,-10.254167484301416,5.290912126068384,69.50807818825913,-2.4461418643661625,6.647293447293441,37.62922694461916,35.99985024111181,32.64525114565549,1577395447.0,-27.717691190667978,-51.09905645795548,0.008519679
1722,1577395447.64,-0.6749254479980468,0.4803965631103515,9.645819503479004,-0.261960698718559,0.5310164096739232,9.79800751595846,-0.7623252095540358,0.341572770182291,9.791885756429036,0.0247955322265625,0.2374649047851562,-0.029754638671875,-0.3602562881097559,0.4709755502096036,0.0321923232660061,-0.0288827078683033,-0.3109886532738095,-0.1224336170014881,22.72404240242782,-10.254167484301416,4.561131143162398,68.92805119770581,1.875375429347392,6.231837606837594,37.84487974361278,35.9040045526702,32.74109683409711,1577395447.0,-27.717691190667978,-51.09905645795548,0.008519679
1723,1577395447.65,-0.4139574670410146,-0.0726640203857412,9.29147765777588,-0.8365690971560589,0.0198543552305637,10.530633223966271,-0.7407773946126295,0.3786828959147129,10.075598653157556,0.3604888916015625,-0.1134872436523437,0.092315673828125,0.356906797827744,-0.3072226919778963,-0.0441016220464938,0.0931876046316966,0.4061744326636905,0.4726591564360119,24.49057573406532,-11.773303407901622,6.020693108974362,67.76799721659921,-2.2015276779295467,12.04821937321936,38.0605325426064,36.047773085332615,32.789019678317906,1577395447.0,-27.717691190667978,-51.09905645795548,0.008519679
1724,1577395447.66,-0.4570530969238271,0.772489165649414,10.23479311187744,-0.328998345202934,0.4388396457579074,8.991161556485805,-0.6090963033040357,0.3188278544108066,9.58478731282552,0.4520416259765625,-0.0829696655273437,-0.212860107421875,-0.1313744521722559,0.2420937142721036,0.0169335342035061,0.0931876046316966,0.2841041201636905,-0.076657249813988,23.205824220147136,-11.01373544610152,3.466459668803423,68.15468187696808,1.875375429347392,11.217307692307685,37.86884116572318,36.047773085332615,32.64525114565549,1577395447.0,-27.717691190667978,-51.09905645795548,0.008519679
1725,1577395447.67,-0.5695805749511709,0.5546168145751953,10.098323617248534,-0.9562791801638714,-0.0280296779725602,10.01587986703268,-0.6497977315266921,0.4624799540201816,9.517749666341146,-0.4634857177734375,0.4053115844726562,-0.029754638671875,-0.1008568740472559,0.4862343392721036,0.5052147842035062,0.1542227608816966,-0.5093529110863095,-0.198727562313988,23.205824220147136,-9.874383503401363,4.926021634615379,68.15468187696808,1.875375429347392,11.217307692307685,37.91676400994399,35.95192739689101,32.6931739898763,1577395447.0,-27.717691190667978,-51.09905645795548,0.008519679
1726,1577395447.68,-0.5791573815917963,0.2134430780029297,9.151416860656738,-0.3505461601443402,0.4232773349668919,9.715407558683069,-0.7719020161946608,0.2877032328287754,9.866106007893883,-0.4787445068359375,-0.0371932983398437,-0.182342529296875,-0.2076683974847559,0.3641640267721036,-0.1356543564214938,0.0931876046316965,0.1315162295386905,0.0148954845610119,22.88463634166759,-10.823843455651492,4.378685897435895,69.79809168353577,1.916144460420162,9.763212250712238,37.91676400994399,35.927965974780605,32.597328301434686,1577395447.0,-27.717691190667978,-51.09905645795548,0.008519679
1727,1577395447.69,-0.3469198205566396,0.1739387506103515,9.394428329162595,-0.9467023735232464,0.3047643527891575,10.317549276212365,-0.7240179829915357,0.3212220560709629,9.728439412434897,0.5435943603515625,-0.1440048217773437,0.092315673828125,0.204318907202744,-0.5513633169778964,-0.3797949814214938,0.1542227608816966,0.4061744326636905,0.1369657970610119,21.43929088850964,-10.44405947475144,4.3786858974359,70.28144750899686,1.7938373672018535,11.632763532763512,37.91676400994399,35.95192739689101,32.789019678317906,1577395447.0,-27.717691190667978,-51.09905645795548,0.008519679
1728,1577395447.7,-0.5288791467285145,0.5570110162353515,10.692085628967284,-0.3601229667849652,0.1970252780821262,9.405358443692837,-0.6497977315266921,0.4768451639811191,9.70689159749349,0.2384185791015625,-0.0219345092773437,-0.060272216796875,0.082248594702744,-0.4292930044778963,0.3831444717035062,0.1237051827566966,-0.3262474423363095,-0.2597627185639881,21.43929088850964,-10.823843455651492,4.013795405982902,67.96133954678365,2.119989615784009,11.632763532763512,38.0605325426064,35.95192739689101,32.789019678317906,1577395447.0,-27.717691190667978,-51.09905645795548,0.008519679
1729,1577395447.71,-0.5839457849121088,0.3343502618408202,9.562022445373534,-0.5277170829959027,0.6806540134336888,9.781248104337369,-0.6904991597493483,0.4050191141764316,9.94391756184896,-0.1277923583984375,-0.0219345092773437,-0.106048583984375,-0.680690858422256,0.8219276986471036,0.2000390029535061,0.1847403390066966,-0.4788353329613095,-0.046139671688988,24.329981794825542,-10.44405947475144,4.3786858974359,67.76799721659921,2.0384515536384704,11.217307692307685,37.84487974361279,35.95192739689101,32.45355976877228,1577395447.0,-27.717691190667978,-51.09905645795548,0.008519679
1730,1577395447.72,-0.5121197351074208,0.6910863092041014,9.62187748687744,-0.483424352283012,0.6303757785704075,9.748926381925257,-0.6462064290364576,0.274535123697916,9.911595839436847,0.2384185791015625,0.0085830688476562,-0.029754638671875,0.204318907202744,0.2726112923971036,0.1237450576410062,0.2915518624441966,0.2230689639136905,0.0606718517485119,23.045230280907365,-11.96319539835165,3.6489049145299135,68.34802420715252,1.8753754293473928,-1.2463675213675387,37.9646868541648,35.999850241111815,32.57336687932428,1577395447.0,-27.717691190667978,-51.09905645795548,0.008519679
1731,1577395447.73,-0.5576095666503896,0.3367444635009765,9.674549923400878,-1.0735950615115275,-0.0902789211366227,9.616048189786586,-0.6330383199055983,0.3834712992350254,9.448317818196614,-0.6465911865234375,0.4053115844726562,-0.090789794921875,-0.1313744521722559,-1.1922324576028964,0.2305565810785061,0.0931876046316966,-0.2652122860863095,-0.137692406063988,23.68760603786645,-10.823843455651492,5.473357371794874,69.31473585807468,1.7122993050563151,9.555484330484315,37.725072633060776,35.856081708449395,32.50148261299308,1577395447.0,-27.717691190667978,-51.09905645795548,0.008519679
1732,1577395447.74,-0.7180210778808592,0.2840720269775391,9.31541967437744,-0.4104012016482465,0.280822336187595,10.011091463712363,-0.7695078145345046,0.3571350809733066,9.536903279622395,-0.0667572021484375,-0.1134872436523437,0.000762939453125,-0.3449974990472559,0.8219276986471036,0.0169335342035061,0.0016348702566966,-0.6009056454613095,-0.137692406063988,23.045230280907365,-10.823843455651492,4.3786858974359,69.31473585807468,1.7122993050563151,7.893660968660963,37.9646868541648,35.99985024111181,32.597328301434686,1577395447.0,-27.717691190667978,-51.09905645795548,0.008519679
1733,1577395447.75,-0.4498704919433583,0.255341607055664,9.27711244781494,-0.0201463310427777,0.9942944309141576,9.912929195645958,-0.850910670979817,0.4241727274576816,10.010955208333336,0.3604888916015625,-0.2965927124023437,-0.029754638671875,-0.650173280297256,0.0589882455221036,0.1084862685785061,0.0016348702566966,-0.1431419735863094,0.2590361095610119,22.402854523948275,-9.304707532051282,6.203138354700853,69.31473585807468,1.7122993050563151,7.893660968660963,37.9646868541648,35.616467487345375,32.64525114565549,1577395447.0,-27.717691190667978,-51.09905645795548,0.008519679
1734,1577395447.76,-0.4414907861328114,0.4923675714111327,10.213245296936034,-0.6498213676638714,0.1072427158262673,9.826737935880336,-0.6509948323567701,0.3379814676920566,9.870894411214191,0.2384185791015625,0.2069473266601562,0.046539306640625,0.066989805640244,-0.0173056997903962,-0.0288428329839938,0.0931876046316966,0.2535865420386905,0.1064482189360119,23.527012098626685,-11.01373544610152,4.743576388888892,68.92805119770583,-0.1630761242910769,9.140028490028476,37.94072543205439,36.11965735166382,32.669212567765896,1577395447.0,-27.717691190667978,-51.09905645795548,0.008519679
1735,1577395447.77,-0.773087716064453,0.609683452758789,9.657790511779783,-0.6737633842654339,0.2832165378477512,9.426906258634242,-0.611490504964192,0.3810770975748691,9.522538069661458,-0.8296966552734375,0.3137588500976562,-0.182342529296875,-0.528102967797256,1.5848671517721036,0.4136620498285062,-0.0899178641183033,-0.6924583798363095,-0.229245140438988,23.045230280907365,-11.203627436551546,5.108466880341885,67.76799721659921,2.0384515536384704,12.04821937321936,38.0605325426064,35.95192739689101,32.6931739898763,1577395447.0,-27.717691190667978,-51.09905645795548,0.008519679
1736,1577395447.78,-0.5121197351074208,-0.2426523382568359,8.649831612854003,-0.6139083427615277,0.4292628391172824,10.57612305550924,-0.7503542012532546,0.3930481058756503,9.740410420735676,-0.8602142333984375,-0.0524520874023437,-0.457000732421875,-0.1924096084222559,-1.3753379263528964,-0.2577246689214938,0.0931876046316966,-0.2652122860863095,0.0148954845610119,23.68760603786645,-11.203627436551546,5.473357371794874,67.96133954678365,2.77229411294832,11.632763532763512,37.9646868541648,36.14361877377422,32.45355976877228,1577395447.0,-27.717691190667978,-51.09905645795548,0.008519679
1737,1577395447.79,-0.4402936853027333,0.2481590020751953,9.518926815490724,-0.0632419609255902,0.4340512424375949,8.902576095060024,-0.7096527730305983,0.3475582743326816,9.975042183430991,0.5130767822265625,-0.1440048217773437,0.153350830078125,-0.1313744521722559,0.7914101205221036,0.2000390029535061,0.0626700265066966,0.4366920107886905,-0.046139671688988,23.045230280907365,-10.823843455651492,2.5542334401709463,67.76799721659921,-2.5276799265117016,11.217307692307685,37.91676400994399,35.66439033156618,32.64525114565549,1577395447.0,-27.717691190667978,-51.09905645795548,0.008519679
1738,1577395447.8,-0.5264849450683583,0.5210979913330077,10.45146836212158,-0.7000996025271526,0.2329383029844704,10.066158101895958,-0.686907857259114,0.4145959208170566,9.75836693318685,0.2536773681640625,0.2832412719726562,0.016021728515625,0.417941954077744,-0.5055869497903964,0.0779686904535062,0.3983633858816966,-0.0363304501488095,-0.000363304501488,23.12552725052725,-10.1592214890764,4.287463274572654,66.02791624493929,2.119989615784009,10.801851851851836,38.0126096983856,35.927965974780605,32.7171354119867,1577395447.0,-27.717691190667978,-51.09905645795548,0.008519679
1739,1577395447.81,-0.5049371301269521,0.4636371514892578,9.454283370666502,-0.2571722953982465,0.3598309909727512,9.692662642911586,-0.6474035298665358,0.4050191141764316,9.833784285481777,-0.1888275146484375,-0.1745223999023437,-0.121307373046875,-0.711208436547256,0.4557167611471036,0.2915917373285062,0.0321524483816966,-0.3567650204613095,0.1980009533110119,22.88463634166759,-10.633951465201466,5.290912126068384,68.3480242071525,2.609217988657241,9.97094017094016,37.91676400994399,35.95192739689101,32.50148261299308,1577395447.0,-27.717691190667978,-51.09905645795548,0.008519679
1740,1577395447.82,-0.3564966271972646,0.2601300103759765,9.13106614654541,-0.922760356921684,0.4532048557188449,10.509085409024864,-0.7096527730305983,0.2877032328287753,9.843361092122398,-0.5855560302734375,-0.1745223999023437,-0.365447998046875,0.753635313452744,-0.3377402701028963,0.2000390029535061,0.2457754952566966,0.0399634951636905,0.3811064220610119,23.205824220147136,-10.254167484301416,4.926021634615379,67.76799721659921,2.609217988657241,9.97094017094016,37.9646868541648,35.99985024111181,32.64525114565549,1577395447.0,-27.717691190667978,-51.09905645795548,0.008519679
1741,1577395447.83,-0.4881777185058583,0.274495220336914,9.394428329162595,-1.0257110283084026,0.1539296481993137,9.771671297696743,-0.6067021016438795,0.3284046610514316,9.352549751790365,-0.2193450927734375,0.1611709594726562,0.000762939453125,-0.528102967797256,-0.8260215201028964,-0.0746192001714938,0.3678458077566966,-0.1126243954613094,-0.198727562313988,22.563448463188045,-10.254167484301416,4.926021634615379,67.76799721659921,-2.2015276779295467,9.555484330484315,37.772995477281576,35.99985024111181,32.64525114565549,1577395447.0,-27.717691190667978,-51.09905645795548,0.008519679
1742,1577395447.84,-0.61507040649414,0.3403357659912109,9.457874673156738,-0.2212592704959027,0.57770334204697,9.845891549161584,-0.7730991170247389,0.3571350809733066,9.949903065999347,-0.0667572021484375,-0.0829696655273437,-0.182342529296875,-0.0703392959222559,0.3489052377096036,-0.1509131454839938,0.0931876046316966,-0.4025413876488095,-0.213986351376488,22.804339372047707,-10.349113479526428,3.922572783119661,68.15468187696808,-0.2446141864366158,7.893660968660963,37.9886482762752,35.80815886422859,32.669212567765896,1577395447.0,-27.717691190667978,-51.09905645795548,0.008519679
1743,1577395447.85,-0.4355052819824208,0.0997184991455078,9.75595277984619,-0.8317806938357464,-0.130980349359279,10.784418599942834,-0.7024701680501295,0.3451640726725254,10.12348268636068,0.3910064697265625,-0.2355575561523437,0.031280517578125,0.204318907202744,-0.3377402701028963,0.0474511123285061,0.3068106515066966,0.6197974795386905,0.0759306408110119,22.88463634166759,-10.633951465201466,3.466459668803423,69.70142051844356,1.7122993050563151,7.893660968660963,37.772995477281576,36.14361877377422,32.45355976877228,1577395447.0,-27.717691190667978,-51.09905645795548,0.008519679
1744,1577395447.86,-0.3948038537597645,0.6862979058837889,10.268311935119629,-0.2978737236209027,0.6686830051329075,9.139602059415491,-0.5252992451985671,0.3858655008951816,9.785900252278646,0.5435943603515625,0.1306533813476562,0.092315673828125,-0.2839623427972559,0.2726112923971036,-0.0441016220464938,0.1237051827566966,0.1620338076636905,-0.046139671688988,22.402854523948275,-11.203627436551546,4.013795405982902,68.15468187696808,1.7122993050563151,4.570014245014226,37.86884116572318,35.80815886422859,32.789019678317906,1577395447.0,-27.717691190667978,-51.09905645795548,0.008519679
1745,1577395447.87,-0.4929661218261708,0.4588487481689453,10.198880086975096,-0.8700879203982465,-0.0519716945741227,9.5825293665444,-0.6186731099446608,0.5151523905436192,9.366914961751302,-0.4634857177734375,0.0696182250976562,-0.304412841796875,-0.619655702172256,0.7608925423971036,0.5052147842035062,0.0931876046316966,-0.7840111142113095,-0.168209984188988,22.402854523948275,-12.3429793792517,5.108466880341885,68.15468187696808,1.7122993050563151,4.570014245014226,37.91676400994399,35.99985024111181,32.789019678317906,1577395447.0,-27.717691190667978,-51.09905645795548,0.008519679
1746,1577395447.88,-0.5612008691406244,0.2134430780029297,8.998187954406736,-0.2763259086794964,0.5920685520079075,9.69625394540182,-0.7383831929524732,0.3188278544108066,9.845755293782554,-0.5702972412109375,0.0238418579101562,-0.289154052734375,0.036472227515244,0.0437294564596036,-0.1966895126714938,0.0779288155691966,0.1467750186011905,0.0148954845610119,23.36641815938691,-9.49459952250131,5.108466880341881,68.25135304206029,-2.323834771147854,-1.869551282051308,37.9886482762752,35.99985024111181,32.597328301434686,1577395447.0,-27.717691190667978,-51.09905645795548,0.008519679
1747,1577395447.89,-0.3708618371582021,0.159573540649414,9.454283370666502,-0.8916357353396527,-0.0304238796327165,10.092494320157678,-0.6378267232259108,0.3475582743326816,9.625488741048176,0.3604888916015625,0.1306533813476562,0.183868408203125,-0.0703392959222559,-0.4903281607278963,-0.1051367782964938,0.3373282296316966,0.4366920107886905,0.3200712658110119,23.84819997710623,-9.114815541601256,5.655802617521372,67.76799721659921,-1.8753754293473912,7.893660968660963,38.0605325426064,35.95192739689101,32.64525114565549,1577395447.0,-27.717691190667978,-51.09905645795548,0.008519679
1748,1577395447.9,-0.5815515832519521,0.6910863092041014,10.598711764221193,-0.5372938896365277,0.3646193942930637,9.726181466153774,-0.6450093282063796,0.4505089457194003,9.615911934407553,0.7266998291015625,0.1611709594726562,0.183868408203125,-0.2534447646722559,-0.5208457388528964,0.0169335342035061,0.0626700265066966,-0.5398704892113095,0.1369657970610119,23.527012098626685,-10.633951465201466,3.466459668803423,67.96133954678365,-1.7938373672018528,6.647293447293441,37.91676400994399,36.047773085332615,32.45355976877228,1577395447.0,-27.717691190667978,-51.09905645795548,0.008519679
1749,1577395447.91,-0.5181052392578115,0.2960430352783203,9.515335513000489,-0.2308360771365277,0.7093844333555638,9.565769954923304,-0.735988991292317,0.4385379374186191,9.888850923665368,-0.3871917724609375,0.0085830688476562,-0.090789794921875,-0.802761170922256,1.1881386361471036,0.1084862685785061,0.2152579171316966,-0.4483177548363095,-0.107174827938988,23.12552725052725,-10.918789450876506,4.834799011752142,69.70142051844356,-1.8753754293473912,6.231837606837594,37.94072543205439,35.95192739689101,32.6931739898763,1577395447.0,-27.717691190667978,-51.09905645795548,0.008519679
1750,1577395447.92,-0.4115632653808583,0.5115211846923828,9.538080428771972,-0.4127954033084032,0.3358889743711887,9.9380683130776,-0.7000759663899733,0.2242568888346347,9.851740797932944,0.0858306884765625,-0.2050399780273437,-0.121307373046875,0.387424375952744,0.2268349252096035,0.0016747451410061,0.0931876046316966,0.1772925967261905,0.1369657970610119,23.84819997710623,-10.254167484301416,6.020693108974362,69.12139352789025,-2.038451553638469,6.647293447293432,37.9646868541648,36.11965735166382,32.64525114565549,1577395447.0,-27.717691190667978,-51.09905645795548,0.008519679
1751,1577395447.93,-0.5049371301269521,0.4229357232666015,9.875662862854004,-1.018528423327934,0.000700741949314,10.01587986703268,-0.6761339497884108,0.4624799540201816,9.462683028157551,-0.0972747802734375,0.4358291625976562,0.122833251953125,-0.3755150771722559,-0.2461875357278963,0.2610741592035062,0.1847403390066966,-0.3262474423363095,-0.107174827938988,23.84819997710623,-10.254167484301416,6.020693108974362,68.54136653733694,-2.2015276779295467,5.400925925925918,37.9646868541648,36.14361877377422,32.6931739898763,1577395447.0,-27.717691190667978,-51.09905645795548,0.008519679
1752,1577395447.94,-0.6892906579589843,0.255341607055664,10.201274288635252,-0.530111284656059,0.6279815769102512,10.152349361661583,-0.7623252095540358,0.3379814676920566,9.790688655598958,-0.1583099365234375,0.5578994750976562,0.122833251953125,-0.3144799209222559,-0.3377402701028963,0.1084862685785061,0.0321524483816966,-0.7534935360863095,-0.015622093563988,23.366418159386907,-11.96319539835165,4.3786858974359,68.54136653733694,-2.038451553638469,5.400925925925918,37.772995477281576,35.76023602000779,32.597328301434686,1577395447.0,-27.717691190667978,-51.09905645795548,0.008519679
1753,1577395447.95,-0.4738125085449208,0.2385821954345703,9.435129757385251,-0.0632419609255902,0.5992511569883762,9.52985693002096,-0.8149976460774733,0.2565786112467441,10.130665291341147,-0.0057220458984375,-0.1592636108398437,0.046539306640625,-0.0398217177972559,0.4251991830221036,-0.3492774032964938,0.1542227608816966,-0.1736595517113094,0.2285185314360119,23.4467151290068,-10.72889746042648,3.5576822916666684,68.54136653733694,-2.038451553638469,5.400925925925918,37.84487974361278,36.047773085332615,32.64525114565549,1577395447.0,-27.717691190667978,-51.09905645795548,0.008519679
1754,1577395447.96,-0.4738125085449208,0.6743268975830077,10.25394672515869,-0.8234009880251996,0.180265866461033,10.130801546720178,-0.6210673116048171,0.3092510477701816,9.629080043538412,0.5741119384765625,0.0391006469726562,-0.029754638671875,0.2043189072027439,-0.4140342154153963,0.0169335342035061,-0.0441414969308033,0.3451392764136904,-0.183468773251488,22.08166664546873,-10.44405947475144,3.6489049145299135,67.76799721659921,-2.772294112948318,7.893660968660955,37.91676400994399,35.83212028633899,32.669212567765896,1577395447.0,-27.717691190667978,-51.09905645795548,0.008519679
1755,1577395447.97,-0.667742843017578,0.6240486627197265,10.064804794006347,-0.3792765800662152,0.2089962863829075,9.151573067716274,-0.6426151265462233,0.3834712992350254,9.462683028157551,-0.4329681396484375,0.2222061157226562,-0.090789794921875,-0.802761170922256,0.6693398080221036,0.3526268935785062,0.0016348702566966,-0.6619408017113095,-0.107174827938988,22.08166664546873,-10.44405947475144,3.6489049145299135,67.76799721659921,-2.2015276779295467,8.72457264957264,37.91676400994399,35.856081708449395,32.64525114565549,1577395447.0,-27.717691190667978,-51.09905645795548,0.008519679
1756,1577395447.98,-0.5288791467285145,0.0015562310791015,8.846156148986815,-0.4415258232302777,0.7548742648985325,10.643160701993615,-0.793449831136067,0.3260104593912754,9.97025378011068,-0.8602142333984375,0.2222061157226562,-0.304412841796875,-0.2229271865472559,0.5472694955221036,-0.1661719345464938,-0.0288827078683033,-0.1126243954613094,-0.137692406063988,23.366418159386907,-11.96319539835165,4.013795405982902,67.76799721659921,-1.5492231807652364,4.570014245014226,37.772995477281576,35.99985024111181,32.64525114565549,1577395447.0,-27.717691190667978,-51.09905645795548,0.008519679
1757,1577395447.99,-0.4618415002441396,0.3942053033447265,9.514138412170407,-0.5001837639041059,0.2508948154356418,9.565769954923304,-0.7347918904622389,0.3260104593912754,9.735622017415366,0.3910064697265625,-0.0066757202148437,-0.029754638671875,-0.0398217177972559,-0.0478232779153963,-0.2424658798589938,0.2762930733816966,0.1925513857886905,0.1064482189360118,23.928496946726117,-10.349113479526428,3.740127537393163,69.02472236279803,-2.160758646856777,6.855021367521347,37.89280258783359,36.02381166322221,32.57336687932428,1577395447.0,-27.717691190667978,-51.09905645795548,0.008519679
1758,1577395448.0,-0.5887341882324209,0.3295618585205078,10.31859016998291,-1.0903544731326211,0.050978976812595,10.475566585782678,-0.6952875630696608,0.4098075174967441,9.656613362630209,-0.2498626708984375,0.2222061157226562,-0.090789794921875,0.234836485327744,0.0284706673971036,0.5052147842035062,0.0931876046316966,-0.4178001767113095,-0.107174827938988,22.402854523948275,-11.583411417451597,4.013795405982902,68.92805119770581,-3.0169082993849345,7.893660968660963,37.91676400994399,36.047773085332615,32.45355976877228,1577395448.0,-27.71769149814615,-51.09905664598307,0.009688481
1759,1577395448.01,-0.6701370446777343,0.5594052178955078,9.576387655334472,0.111534760265815,0.9296509860899388,9.587317769864711,-0.726412184651692,0.3834712992350254,10.00856100667318,-0.2498626708984375,-0.0829696655273437,-0.212860107421875,-0.741726014672256,0.4251991830221036,-0.2577246689214938,-0.0288827078683033,-0.4788353329613095,-0.015622093563988,22.402854523948275,-11.583411417451597,4.013795405982902,70.66813216936573,-1.6307612429107747,-8.309116809116826,37.772995477281576,35.76023602000779,32.789019678317906,1577395448.0,-27.71769149814615,-51.09905664598307,0.009688481
1760,1577395448.02,-0.3612850305175771,0.054228667602539,9.090364718322752,-0.3505461601443402,0.4292628391172824,9.486761300138149,-0.6809223531087233,0.2254539896647128,9.749987227376302,-0.2193450927734375,0.0391006469726562,-0.182342529296875,-0.4060326552972559,0.6388222298971036,0.1695214248285061,0.4288809640066966,0.5892799014136905,0.3200712658110119,23.84819997710623,-11.01373544610152,4.56113114316239,69.70142051844356,-1.7122993050563138,-8.724572649572671,37.725072633060776,35.856081708449395,32.50148261299308,1577395448.0,-27.71769149814615,-51.09905664598307,0.009688481
1761,1577395448.03,-0.5169081384277333,0.4588487481689453,9.712857149963378,-0.92515455858184,-0.2674498439881852,9.661538021329555,-0.5851542867024733,0.4529031473795566,9.558451094563802,0.2384185791015625,0.0696182250976562,-0.182342529296875,0.112766172827744,-0.6429160513528964,-0.1356543564214938,0.1847403390066966,0.0094459170386905,-0.137692406063988,22.563448463188045,-10.633951465201466,4.926021634615379,68.54136653733694,-2.2015276779295467,4.570014245014226,37.91676400994399,35.856081708449395,32.357714080330666,1577395448.0,-27.71769149814615,-51.09905664598307,0.009688481
1762,1577395448.04,-0.6557718347167968,0.3331531610107421,9.58357026031494,-0.2882969169802777,0.7321293491270481,9.75371478524557,-0.8090121419270827,0.3595292826334629,9.838572688802085,-0.3108978271484375,0.1153945922851562,-0.045013427734375,-0.2839623427972559,0.1657997689596036,0.0169335342035061,-0.0594002859933033,-0.2499534970238094,-0.1224336170014881,22.804339372047703,-10.72889746042648,4.469908520299141,68.15468187696808,-2.8538321750938564,4.570014245014226,37.94072543205439,35.83212028633899,32.81298110042831,1577395448.0,-27.71769149814615,-51.09905664598307,0.009688481
1763,1577395448.05,-0.4307168786621083,0.255341607055664,9.57159925201416,-0.9107893486209028,0.00309494360947,10.619218685392052,-0.7599310078938796,0.4098075174967441,9.958282771809898,0.3604888916015625,-0.2660751342773437,-0.151824951171875,0.448459532202744,-0.3987754263528963,-0.1356543564214938,0.1237051827566966,0.6808326357886905,0.0759306408110119,23.527012098626685,-12.153087388801676,3.831350160256412,68.15468187696808,-2.2015276779295467,4.570014245014226,37.772995477281576,35.856081708449395,32.6931739898763,1577395448.0,-27.71769149814615,-51.09905664598307,0.009688481
1764,1577395448.06,-0.4355052819824208,0.6432022760009765,10.076775802307129,-0.4846214531130902,0.3119469577696262,9.362262813810023,-0.5420586568196608,0.2996742411295566,9.625488741048176,0.4825592041015625,-0.2660751342773437,-0.151824951171875,-0.2534447646722559,0.3641640267721036,-0.3187598251714938,0.1237051827566966,0.1009986514136905,0.0759306408110119,23.527012098626685,-12.153087388801676,3.831350160256412,68.92805119770581,-1.386147056474159,4.570014245014226,37.91676400994399,35.95192739689101,32.64525114565549,1577395448.0,-27.71769149814615,-51.09905664598307,0.009688481
1765,1577395448.07,-0.6390124230957025,0.4600458489990234,9.716448452453612,-0.9658559868044964,0.2784281345274387,9.750123482755336,-0.6330383199055983,0.4792393656412754,9.46986563313802,-0.4940032958984375,0.3290176391601562,-0.243377685546875,-0.0398217177972559,0.1810585580221036,0.5967675185785062,0.0016348702566966,-0.5703880673363095,-0.229245140438988,22.88463634166759,-11.773303407901626,3.831350160256412,61.96772731106615,-1.386147056474159,7.893660968660963,37.91676400994399,35.76023602000779,32.789019678317906,1577395448.0,-27.71769149814615,-51.09905664598307,0.009688481
1766,1577395448.08,-0.4307168786621083,-0.0439336004638662,8.757570687561035,-0.2176679680056684,0.4555990573790012,9.794416213468226,-0.811406343587239,0.3595292826334629,9.844558192952476,-0.4024505615234375,-0.6017684936523438,0.153350830078125,-0.0703392959222559,0.3336464486471036,0.0016747451410061,0.0321524483816966,-0.0363304501488094,-0.076657249813988,23.68760603786645,-11.583411417451597,2.5542334401709463,64.67451993364823,-2.2015276779295467,-8.724572649572671,37.725072633060776,36.047773085332615,32.64525114565549,1577395448.0,-27.71769149814615,-51.09905664598307,0.009688481
1767,1577395448.09,-0.4187458703613271,0.2242169854736328,9.650607906799316,-1.0616240532107464,0.2401209079649387,10.209810201505334,-0.6306441182454421,0.3164336527506504,9.80265966389974,0.5130767822265625,0.0391006469726562,-0.121307373046875,-0.1008568740472559,-0.6734336294778964,-0.1356543564214938,0.0016348702566966,0.3146216982886905,-0.015622093563988,23.84819997710623,-10.254167484301416,3.831350160256412,67.76799721659921,-2.2015276779295467,4.570014245014226,38.0605325426064,35.95192739689101,32.789019678317906,1577395448.0,-27.71769149814615,-51.09905664598307,0.009688481
1768,1577395448.1,-0.543244356689452,0.7844601739501952,10.56758714263916,-0.568418511218559,0.4915120822813449,10.030245076993616,-0.6521919331868483,0.4433263407389316,9.551268489583332,0.4215240478515625,0.2832412719726562,0.092315673828125,-0.0093041396722559,0.6998573861471036,0.2305565810785061,-0.0594002859933033,-0.2957298642113095,0.1369657970610119,23.84819997710623,-10.254167484301416,3.831350160256412,67.76799721659921,-1.8753754293473912,4.570014245014226,37.9646868541648,36.33531015065744,32.597328301434686,1577395448.0,-27.71769149814615,-51.09905664598307,0.009688481
1769,1577395448.11,-0.5468356591796865,0.255341607055664,9.550051437072751,-0.1470390190310589,0.6112221652891574,9.711816256192837,-0.6713455464680983,0.4098075174967441,9.967859578450524,-0.1735687255859375,-0.0677108764648437,0.046539306640625,-0.894313905297256,1.0050331673971036,-0.1661719345464938,-0.0594002859933033,-0.6314232235863095,-0.107174827938988,22.96493331128748,-11.108681441326532,3.5576822916666684,67.76799721659921,-1.8753754293473912,4.570014245014226,37.91676400994399,35.99985024111181,32.50148261299308,1577395448.0,-27.71769149814615,-51.09905664598307,0.009688481
1770,1577395448.12,-0.5408501550292958,0.5833472344970703,9.550051437072751,-0.6570039726443402,0.2125875888731423,9.787233608487757,-0.6737397481282545,0.3248133585611972,9.742804622395834,-0.0362396240234375,-0.0829696655273437,-0.243377685546875,0.448459532202744,-0.1851523794778963,0.0474511123285061,0.0626700265066966,0.3451392764136905,-0.122433617001488,24.97235755178464,-11.96319539835165,2.9191239316239352,68.15468187696808,-0.1630761242910769,5.40092592592591,37.86884116572318,35.856081708449395,32.54940545721388,1577395448.0,-27.71769149814615,-51.09905664598307,0.009688481
1771,1577395448.13,-0.5695805749511709,0.2625242120361328,9.885239669494627,-0.6186967460818402,0.146747043218845,9.637596004727992,-0.6737397481282545,0.3355872660319003,9.362126558430989,-0.7076263427734375,0.1306533813476562,-0.243377685546875,-0.4365502334222559,0.8829628548971036,0.0779686904535061,-0.1204354422433033,-0.2041771298363094,-0.107174827938988,24.008793916346,-10.064275493851389,4.013795405982902,69.31473585807468,1.7122993050563151,7.893660968660963,37.91676400994399,36.047773085332615,32.64525114565549,1577395448.0,-27.71769149814615,-51.09905664598307,0.009688481
1772,1577395448.14,-0.7012616662597655,0.4899733697509765,9.765529586486815,-0.7695314506716839,0.5609439304258762,10.585699862149864,-0.7982382344563795,0.4433263407389316,9.769140840657553,-0.1277923583984375,0.0696182250976562,0.183868408203125,-0.2534447646722559,0.2115761361471036,0.2305565810785061,0.0931876046316966,-0.6314232235863095,-0.3207978748139881,24.008793916346,-10.064275493851389,4.013795405982902,69.31473585807468,-2.2015276779295467,2.0772792022791817,37.9646868541648,35.95192739689101,32.64525114565549,1577395448.0,-27.71769149814615,-51.09905664598307,0.009688481
1773,1577395448.15,-0.3995922570800771,0.1715445489501953,9.41118774078369,-0.1302796074099652,0.4340512424375949,9.730969869474086,-0.7503542012532546,0.2996742411295566,10.045671132405602,0.2384185791015625,-0.0829696655273437,0.168609619140625,0.219577696265244,0.1963173470846035,-0.1661719345464938,0.1084463936941965,0.1009986514136905,-0.046139671688988,23.527012098626685,-12.153087388801676,4.378685897435903,69.12139352789026,-2.446141864366163,-2.9081908831909,37.86884116572319,35.80815886422859,32.45355976877228,1577395448.0,-27.71769149814615,-51.09905664598307,0.009688481
1774,1577395448.16,-0.5073313317871083,0.8107963922119139,10.574769747619628,-1.1119022880740277,-0.0878847194764664,10.782024398282678,-0.5396644551595046,0.4529031473795566,9.539297481282553,0.5130767822265625,0.0391006469726562,0.122833251953125,0.082248594702744,0.1200234017721036,0.5052147842035062,0.0016348702566966,-0.2346947079613094,-0.107174827938988,23.84819997710623,-12.91265535060178,3.466459668803423,69.12139352789026,-2.119989615784008,2.492735042735028,37.772995477281576,35.99985024111181,32.597328301434686,1577395448.0,-27.71769149814615,-51.09905664598307,0.009688481
1775,1577395448.17,-0.6318298181152343,0.418147319946289,9.930729501037597,-0.1039433891482464,0.8099409030821263,9.395781637052211,-0.6210673116048171,0.3595292826334629,9.472259834798177,-0.8602142333984375,0.2222061157226562,0.122833251953125,-0.924831483422256,1.0660683236471036,0.1390038467035061,0.0016348702566966,-0.4788353329613095,-0.3207978748139881,24.811763612544866,-9.874383503401363,6.385583600427351,69.31473585807468,-2.2015276779295467,-7.8936609686609795,37.772995477281576,35.99985024111181,32.597328301434686,1577395448.0,-27.71769149814615,-51.09905664598307,0.009688481
1776,1577395448.18,-0.4845864160156244,0.1464054315185547,9.074802407531738,-0.5947547294802777,0.2377267063047825,10.245723226407678,-0.7719020161946608,0.3834712992350254,9.908004536946615,-0.2040863037109375,-0.1440048217773437,-0.060272216796875,-0.0398217177972559,0.3031288705221036,0.0169335342035061,-0.0594002859933033,0.2535865420386905,0.0148954845610119,24.410278764445437,-10.72889746042648,5.382134748931625,67.96133954678365,-3.4245986101126284,-8.309116809116826,37.91676400994399,35.99985024111181,32.50148261299308,1577395448.0,-27.71769149814615,-51.09905664598307,0.009688481
1777,1577395448.19,-0.4570530969238271,0.4396951348876953,9.945094710998534,-0.4295548149294964,0.3370860752012668,9.507112014249476,-0.6605716389973951,0.3451640726725254,9.710482899983726,0.5435943603515625,0.2527236938476562,0.061798095703125,-0.3144799209222559,-0.3072226919778964,0.0779686904535061,0.0626700265066966,0.3603980654761904,0.0911894298735118,24.329981794825542,-10.44405947475144,4.3786858974359,68.63803770242916,-2.160758646856777,-3.115918803418822,37.725072633060776,36.02381166322221,32.57336687932428,1577395448.0,-27.71769149814615,-51.09905664598307,0.009688481
1778,1577395448.2,-0.5863399865722646,0.600106646118164,10.65617260406494,-1.1190848930544963,-0.121403542718654,11.021444564298305,-0.6857107564290358,0.4552973490397128,9.596758321126302,0.3604888916015625,0.2527236938476562,0.000762939453125,0.570529844702744,-0.9480918326028964,0.2305565810785061,0.0931876046316966,-0.5398704892113095,0.1064482189360119,22.402854523948275,-10.823843455651492,3.6489049145299135,67.96133954678365,-2.119989615784008,-0.8309116809117091,38.0605325426064,35.95192739689101,32.45355976877228,1577395448.0,-27.71769149814615,-51.09905664598307,0.009688481
1779,1577395448.21,-0.5767631799316396,0.5330689996337891,9.516532613830565,-0.0249347343630902,1.01823644751572,9.678297432950648,-0.7216237813313795,0.3738944925944004,9.860120503743492,-0.3414154052734375,0.0391006469726562,-0.060272216796875,-0.833278749047256,1.6764198861471036,-0.3492774032964938,-0.1509530203683033,-0.2957298642113095,-0.046139671688988,24.329981794825542,-11.583411417451597,5.108466880341885,67.96133954678365,-3.4245986101126284,2.492735042735028,37.91676400994399,35.99985024111181,32.6931739898763,1577395448.0,-27.71769149814615,-51.09905664598307,0.009688481
1780,1577395448.22,-0.3720589379882802,0.212245977172852,9.36569790924072,-0.4606794365115277,0.0533731784727512,9.996726253751428,-0.6378267232259108,0.2446076029459628,9.929552351888024,-0.2040863037109375,0.0696182250976562,-0.228118896484375,-0.2229271865472559,0.3946816048971036,0.4136620498285062,0.2152579171316966,0.3756568545386905,0.0148954845610119,24.329981794825542,-10.823843455651492,4.196240651709404,67.76799721659921,-1.8753754293473912,2.908190883190874,37.772995477281576,35.76023602000779,32.64525114565549,1577395448.0,-27.71769149814615,-51.09905664598307,0.009688481
1781,1577395448.23,-0.5695805749511709,0.427724126586914,9.80144261138916,-0.847343004626762,0.1826600681211887,9.601682979825648,-0.6234615132649733,0.360726383463541,9.523735170491536,-0.4024505615234375,0.4358291625976562,-0.060272216796875,-0.1008568740472559,0.3031288705221036,0.1084862685785061,-0.1051766531808033,-0.4178001767113095,3.722781226748512,23.366418159386907,-11.583411417451597,3.6489049145299135,68.44469537224472,-1.9976825225657,-0.4154558404558548,38.0605325426064,36.07173450744302,32.62128972354509,1577395448.0,-27.71769149814615,-51.09905664598307,0.009688481
1782,1577395448.24,-0.6318298181152343,0.0685938775634765,9.28429505279541,-0.3601229667849652,0.82670031470322,10.26966524300924,-0.8365454610188795,0.3475582743326816,10.099540669759117,-0.0057220458984375,0.2527236938476562,0.031280517578125,-0.1008568740472559,0.2115761361471036,-0.0135840439214938,0.0931876046316966,-0.3872825985863095,0.1064482189360119,23.84819997710623,-11.773303407901622,3.466459668803423,67.76799721659921,-3.179984423676012,3.73910256410255,37.725072633060776,35.95192739689101,32.789019678317906,1577395448.0,-27.71769149814615,-51.09905664598307,0.009688481
1783,1577395448.25,-0.4498704919433583,0.2673126153564453,9.53329202545166,-0.7024938041873089,0.0916804050352512,10.55696944222799,-0.8437280659993482,0.2829148295084628,10.13545369466146,0.6656646728515625,-0.4186630249023437,-0.029754638671875,0.204318907202744,0.0284706673971036,0.2610741592035062,0.1542227608816966,0.5282447451636905,0.1674833751860119,24.16938785558577,-11.01373544610152,3.831350160256412,67.76799721659921,-2.5276799265117016,2.908190883190874,37.91676400994399,36.14361877377422,32.50148261299308,1577395448.0,-27.71769149814615,-51.09905664598307,0.009688481
1784,1577395448.26,-0.4462791894531239,0.4971559747314453,10.185711977844235,-0.0656361625857464,0.6519235935118137,8.794837020352992,-0.5468470601399733,0.3212220560709629,9.704497395833332,0.0705718994140625,0.2527236938476562,-0.212860107421875,-0.3449974990472559,-0.2767051138528963,-0.1661719345464938,0.0931876046316966,0.1620338076636905,-0.168209984188988,24.329981794825542,-10.823843455651494,4.561131143162398,67.96133954678365,-2.4461418643661625,-8.309116809116826,37.725072633060776,35.99985024111181,32.6931739898763,1577395448.0,-27.71769149814615,-51.09905664598307,0.009688481
1785,1577395448.27,-0.7443572961425781,0.609683452758789,9.243593624572751,-0.759954644031059,0.4041237216856423,9.940462514737757,-0.6402209248860671,0.3439669718424473,9.47704823811849,-0.9212493896484376,0.2527236938476562,-0.151824951171875,-0.1924096084222559,0.6998573861471036,0.3678856826410061,0.1542227608816966,-0.4483177548363095,-0.198727562313988,24.811763612544866,-9.494599522501307,4.196240651709401,68.54136653733694,-2.446141864366163,-7.47820512820515,37.772995477281576,35.99985024111181,32.50148261299308,1577395448.0,-27.71769149814615,-51.09905664598307,0.009688481
1786,1577395448.28,-0.3756502404785146,-0.1804030950927734,8.448718673400878,-0.137462212390434,0.5633381320860325,9.106083236173305,-0.7455657979329421,0.3260104593912754,9.927158150227868,-0.7991790771484375,-0.3881454467773437,-0.029754638671875,-0.0093041396722559,-0.0325644888528963,0.2610741592035062,0.0016348702566966,-0.0210716610863094,0.3505888439360119,23.527012098626685,-9.874383503401363,5.290912126068384,69.31473585807468,-2.2015276779295467,-7.062749287749304,37.772995477281576,35.95192739689101,32.64525114565549,1577395448.0,-27.71769149814615,-51.09905664598307,0.009688481
1787,1577395448.29,-0.3804386437988271,0.312802446899414,9.569205050354002,-0.6761575859255902,0.02224855689072,10.26966524300924,-1.3058089864095046,0.2470018046061191,9.82899588216146,0.9098052978515624,-0.2965927124023437,0.183868408203125,0.143283750952744,-0.3987754263528963,-0.1051367782964938,0.0931876046316966,0.5587623232886905,-0.046139671688988,22.88463634166759,-10.633951465201466,5.290912126068384,67.76799721659921,-2.2015276779295467,-8.724572649572671,37.9646868541648,35.99985024111181,32.50148261299308,1577395448.0,-27.71769149814615,-51.09905664598307,0.009688481
1788,1577395448.3,-0.5791573815917963,0.5941211419677733,10.432314748840332,-0.5648272087283246,0.3275092685606418,9.973981337979945,-0.5959281941731764,0.446917643229166,9.667387270100912,0.4062652587890625,0.1916885375976562,-0.121307373046875,-0.818019959984756,0.7456337533346036,0.0779686904535061,0.0321524483816966,-0.2499534970238094,-0.183468773251488,22.88463634166759,-11.203627436551544,5.290912126068384,67.96133954678365,-2.772294112948318,3.3236467236467035,37.89280258783359,35.97588881900141,32.47752119088268,1577395448.0,-27.71769149814615,-51.09905664598307,0.009688481
1789,1577395448.31,-0.3924096520996083,0.1811213555908203,8.944318417053221,-0.0560593559451214,0.9440161960508764,10.12840734506002,-0.7766904195149733,0.4313553324381504,9.972647981770836,-0.2498626708984375,-0.4186630249023437,-0.182342529296875,0.112766172827744,0.7914101205221036,-0.1051367782964938,0.1542227608816966,-0.0821068173363094,0.1369657970610119,24.16938785558577,-11.393519427001571,4.56113114316239,68.3480242071525,-1.9569134914929305,-4.985470085470089,37.91676400994399,36.14361877377422,32.64525114565549,1577395448.0,-27.71769149814615,-51.09905664598307,0.009688481
1790,1577395448.32,-0.5025429284667958,0.303225640258789,9.463860177307128,-0.328998345202934,0.280822336187595,9.534645333341274,-0.697681764729817,0.2206655863444003,9.83617848714193,-0.2498626708984375,0.1916885375976562,-0.212860107421875,-0.619655702172256,0.6693398080221036,0.3526268935785062,0.0321524483816966,0.3451392764136905,0.1064482189360119,24.49057573406532,-9.874383503401363,4.926021634615379,68.15468187696808,-2.8538321750938573,-7.062749287749304,37.772995477281576,35.76023602000779,32.64525114565549,1577395448.0,-27.71769149814615,-51.09905664598307,0.009688481
1791,1577395448.33,-0.5959167932128896,0.4157531182861328,10.320984371643066,-1.0951428764529338,-0.0711253078553727,10.21938700814596,-0.6282499165852858,0.3260104593912754,9.491413448079427,-0.1277923583984375,0.4663467407226562,-0.273895263671875,0.051731016577744,-0.7039512076028964,-0.5629004501714938,0.1847403390066966,0.1620338076636905,-0.076657249813988,23.68760603786645,-12.3429793792517,4.3786858974359,68.15468187696808,-2.8538321750938573,-7.062749287749304,37.91676400994399,35.76023602000779,32.50148261299308,1577395448.0,-27.71769149814615,-51.09905664598307,0.009688481
1792,1577395448.34,-0.7443572961425781,0.5474342095947266,9.643425301818846,-0.3529403618044965,0.4029266208555637,9.920111800626428,-0.726412184651692,0.3870626017252597,9.746395924886068,-0.0972747802734375,0.1306533813476562,-0.365447998046875,-0.2229271865472559,0.5625282845846036,-0.0593604111089938,0.1389639718191966,-0.2957298642113095,0.0759306408110119,24.329981794825542,-10.823843455651492,5.108466880341885,68.34802420715252,-2.772294112948318,-8.309116809116826,37.725072633060776,35.856081708449395,32.7171354119867,1577395448.0,-27.71769149814615,-51.09905664598307,0.009688481
1793,1577395448.35,-0.3816357446289052,0.1847126580810551,9.444706564025878,-0.8485401054568401,0.27124552954697,10.501902804044397,-0.7814788228352858,0.2733380228678378,10.003772603352868,0.0247955322265625,0.0543594360351561,-0.136566162109375,0.601047422827744,-0.2767051138528963,0.0169335342035061,0.0016348702566966,0.5892799014136905,0.4116240001860119,24.329981794825542,-10.823843455651492,5.108466880341885,68.54136653733694,-2.2015276779295467,-8.724572649572671,37.89280258783359,35.80815886422859,32.6931739898763,1577395448.0,-27.71769149814615,-51.09905664598307,0.009688481
1794,1577395448.36,-0.4762067102050771,0.7677007623291014,10.230004708557129,-0.1518274223513714,0.5010888889219699,8.81399063363424,-0.496568825276692,0.4098075174967441,9.805053865559897,0.3604888916015625,-0.1134872436523437,-0.212860107421875,-0.619655702172256,0.5167519173971036,-0.1661719345464938,0.1542227608816966,0.2841041201636905,-0.046139671688988,24.008793916346,-11.203627436551546,4.013795405982902,67.76799721659921,-2.038451553638469,-7.8936609686609795,37.91676400994399,36.14361877377422,32.83694252253871,1577395448.0,-27.71769149814615,-51.09905664598307,0.009688481
1795,1577395448.37,-0.7299920861816406,0.2792836236572266,9.921152694396971,-1.1190848930544963,-0.0328180812928727,9.948842220548302,-0.6306441182454421,0.3858655008951816,9.41958739827474,-0.7076263427734375,0.4053115844726562,-0.029754638671875,0.143283750952744,-0.3682578482278963,0.5662499404535062,0.1847403390066966,-0.2652122860863095,-0.3513154529389881,24.65116967330509,-10.44405947475144,3.2840144230769246,67.76799721659921,-2.038451553638469,-7.062749287749304,37.772995477281576,35.80815886422859,32.45355976877228,1577395448.0,-27.71769149814615,-51.09905664598307,0.009688481
1796,1577395448.38,-0.5013458276367182,0.1607706414794922,9.013750265197752,-0.3912475883669965,0.6315728794004857,9.472396090177211,-0.7754933186848951,0.3535437784830723,9.927158150227866,0.1773834228515625,-0.3728866577148437,0.046539306640625,-0.3144799209222559,0.2268349252096036,-0.0288428329839938,0.1084463936941966,-0.1736595517113095,-0.030880882626488,24.49057573406532,-11.773303407901622,4.926021634615379,68.44469537224474,-2.405372833293393,-6.855021367521388,37.820918321502376,35.97588881900141,32.74109683409711,1577395448.0,-27.71769149814615,-51.09905664598307,0.009688481
1797,1577395448.39,-0.5360617517089833,0.4444835382080078,10.012132357482908,-0.8676937187380902,0.19463107642197,9.953630623868616,-0.6474035298665358,0.3499524759928379,9.670978572591146,0.3910064697265625,-0.1440048217773437,-0.060272216796875,-0.619655702172256,0.3641640267721036,-0.5323828720464938,0.1542227608816966,0.2230689639136905,-0.015622093563988,24.49057573406532,-11.773303407901622,4.926021634615379,65.44788925438598,-2.2015276779295467,3.73910256410255,37.725072633060776,35.99985024111181,32.789019678317906,1577395448.0,-27.71769149814615,-51.09905664598307,0.009688481
1798,1577395448.4,-0.6102820031738271,0.7317877374267577,10.584346554260254,-1.0352878349490275,-0.0615485012147477,10.33430868783346,-0.6857107564290358,0.4600857523600253,9.599152522786458,-0.0972747802734375,0.2222061157226562,-0.365447998046875,0.662082579077744,-0.1851523794778963,0.4136620498285062,0.1237051827566966,-0.6314232235863095,-0.137692406063988,24.008793916346,-10.823843455651492,4.013795405982902,67.76799721659921,-2.2015276779295467,3.73910256410255,37.9646868541648,36.19154161799503,32.789019678317906,1577395448.0,-27.71769149814615,-51.09905664598307,0.009688481
1799,1577395448.41,-0.5911283898925771,0.4325125299072265,9.286689254455563,0.1929376167111275,0.6998076267149388,9.80519012093893,-0.7886614278157545,0.2422134012858066,9.915187141927088,-0.7076263427734375,0.2222061157226562,-0.182342529296875,-0.4365502334222559,1.0965859017721036,-0.4103125595464938,0.0626700265066966,-0.4788353329613095,-0.046139671688988,24.16938785558577,-9.874383503401363,4.56113114316239,67.76799721659921,-2.038451553638469,7.062749287749271,37.91676400994399,35.856081708449395,32.6931739898763,1577395448.0,-27.71769149814615,-51.09905664598307,0.009688481
1800,1577395448.42,-0.3912125512695302,0.1811213555908203,9.254367532043457,-1.1765457328982465,0.1347760349180637,10.377404317716271,-0.7719020161946608,0.2182713846842441,9.757169832356771,0.0858306884765625,-0.1287460327148437,-0.121307373046875,0.478977110327744,-0.1546348013528963,0.3831444717035062,-0.0288827078683033,0.5282447451636905,-0.137692406063988,24.16938785558577,-11.01373544610152,5.655802617521372,67.96133954678365,1.7938373672018535,-8.309116809116826,37.82091832150238,36.047773085332615,32.50148261299308,1577395448.0,-27.71769149814615,-51.09905664598307,0.009688481
1801,1577395448.43,-0.5312733483886708,0.5139153863525391,10.249158321838378,-0.5696156120486371,0.0928775058653293,9.362262813810023,-0.6126876057942702,0.437340836588541,9.500990254720053,0.2689361572265625,0.2222061157226562,-0.273895263671875,0.021213438452744,-0.1393760122903963,-0.2729834579839938,0.0321524483816966,-0.1278831845238094,-0.122433617001488,24.16938785558577,-11.01373544610152,5.655802617521372,68.63803770242916,-2.160758646856778,-0.2077279202279398,37.91676400994399,35.95192739689101,32.52544403510348,1577395448.0,-27.71769149814615,-51.09905664598307,0.009688481
1802,1577395448.44,-0.7323862878417968,0.3535038751220703,9.799048409729004,-0.7551662407107465,0.568126535406345,10.31994347787252,-0.7192295796712233,0.3691060892740879,9.812236470540368,-0.3108978271484375,0.3137588500976562,-0.212860107421875,0.173801329077744,-0.4903281607278963,0.5052147842035062,0.0626700265066966,-0.7229759579613095,-0.046139671688988,24.16938785558577,-8.355247579801153,5.290912126068384,67.96133954678365,-2.772294112948318,-7.47820512820515,37.725072633060776,35.856081708449395,32.6931739898763,1577395448.0,-27.71769149814615,-51.09905664598307,0.009688481
1803,1577395448.45,-0.524090743408202,0.1906981622314453,9.186132784729002,-0.5851779228396528,0.3526483859922824,9.685480037931118,-0.8173918477376295,0.2637612162272129,10.159395711263024,-0.2803802490234375,-0.4491806030273437,-0.182342529296875,1.089328672827744,-0.6734336294778964,-0.1051367782964938,0.3068106515066966,0.2535865420386905,0.1674833751860119,24.008793916346,-11.583411417451597,5.473357371794874,67.96133954678365,-2.772294112948318,-7.47820512820515,37.725072633060776,35.856081708449395,32.789019678317906,1577395448.0,-27.71769149814615,-51.09905664598307,0.009688481
1804,1577395448.46,-0.4738125085449208,0.4289212274169921,10.08754970977783,-0.4343432182498089,0.2281498996641575,9.620836593106898,-0.6138847066243482,0.360726383463541,9.760761134847009,0.3757476806640625,0.0696182250976562,-0.060272216796875,-0.0703392959222559,-0.4903281607278963,0.0474511123285061,0.1542227608816966,0.2535865420386905,-0.061398460751488,24.329981794825542,-10.064275493851389,4.013795405982902,68.34802420715252,-2.2015276779295467,7.062749287749271,37.91676400994399,35.999850241111815,32.52544403510348,1577395448.0,-27.71769149814615,-51.09905664598307,0.009688481
1805,1577395448.47,-0.6629544396972655,0.6886921075439452,10.052833785705566,-0.4774388481326215,0.3861672092344699,9.608865584806118,-0.6569803365071608,0.3810770975748691,9.551268489583332,-0.5550384521484375,0.4358291625976562,0.061798095703125,-1.565700624047256,1.4933144173971036,0.5052147842035062,0.0626700265066966,-0.6924583798363095,-0.229245140438988,24.329981794825542,-10.064275493851389,4.013795405982902,69.31473585807468,-2.038451553638469,-8.724572649572671,37.772995477281576,35.99985024111181,32.64525114565549,1577395448.0,-27.71769149814615,-51.09905664598307,0.009688481
1806,1577395448.48,-0.5600037683105459,-0.0295683905029287,8.666591024475096,-0.7288300224490276,0.4005324191954074,10.961589522794396,-0.8437280659993482,0.3236162577311191,9.860120503743492,-0.8602142333984375,0.2527236938476562,0.061798095703125,0.540012266577744,0.0895058236471036,-0.0746192001714938,0.0626700265066966,-0.1736595517113094,-0.3513154529389881,24.329981794825542,-10.823843455651492,5.108466880341885,68.54136653733694,-2.8538321750938573,-8.724572649572671,37.9646868541648,35.99985024111181,32.64525114565549,1577395448.0,-27.71769149814615,-51.09905664598307,0.009688481
1807,1577395448.49,-0.3828328454589833,0.1643619439697265,9.032903878479004,-0.1542216240115277,0.4603874606993137,9.836314742520958,-0.8173918477376295,0.3379814676920566,9.795477058919271,0.0553131103515625,-0.2660751342773437,-0.151824951171875,-0.0703392959222559,-0.0325644888528963,0.4441796279535062,0.1237051827566966,0.5282447451636905,-0.2597627185639881,24.97235755178464,-12.3429793792517,5.108466880341885,67.76799721659921,-2.8538321750938573,-8.724572649572671,37.9646868541648,35.95192739689101,32.45355976877228,1577395448.0,-27.71769149814615,-51.09905664598307,0.009688481
1808,1577395448.5,-0.5097255334472646,0.5570110162353514,10.251552523498534,-0.7755169548220745,0.2939904453184543,9.902155288175257,-0.6102934041341139,0.4397350382486972,9.629080043538412,0.5283355712890625,0.2374649047851562,0.168609619140625,0.036472227515244,-0.2461875357278963,0.0321923232660061,0.0626700265066966,-0.3872825985863095,-0.015622093563988,24.16938785558577,-12.532871369701729,6.020693108974362,67.76799721659921,-2.2015276779295467,-8.724572649572671,37.91676400994399,35.8800431305598,32.57336687932428,1577395448.0,-27.71769149814615,-51.09905664598307,0.009688481
1809,1577395448.51,-0.6270414147949218,0.5402516046142578,9.363303707580563,0.5831924873165962,0.8961321628477512,9.874621969083458,-0.7240179829915357,0.3906539042154941,9.94391756184896,-0.2193450927734375,0.2222061157226562,-0.243377685546875,-0.711208436547256,1.7679726205221036,-0.5018652939214938,0.2152579171316966,-0.4788353329613095,-0.198727562313988,24.16938785558577,-12.532871369701729,6.020693108974362,69.894762848628,-2.6092179886572406,9.97094017094016,37.91676400994399,35.80815886422859,32.50148261299308,1577395448.0,-27.71769149814615,-51.09905664598307,0.009688481
1810,1577395448.52,-0.4043806604003896,-0.0559046087646474,8.724051864318847,-0.5133518730349652,0.4627816623594699,9.958419027188928,-0.6713455464680983,0.2541844095865878,10.00856100667318,-0.4024505615234375,-0.3271102905273437,-0.212860107421875,-0.2534447646722559,-0.4292930044778963,0.6578026748285062,0.0931876046316966,0.2841041201636905,0.3811064220610119,24.97235755178464,-11.583411417451597,4.743576388888888,62.35441197143501,-2.2015276779295467,-5.400925925925935,37.772995477281576,35.99985024111181,32.789019678317906,1577395448.0,-27.71769149814615,-51.09905664598307,0.009688481
1811,1577395448.53,-0.5061342309570303,0.5677849237060546,10.020512063293456,-1.028105229968559,0.0916804050352512,9.893775582364707,-0.5779716817220045,0.3643176859537754,9.723651009114583,0.2841949462890625,0.3747940063476562,-0.121307373046875,-0.1924096084222559,0.0284706673971036,-0.4713477157964938,-0.0594002859933033,0.1925513857886905,0.1064482189360119,24.41027876444544,-11.488465422226584,4.652353766025639,67.76799721659921,-2.5276799265117016,-8.724572649572671,38.0126096983856,35.856081708449395,32.64525114565549,1577395448.0,-27.71769149814615,-51.09905664598307,0.009688481
1812,1577395448.54,-0.6988674645996092,0.2816778253173828,9.60272387359619,-0.7348155265994183,0.2796252353575168,10.000317556241662,-0.707258571370442,0.3750915934244785,9.600349623616538,-0.5855560302734375,0.3747940063476562,-0.212860107421875,-0.222927186547256,-0.1088584341653964,0.0016747451410061,0.0321524483816966,-0.3262474423363095,-0.061398460751488,24.16938785558577,-10.633951465201466,4.56113114316239,68.15468187696808,-1.8753754293473912,-8.724572649572671,37.9646868541648,35.9040045526702,32.64525114565549,1577395448.0,-27.71769149814615,-51.09905664598307,0.009688481
1813,1577395448.55,-0.4450820886230458,-0.0511162054443349,9.013750265197752,-0.4223722099490277,0.3598309909727512,9.398175838712367,-0.8724584859212233,0.2541844095865878,10.063627644856776,-0.0667572021484375,-0.1134872436523437,0.031280517578125,1.730197813452744,-0.7344687857278964,-0.1051367782964938,0.2152579171316966,0.0094459170386905,-0.015622093563988,24.16938785558577,-10.633951465201466,4.56113114316239,68.3480242071525,-2.119989615784008,-4.985470085470089,37.9646868541648,35.856081708449395,32.597328301434686,1577395448.0,-27.71769149814615,-51.09905664598307,0.009688481
1814,1577395448.56,-0.2559401574707021,0.4803965631103515,9.54526303375244,-0.3696997734255902,0.0629499851133762,9.343109200528774,-0.6545861348470046,0.3379814676920566,9.934340755208336,0.9403228759765624,-0.2660751342773437,0.092315673828125,-0.711208436547256,0.2726112923971036,0.0474511123285061,0.1542227608816966,0.6197974795386905,0.1980009533110119,24.65116967330509,-9.684491512951334,6.568028846153849,67.76799721659921,-2.2015276779295467,-8.724572649572671,37.725072633060776,35.99985024111181,32.789019678317906,1577395448.0,-27.71769149814615,-51.09905664598307,0.009688481
1815,1577395448.57,-0.5983109948730463,0.6312312677001952,10.277888741760252,-0.6713691826052777,0.1730832614805637,9.683085836270962,-0.5037514302571608,0.4050191141764316,9.524932271321614,-0.2346038818359375,0.4205703735351562,-0.167083740234375,0.417941954077744,-0.7344687857278964,0.1390038467035061,0.0626700265066966,-0.0210716610863094,-0.015622093563988,24.329981794825542,-11.583411417451597,4.926021634615386,68.54136653733694,-2.2015276779295467,-8.724572649572671,37.9646868541648,36.14361877377422,32.6931739898763,1577395448.0,-27.71769149814615,-51.09905664598307,0.009688481
1816,1577395448.58,-0.5671863732910146,0.0973242974853515,8.582793966369628,-0.6701720817751995,0.42447443579697,10.05179289193502,-0.7958440327962233,0.3882597025553378,9.709285799153646,-0.7381439208984375,0.1001358032226562,-0.334930419921875,-0.6959496474847561,0.3183876595846036,0.3373681045160061,0.0931876046316966,3.2443091982886907,0.0606718517485119,24.811763612544866,-11.773303407901622,4.926021634615379,67.76799721659921,-3.179984423676012,-8.724572649572671,37.725072633060776,36.07173450744301,32.6931739898763,1577395448.0,-27.71769149814615,-51.09905664598307,0.009688481
1817,1577395448.59,-0.3852270471191396,-0.2426523382568359,8.937135812072754,-0.041694145984184,0.6758656101133762,10.279242049649865,-0.8102092427571608,0.3643176859537754,10.125876888020835,0.0858306884765625,-0.2965927124023437,0.000762939453125,1.089328672827744,-0.0020469107278963,0.1084862685785061,0.3678458077566966,0.4672095889136905,-0.015622093563988,24.811763612544866,-11.773303407901622,4.926021634615379,68.15468187696808,-1.5492231807652364,-8.724572649572671,37.86884116572318,35.856081708449395,32.6931739898763,1577395448.0,-27.71769149814615,-51.09905664598307,0.009688481
1818,1577395448.6,-0.5049371301269521,0.7126341241455078,10.493366891174317,0.2336390449337837,0.8099409030821263,8.756529793790492,-0.6234615132649733,0.4552973490397128,9.72604521077474,0.9098052978515624,-0.0829696655273437,0.000762939453125,-0.772243592797256,0.5472694955221036,-0.4103125595464938,-0.0288827078683033,0.1009986514136905,0.0148954845610119,23.84819997710623,-10.254167484301416,4.926021634615379,68.3480242071525,-2.6092179886572406,-8.309116809116826,37.91676400994399,35.95192739689101,32.597328301434686,1577395448.0,-27.71769149814615,-51.09905664598307,0.009688481
1819,1577395448.61,-0.5623979699707021,0.5115211846923828,9.997767147521971,-0.5360967888064501,0.1455499423887668,9.769277096036586,-0.6294470174153639,0.466071256510416,9.627882942708332,-0.3108978271484375,0.8935928344726562,0.000762939453125,-0.528102967797256,0.5777870736471037,-0.2119483017339938,0.0779288155691966,-0.5703880673363095,-0.000363304501488,24.008793916346,-11.583411417451597,4.3786858974359,66.22125857512371,-3.3430605479670894,4.570014245014226,37.725072633060776,35.95192739689101,32.6931739898763,1577395448.0,-27.71769149814615,-51.09905664598307,0.009688481
1820,1577395448.62,-0.4893748193359364,0.1164779107666015,9.053254592590331,-0.989798003406059,0.1228050266172825,10.95201271615377,-0.7886614278157545,0.3116452494303379,9.819419075520836,-0.3261566162109375,-0.2202987670898437,-0.136566162109375,1.333469297827744,-0.4598105826028963,0.0779686904535061,0.2457754952566966,-0.0515892392113094,-0.015622093563988,24.410278764445437,-11.108681441326532,3.740127537393163,63.90115061291049,-3.179984423676012,4.570014245014226,37.86884116572319,36.19154161799503,32.6931739898763,1577395448.0,-27.71769149814615,-51.09905664598307,0.009688481
1821,1577395448.63,-0.4331110803222646,0.3726574884033203,9.849326644592283,-0.0105695244021527,0.3047643527891575,8.684703743985803,-0.7192295796712233,0.3403756693522128,9.74519882405599,0.0247955322265625,-0.1745223999023437,-0.090789794921875,-1.016384217797256,0.2420937142721036,0.3831444717035062,0.1847403390066966,0.4366920107886905,0.1064482189360119,24.811763612544866,-11.773303407901622,3.831350160256412,62.741096631803885,-3.179984423676012,1.2463675213675056,37.725072633060776,35.95192739689101,32.50148261299308,1577395448.0,-27.71769149814615,-51.09905664598307,0.009688481
1822,1577395448.64,-0.6294356164550781,0.7078457208251953,10.332955379943847,-0.3361809501834027,0.0198543552305637,9.558587349942837,-0.5995194966634108,0.3427698710123691,9.579998909505209,0.2994537353515625,0.3747940063476562,0.031280517578125,0.082248594702744,-0.2156699576028963,-0.3492774032964938,0.0626700265066966,0.0094459170386905,0.0759306408110119,24.811763612544866,-11.773303407901622,3.831350160256412,62.35441197143501,-2.2015276779295467,1.2463675213675056,37.725072633060776,35.95192739689101,32.789019678317906,1577395448.0,-27.71769149814615,-51.09905664598307,0.009688481
1823,1577395448.65,-0.5360617517089833,0.2912546319580078,8.975443038635254,-0.6306677543826215,0.5824917453672825,9.82194953256002,-0.7886614278157545,0.4385379374186191,10.101934871419274,-0.4024505615234375,0.6494522094726562,-0.060272216796875,-0.573879334984756,0.5625282845846036,0.3984032607660062,0.0931876046316965,-0.2804710751488095,-0.061398460751488,24.811763612544866,-12.91265535060178,3.831350160256412,67.76799721659921,-2.038451553638469,4.570014245014226,37.9646868541648,35.927965974780605,32.64525114565549,1577395448.0,-27.71769149814615,-51.09905664598307,0.009688481
1824,1577395448.66,-0.398395156249999,0.2613271112060547,9.570402151184082,-0.5277170829959027,0.6184047702696263,10.621612887052208,-0.8341512593587233,0.3475582743326816,10.137847896321617,0.2689361572265625,-0.1592636108398437,-0.090789794921875,0.692600157202744,-0.5208457388528964,0.3221093154535062,0.2152579171316966,0.3756568545386905,0.0148954845610119,24.811763612544866,-11.01373544610152,3.831350160256408,68.15468187696808,-2.2015276779295467,-6.231837606837628,37.94072543205439,35.95192739689101,31.83056279390182,1577395448.0,-27.71769149814615,-51.09905664598307,0.009688481
1825,1577395448.67,-0.5073313317871083,0.6839037042236327,10.421540841369628,0.0014014838986275,0.9248625827696264,8.888210885099086,-0.611490504964192,0.2613670145670566,9.793082857259114,-0.2498626708984375,0.4053115844726562,-0.090789794921875,-0.4365502334222559,0.8829628548971036,-0.4103125595464938,0.0626700265066966,0.1315162295386905,0.1674833751860119,24.329981794825542,-11.583411417451597,5.108466880341885,63.32112362235719,-1.9569134914929305,0.8309116809116759,37.86884116572318,35.856081708449395,32.64525114565549,1577395448.0,-27.71769149814615,-51.09905664598307,0.009688481
1826,1577395448.68,-0.7180210778808592,0.427724126586914,9.71764555328369,-1.3465340507693402,-0.4925048000428727,10.011091463712363,-0.6138847066243482,0.4409321390787754,9.383674373372395,-0.9212493896484376,0.4968643188476562,-0.151824951171875,-0.1313744521722559,-0.9786094107278964,0.2000390029535061,0.0321524483816966,-0.6009056454613095,-0.015622093563988,24.329981794825542,-11.583411417451597,5.108466880341885,63.90115061291049,-2.364603802220624,1.2463675213675056,37.91676400994399,35.95192739689101,32.64525114565549,1577395448.0,-27.71769149814615,-51.09905664598307,0.009688481
1827,1577395448.69,-0.4702212060546869,-0.0367509954833984,8.82460833404541,0.0061898872189405,0.5238338046934544,9.420920754483852,-0.7395802937825514,0.3547408793131504,9.651824959309897,-0.2193450927734375,-0.2050399780273437,0.092315673828125,-0.4823266006097559,0.9897743783346036,0.0321923232660061,-0.0136239188058033,-0.1431419735863094,-0.000363304501488,24.65116967330509,-11.01373544610152,4.56113114316239,63.70780828272606,-2.8538321750938573,0.8309116809116677,37.91676400994399,35.99985024111181,32.62128972354509,1577395448.0,-27.71769149814615,-51.09905664598307,0.009688481
1828,1577395448.7,-0.5025429284667958,0.7389703424072265,10.840526131896972,-1.0544414482302775,-0.0711253078553727,11.25847052865377,-0.793449831136067,0.2493960062662753,9.996589998372398,0.8487701416015625,0.1306533813476562,0.183868408203125,-0.1313744521722559,-1.3753379263528964,-0.2577246689214938,0.0626700265066966,0.8029029482886905,0.1064482189360119,22.72404240242782,-11.583411417451597,4.3786858974359,61.58104265069727,-2.364603802220624,-5.400925925925935,38.0605325426064,35.99985024111181,32.789019678317906,1577395448.0,-27.71769149814615,-51.09905664598307,0.009688481
1829,1577395448.71,-0.5935225915527333,0.8706514337158202,10.56758714263916,-0.0225405327029339,0.6902308200743138,8.780471810392054,-0.5971252950032545,0.3810770975748691,9.757169832356771,-0.0667572021484375,0.4053115844726562,-0.029754638671875,1.119846250952744,0.7914101205221036,-0.1356543564214938,-0.2425057547433033,0.0399634951636905,0.2590361095610119,25.29354543026418,-11.583411417451597,4.743576388888888,67.76799721659921,-2.2015276779295467,-5.400925925925935,38.10845538682721,35.95192739689101,32.789019678317906,1577395448.0,-27.71769149814615,-51.09905664598307,0.009688481
1830,1577395448.72,-0.639012423095703,0.1260547174072265,9.370486312561034,-1.0616240532107464,-0.1812585842225602,9.97757264047018,-0.6306441182454421,0.4002307108561191,9.54648008626302,-0.7686614990234375,0.4968643188476562,-0.182342529296875,-1.382595155297256,-0.5818808951028964,0.7798729873285062,0.0626700265066966,-0.6619408017113095,0.1980009533110119,25.29354543026418,-11.583411417451597,4.743576388888888,67.76799721659921,-2.2015276779295467,-5.400925925925935,37.9646868541648,35.99985024111181,32.64525114565549,1577395448.0,-27.71769149814615,-51.09905664598307,0.009688481
1831,1577395448.73,-0.4833893151855458,-0.0343567938232412,8.831790939025877,-0.3505461601443402,0.7141728366758763,9.581332265714318,-0.7371860921223952,0.3307988627115878,9.872091512044271,-0.4329681396484375,-0.3881454467773437,-0.273895263671875,0.524753477515244,0.7608925423971036,0.0169335342035061,0.0474112374441966,0.0399634951636905,0.0911894298735118,23.045230280907365,-11.96319539835165,3.6489049145299135,65.73790274966264,-2.4869108954389327,-1.8695512820513,38.0605325426064,36.02381166322221,32.57336687932428,1577395448.0,-27.71769149814615,-51.09905664598307,0.009688481
1832,1577395448.74,-0.5001487268066396,0.5617994195556639,10.195288784484864,-0.1039433891482464,0.2927933444883762,8.948065926602993,-0.5947310933430983,0.2805206278483066,10.192914534505212,0.2689361572265625,0.1459121704101562,0.031280517578125,-0.1008568740472559,-0.1241172232278963,-0.1661719345464938,0.0931876046316966,0.1315162295386905,0.0454130626860119,24.97235755178464,-11.203627436551544,4.196240651709404,63.12778129217276,-3.5061366722581666,-8.724572649572671,37.91676400994399,35.95192739689101,32.64525114565549,1577395448.0,-27.71769149814615,-51.09905664598307,0.009688481
1833,1577395448.75,-0.639012423095703,0.4923675714111328,9.511744210510251,-0.865299517077934,0.19463107642197,9.865045162442836,-0.688104958089192,0.4169901224772129,9.474654036458332,-0.3108978271484375,0.4358291625976562,-0.151824951171875,-1.199489686547256,-0.3682578482278963,0.8714257217035062,0.0626700265066966,-0.7229759579613095,-0.076657249813988,24.811763612544866,-12.91265535060178,3.831350160256412,61.58104265069727,-1.8753754293473912,-7.062749287749304,37.772995477281576,35.80815886422859,32.64525114565549,1577395448.0,-27.71769149814615,-51.09905664598307,0.009688481
1834,1577395448.76,-0.4331110803222646,-0.1013944403076162,8.724051864318847,-0.6019373344607465,0.8243061130430638,9.510703316739711,-0.7383831929524732,0.5247291971842442,9.761958235677085,-0.4024505615234375,-0.3576278686523437,-0.182342529296875,0.906223204077744,0.6388222298971036,-0.3797949814214938,-0.0288827078683033,-0.4788353329613095,-0.107174827938988,23.527012098626685,-11.393519427001571,5.655802617521372,63.12778129217276,-1.8753754293473912,-7.062749287749304,37.91676400994399,35.856081708449395,32.64525114565549,1577395448.0,-27.71769149814615,-51.09905664598307,0.009688481
1835,1577395448.77,-0.3229778039550771,0.360686480102539,9.614694881896972,-0.0129637260623089,0.5178483005430637,10.394163729337365,-0.8461222676595045,0.2278481913248691,9.98222478841146,0.6046295166015625,-0.4491806030273437,-0.029754638671875,0.143283750952744,0.7303749642721036,0.2610741592035062,0.1847403390066966,0.1315162295386905,0.3200712658110119,23.527012098626685,-11.393519427001571,5.655802617521372,68.15468187696808,-2.2015276779295467,-7.8936609686609795,37.91676400994399,36.047773085332615,32.50148261299308,1577395448.0,-27.71769149814615,-51.09905664598307,0.009688481
1836,1577395448.78,-0.5013458276367178,0.7174225274658202,10.29943655670166,-0.1207028007693402,0.9775350192930636,9.47957869515768,-0.554029665120442,0.2589728129069004,9.654219160970053,0.1010894775390625,0.2679824829101562,-0.060272216796875,0.295871641577744,-0.0020469107278963,-0.0135840439214938,0.0321524483816966,0.0094459170386905,0.0148954845610119,24.65116967330509,-11.393519427001571,5.108466880341881,67.76799721659921,-2.2015276779295467,-6.231837606837628,37.89280258783359,36.19154161799503,32.64525114565549,1577395448.0,-27.71769149814615,-51.09905664598307,0.009688481
1837,1577395448.79,-0.677319649658203,0.1092953057861328,9.241199422912596,-0.856919811267387,0.2676542270567361,9.862650960782675,-0.6450093282063796,0.4325524332682285,9.596758321126302,-1.0738372802734375,0.2832412719726562,-0.212860107421875,-0.3449974990472559,-0.6886924185403964,0.3526268935785062,0.0168936593191966,-0.5398704892113095,-0.168209984188988,24.329981794825542,-11.583411417451597,4.013795405982902,61.7743849808817,-2.119989615784008,3.3236467236467035,37.9646868541648,36.047773085332615,32.54940545721389,1577395448.0,-27.71769149814615,-51.09905664598307,0.009688481
1838,1577395448.8,-0.5073313317871083,-0.0319625921630849,8.563640353088378,0.3844737495236275,0.8985263645079075,9.304801973966274,-0.7814788228352858,0.3619234842936191,10.111511678059898,-0.0057220458984375,-0.5102157592773438,-0.151824951171875,-0.4975853896722559,1.7374550423971036,-0.0135840439214938,0.2762930733816966,0.1009986514136905,0.1064482189360119,24.008793916346,-12.3429793792517,3.6489049145299135,67.96133954678365,-1.9569134914929305,4.985470085470055,37.9646868541648,36.047773085332615,32.64525114565549,1577395448.0,-27.71769149814615,-51.09905664598307,0.009688481
1839,1577395448.81,-0.4283226770019521,0.3247734552001953,9.897210677795409,-0.5325054863162152,0.0940746066954075,10.458807174161583,-0.707258571370442,0.3284046610514316,10.070810249837242,0.8792877197265625,-0.1745223999023437,0.031280517578125,0.265354063452744,-1.1311973013528964,-0.6849707626714938,-0.0594002859933033,0.5282447451636905,0.1064482189360119,24.008793916346,-12.3429793792517,3.6489049145299135,67.76799721659921,-1.7122993050563138,-7.062749287749304,37.772995477281576,35.66439033156618,32.64525114565549,1577395448.0,-27.71769149814615,-51.09905664598307,0.009688481
1840,1577395448.82,-0.5552153649902334,0.7102399224853515,10.411964034729005,-0.7348155265994183,0.0749209934141575,9.775262600186975,-0.6725426472981764,0.4517060465494785,9.662598866780598,0.0553131103515625,0.3290176391601562,-0.014495849609375,-0.3907738662347559,-0.0020469107278962,0.0474511123285061,-0.1356942313058033,-0.3872825985863095,0.0911894298735119,24.008793916346,-12.532871369701729,4.926021634615383,68.15468187696808,-2.6092179886572406,-7.47820512820515,37.772995477281576,35.83212028633899,32.597328301434686,1577395448.0,-27.71769149814615,-51.09905664598307,0.009688481
1841,1577395448.83,-0.4738125085449208,-0.0774524237060537,8.575611361389159,-0.635456157702934,0.4484164523985324,10.67907372689596,-0.7383831929524732,0.3044626444498691,9.97743638509115,-1.0738372802734375,-0.2660751342773437,-0.182342529296875,0.021213438452744,-0.3377402701028963,0.2610741592035062,0.2152579171316966,-0.0515892392113094,-0.046139671688988,24.811763612544866,-11.393519427001571,2.736678685897437,67.76799721659921,-3.3430605479670894,-6.231837606837628,37.725072633060776,35.76023602000779,32.6931739898763,1577395448.0,-27.71769149814615,-51.09905664598307,0.009688481
1842,1577395448.84,-0.4163516687011708,0.188303960571289,9.360909505920407,-0.4989866630740277,0.17547746314072,9.718998861173304,-0.6952875630696608,0.2302423929850253,9.991801595052086,0.6046295166015625,-0.2660751342773437,0.031280517578125,0.906223204077744,0.5777870736471036,0.2610741592035062,0.0931876046316966,0.4977271670386905,-0.107174827938988,24.49057573406532,-12.91265535060178,3.831350160256412,67.96133954678365,-3.261522485821551,-8.309116809116826,37.91676400994399,35.95192739689101,32.64525114565549,1577395448.0,-27.71769149814615,-51.09905664598307,0.009688481
1843,1577395448.85,-0.5049371301269521,0.695874712524414,10.37605100982666,-0.2954795219607464,0.4029266208555637,9.280859957364711,-0.5612122701009108,0.2972800394694003,9.599152522786458,0.8792877197265625,-0.0219345092773437,-0.395965576171875,0.448459532202744,-0.1241172232278963,-0.3187598251714938,0.1237051827566966,0.2230689639136905,0.2590361095610119,23.84819997710623,-11.773303407901622,4.926021634615379,67.76799721659921,-2.2015276779295467,-8.724572649572671,37.725072633060776,35.856081708449395,32.6931739898763,1577395448.0,-27.71769149814615,-51.09905664598307,0.009688481
1844,1577395448.86,-0.7000645654296874,0.4540603448486328,9.961854122619629,-0.7862908622927777,0.3322976718809543,9.97517843881002,-0.6916962605794265,0.4780422648111972,9.736819118245444,-0.4482269287109375,0.3137588500976562,0.016021728515625,-0.2381859756097559,-0.5208457388528964,0.0932274795160062,0.1542227608816966,-0.7077171688988095,-0.1224336170014881,24.089090885965888,-11.868249403126637,4.469908520299141,68.73470886752138,-1.9569134914929305,3.3236467236467035,37.91676400994399,35.97588881900141,32.64525114565549,1577395448.0,-27.71769149814615,-51.09905664598307,0.009688481
1845,1577395448.87,-0.4043806604003896,-0.2187103216552734,8.745599679260254,0.2599752631955025,0.5944627536680637,9.74772928109518,-0.8269686543782545,0.2589728129069004,10.147424702962242,-0.2803802490234375,-0.3271102905273437,-0.060272216796875,-0.0703392959222559,0.8829628548971036,0.0169335342035061,0.5204336983816966,0.3451392764136905,0.1064482189360119,24.65116967330509,-12.3429793792517,4.743576388888888,68.73470886752138,-2.119989615784008,1.6618233618233518,37.9646868541648,35.99985024111181,32.789019678317906,1577395448.0,-27.71769149814615,-51.09905664598307,0.009688481
1846,1577395448.88,-0.4067748620605458,0.4540603448486328,10.186909078674317,-0.0464825493044964,0.4986946872618137,9.484367098477993,-0.6402209248860671,0.2757322245279941,9.94391756184896,1.0318756103515625,-0.2355575561523437,0.031280517578125,-0.985866639672256,-0.2461875357278963,-0.2577246689214938,0.2457754952566966,0.6808326357886905,-0.076657249813988,25.614733308743727,-12.3429793792517,4.013795405982902,67.76799721659921,-3.5061366722581666,-7.8936609686609795,37.86884116572318,36.047773085332615,32.789019678317906,1577395448.0,-27.71769149814615,-51.09905664598307,0.009688481
1847,1577395448.89,-0.533667550048827,0.9783905084228516,11.017697054748536,-0.501380864734184,0.7716336765196262,9.5825293665444,-0.5157224385579421,0.3020684427897128,9.467471431477865,0.6656646728515625,0.3442764282226562,0.122833251953125,1.791232969702744,-0.0935996451028963,-0.2272070907964938,0.1237051827566966,-0.3262474423363095,0.1369657970610119,23.366418159386907,-13.102547341051809,4.743576388888888,63.12778129217276,-3.5061366722581666,-7.8936609686609795,37.9646868541648,35.856081708449395,32.789019678317906,1577395448.0,-27.71769149814615,-51.09905664598307,0.009688481
1848,1577395448.9,-0.5923254907226557,0.1152808099365239,9.14303715484619,-0.2882969169802782,0.3670135959532205,9.916520498136194,-0.7012730672200514,0.3331930643717441,9.644642354329427,-0.8144378662109375,0.2222061157226562,-0.289154052734375,-0.879055116234756,1.2796913705221038,0.1084862685785061,0.1237051827566965,-0.3567650204613095,-0.229245140438988,23.366418159386907,-13.102547341051809,5.290912126068376,68.15468187696808,-2.5276799265117016,2.0772792022791897,37.84487974361278,35.80815886422859,32.64525114565549,1577395448.0,-27.71769149814615,-51.09905664598307,0.009688481
1849,1577395448.91,-0.3564966271972646,0.0973242974853515,8.858127157287596,-0.9203661552615277,0.5154540988829075,10.439653560880334,-0.7503542012532546,0.3499524759928379,9.98940739339193,0.6961822509765625,-0.4491806030273437,-0.060272216796875,1.425022032202744,-1.2532676138528964,0.2000390029535061,0.1542227608816966,0.2841041201636905,-0.015622093563988,23.366418159386907,-10.064275493851389,4.743576388888888,68.54136653733694,-2.5276799265117016,2.908190883190874,37.772995477281576,35.95192739689101,32.789019678317906,1577395448.0,-27.71769149814615,-51.09905664598307,0.009688481
1850,1577395448.92,-0.4307168786621083,0.590529839477539,10.565192940979005,-0.0991549858279339,0.5777033420469699,8.68709794564596,-0.582760085042317,0.1727815531412753,9.714074202473958,0.8182525634765625,-0.2050399780273437,0.122833251953125,0.723117735327744,1.2796913705221036,-0.3797949814214938,-0.0899178641183033,0.2535865420386905,0.2285185314360119,23.527012098626685,-12.153087388801676,4.926021634615379,67.76799721659921,-2.5276799265117016,-5.400925925925935,38.0605325426064,35.95192739689101,32.597328301434686,1577395448.0,-27.71769149814615,-51.09905664598307,0.009688481
1851,1577395448.93,-0.6007051965332021,0.8634688287353515,10.773488485412596,-0.8509343071169964,-0.1070383327577165,10.341491292813927,-0.6450093282063796,0.4624799540201816,9.503384456380209,0.2689361572265625,0.4358291625976562,-0.029754638671875,-1.138454530297256,-1.4668906607278964,0.7188378310785062,0.0626700265066966,-0.6924583798363095,-0.076657249813988,23.68760603786645,-10.44405947475144,4.743576388888888,63.32112362235719,-1.9569134914929305,3.3236467236467035,37.9646868541648,35.95192739689101,32.50148261299308,1577395448.0,-27.71769149814615,-51.09905664598307,0.009688481
1852,1577395448.94,-0.4833893151855458,-0.0211886846923827,8.791089510803221,-0.3313925468630903,0.5944627536680637,9.952433523038538,-0.7347918904622389,0.2996742411295566,10.062430544026697,-0.6923675537109375,0.0085830688476562,-0.075531005859375,0.295871641577744,0.7151161752096036,0.2458153701410061,0.1999991280691966,-0.2194359188988095,-0.122433617001488,23.928496946726117,-10.72889746042648,4.105018028846155,69.4114070231669,-2.079220584711239,-8.516844729344749,37.94072543205439,35.95192739689101,32.669212567765896,1577395448.0,-27.71769149814615,-51.09905664598307,0.009688481
1853,1577395448.95,-0.5576095666503896,0.6240486627197265,9.873268661193846,-0.6019373344607465,0.4675700656797824,10.066158101895958,-0.6210673116048171,0.4193843241373691,9.692526387532553,0.7877349853515625,0.0391006469726562,0.000762939453125,-0.0703392959222559,-0.8260215201028964,-0.7154883407964938,0.2152579171316966,0.4366920107886905,-0.076657249813988,25.935921187223272,-11.203627436551546,5.108466880341885,67.76799721659921,-2.038451553638469,-8.724572649572671,38.0605325426064,35.95192739689101,32.30979123610986,1577395448.0,-27.71769149814615,-51.09905664598307,0.009688481
1854,1577395448.96,-0.5552153649902334,0.695874712524414,10.524491512756349,-1.3800528740115277,-0.3751889186952165,9.295225167325649,-0.6067021016438795,0.2134829813639316,9.299877315266928,-0.0667572021484375,0.1611709594726562,-0.304412841796875,-0.0398217177972559,-2.046724645102896,0.2305565810785061,0.1542227608816966,-0.5398704892113095,0.1064482189360119,24.811763612544866,-11.01373544610152,5.290912126068384,67.76799721659921,-2.2015276779295467,7.893660968660963,37.772995477281576,35.99985024111181,32.50148261299308,1577395448.0,-27.71769149814615,-51.09905664598307,0.009688481
1855,1577395448.97,-0.5659892724609369,0.1775300531005859,9.33457328765869,-0.0105695244021527,1.0780914890196265,9.86025675912252,-0.7575368062337233,0.5678248270670566,9.627882942708332,-0.3108978271484375,0.0848770141601562,-0.136566162109375,-1.352077577172256,1.5543495736471036,-0.4103125595464938,-0.0288827078683033,-0.6314232235863095,-0.107174827938988,23.68760603786645,-11.583411417451597,4.743576388888888,67.76799721659921,-3.5061366722581666,-8.724572649572671,37.94072543205439,35.99985024111181,32.597328301434686,1577395448.0,-27.71769149814615,-51.09905664598307,0.009688481
1856,1577395448.98,-0.2942473840332021,0.0901416925048828,9.28908345611572,-0.5157460746951215,-0.0232412746522482,10.088903017667445,-0.7383831929524732,0.2877032328287754,10.006166805013024,0.7266998291015625,-0.2050399780273437,0.092315673828125,0.082248594702744,-0.0935996451028963,0.2763329482660062,0.1237051827566966,0.3756568545386905,0.0759306408110118,25.454139369503952,-11.773303407901622,5.290912126068384,68.54136653733694,-0.2446141864366158,-4.570014245014259,37.91676400994399,35.8800431305598,32.6931739898763,1577395448.0,-27.71769149814615,-51.09905664598307,0.009688481
1857,1577395448.99,-0.4929661218261708,0.9113528619384764,10.787853695373537,-0.7767140556521527,0.5154540988829075,10.197839193204551,-0.5372702534993483,0.2637612162272129,9.55366269124349,0.6961822509765625,0.4358291625976562,-0.060272216796875,1.943820860327744,0.4251991830221036,-0.2882422470464938,0.0931876046316966,-0.0821068173363094,-0.046139671688988,24.008793916346,-12.3429793792517,4.013795405982902,67.76799721659921,-2.2015276779295467,-8.724572649572671,37.772995477281576,35.95192739689101,32.6931739898763,1577395448.0,-27.71769149814615,-51.09905664598307,0.009688481
1858,1577395449.0,-0.7084442712402342,0.772489165649414,10.325772774963378,-0.1087317924685589,0.4771468723204074,8.732587777188929,-0.611490504964192,0.5247291971842442,9.390856978352865,-0.6160736083984375,0.6189346313476562,-0.060272216796875,-2.633815858422256,1.0660683236471036,0.1084862685785061,0.0016348702566966,-0.5093529110863095,-0.137692406063988,23.84819997710623,-11.393519427001571,3.101569177350434,68.54136653733694,1.7122993050563151,-8.724572649572671,37.91676400994399,35.99985024111181,32.64525114565549,1577395449.0,-27.71769187250251,-51.09905638370826,0.010907328
1859,1577395449.01,-0.524090743408202,-0.1337161627197255,8.537304134826659,-1.5691948051638716,-0.2722382473084977,11.857020943692834,-0.6928933614095045,0.4409321390787754,9.721256807454427,-0.6008148193359375,-0.1897811889648437,-0.197601318359375,1.730197813452744,-1.1006797232278964,-0.2882422470464938,0.0931876046316966,-0.3262474423363095,0.1369657970610119,24.008793916346,-11.96319539835165,5.108466880341885,67.76799721659921,1.7122993050563151,-4.570014245014259,37.91676400994399,35.95192739689101,32.64525114565549,1577395449.0,-27.71769187250251,-51.09905638370826,0.010907328
1860,1577395449.02,-0.5001487268066396,0.580953032836914,9.842144039611815,0.2025144233517525,0.7069902316954075,8.889407985929164,-0.7120469746907545,0.3200249552408847,9.868500209554036,0.8487701416015625,-0.4491806030273437,0.214385986328125,-0.4518090224847559,0.5777870736471036,-0.1509131454839938,0.1084463936941965,0.3909156436011904,0.2285185314360119,24.65116967330509,-11.203627436551546,4.743576388888888,68.54136653733694,1.7122993050563151,-6.231837606837628,37.725072633060776,35.97588881900141,32.64525114565549,1577395449.0,-27.71769187250251,-51.09905638370826,0.010907328
1861,1577395449.03,-0.5456385583496083,0.5378574029541016,10.933899996643063,-1.4638499321169964,0.0270369602110325,10.585699862149864,-0.6330383199055983,0.2829148295084628,9.448317818196614,0.6046295166015625,0.4968643188476562,0.031280517578125,-0.1618920302972559,-0.9480918326028964,0.5662499404535062,0.0626700265066966,-0.6924583798363095,-0.046139671688988,22.72404240242782,-10.44405947475144,2.9191239316239352,67.76799721659921,1.7122993050563151,-3.7391025641025832,37.772995477281576,36.28738730643664,32.64525114565549,1577395449.0,-27.71769187250251,-51.09905638370826,0.010907328
1862,1577395449.04,-0.6007051965332021,0.5737704278564453,10.02410336578369,0.4227809760861275,1.2624450168516574,8.536263241056117,-0.7647194112141921,0.5893726420084628,9.63027714436849,-0.4329681396484375,0.5578994750976562,-0.212860107421875,-1.779323670922256,2.561429651772104,-0.5629004501714938,0.0321524483816966,-0.4788353329613095,0.0759306408110119,24.329981794825542,-10.064275493851389,5.108466880341885,68.73470886752138,-3.4245986101126284,-6.647293447293474,37.86884116572318,35.99985024111181,32.789019678317906,1577395449.0,-27.71769187250251,-51.09905638370826,0.010907328
1863,1577395449.05,-0.4690241052246083,0.092535894165039,8.809046023254394,-0.9167748527712932,0.2066020847227512,10.11045083260885,-0.7096527730305983,0.3463611735026035,9.71407420247396,-0.3414154052734375,-0.1897811889648437,0.077056884765625,0.448459532202744,-0.2767051138528963,0.3526268935785062,0.1084463936941966,0.4214332217261904,-0.061398460751488,24.008793916346,-11.583411417451597,4.743576388888888,69.12139352789026,-3.0169082993849345,-6.647293447293466,37.74903405517118,35.95192739689101,32.64525114565549,1577395449.0,-27.71769187250251,-51.09905638370826,0.010907328
1864,1577395449.06,-0.6078878015136708,0.8514978204345702,10.340137984924317,-0.3361809501834027,0.27124552954697,9.386204830411586,-0.678528151448567,0.2709438212076816,9.524932271321614,0.6656646728515625,0.1916885375976562,-0.121307373046875,1.425022032202744,0.5777870736471036,-0.2882422470464938,-0.0288827078683033,-0.5398704892113095,-0.015622093563988,23.68760603786645,-11.203627436551546,4.743576388888888,68.15468187696808,-2.8538321750938573,-8.724572649572671,37.91676400994399,35.80815886422859,32.64525114565549,1577395449.0,-27.71769187250251,-51.09905638370826,0.010907328
1865,1577395449.07,-0.715626876220703,0.3822342950439453,10.225216305236817,-0.7384068290896527,0.3406773776915012,11.095664815763149,-0.6928933614095045,0.4983929789225254,9.766746638997397,-0.1277923583984375,0.8020401000976562,-0.182342529296875,-1.504665467797256,-0.2767051138528963,0.1084862685785061,0.1237051827566966,-0.5398704892113095,0.2285185314360119,24.008793916346,-11.203627436551546,4.743576388888888,67.76799721659921,-2.690756050802779,-8.724572649572671,37.725072633060776,35.95192739689101,32.789019678317906,1577395449.0,-27.71769187250251,-51.09905638370826,0.010907328
1866,1577395449.08,-0.5121197351074208,-0.0439336004638662,9.17655597808838,-0.7072822075076214,0.5250309055235325,9.558587349942837,-0.6928933614095045,0.4337495340983066,10.176155122884118,-0.2803802490234375,-0.2050399780273437,-0.182342529296875,2.493137266577744,-1.3143027701028964,0.1084862685785061,0.2762930733816966,0.0704810732886905,0.1980009533110119,24.16938785558577,-11.01373544610152,3.831350160256412,62.35441197143501,-2.2015276779295467,-4.570014245014259,37.725072633060776,35.95192739689101,32.50148261299308,1577395449.0,-27.71769187250251,-51.09905638370826,0.010907328
1867,1577395449.09,-0.4582501977539052,0.4971559747314452,9.933123702697753,-0.2033027580447308,0.3011730502989231,9.501126510099086,-0.6545861348470046,0.4289611307779941,9.80265966389974,0.4825592041015625,-0.1287460327148437,-0.045013427734375,0.051731016577744,0.7303749642721037,0.2305565810785061,0.1237051827566966,-0.0515892392113095,-0.030880882626488,24.008793916346,-10.44405947475144,5.108466880341885,68.25135304206029,-2.813063144021088,-7.685933048433064,37.91676400994399,35.9040045526702,32.6931739898763,1577395449.0,-27.71769187250251,-51.09905638370826,0.010907328
1868,1577395449.1,-0.7084442712402342,0.7269993341064452,10.289859750061034,-0.4558910331912152,0.6040395603086887,9.00073836312643,-0.6497977315266921,0.3427698710123691,9.321425130208333,-0.7381439208984375,0.4968643188476562,-0.243377685546875,-2.755886170922256,0.5777870736471036,0.6578026748285062,0.0931876046316966,-0.6924583798363095,-0.3207978748139881,24.008793916346,-10.44405947475144,5.108466880341885,69.50807818825913,-2.772294112948318,-7.47820512820515,37.91676400994399,35.99985024111181,32.64525114565549,1577395449.0,-27.71769187250251,-51.09905638370826,0.010907328
1869,1577395449.11,-0.5145139367675771,0.255341607055664,8.491814303283691,-1.0783834648318402,0.7189612399961888,10.386981124356897,-0.7695078145345046,0.2900974344889316,9.64943075764974,-1.3179779052734375,-0.2050399780273437,-0.243377685546875,0.021213438452744,1.3407265267721036,-0.3187598251714938,-0.0288827078683033,-0.0821068173363094,0.3200712658110119,23.366418159386907,-10.823843455651492,5.108466880341885,67.76799721659921,1.7122993050563151,-7.8936609686609795,37.725072633060776,35.95192739689101,32.64525114565549,1577395449.0,-27.71769187250251,-51.09905638370826,0.010907328
1870,1577395449.12,-0.3552995263671865,0.1080982049560547,9.19451249053955,0.17857240675019,0.6327699802305637,9.999120455411584,-0.7503542012532546,0.3475582743326816,9.860120503743492,0.5741119384765625,-0.2050399780273437,0.199127197265625,0.051731016577744,0.5777870736471036,0.5357323623285062,0.2762930733816966,0.4061744326636905,0.0454130626860119,24.16938785558577,-10.633951465201466,4.5611311431623935,68.15468187696808,1.875375429347392,-5.400925925925935,37.94072543205439,35.856081708449395,32.6931739898763,1577395449.0,-27.71769187250251,-51.09905638370826,0.010907328
1871,1577395449.13,-0.5815515832519521,0.762912359008789,10.73278705718994,-0.0536651542849652,0.663894601812595,9.139602059415491,-0.688104958089192,0.3307988627115878,9.795477058919271,0.0858306884765625,0.3747940063476562,0.092315673828125,-1.046901795922256,-0.1241172232278963,-0.5934180282964938,0.0626700265066966,0.3146216982886905,0.1369657970610119,23.84819997710623,-12.153087388801676,4.926021634615379,68.54136653733694,-1.8753754293473912,4.570014245014226,37.772995477281576,35.99985024111181,32.6931739898763,1577395449.0,-27.71769187250251,-51.09905638370826,0.010907328
