,timestamp,acc_x_dashboard,acc_y_dashboard,acc_z_dashboard,acc_x_above_suspension,acc_y_above_suspension,acc_z_above_suspension,acc_x_below_suspension,acc_y_below_suspension,acc_z_below_suspension,gyro_x_dashboard,gyro_y_dashboard,gyro_z_dashboard,gyro_x_above_suspension,gyro_y_above_suspension,gyro_z_above_suspension,gyro_x_below_suspension,gyro_y_below_suspension,gyro_z_below_suspension,mag_x_dashboard,mag_y_dashboard,mag_z_dashboard,mag_x_above_suspension,mag_y_above_suspension,mag_z_above_suspension,temp_dashboard,temp_above_suspension,temp_below_suspension,timestamp_gps,latitude,longitude,speed
45889,1577399464.29,0.9742648901962644,0.2170548188000182,8.267645493819073,-0.4053792176781624,1.0166597781297633,7.873711727979706,-7.241759280023342,12.73446665455888,18.011579089355468,-1.1419901033727131,-7.320869259717988,-4.691519388338414,-3.0296139600800305,1.5824480754573171,-4.385599275914634,2.795521805926067,8.050685975609756,-22.313932093178355,3.614055822649576,-4.192304754273503,0.3757347976097936,-12.928517496125668,2.016268887362638,-1.525126466081995,27.565429658250217,33.50786234162997,38.39599245215204,1577399464.0,-27.68825715705947,-51.1284597160493,7.01636
45890,1577399464.3,0.1135493933700931,-0.4114231169909964,8.26285709049876,1.9529094175757429,-0.8675769284132044,10.880829013135958,-0.6074264797303727,5.508766044207317,16.098611962890622,-5.353415884622713,-0.3170850800304881,-3.2571932164634143,-3.2432370069550305,-0.6758527057926829,-5.575784822789634,-13.622935225323932,-4.369968321265244,-5.315641077553353,2.8207264957264933,-5.112566773504273,1.2023513523513458,-3.067148096294731,1.2830802010489508,3.1947065854818257,27.541468236139814,33.41201665318837,38.44391529637284,1577399464.0,-27.68825715705947,-51.1284597160493,7.01636
45891,1577399464.31,-0.3497286278701407,1.2800803559093932,11.392078660322978,-2.3171492433129286,0.4971180178758576,8.182563742139862,2.5265834934141576,3.9932363933284103,9.457096557617186,-1.7523416658727131,5.130302615282012,-3.1046053258384143,-4.799633491330031,-3.620798994855183,-2.2035924399771343,-7.855112959698932,-33.78891363376525,-6.1396156869283525,2.379987980769229,-6.441834134615385,0.8266165547415459,-2.656257704635109,-1.283080201048951,3.1947065854818257,27.61335250247102,33.579746607961184,38.34806960793124,1577399464.0,-27.68825715705947,-51.1284597160493,7.01636
45892,1577399464.32,0.4930303565048583,-2.914560952684356,6.311582737471417,0.7007419493140241,-4.820403869331174,8.793085165479706,-2.2642140285584977,0.5767106242854412,11.334150659179686,-3.919089712747713,-2.254951290967988,-2.8604647008384143,0.6630129930449695,0.5143328410823171,-3.8973180259146334,-15.759165694073932,-35.65048589939025,11.133333531821648,2.379987980769229,-6.441834134615385,0.8266165547415459,-3.2725932921245406,-2.5661604020979016,-4.032537774725275,27.565429658250217,33.41201665318837,38.25222391948962,1577399464.0,-27.68825715705947,-51.1284597160493,7.01636
45893,1577399464.33,-0.5268995507217031,-0.5299360991687307,7.192648948408917,-3.2736328065453506,-0.3169105465772669,11.891182113721896,-0.3751889186952165,-4.489420088605183,6.746860278320312,-2.4237283846227133,1.224052615282012,-1.7313143102134143,-3.884106147580032,-13.767893721417684,0.8939417397103658,-10.388071944073932,-24.206394102515244,6.281038609946647,2.379987980769229,-6.441834134615385,0.8266165547415459,-3.2725932921245406,-1.099783029470529,-2.5575899461115803,27.517506814029414,33.41201665318837,38.39599245215204,1577399464.0,-27.68825715705947,-51.1284597160493,7.01636
45894,1577399464.34,-0.3233924096084224,1.9839756439953304,9.024213218428448,-1.0242803468285542,0.5892947817918732,7.908427652051972,1.7700157688047826,2.5519269939143485,3.465606903076172,-1.8286356111852131,-9.609687619092988,-1.7770906774009143,0.7698245164824695,-1.6524152057926829,-5.148538729039634,-8.770640303448932,7.699733827172258,7.364412633384147,3.5259081196581192,-4.703561431623933,-0.3005878380878411,-3.06714809629473,-2.3828632305194803,-2.5575899461115803,27.58939108036062,33.53182376374038,38.44391529637284,1577399464.0,-27.68825715705947,-51.1284597160493,7.01636
45895,1577399464.35,1.764351438047827,-3.2497491851062303,3.3068596539753234,0.8180578306616804,-4.482821435249143,2.1659349701672057,-3.154857046136623,-9.672866682843464,10.989385620117186,-1.2640604158727131,-6.924140744092988,-3.5318514195884143,-7.698803413205031,-11.875803877667684,-4.690775057164634,-2.422984053448933,16.900783631859756,-12.517789515053352,3.2614650106837644,-5.41932077991453,0.3757347976097936,-1.629031725486053,-2.9327547452547447,2.1622431054522404,27.70919819091263,33.41201665318837,38.30014676371043,1577399464.0,-27.68825715705947,-51.1284597160493,7.01636
45896,1577399464.36,1.3669139624618896,1.5554135468273618,9.52699556706126,-2.1794826478539435,4.531347815239138,13.646131930616429,11.794538119879,12.157464054461222,7.005434057617187,-2.8204569002477133,-6.100166134717988,-3.0740877477134143,4.080981743044969,-14.897044112042684,-1.9441930259146345,8.776967118426068,11.804348084984756,-10.869840296303352,3.2614650106837644,-5.41932077991453,0.3757347976097936,-1.629031725486053,-3.299349088411588,-3.4425586432797965,27.75712103513344,33.41201665318837,38.39599245215204,1577399464.0,-27.68825715705947,-51.1284597160493,7.01636
45897,1577399464.37,2.080386057188452,-1.3152342436999809,11.619527818037822,2.034312274021055,-0.738290038764767,8.699711300733611,1.027813254156345,-2.7392586750309635,9.011775048828124,-4.834617056497714,-13.424384884717988,-3.5928865758384143,-0.4356198194550305,10.371510575457316,-4.995950838414634,3.039662430926067,9.729152772484756,-2.599576624428354,3.2614650106837644,-5.41932077991453,0.3757347976097936,3.5070981702592268,7.881778377872128,-1.525126466081995,27.517506814029414,33.65163087429239,38.39599245215204,1577399464.0,-27.68825715705947,-51.1284597160493,7.01636
45898,1577399464.38,1.1083401831650146,-2.1148975981921683,12.17617970402415,2.239016515964414,-1.209947765815549,9.77470784614377,-2.340828481683498,0.282223820086223,10.991779821777342,-4.041160025247714,-0.0119092987804876,-2.0212313024009143,-6.401806342892531,-4.490549971417684,-1.4711705649771338,-3.567393233136433,-1.6844214462652438,-7.131436975990853,3.5259081196581192,-5.930577457264956,0.4508817571317491,3.3016529744294165,-1.099783029470529,-29.696629992603548,27.61335250247102,33.48390091951957,38.37203103004164,1577399464.0,-27.68825715705947,-51.1284597160493,7.01636
45899,1577399464.39,0.3158594336532958,0.1931128021984557,12.222866636397198,-1.1116687074242562,0.5473962527391383,12.408329672315649,3.972681296148533,2.60220522877763,5.482721801757812,-7.306540884622714,1.956474490282012,-1.7618318883384143,-5.348949897580031,9.700123856707316,-6.521829744664634,-5.352671553448933,-1.7454566025152438,-2.538541468178354,2.203692574786324,-6.237331463675212,-0.2254408785658824,-2.0399221171456747,1.832971715784216,-29.99161955832629,27.70919819091263,33.747476562734,38.39599245215204,1577399464.0,-27.68825715705947,-51.1284597160493,7.01636
45900,1577399464.4,3.038066721250953,0.3295822968273619,12.268356467940167,4.474003765720274,2.304740271293826,4.6559046967297055,2.500247275152439,2.930210856219036,5.159504577636718,-3.827536978372713,-12.173164181592988,-4.752554544588414,-6.050854194455031,6.923024247332317,-1.3948766196646345,-4.223521162823933,15.100246522484756,2.161165563071646,2.379987980769229,-4.3968074252136775,0.526028716653711,-1.4235865296562409,-0.5498915147352641,-32.20404130124683,27.565429658250217,33.41201665318837,38.25222391948962,1577399464.0,-27.68825715705947,-51.1284597160493,7.01636
45901,1577399464.41,1.99898320074314,2.0581958954601745,8.654309061934308,3.92094318222418,1.337482800590701,8.1586217255383,2.5265834934141576,-2.413647249249714,12.272677709960936,3.954445443502286,0.5984422637195121,-3.0893465367759143,-4.311352241330031,-3.056223799542683,-2.7376500571646343,-0.7445172565739329,6.799465272484756,-1.3788734994283538,2.820726495726497,-4.703561431623934,0.6011756761756697,-8.203277992040011,0.7331886863136862,-32.3515360841082,27.613352502471024,33.55578518585078,38.44391529637284,1577399464.0,-27.68825715705947,-51.1284597160493,7.01636
45902,1577399464.42,1.3286067358993896,-3.544235989305449,6.218208872725323,1.7601761839331644,0.1080602481004669,7.817447988966034,-0.0890818203065451,-1.5409607441227613,9.313444458007812,-2.6983865877477133,-1.217353634717988,-3.2877107945884143,-2.815990913205031,1.6892595988948171,-4.553445955602134,-4.177744795636433,-6.490940000952744,-8.886197718178352,2.203692574786324,-5.01031543803419,-0.2254408785658824,-11.28495592948718,8.06507554945055,-32.20404130124683,27.75712103513344,33.55578518585078,38.44391529637284,1577399464.0,-27.68825715705947,-51.1284597160493,7.01636
45903,1577399464.43,-0.2755083764052969,-0.4533216460437307,6.996324412276104,0.5714550596655866,-2.009611120307736,11.488956234815646,-0.0711253078553727,0.7514873454768475,6.133944653320312,6.060158334127286,17.123710818407012,-1.2735506383384143,-0.5882077100800305,-8.427317549542684,0.6192835365853658,-11.364634444073932,-6.536716368140244,3.473421422446646,3.2614650106837644,-6.237331463675212,0.9769104737854758,-11.28495592948718,7.881778377872128,-32.20404130124683,27.565429658250217,33.41201665318837,38.44391529637284,1577399464.0,-27.68825715705947,-51.1284597160493,7.01636
45904,1577399464.44,1.5297196753525144,-2.548248098680449,8.507065659834698,-1.245744000393006,0.3965615481492945,12.982938070753146,1.212166781988376,-0.4049120563786202,13.333309045410155,-15.302146353372711,1.224052615282012,-2.1280428258384143,-1.1070065382050305,-1.6829327839176829,-2.1272984946646343,-3.521616865948933,0.024562928734756,-3.942350061928354,3.085169604700852,-4.805812767094017,0.2254408785658761,-11.28495592948718,7.881778377872128,-31.02408303835588,27.565429658250217,33.17240243208434,38.44391529637284,1577399464.0,-27.68825715705947,-51.1284597160493,7.01636
45905,1577399464.45,0.42838691168064,3.221777902296112,12.556857767988994,-0.9273151795922248,3.820269922172732,13.327703109815646,-1.1317566433045914,-2.698557246808308,17.48724892578125,4.610573373189788,-6.832588009717988,-3.4860750524009143,-1.1680416944550305,2.650563309832317,-1.7000524009146345,-4.254038740948933,-6.078952696265244,-9.740689905678352,2.997021901709399,-5.112566773504273,0.1502939190439142,-11.28495592948718,7.881778377872128,-31.02408303835588,27.829005301464647,33.41201665318837,38.49183814059364,1577399464.0,-27.68825715705947,-51.1284597160493,7.01636
45906,1577399464.46,1.3597313574814207,-5.840275381395293,6.019490134932354,1.0395214842261336,-4.355928747260862,8.52972298286252,-1.4896897914979517,-1.621166499737995,13.032836737060546,-7.367576040872714,14.621269412157012,-0.8463045445884145,2.417773735232469,-0.4927472370426828,-3.5463658774771343,-6.268198897198933,-8.367771055640244,6.082674352134147,3.085169604700852,-5.623823450854701,0.526028716653711,-11.28495592948718,-3.299349088411588,-2.2626003803888413,27.517506814029414,33.50786234162997,38.30014676371043,1577399464.0,-27.68825715705947,-51.1284597160493,7.01636
45907,1577399464.47,-0.7519545067763906,-0.8196345000476369,7.556567600752666,-3.35742986465082,3.3486121951219507,14.57747637641721,1.365395688238376,-0.7808017170231515,10.67335100097656,-1.996482290872713,8.273613162157012,-1.7313143102134143,1.3038821336699695,-6.504710127667683,-1.6695348227896345,-8.282359053448932,-26.403659727515244,-8.001187952553353,2.556283386752135,-5.41932077991453,0.3757347976097936,-9.8468395586785,-4.032537774725275,-2.852579511834319,27.61335250247102,33.65163087429239,38.30014676371043,1577399464.0,-27.68825715705947,-51.1284597160493,7.01636
45908,1577399464.48,-0.2324127465224844,1.9743988373547052,8.839859690596418,2.017552862399961,-0.3264873532178919,9.061235751417206,1.161888547125095,-3.6753915241520576,11.429918725585935,1.7571798185022869,-2.163398556592988,-3.5013338414634143,1.0597415086699695,9.059254716082316,-4.629739900914634,-10.357554365948932,-16.058200743140244,-8.001187952553353,2.908874198717946,-5.828326121794873,0.3757347976097936,-2.0399221171456747,-2.5661604020979016,5.997107459847844,27.565429658250217,33.50786234162997,38.39599245215204,1577399464.0,-27.68825715705947,-51.1284597160493,7.01636
45909,1577399464.49,1.429163205625952,0.4229561615734561,8.624381541182354,0.2973189695776964,1.349453808891482,7.657036477735566,2.667841391363376,4.900638822527629,5.090072729492187,5.632912240377286,-11.837470822217988,-3.0740877477134143,0.7393069383574693,-9.464915205792682,-0.6166783774771344,-2.270396162823933,-7.574314024390244,12.521883336509145,2.8207264957264933,-5.112566773504275,1.0520574333074315,-0.807250942166807,-0.7331886863136859,1.2772744082840244,27.541468236139814,33.53182376374038,38.34806960793124,1577399464.0,-27.68825715705947,-51.1284597160493,7.01636
45910,1577399464.5,0.4882419531845458,0.9568631317882994,7.91809205143626,-0.6424051820336312,-0.2881801266553919,8.972650289991424,-4.560253420648342,-12.924192537335651,10.345345373535157,3.771339974752287,-2.895820431592988,-1.5482088414634143,-1.0764889600800305,9.181325028582316,-6.033548494664634,-7.244761397198933,1.0621605849847562,-5.864957483803353,4.495532852564104,-4.805812767094017,-0.0751469595219649,0.0145298411524369,-2.9327547452547447,-2.852579511834319,27.565429658250217,33.41201665318837,38.30014676371043,1577399464.0,-27.68825715705947,-51.1284597160493,7.01636
45911,1577399464.51,1.1729836279892332,-2.9624449858874806,7.530231382490948,2.2833092466773053,0.2888224734422633,5.8745533417492375,3.7236843234922814,10.249285331316692,3.450044592285156,-6.482566275247714,-4.421699337842988,-3.6844393102134143,-5.074291694455031,2.803151200457317,-1.1202184165396345,3.405873368426067,12.506252381859756,-4.796842249428353,3.966646634615387,-4.601310096153848,0.3757347976097936,1.6580914077909268,-2.1995660589410586,-4.032537774725275,27.517506814029414,33.41201665318837,38.44391529637284,1577399464.0,-27.68825715705947,-51.1284597160493,7.01636
45912,1577399464.52,1.400432785704077,-2.881042129442168,10.544531272627667,4.43809074081793,-1.1931883541944543,10.607890023878149,-8.295208010492093,-6.716027632550495,15.12417188720703,-9.839499868997711,7.358085818407012,-1.0904451695884143,-2.2971920850800305,-1.9881085651676829,0.2530725990853658,-3.796275069073933,8.630519959984756,11.865755406821648,3.614055822649576,-7.055342147435899,0.9769104737854758,0.0145298411524369,-4.032537774725275,-1.0826421174978862,27.565429658250217,33.65163087429239,38.39599245215204,1577399464.0,-27.68825715705947,-51.1284597160493,7.01636
45913,1577399464.53,1.4459226172470458,0.88623418281369,12.044498612715556,-0.0270953553734754,0.9304685183641388,13.88076369331174,2.663052988043064,-1.4427984760563544,12.46181964111328,1.6503682950647869,-7.076728634717988,-3.3487459508384143,-0.8781247022675305,1.2772722942073171,-1.9289342368521345,-7.580454756573932,-16.638034727515244,-16.88180318692835,3.614055822649576,-7.055342147435899,0.9769104737854758,-1.9371995192307696,-3.024403331043956,-17.82329997226331,27.637313924581427,33.53182376374038,38.37203103004164,1577399464.0,-27.68825715705947,-51.1284597160493,7.01636
45914,1577399464.54,-0.1557982933974844,-0.513176687547637,13.52291813786204,3.7437722593726175,-2.5866137204053925,11.117854977491428,-1.723124453363185,12.643486991472942,8.932766394042968,3.984963021627287,3.940117068407013,0.3133634241615854,1.0902590867949695,5.702321122332317,-2.7986852134146343,9.234730790301068,-6.475681211890244,4.297396031821647,4.142942040598292,-6.441834134615385,0.526028716653711,-3.067148096294731,-3.48264625999001,-33.38399956413779,27.565429658250217,33.41201665318837,38.39599245215204,1577399464.0,-27.68825715705947,-51.1284597160493,7.01636
45915,1577399464.55,2.4059974829697017,-1.7270369292468557,10.494253037764386,1.0598721983374615,-0.0463657589796107,10.96941447456174,-1.3568115993592789,-0.9890972614567451,9.265560424804686,-3.674949087747713,5.893242068407012,-2.6468416539634143,0.2662844774199695,-2.873118330792683,-0.0521031821646341,5.572621415301067,13.238674256859756,5.762239781821647,2.908874198717946,-2.9652887286324803,0.0751469595219524,-2.450812508805297,1.832971715784216,-33.8264839127219,27.61335250247102,33.55578518585078,38.58768382903526,1577399464.0,-27.68825715705947,-51.1284597160493,7.01636
45916,1577399464.56,0.7432244299911864,0.8634892670422062,9.383343467451883,0.3056986753882428,0.7245671755907007,9.56880650337033,0.4579932590391574,-0.594053987530964,5.887341882324218,2.7795186856897867,8.243095584032012,-2.8146883336509143,2.860278618044969,7.533375809832317,-4.171976229039634,-0.1341656940739328,13.360744569359756,6.250521031821647,3.2614650106837644,-5.828326121794873,0.3757347976097936,-2.450812508805297,1.832971715784216,-33.8264839127219,27.58939108036062,33.50786234162997,38.44391529637284,1577399464.0,-27.68825715705947,-51.1284597160493,7.01636
45917,1577399464.57,1.1921372412704834,-2.227425076219512,3.256581419112042,0.0806437193335557,0.2169964236375763,6.906454257276581,-0.8851538723084986,-2.855377455548542,15.601815118408204,3.0694356778772867,6.412040896532012,-2.7994295445884143,-2.1751217725800305,5.076710770769816,-1.9289342368521345,-7.198985030011432,-8.215183165015244,-7.360318811928352,3.2614650106837644,-5.828326121794873,0.3757347976097936,-0.807250942166807,-0.3665943431568428,-16.422099535080307,27.421661125587804,33.62766945218199,38.37203103004164,1577399464.0,-27.68825715705947,-51.1284597160493,7.01636
45918,1577399464.58,0.9096214453720458,1.7445554779797057,9.957951865889385,0.1620465757788678,0.928074316703982,12.817738156202363,1.1163987155821262,-1.0058566730778389,8.015787158203125,5.693947396627286,-1.308906369092988,-3.4708162633384143,-2.3887448194550305,7.899586747332317,-1.3643590415396345,-4.406626631573933,-29.211276915015244,-4.979947718178353,3.085169604700852,-5.21481810897436,0.8266165547415459,-3.2725932921245406,-4.032537774725275,0.9822848425612848,27.61335250247102,33.55578518585078,38.44391529637284,1577399464.0,-27.68825715705947,-51.1284597160493,7.01636
45919,1577399464.59,-1.800614833924828,-1.892236843797637,13.364900828291727,-1.2984164369164437,-2.507605065620236,8.49620415962033,3.747626340093845,4.330818827410442,11.662156286621093,-2.3932108064977133,-3.262031369092988,-3.3182283727134143,0.2052493211699695,3.199879716082317,-3.2869664634146343,-8.465464522198932,-32.47665777439025,-9.466031702553352,3.2614650106837644,-5.828326121794873,0.6763226356976285,-3.2725932921245406,-4.032537774725275,1.5722639740067632,27.61335250247102,33.65163087429239,38.30014676371043,1577399464.0,-27.68825715705947,-51.1284597160493,7.01636
45920,1577399464.6,-0.2599460656142813,-0.5514839141101375,14.745158085371807,1.9792456358374613,-1.9090546505811727,11.546417074659397,5.346953049078219,9.959586930437784,10.51533369140625,-9.900535025247711,1.010429568407012,-2.3874422399009143,-0.8628659132050305,-2.171214033917683,-0.6929723227896342,-6.512339522198933,-30.676120665015244,3.290315953696646,3.173317307692308,-4.703561431623933,-0.1502939190439237,-1.629031725486053,-4.032537774725275,-3.737548209002536,27.661275346691824,33.55578518585078,38.39599245215204,1577399464.0,-27.68825715705947,-51.1284597160493,7.01636
45921,1577399464.61,-0.9075776146865469,-0.5730317290515433,12.275539072920637,1.1233185423316026,1.2884016665574978,16.455727578809785,0.2772310336973611,-5.739193355206745,9.020154754638671,-1.2640604158727131,5.710136599657012,-1.9754549352134143,-2.8312497022675305,2.772633622332317,-2.5087682212271343,-3.048594405011433,-9.573215391577744,2.4358237661966475,3.085169604700852,-3.578796741452992,-0.3757347976097998,-5.737935642082276,-1.8329717157842156,-2.5575899461115803,27.565429658250217,33.45993949740917,38.204301075268816,1577399464.0,-27.68825715705947,-51.1284597160493,7.01636
45922,1577399464.62,0.279946408750952,0.2242374237804869,13.233219736983136,1.5865965635718364,0.679077344047732,11.673309762647678,-2.520393606195217,11.39371372487138,10.199299072265624,3.5882345060022867,-2.163398556592988,-2.2195955602134143,2.280444633669969,4.359547684832317,-1.1507359946646345,8.502308915301068,10.217434022484756,5.579134313071647,2.379987980769229,-6.0328287927350415,-0.9769104737854758,4.945214541067904,-0.7331886863136862,-4.032537774725275,27.61335250247102,33.41201665318837,38.30014676371043,1577399464.0,-27.68825715705947,-51.1284597160493,7.01636
45923,1577399464.63,-0.9458848412490468,-2.553036502000762,8.875772715498762,0.2649972471655866,-2.0311589352491417,6.999828122022675,-0.1405571559999039,-4.13986664622237,7.46272657470703,1.0552755216272869,0.6137010527820121,-1.7923494664634143,3.8978762742949695,4.084889481707317,-3.5921422446646343,-0.3172711628239328,11.041408631859756,6.342073766196647,3.614055822649576,-5.01031543803419,0.3757347976097936,3.5070981702592268,-3.1160519168331664,-30.4341039069104,27.61335250247102,33.699553718513194,38.58768382903526,1577399464.0,-27.68825715705947,-51.1284597160493,7.01636
45924,1577399464.64,1.4698646338486083,-3.618456240770293,8.140752805830791,-0.3263705628930061,0.0110950808641383,7.253613497999237,4.9590923801329065,11.139928348894816,7.723694555664062,-5.689109243997714,-7.076728634717988,-2.6468416539634143,4.264087211794969,-0.3401593464176829,1.4737757240853655,4.687611649676067,9.362941834984756,-5.742887171303353,4.319237446581198,-5.01031543803419,0.0751469595219524,0.0145298411524369,-3.299349088411588,-31.171577821217245,27.70919819091263,33.41201665318837,38.39599245215204,1577399464.0,-27.68825715705947,-51.1284597160493,7.01636
45925,1577399464.65,0.7851229590439208,3.1164330292492366,11.624316221358136,-1.9376682801781624,0.2744572634813258,8.884064828565643,0.2305441013243137,-5.09754731028487,8.283937744140625,13.903175912252289,-7.015693478467988,-3.1656404820884143,4.477710258669969,1.8571062785823167,-1.7916051352896345,5.328480790301067,15.374904725609756,-0.4023109994283537,2.7325787927350405,-6.441834134615385,0.8266165547415459,-3.2725932921245406,-0.3665943431568428,-39.431285661453934,27.70919819091263,33.50786234162997,38.30014676371043,1577399464.0,-27.68825715705947,-51.1284597160493,7.01636
45926,1577399464.66,0.816247580625952,-3.031876834032012,11.712901682783915,-0.2329966981469124,-3.2833264035108614,5.173052255323456,0.5034830905821261,7.771286613054973,10.670956799316404,-5.322898306497714,-4.452216915967988,-4.050650247713414,2.829761039919969,2.864186356707317,0.4972132240853658,16.986195634051068,3.198391053734756,-16.240934046303355,3.790351228632481,-7.259844818376068,0.2254408785658761,-3.2725932921245406,1.0997830294705304,-38.84130653000845,27.565429658250217,33.36409380896756,38.58768382903526,1577399464.0,-27.68825715705947,-51.1284597160493,7.01636
45927,1577399464.67,0.8569490088486083,-0.9537097930163868,10.90605572331126,-2.1890594544945685,1.6223927981492945,15.207151413038302,3.89127843970322,12.51659430348466,13.280636608886718,1.2078634122522869,15.140068240282012,-0.3275057164634145,2.249927055544969,-2.140696455792683,1.8399866615853653,12.744252274676068,6.891018006859756,5.426546422446647,2.027397168803418,-6.0328287927350415,1.127204392829393,-3.2725932921245406,1.0997830294705304,-38.84130653000845,27.517506814029414,33.65163087429239,38.44391529637284,1577399464.0,-27.68825715705947,-51.1284597160493,7.01636
45928,1577399464.68,0.0285552344345458,0.3535243134289245,10.393696568037823,-0.9440745912133186,-3.1588279171827365,9.413183395460177,-4.205911574945217,-7.316972249249713,13.78341895751953,6.792580209127286,10.959160037157012,-1.5787264195884143,7.651538383669969,9.822194169207316,-3.3174840415396343,6.579701493426067,10.003810975609756,-7.818082483803353,2.379987980769229,-5.623823450854701,1.4277922309172282,-2.656257704635109,-0.1832971715784212,-38.69381174714708,27.61335250247102,33.747476562734,38.25222391948962,1577399464.0,-27.68825715705947,-51.1284597160493,7.01636
45929,1577399464.69,0.5792216162704833,-0.8627301299304494,10.558896482588604,0.6384927061499616,1.797169519340701,12.575923788526584,-1.0288059719178726,9.576514664812786,16.110582971191405,6.884132943502286,4.153740115282012,-1.7923494664634143,3.9283938524199695,0.148121903582317,2.9691370522103657,4.596058915301067,-3.088230040015244,0.2995932974466463,2.203692574786324,-5.41932077991453,0.6763226356976285,-2.656257704635109,0.549891514735265,-40.46374914148351,27.565429658250217,33.65163087429239,38.39599245215204,1577399464.0,-27.68825715705947,-51.1284597160493,7.01636
45930,1577399464.7,-1.6114729027724843,-1.1236981108874806,9.1582885113972,2.4868163877905864,-0.1876236569288294,10.615072628858616,-2.747842763910061,-8.425487617902057,10.78827268066406,2.0013204435022867,2.9025194121570124,-1.7313143102134143,7.437915336794969,14.949147294207316,-6.521829744664634,5.114857743426067,-5.346530821265244,-0.7380043588033537,3.2614650106837644,-5.01031543803419,0.9769104737854758,-9.8468395586785,8.431669892607392,-29.40164042688081,27.70919819091263,33.41201665318837,38.39599245215204,1577399464.0,-27.68825715705947,-51.1284597160493,7.01636
45931,1577399464.71,0.1386885108017333,-1.959274490282012,5.0426558575886045,3.4660448667944928,0.9208917117235133,9.470644235303924,3.486658359136814,10.009865165301068,5.427655163574219,2.6727071622522867,4.977714724657012,-1.4566561070884143,-0.9849362257050304,4.542653153582317,-0.2352086509146341,10.913197587176068,-7.177585508765244,-0.9211098275533536,4.142942040598292,-6.441834134615385,-0.3757347976097998,-16.215640629402646,-2.3828632305194803,-2.115105597527472,27.61335250247102,33.65163087429239,38.44391529637284,1577399464.0,-27.68825715705947,-51.1284597160493,7.01636
45932,1577399464.72,-1.4702150048232654,2.958415719678924,9.893308421065166,-0.7094428285180061,2.3502301028367945,12.238341354444552,-2.604190664300686,-2.911641194562214,3.679887951660156,9.844338021627289,-0.0271680878429878,-2.0670076695884143,0.0221438524199695,-1.5913800495426829,-1.4253941977896345,-2.697642256573933,5.243068788109756,15.497347203696648,2.7325787927350405,-6.850839476495726,-0.0751469595219649,-14.57207906276416,-2.3828632305194803,-2.70508472897295,27.61335250247102,33.41201665318837,38.39599245215204,1577399464.0,-27.68825715705947,-51.1284597160493,7.01636
45933,1577399464.73,-0.9267312279677968,-1.1404575225085745,9.977105479170636,-1.1595527406273811,-0.1038265988233607,11.49374463813596,3.3214584445860327,-5.78707738840987,9.969455712890625,-7.337058462747714,0.1864549590320121,0.0387052210365854,3.7452883836699695,5.427662919207317,0.0699671303353658,-0.5919293659489329,-5.193942930640244,-13.067105921303352,1.8511017628205124,-7.055342147435899,0.6763226356976285,-9.8468395586785,-2.9327547452547447,6.292097025570584,27.61335250247102,33.65163087429239,38.10845538682721,1577399464.0,-27.68825715705947,-51.1284597160493,7.01636
45934,1577399464.74,0.0764392676376708,0.530695236280487,13.886836790205791,0.3440059019507429,-0.4533800412061731,12.307773202589084,-0.696011941156154,9.291604667254193,8.999804040527343,0.3838888028772865,-5.550849728467988,-0.9378572789634144,3.134936821169969,6.160084794207317,0.6803186928353658,13.568226884051068,7.135158631859756,10.675569859946648,2.7325787927350405,-5.623823450854701,1.7283800690050692,-3.2725932921245406,-1.466377372627372,5.407128328402368,27.61335250247102,33.55578518585078,38.44391529637284,1577399464.0,-27.68825715705947,-51.1284597160493,7.01636
45935,1577399464.75,-2.315368190858422,-0.6520403838366995,11.076044041182357,-2.9504155824242573,-0.0200295407178919,11.299814303663302,-6.231406179437405,-16.82434704173018,13.634978454589843,6.273781381002286,6.778251834032012,1.9307950647865848,4.752368461794969,-3.941233565167683,0.4972132240853658,4.870717118426067,9.332424256859756,-9.771207483803352,4.319237446581198,-6.237331463675212,0.9769104737854758,0.6308654286418709,-3.1160519168331664,5.554623111263735,27.61335250247102,33.50786234162997,38.10845538682721,1577399464.0,-27.68825715705947,-51.1284597160493,7.01636
45936,1577399464.76,2.1043280737900143,1.596114975050018,9.237297166182357,0.1117683409155866,0.0996805422899195,10.248759774854708,6.386036569586032,19.103043070574504,13.048399047851564,9.722267709127289,-1.675117306592988,-0.0528475133384145,3.043384086794969,9.394948075457316,2.7249964272103657,8.624379227801068,6.372219178734756,6.067415563071647,3.790351228632481,-6.441834134615385,1.4277922309172282,1.6580914077909268,3.665943431568432,-3.737548209002536,27.61335250247102,33.65163087429239,38.39599245215204,1577399464.0,-27.68825715705947,-51.1284597160493,7.01636
45937,1577399464.77,-0.5676009789443595,-2.229819277879668,8.94041616032298,0.164440777439024,-1.4565505368116418,2.237761019971893,-3.909030569085842,-16.74294418528487,7.841010437011718,3.740822396627287,11.722099490282012,2.7547696741615857,1.1207766649199695,4.023854325457317,-0.7234899009146342,3.192250321551067,13.391262147484756,4.816194859946647,2.203692574786324,-6.237331463675212,1.2774983118733108,-2.861702900464919,-4.032537774725275,0.9822848425612848,27.75712103513344,33.55578518585078,38.39599245215204,1577399464.0,-27.68825715705947,-51.1284597160493,7.01636
45938,1577399464.78,1.256780686094702,2.419720346143768,9.79514615299876,-2.366230377346131,5.694929822075076,11.977373373487522,-0.0663369045350602,9.26766265065263,6.459556079101562,2.4896016935022867,1.071464724657012,0.9847501429115856,2.463550102419969,-1.3472394245426829,4.830709317835366,7.159535477801067,2.252346131859756,-11.205533655678352,3.966646634615387,-5.828326121794873,1.5780861499611456,-1.2181413338264289,-4.032537774725275,-1.0826421174978862,27.70919819091263,33.50786234162997,38.30014676371043,1577399464.0,-27.68825715705947,-51.1284597160493,7.01636
45939,1577399464.79,-0.7854733300185782,-0.5419071074695125,8.010268815352276,2.877071258396055,-1.8851126339796107,9.1929168427258,2.7947340793516573,-1.8845286823551823,5.061342309570312,7.647072396627288,4.199516482469512,2.4038175257240857,2.158374321169969,16.749684403582318,1.4432581459603655,2.490346024676067,9.668117616234756,6.433626500571647,3.790351228632481,-5.010315438034189,1.2774983118733108,-2.861702900464919,2.566160402097902,-3.4425586432797965,27.61335250247102,33.36409380896756,38.25222391948962,1577399464.0,-27.68825715705947,-51.1284597160493,7.01636
45940,1577399464.8,-1.872440883729516,0.5019648163586121,10.680402216841534,-3.3454588563500383,-4.466062023628049,4.78040318305783,-3.985645022210842,4.26856958424638,11.690886706542967,-0.5011209627477125,5.488884158250762,2.197823873380336,6.186694633669969,-6.443674971417683,2.5418909584603657,4.596058915301067,3.137355897484756,-5.407193811928353,4.759975961538466,-5.828326121794872,1.127204392829393,-2.861702900464919,2.1995660589410586,-1.6726212489433638,27.61335250247102,33.41201665318837,38.49183814059364,1577399464.0,-27.68825715705947,-51.1284597160493,7.01636
45941,1577399464.81,-2.959408437440453,1.5458367401867368,13.350535618330792,-3.0126648255883195,0.9544105349657008,15.305313681104709,-3.609755361566311,-4.84855033762862,7.613561279296874,-8.649314322122713,6.778251834032012,1.9918302210365848,1.7311282274199695,5.824391434832317,1.7484339272103655,-0.2867535846989328,-4.614108946265244,15.222689000571648,5.72960069444445,-6.646336805555555,0.9769104737854758,-0.396360550507185,1.832971715784216,-1.0826421174978862,27.61335250247102,33.55578518585078,38.30014676371043,1577399464.0,-27.68825715705947,-51.1284597160493,7.01636
45942,1577399464.82,-2.351281215760765,0.2625446503429869,9.282786997725324,-0.4676284608422248,0.3702253298875758,11.50571564643674,3.491446762457126,2.709944303484661,11.099518896484376,-2.0880350252477133,8.517753787157012,4.585824361661586,-2.5718502882050305,3.413502762957317,4.525533536585366,-13.348277022198932,-19.079440977515244,-5.346158655678353,3.085169604700852,-3.987802083333333,0.8266165547415459,-3.2725932921245406,1.0997830294705304,-3.737548209002536,27.61335250247102,33.50786234162997,38.15637823104801,1577399464.0,-27.68825715705947,-51.1284597160493,7.01636
45943,1577399464.83,-3.337692299745141,1.481193295362518,13.795857127119854,-2.7516968446312884,2.639928503715701,13.234329245069553,0.6279815769102512,5.01556050221513,6.421248852539062,-4.590476431497714,5.893242068407012,3.5482267054115857,0.9071536180449696,2.803151200457317,2.3893030678353657,-2.056773115948933,-7.665866758765244,12.262483922446648,3.614055822649576,-4.192304754273503,1.5780861499611456,-1.629031725486053,-4.032537774725275,0.6872952768385466,27.61335250247102,33.65163087429239,38.44391529637284,1577399464.0,-27.68825715705947,-51.1284597160493,7.01636
45944,1577399464.84,-0.2012881249404532,0.4947822113781432,6.97956500065501,-2.184271051174256,-1.3559940670850794,7.287132321241424,-2.221118398675685,-8.078328377179401,5.118803149414062,3.3746114591272867,-7.534492306592988,1.9613126429115848,0.2052493211699695,3.993336747332317,3.3658655678353657,-2.484019209698933,2.618557069359756,-2.599576624428354,4.495532852564104,-4.805812767094017,1.4277922309172282,0.0145298411524369,-4.032537774725275,-4.032537774725275,27.565429658250217,33.699553718513194,38.15637823104801,1577399464.0,-27.68825715705947,-51.1284597160493,7.01636
45945,1577399464.85,-0.4885923241592032,-0.5179650908679495,12.409614365889386,1.4549154722632427,-3.4485263180616426,4.514646798780487,5.787486154546969,14.070431180926066,6.813897924804687,4.869972787252286,2.6888963652820124,3.5177091272865857,1.1818118211699695,1.4603777629573171,5.257955411585366,2.551381180926067,9.790187928734756,7.990022984946647,3.2614650106837644,-4.192304754273503,0.3757347976097936,0.0145298411524369,-2.5661604020979016,-4.032537774725275,27.565429658250217,33.699553718513194,38.58768382903526,1577399464.0,-27.68825715705947,-51.1284597160493,7.01636
45946,1577399464.86,2.501765549375952,0.4109851532726749,7.215393864180402,-1.5545960145531623,5.0987736086961695,6.796320980909393,-0.2674498439881852,-7.151772334698932,6.789955908203124,13.704811654439789,-0.1797559784679878,2.6937345179115857,-2.9685788038300305,-0.7368878620426829,3.9456995522103657,4.901234696551067,14.581447694359756,4.785677281821647,3.173317307692308,-5.930577457264958,1.2023513523513518,-3.2725932921245406,-4.032537774725275,-4.032537774725275,27.565429658250217,33.55578518585078,38.44391529637284,1577399464.0,-27.68825715705947,-51.1284597160493,7.01636
45947,1577399464.87,1.5105660620712644,-4.001528506395293,6.527060886885479,2.364712103122617,0.3462833132860132,8.067642062452363,0.2066020847227512,2.125759098406535,-1.7022773803710936,5.785500131002286,6.564628787157012,3.5177091272865857,-0.2830319288300305,14.613453934832316,4.159322599085366,1.9410296184260671,30.35903558498476,2.039095250571646,4.495532852564104,-6.441834134615385,1.127204392829393,0.0145298411524369,-1.099783029470529,-1.9676108146661029,27.565429658250217,33.65163087429239,38.39599245215204,1577399464.0,-27.68825715705947,-51.1284597160493,7.01636
45948,1577399464.88,1.5680269019150146,0.8587008637218931,7.398550291182354,2.5538540342749614,-4.3607171505811735,2.235366818311737,-4.289708633050686,-6.459848054913776,2.2457611572265623,2.0928731778772867,15.445244021532012,1.6256192835365857,-5.165844428830031,1.4298601848323171,1.2906702553353655,9.906117509051068,63.74526605373475,7.562776891196647,4.142942040598292,-6.441834134615385,-0.0751469595219649,5.972440520216963,-0.916485857892108,-1.525126466081995,27.70919819091263,33.65163087429239,38.39599245215204,1577399464.0,-27.68825715705947,-51.1284597160493,7.01636
45949,1577399464.89,-0.5891487938857657,1.078967416456268,10.97069916813548,0.7821448057593365,5.307069153129763,16.69634484565549,-1.4142724392030288,-9.82848979075362,17.539921362304685,2.5811544278772867,13.217460818407012,3.2125333460365857,-0.1304440382050304,-0.5842999714176829,5.380025724085366,15.612904618426068,58.31313714748475,-22.008756311928355,3.614055822649576,-6.237331463675212,0.6763226356976285,4.945214541067904,-1.099783029470529,-29.99161955832629,27.70919819091263,33.50786234162997,38.39599245215204,1577399464.0,-27.68825715705947,-51.1284597160493,7.01636
45950,1577399464.9,0.2081203589462645,-1.4517037383288869,10.190189426924542,-0.3024285462914436,1.5457783450242946,7.684569796827362,-5.070218374261624,5.274134281512005,19.871873779296877,-6.268943228372714,7.358085818407012,1.3814786585365857,-2.9380612257050305,20.01506526295732,2.1756800209603657,14.941517899676068,23.49258050685976,-17.278531702553355,2.908874198717946,-5.01031543803419,0.3757347976097936,-1.4235865296562409,-0.916485857892108,-31.02408303835588,27.852966723575044,33.41201665318837,38.39599245215204,1577399464.0,-27.68825715705947,-51.1284597160493,7.01636
45951,1577399464.91,-0.3162098046279532,-2.301645327684356,11.935562437178447,-1.4684047547875374,-3.300085815131955,13.085888742139865,-4.928960476312405,-5.949883101300495,17.824831359863282,-0.0433572908727134,21.54875964653201,4.952035299161586,-1.6563229444550305,6.984059403582317,3.7015589272103657,-10.357554365948932,-20.025485899390244,-16.729215296303355,2.379987980769229,-7.259844818376068,0.526028716653711,-1.629031725486053,-1.099783029470529,-28.811661295435336,27.61335250247102,33.65163087429239,38.25222391948962,1577399464.0,-27.68825715705947,-51.1284597160493,7.01636
45952,1577399464.92,-2.9737736474013907,-0.4916288726062308,8.789581455733135,2.2019063902319926,-5.519510754096799,10.437901706007052,4.037324740972752,10.364207011004192,16.610971118164063,-16.156638540872713,19.99236316215701,3.4261563929115857,2.555102836794969,6.861989091082317,5.227437833460366,-3.735239912823933,-41.44882574314025,16.931673375571645,3.2614650106837644,-5.828326121794873,0.0751469595219524,-1.4235865296562409,-0.916485857892108,-29.54913520974218,27.75712103513344,33.41201665318837,38.49183814059364,1577399464.0,-27.68825715705947,-51.1284597160493,7.01636
45953,1577399464.93,-1.1900934105849843,1.730190268018768,9.941192454268291,-2.3279231507836315,0.3211441958543727,11.668521359327364,1.8681780368711889,-2.267600947980182,5.823895538330078,0.6280294278772866,1.376640505907012,2.0833829554115857,1.5327639696074693,-0.2943829792301828,2.2977503334603657,-8.373911787823932,-15.569919493140244,16.71805032869665,3.43776041666667,-6.441834134615385,0.2254408785658761,-5.327045250422652,5.132320804195804,-29.99161955832629,27.70919819091263,33.53182376374038,38.39599245215204,1577399464.0,-27.68825715705947,-51.1284597160493,7.01636
45954,1577399464.94,-1.637809121034203,2.2018479950695493,5.957240891768292,2.817216216892149,3.532965722953982,7.703723410108612,-8.036634231195217,-15.857089571027055,3.39018955078125,8.104836068502287,-2.193916134717988,2.8768399866615857,-4.128246772580031,7.197682450457317,1.3517054115853655,-9.197886397198932,29.13833245998476,12.506624547446648,2.203692574786324,-6.646336805555555,0.6763226356976285,-3.2725932921245406,8.431669892607392,-28.5166717297126,27.61335250247102,33.41201665318837,38.49183814059364,1577399464.0,-27.68825715705947,-51.1284597160493,7.01636
45955,1577399464.95,1.2735400977157958,2.5011232025890804,6.584521726729229,2.3623179014624616,-3.584995812690549,4.727730746534393,12.385905929937596,-2.9978324543278387,11.822567797851562,10.393654427877289,-11.806953244092988,0.1607755335365854,-4.341869819455031,2.375905106707317,3.3353479897103657,7.129017899676067,19.95254144435976,-14.837125452553352,3.614055822649576,-5.828326121794873,0.0751469595219524,-9.8468395586785,1.832971715784216,-31.761556952662723,27.61335250247102,33.55578518585078,38.39599245215204,1577399464.0,-27.68825715705947,-51.1284597160493,7.01636
45956,1577399464.96,0.3398014502548583,-3.3814302764148243,7.523048777510479,-4.039777337795351,0.2217848269578883,11.64697354438596,3.785933566656345,7.179918802996379,-0.5985504150390625,4.229103646627286,-4.482734494092988,3.7923673304115857,-0.0083737257050304,-5.650217940167683,5.013814786585366,8.471791337176068,23.82827386623476,3.870149938071646,3.085169604700852,-4.805812767094017,-0.0751469595219649,-16.421085825232456,1.832971715784216,-4.032537774725275,27.61335250247102,33.50786234162997,38.39599245215204,1577399464.0,-27.68825715705947,-51.1284597160493,7.01636
45957,1577399464.97,0.3781086768173583,2.086926315382049,13.546860154463603,-0.1204692201195686,-1.7582199459913297,8.807450375440643,0.84585392798447,-11.442181709698932,11.09712469482422,-11.243308462747711,-3.567207150342988,1.4730313929115857,-0.3440670850800305,9.486500809832316,2.7249964272103657,2.856556962176067,12.933498475609756,-8.397916468178353,3.43776041666667,-5.21481810897436,0.526028716653711,-12.312181908636234,-0.3665943431568428,5.407128328402368,27.565429658250217,33.699553718513194,38.49183814059364,1577399464.0,-27.68825715705947,-51.1284597160493,7.01636
45958,1577399464.98,1.9487049658798583,-0.0080001372546683,11.396867063643292,2.1731759703101177,-2.299309521186642,8.060459457471893,5.402019687261813,18.13578559987138,13.11304249267578,3.0999532560022867,9.707939334032012,2.2970060022865857,-2.8159909132050305,-0.0960187214176829,4.800191739710366,4.168812821551067,2.496486756859756,-2.782682093178354,1.8511017628205124,-6.237331463675212,-0.5260287166537173,-3.2725932921245406,-4.032537774725275,5.407128328402368,27.517506814029414,33.699553718513194,38.49183814059364,1577399464.0,-27.68825715705947,-51.1284597160493,7.01636
45959,1577399464.99,-1.340928115174828,-1.2529850005359182,11.368136643721416,-2.3925665956078497,2.699783545219607,13.315732101514865,3.848182809820408,2.1616721233088785,14.475343237304688,-10.693992056497711,17.550956912157012,0.9542325647865856,-3.0296139600800305,0.6364031535823171,1.6873987709603655,-18.96351139719893,8.416896913109756,10.584017125571648,2.7325787927350405,-3.169791399572651,-0.0751469595219649,-3.2725932921245406,-1.099783029470529,6.587086591293322,27.61335250247102,33.50786234162997,38.44391529637284,1577399464.0,-27.68825715705947,-51.1284597160493,7.01636
45960,1577399465.0,-0.1605866967177969,1.5458367401867368,9.3115174176472,-1.712613324123475,0.908920703422732,6.872935434034393,0.663894601812595,-3.723275557355183,9.18655177001953,-1.4166483064977131,8.487236209032012,1.5035489710365857,-2.2971920850800305,7.472340653582317,3.1522425209603657,-23.87684147532393,-2.813571836890244,-4.583219202553353,3.085169604700852,-6.441834134615385,1.7283800690050692,-2.861702900464919,-4.032537774725275,-3.737548209002536,27.61335250247102,33.50786234162997,38.49183814059364,1577399465.0,-27.688200908718706,-51.12849332998097,7.0507317
45961,1577399465.01,-0.9841920678115468,-1.0925734893054495,5.897385850264386,3.0901552061499613,-0.1852294552686732,6.951944088819549,6.043665732183688,14.415196219988566,3.627215515136719,0.2618184903772865,2.6583787871570124,1.6866544397865857,-8.126049506955031,4.298512528582317,2.8165491615853657,0.8118792278010671,7.684475038109756,6.281038609946647,3.2614650106837644,-5.828326121794873,0.6763226356976285,0.0145298411524369,-4.032537774725275,-4.032537774725275,27.70919819091263,33.699553718513194,38.25222391948962,1577399465.0,-27.688200908718706,-51.12849332998097,7.0507317
45962,1577399465.02,1.0029953101181397,0.3942257416515807,9.41207388737376,-0.1132866151390999,1.7468912844774196,7.833010299757049,-5.467655849847561,2.1497011150080976,3.725377783203125,-3.3087381502477133,-6.649482540967988,0.5269864710365855,-5.532055366330031,2.986256669207317,0.4972132240853658,3.375355790301067,33.01406488185975,21.539827672446645,4.142942040598292,-5.623823450854701,0.526028716653711,0.0145298411524369,5.132320804195805,2.457232671174979,27.565429658250217,33.50786234162997,38.39599245215204,1577399465.0,-27.688200908718706,-51.12849332998097,7.0507317
45963,1577399465.03,0.1578421240829833,0.0063650727062682,5.8878090436237605,3.157192852634336,1.196224902641482,10.401988681104708,-2.012822854242091,-17.691048042706743,0.6751648681640625,-1.1725076814977131,8.243095584032012,2.6632169397865857,-5.715160835080031,3.993336747332317,1.1380823647103655,0.0489397746760671,63.01284417873475,-1.8061195931783536,2.556283386752135,-6.646336805555555,2.179261826136821,0.219975036982249,-3.849240603146853,2.604727454036349,27.565429658250217,33.41201665318837,38.39599245215204,1577399465.0,-27.688200908718706,-51.12849332998097,7.0507317
45964,1577399465.04,0.2919174170517333,-2.0406773467273243,4.240598301436261,1.81404572128668,-0.2402960934522669,9.834562887647678,-0.7415017726991228,-4.455901265362995,1.9536685546875,-1.1114725252477131,11.233818240282012,2.3580411585365857,-9.682445991330033,5.824391434832317,0.2835901772103658,23.455922196551068,108.05678949123477,-12.822965296303352,3.966646634615387,-4.601310096153848,0.6763226356976285,-0.8072509421668069,3.665943431568432,-3.4425586432797965,27.61335250247102,33.55578518585078,38.44391529637284,1577399465.0,-27.688200908718706,-51.12849332998097,7.0507317
45965,1577399465.05,1.249598081114233,0.6480111176281431,8.775216245772198,1.1221214415015242,2.3957199343797635,7.749213241651581,2.5265834934141576,-9.15811332590987,13.467384338378906,-3.5833963533727133,2.6278612090320124,1.2899259241615857,-6.783276069455031,1.1857195598323171,1.5958460365853655,28.552357743426068,94.59853753810977,-23.809293421303355,3.966646634615387,-5.41932077991453,1.5780861499611456,-11.079510733657369,-4.032537774725275,-0.4926629860524088,27.70919819091263,33.55578518585078,38.25222391948962,1577399465.0,-27.688200908718706,-51.12849332998097,7.0507317
45966,1577399465.06,0.5193665747665771,2.800398410108612,9.555725986983136,-1.6216336610375373,0.142776172172732,10.38762347114377,1.1978015720274386,4.895850419207317,25.33304776611328,5.358254037252286,0.918876834032012,0.7711270960365855,-3.639965522580032,4.695241044207317,2.2367151772103657,12.378041337176068,1.3673363662347562,-21.550992640053355,4.319237446581198,-5.828326121794873,-0.5260287166537173,-3.2725932921245406,-4.032537774725275,2.752222236897718,27.517506814029414,33.36409380896756,38.58768382903526,1577399465.0,-27.688200908718706,-51.12849332998097,7.0507317
45967,1577399465.07,0.6678070776962646,-1.818016592332793,11.947533445479229,-2.9408387757836323,1.366213220512576,7.4140250092297055,-7.244153481683498,-4.9826256305973695,18.95489454345703,-8.740867056497713,0.0949022246570121,-0.3580232945884145,-6.417065131955031,11.836354325457316,3.2132776772103657,-24.51771061594893,-71.87485113376525,-16.424039515053355,4.495532852564104,-4.3968074252136775,0.2254408785658761,-3.2725932921245406,-4.032537774725275,-3.4425586432797965,27.75712103513344,33.699553718513194,38.39599245215204,1577399465.0,-27.688200908718706,-51.12849332998097,7.0507317
45968,1577399465.08,0.2368507788681395,-1.0351126494616991,10.38890816471751,2.290491851657774,-4.583377904975705,13.864004281690644,-1.4190608425233415,13.653840092058878,15.176844323730467,-1.2030252596227131,22.40325183403201,2.3275235804115857,-3.639965522580032,3.871266434832317,2.7555140053353657,-46.734507490948936,-137.45712652439025,15.710970250571648,4.142942040598292,-5.21481810897436,0.526028716653711,-3.067148096294731,-2.3828632305194803,-3.2950638604184275,27.61335250247102,33.41201665318837,38.44391529637284,1577399465.0,-27.688200908718706,-51.12849332998097,7.0507317
45969,1577399465.09,0.2512159888290771,-2.586555325242949,8.035407932783917,4.620050066989805,-3.2857206051710177,7.375717782667206,0.2353325046446262,3.4521468181330985,6.222530114746093,-7.550681509622714,11.630546755907012,1.5645841272865857,-9.835033881955033,7.136647294207317,0.2530725990853658,-49.633677412823936,-163.09189214939025,38.59915384432165,3.966646634615387,-4.192304754273503,-0.2254408785658824,-3.2725932921245406,-4.032537774725275,-4.032537774725275,27.61335250247102,33.55578518585078,38.49183814059364,1577399465.0,-27.688200908718706,-51.12849332998097,7.0507317
45970,1577399465.1,-1.592319289491234,2.850676644971893,10.55410807926829,-2.631986761623476,6.008570239555544,21.276452621534396,-2.4509617580506853,-8.305777534894245,-0.6560112548828124,-1.843894400247713,5.313408084032012,0.0692227991615854,-8.065014350705031,-5.070383955792683,1.5042933022103655,-46.368296553448936,-136.66366949314025,34.78445657869665,3.43776041666667,-6.0328287927350415,1.4277922309172282,-3.2725932921245406,-3.299349088411588,-30.876588255494507,27.61335250247102,33.55578518585078,38.39599245215204,1577399465.0,-27.688200908718706,-51.12849332998097,7.0507317
45971,1577399465.11,-1.226006435487328,1.842717746046112,13.149422678877666,-0.3383415711937874,1.4332508669969508,11.297420102003146,2.0980213962461884,-8.358449971417683,-6.030993981933594,-0.5011209627477134,-1.308906369092988,0.9542325647865856,-3.762035835080032,12.263600419207316,0.3751429115853658,-34.374888350323936,-91.52817144626523,22.485872594321645,3.2614650106837644,-4.601310096153848,0.9769104737854758,-11.28495592948718,-1.649674544205794,-3.000074294695689,27.517506814029414,33.747476562734,38.30014676371043,1577399465.0,-27.688200908718706,-51.12849332998097,7.0507317
45972,1577399465.12,-2.650556423280297,-2.8211870879382617,9.409679685713606,-1.6264220643578498,-3.656821862495237,9.559229696729703,-1.7638258815858414,-7.484566365460651,1.7980454467773437,-12.250388540872711,1.529228396532012,0.9542325647865856,-3.2127194288300305,-5.680735518292683,-0.2962438071646341,-21.95423405344893,-32.26303472751525,6.403108922446647,3.085169604700852,-5.623823450854701,0.2254408785658761,-3.2725932921245406,0.3665943431568428,-3.4425586432797965,27.75712103513344,33.41201665318837,38.25222391948962,1577399465.0,-27.688200908718706,-51.12849332998097,7.0507317
45973,1577399465.13,-1.8077974389052969,-0.331217361375762,12.56044907047923,-4.339052545314882,1.809140527641482,19.521502804639866,-2.36477049828506,-9.785394160870808,7.81467421875,-4.987204947122714,3.604423709032013,4.036507955411586,-3.884106147580032,-6.870921065167683,3.9456995522103657,-7.580454756573933,20.10512933498476,-1.7145668588033538,2.203692574786324,-5.01031543803419,1.8786739880489869,0.219975036982249,-0.916485857892108,-3.8850429918639056,27.852966723575044,33.699553718513194,38.58768382903526,1577399465.0,-27.688200908718706,-51.12849332998097,7.0507317
45974,1577399465.14,-1.877229287049828,-0.4006492095202933,12.77113881657298,2.750178570407774,-5.931313439643674,10.342133639600805,1.9639461032774383,4.543902775164348,15.06671104736328,-11.273826040872711,-6.130683712842988,0.8931974085365855,7.010669243044969,1.7960711223323171,-1.7000524009146345,15.612904618426068,14.611965272484756,-6.566861780678353,3.966646634615387,-5.828326121794873,1.2774983118733108,0.219975036982249,-0.916485857892108,-3.8850429918639056,27.565429658250217,33.65163087429239,38.39599245215204,1577399465.0,-27.688200908718706,-51.12849332998097,7.0507317
45975,1577399465.15,1.168195224668921,-0.0080001372546683,10.245256065108135,-2.672688189846132,0.3319181033250757,14.785771920850802,-1.912266384515529,-2.60757758372237,14.281412902832033,2.9168477872522867,-10.342109494092988,1.7171720179115857,0.0526614305449695,-17.307932783917682,7.485738614710366,1.9715471965510671,6.189113709984756,1.1235679068216462,2.027397168803418,-7.259844818376068,1.7283800690050692,3.5070981702592268,-0.5498915147352641,-2.70508472897295,27.565429658250217,33.55578518585078,38.30014676371043,1577399465.0,-27.688200908718706,-51.12849332998097,7.0507317
45976,1577399465.16,-2.368040627381859,1.864265560987518,15.59869097721751,-0.9416803895531624,-1.4086665036085169,15.731481576612522,3.8793074314024394,-5.396822517804401,12.41154140625,4.351173959127286,-10.738838009717988,-0.1444002477134145,0.8156008836699695,6.678883622332317,-3.1038609946646343,-1.6905621784489329,0.024562928734756,-5.315641077553353,2.908874198717946,-6.646336805555555,0.3757347976097936,-2.450812508805297,7.698481206293707,-41.201223055790365,27.61335250247102,33.41201665318837,38.30014676371043,1577399465.0,-27.688200908718706,-51.12849332998097,7.0507317
45977,1577399465.17,0.5026071631454833,-4.145180606004668,8.09765717594798,-2.7636678529320697,-2.9792627926710176,4.866594442823455,5.943109262457125,10.83107633473466,7.656656909179687,-7.001365103372714,1.040947146532012,2.7242520960365857,-1.3206295850800305,-2.323801924542683,2.6639612709603657,2.185170243426067,-0.2806128525152439,6.433626500571647,2.7325787927350405,-5.623823450854701,0.2254408785658761,-11.490401125316987,0.3665943431568428,-41.79120218723584,27.61335250247102,33.41201665318837,38.635606673256056,1577399465.0,-27.688200908718706,-51.12849332998097,7.0507317
45978,1577399465.18,-1.022499294374047,0.9592573334484557,13.671358640791729,-0.3622835877953499,0.5114832278367946,10.70126388862424,-1.1724580715272477,-10.486895247296587,2.681505859375,-1.7828592439977131,-11.562812619092988,0.0692227991615854,4.111499321169969,-9.617503096417684,-0.7234899009146342,-2.545054365948933,20.65444574123476,-2.477506311928354,3.085169604700852,-5.21481810897436,0.2254408785658761,-13.955743475274724,1.832971715784216,-41.79120218723584,27.852966723575044,33.65163087429239,38.44391529637284,1577399465.0,-27.688200908718706,-51.12849332998097,7.0507317
45979,1577399465.19,0.2919174170517333,-1.6504224761218556,8.581285911299542,-0.4005908143578499,2.302346069633669,7.818645089796112,10.65729233130478,21.818067753191688,1.5897499023437498,7.586037240377286,-6.618964962842988,1.3204435022865857,-2.0835690382050305,-1.4998273151676829,2.1146448647103657,21.960560868426068,27.85659417873476,4.053255406821647,3.43776041666667,-4.3968074252136775,0.8266165547415459,-2.450812508805297,8.431669892607392,-32.3515360841082,27.517506814029414,33.65163087429239,38.49183814059364,1577399465.0,-27.688200908718706,-51.12849332998097,7.0507317
45980,1577399465.2,1.7428036231064208,0.9233443085461118,8.552555491377667,2.0223412657202737,0.9400453250047632,7.212912069776581,-0.2291426174256852,-9.684837691144244,5.360617517089843,4.412209115377286,-8.785713009717988,-0.0528475133384145,2.707690727419969,-3.239329268292683,2.1756800209603657,6.060902665301067,47.38784417873475,1.0625327505716462,3.085169604700852,-6.441834134615385,-0.6763226356976347,-0.8072509421668069,11.364424637862138,-32.3515360841082,27.61335250247102,33.747476562734,38.39599245215204,1577399465.0,-27.688200908718706,-51.12849332998097,7.0507317
45981,1577399465.21,-0.5197169457412344,0.8132110321789243,9.256450779463606,-1.0566020692406624,-0.7143480221632045,5.915254769971893,-6.588142226800686,7.105698551531535,5.468356591796875,2.7337423185022867,3.5739061309070124,1.9002774866615848,-0.9239010694550304,3.321950028582317,-2.2188512290396343,24.585072587176068,47.57094964748475,-19.353727015053355,2.027397168803418,-6.0328287927350415,0.526028716653711,-14.777524258593967,0.3665943431568428,-32.3515360841082,27.852966723575044,33.55578518585078,38.58768382903526,1577399465.0,-27.688200908718706,-51.12849332998097,7.0507317
45982,1577399465.22,2.664571262266578,-0.8603359282702931,8.315529527022198,1.5865965635718364,2.199395398246951,8.776325753858613,-0.8731828640077165,-3.299501863507526,12.081141577148436,1.5740743497522869,-6.832588009717988,1.0152677210365857,3.348559868044969,-2.659495283917683,4.464498380335366,8.990590165301068,44.58022699123475,-2.263883265053354,3.2614650106837644,-7.055342147435899,0.3757347976097936,-14.161188671104536,-3.849240603146853,-2.70508472897295,27.61335250247102,33.36409380896756,38.25222391948962,1577399465.0,-27.688200908718706,-51.12849332998097,7.0507317
45983,1577399465.23,0.7037201025986083,1.787651107862518,12.359336131026105,1.8667181578101175,-1.7606141476514856,11.01490430610471,-2.443779153070216,-6.043256966046589,11.659762084960937,3.832375131002287,-0.0576856659679878,-0.7242342320884145,-1.3206295850800305,7.197682450457317,-1.1812535727896345,4.229847977801067,17.541652772484756,-24.694303186928355,2.7325787927350405,-4.3968074252136775,-0.0751469595219649,-7.792387600380388,-2.3828632305194803,-2.70508472897295,27.70919819091263,33.50786234162997,38.39599245215204,1577399465.0,-27.688200908718706,-51.12849332998097,7.0507317
45984,1577399465.24,0.165024729063452,-5.9767448760242,10.513406651045637,-0.4843878724633186,-4.49718664521008,10.94307825630002,5.188935739507907,16.785455863543255,11.269507214355468,-1.996482290872713,10.074150271532012,3.5787442835365857,3.6537356492949695,-5.192454268292683,5.288472989710366,3.833119462176067,-3.698581602515244,5.304476109946647,4.671828258547009,-5.828326121794873,0.9769104737854758,-3.2725932921245406,-2.9327547452547447,5.997107459847844,27.565429658250217,33.50786234162997,38.49183814059364,1577399465.0,-27.688200908718706,-51.12849332998097,7.0507317
45985,1577399465.25,-1.1805166039443593,0.0662201142101744,10.647481944014386,-2.3303173524437875,0.774845410453982,14.010050582960178,-2.24984881859756,-15.768504109601276,11.784260571289062,0.2313009122522865,5.801689334032012,2.2054532679115857,1.5175051805449695,3.352467606707317,-0.5098668540396342,0.9339495403010672,12.964016053734756,7.532259313071647,2.7325787927350405,-6.441834134615385,0.8266165547415459,-3.2725932921245406,-3.299349088411588,5.407128328402368,27.75712103513344,33.65163087429239,38.25222391948962,1577399465.0,-27.688200908718706,-51.12849332998097,7.0507317
45986,1577399465.26,-0.3329692162490469,0.1021331391125182,10.300322703291728,1.0766316099585551,-0.3025453366163294,5.680623007276581,6.333364133062594,15.008958231707316,15.555128186035155,-0.1349100252477134,3.848564334032013,1.1983731897865857,1.4564700242949695,1.5824480754573171,-0.4183141196646341,7.403676102801067,-7.513278868140244,0.5132163443216463,2.7325787927350405,-6.0328287927350415,0.2254408785658761,-3.2725932921245406,-2.9327547452547447,5.997107459847844,27.61335250247102,33.55578518585078,38.15637823104801,1577399465.0,-27.688200908718706,-51.12849332998097,7.0507317
45987,1577399465.27,-0.5316879540420156,3.293603952100799,10.015412705733135,-3.3071516297875383,4.385301513969607,13.974137558057834,0.0007007419493139,-11.157271712140338,9.883264453125,11.461769662252289,-12.478339962842988,0.1912931116615854,0.8461184617949695,-12.455637862042684,3.0912073647103657,-12.188609053448932,-3.332370665015244,8.234163609946647,3.2614650106837644,-5.41932077991453,0.6763226356976285,-2.450812508805297,-3.299349088411588,5.997107459847844,27.70919819091263,33.41201665318837,38.44391529637284,1577399465.0,-27.688200908718706,-51.12849332998097,7.0507317
45988,1577399465.28,-1.3768411400771718,-2.2609438994616995,10.33144732487376,2.403019329685117,0.7317497805711695,7.698935006788299,3.1706237399961887,7.361878129168255,6.021417175292968,-4.010642447122714,2.6278612090320124,1.4425138147865857,0.4493899461699695,9.333912919207316,-1.6695348227896345,2.063099930926067,3.198391053734756,-4.369596155678353,2.379987980769229,-3.987802083333333,0.526028716653711,1.041755820301493,-0.916485857892108,-2.70508472897295,27.373738281367,33.50786234162997,38.44391529637284,1577399465.0,-27.688200908718706,-51.12849332998097,7.0507317
45989,1577399465.29,1.2711458960556394,-2.725419021532012,4.034696958662823,1.3280227842749617,-4.071018749702268,6.566477621534394,-3.652850991449123,-9.055162654523151,11.669338891601562,2.1233907560022867,3.5433885527820124,3.9754727991615857,3.318042289919969,-4.643137862042683,3.2437952553353657,1.2696428996760671,-2.020114805640244,1.6118491568216462,2.379987980769229,-3.987802083333333,0.526028716653711,0.8363106244716829,-4.032537774725275,-1.3776316832206257,27.75712103513344,33.65163087429239,38.39599245215204,1577399465.0,-27.688200908718706,-51.12849332998097,7.0507317
45990,1577399465.3,-0.7758965233779531,-0.6496461821765432,10.441580601240949,-0.4197444276390999,-1.8659590206983607,11.24953606880002,-1.328081179437404,1.6517071696955974,12.684480395507812,-1.2335428377477131,-6.222236447217988,0.4049161585365854,-0.9544186475800304,-4.765208174542683,0.1004847084603658,2.459828446551067,-20.361179258765244,-5.987027796303353,2.379987980769229,-3.987802083333333,0.526028716653711,-3.067148096294731,-3.48264625999001,-34.26896826130599,27.565429658250217,33.41201665318837,38.10845538682721,1577399465.0,-27.688200908718706,-51.12849332998097,7.0507317
45991,1577399465.31,0.2655811987900145,-0.446139041063262,10.137516990401105,-1.5641728211937873,1.97673464385242,15.55431065376096,2.5744675266172825,1.761840446062785,14.015656518554689,3.649269662252287,-2.804267697217988,3.0599454554115857,2.310962211794969,-5.100901533917683,4.952779630335366,-7.427866865948933,-28.265231993140244,7.562776891196647,2.379987980769229,-3.987802083333333,0.526028716653711,-12.723072300295856,-3.665943431568431,-33.53149434699915,27.61335250247102,33.55578518585078,38.30014676371043,1577399465.0,-27.688200908718706,-51.12849332998097,7.0507317
45992,1577399465.32,0.5145781714462646,4.682240914991424,14.62185669987376,4.179516961521055,-0.3336699581983606,13.416288571241427,-4.758972158441311,-0.9651552448551828,14.66448516845703,12.102638802877289,-9.731757931592988,2.0223477991615857,3.134936821169969,3.810231278582317,-1.8526402915396345,-9.228403975323932,-25.793308165015244,-10.076383265053352,2.379987980769229,-3.987802083333333,0.526028716653711,-12.312181908636234,-2.5661604020979016,-0.4926629860524088,27.517506814029414,33.65163087429239,38.30014676371043,1577399465.0,-27.688200908718706,-51.12849332998097,7.0507317
45993,1577399465.33,-1.7168177758193592,-2.665563980028105,11.328632316328838,-1.7293727357445683,-1.971303893745236,10.852098593214084,-1.0288059719178726,6.282093180437785,12.27746611328125,-6.253684439310212,8.609306521532012,3.3040860804115857,1.1207766649199695,-10.716135908917684,2.2061975990853657,-0.9276227253239328,-25.030368711890244,15.009065953696648,2.379987980769229,-3.987802083333333,0.526028716653711,-3.2725932921245406,-2.1995660589410586,0.6872952768385466,27.637313924581424,33.50786234162997,38.30014676371043,1577399465.0,-27.688200908718706,-51.12849332998097,7.0507317
45994,1577399465.34,-0.8237805565810782,-2.8834363311023243,11.36574244206126,-3.733319525295351,0.8634308718797632,14.335662008741428,-2.623344277581936,-8.485342659405964,8.537723120117187,-9.839499868997711,-12.569892697217988,1.3204435022865857,2.890796196169969,-7.664378096417683,0.6803186928353658,-1.9347028034489329,-5.102390196265244,3.473421422446646,3.614055822649576,-6.646336805555555,0.6763226356976285,-3.2725932921245406,-2.5661604020979016,-0.4926629860524088,27.70919819091263,33.50786234162997,38.39599245215204,1577399465.0,-27.688200908718706,-51.12849332998097,7.0507317
45995,1577399465.35,0.912015647032202,-1.0566604644031057,6.038643748213604,2.6041322691382427,-1.1572753292921107,5.242484103467987,6.529688669195407,16.174934440203412,4.347870214843749,7.982765756002286,-13.546455197217988,2.5716642054115857,1.5480227586699695,5.214039872332317,-1.0897008384146345,11.798207352801068,26.97158441310976,19.952913609946645,5.02441907051282,-5.41932077991453,0.9769104737854758,-2.450812508805297,-4.032537774725275,-1.3776316832206257,27.517506814029414,33.65163087429239,38.25222391948962,1577399465.0,-27.688200908718706,-51.12849332998097,7.0507317
45996,1577399465.36,2.9303276465439216,5.627950570753144,11.351377232100322,0.9066432920874616,1.4380392703172633,6.750831149366425,-7.86904011498428,-22.996598921613,1.2521674682617188,25.652443490377287,-25.204170040967988,-2.5552889195884143,3.6232180711699695,-11.662180830792684,6.417623380335366,7.373158524676067,48.79165277248475,7.837435094321647,4.142942040598292,-4.805812767094017,-0.6763226356976347,-3.2725932921245406,-1.099783029470529,-33.53149434699915,27.517506814029414,33.55578518585078,38.44391529637284,1577399465.0,-27.688200908718706,-51.12849332998097,7.0507317
45997,1577399465.37,2.523313364317359,-5.526634963914825,9.4264390973347,4.205853179782774,0.1092573489305445,5.821880905225799,-0.0902789211366227,-4.894040169171588,4.685452648925781,10.057961068502289,-8.785713009717988,0.4354337366615854,4.660815727419969,13.758961747332316,-3.7447301352896334,19.793812821551068,43.08486566310975,-26.433805140053355,2.7325787927350405,-5.21481810897436,1.127204392829393,-3.2725932921245406,-2.5661604020979016,-33.53149434699915,27.373738281367,33.699553718513194,38.49183814059364,1577399465.0,-27.688200908718706,-51.12849332998097,7.0507317
45998,1577399465.38,4.402761667540015,-1.7653441558093557,7.338695249678448,4.999531030124571,2.0270128787157016,5.297550741651581,3.214916470709079,-1.6463056171696355,6.305130072021484,4.900490365377286,15.536796755907012,0.8626798304115855,1.5022463914824693,4.084889481707317,2.6944788490853657,21.014515946551068,52.97256097560975,-8.291104944740852,4.142942040598292,-6.850839476495726,-0.0751469595219649,-3.2725932921245406,-1.8329717157842156,-32.3515360841082,27.61335250247102,33.60370803007159,38.34806960793124,1577399465.0,-27.688200908718706,-51.12849332998097,7.0507317
45999,1577399465.39,4.534442758848609,1.5482309418468931,10.839018076826886,2.474845379489805,-1.648086669624142,5.898495358350799,-0.303362868890529,1.9557707805354407,13.2926076171875,12.346779427877289,-3.750312619092988,-1.3956209508384143,5.484790336794969,18.15349299733232,-1.0286656821646345,14.636342118426068,33.92959222560975,-9.374478968178352,3.43776041666667,-6.441834134615385,-0.0751469595219649,-3.2725932921245406,-1.099783029470529,-32.3515360841082,27.852966723575044,33.50786234162997,38.44391529637284,1577399465.0,-27.688200908718706,-51.12849332998097,7.0507317
46000,1577399465.4,-0.7735023217177969,-4.327139932176543,8.368201963545635,-0.9416803895531624,-2.536335485542112,5.644709982374237,-4.656021487054592,2.125759098406535,14.18564483642578,2.5506368497522867,17.459404177782012,2.6021817835365857,2.860278618044969,6.495778153582317,1.3822229897103655,8.349721024676068,22.21084222560976,-3.179410608803354,2.7325787927350405,-5.21481810897436,0.526028716653711,-0.8072509421668069,-1.099783029470529,-30.876588255494507,27.70919819091263,33.50786234162997,38.25222391948962,1577399465.0,-27.688200908718706,-51.12849332998097,7.0507317
46001,1577399465.41,1.5799979102157955,0.9089790985851744,11.629104624678448,0.3918899351538678,1.742102881157107,15.506426620557834,4.391666586675877,6.133652677508098,14.61420693359375,-2.2406229158727133,7.022392459032012,0.0387052210365854,4.172534477419969,2.894703934832317,0.9244593178353658,9.478871415301068,5.609279725609756,17.938753453696645,3.966646634615387,-5.828326121794873,0.6763226356976285,4.123433757748661,0.3665943431568428,-29.40164042688081,27.70919819091263,33.699553718513194,38.39599245215204,1577399465.0,-27.688200908718706,-51.12849332998097,7.0507317
46002,1577399465.42,-2.164533486268578,0.8179994354992368,7.614028440596416,-0.7621152650414437,0.774845410453982,13.65092033393674,1.6359404758360323,-21.74443145335128,18.18396160888672,10.637795052877289,14.712822146532012,3.1820157679115857,4.233569633669969,7.502858231707317,1.0465296303353655,0.8423968059260671,-3.759616758765244,-3.637174280678354,3.790351228632481,-4.805812767094017,-0.3757347976097998,-2.0399221171456747,1.832971715784216,-38.25132739856297,27.61335250247102,33.41201665318837,38.49183814059364,1577399465.0,-27.688200908718706,-51.12849332998097,7.0507317
46003,1577399465.43,-0.7375892968154532,1.2848687592297057,5.612475852705792,2.874677056735899,3.4778990847703883,6.092425692823456,-2.891494863519436,13.505399589129192,3.687070556640625,1.6656270841272869,4.794609255907012,-0.1749178258384145,-2.1751217725800305,11.805836747332316,-0.0215856040396341,10.791127274676068,11.285549256859756,0.3911460318216463,3.790351228632481,-3.578796741452992,1.127204392829393,-2.0399221171456747,2.1995660589410586,-31.171577821217245,27.373738281367,33.41201665318837,38.39599245215204,1577399465.0,-27.688200908718706,-51.12849332998097,7.0507317
46004,1577399465.44,-0.3281808129287344,-0.005605935594512,7.458405332686261,0.4182261534155866,2.1970011965867946,6.623938461378144,-10.236905556878812,-22.73802514231612,-4.896142395019531,9.172951302877289,1.132499880907012,1.5645841272865857,-2.4497799757050305,1.4908953410823171,1.2601526772103655,1.7579241496760671,41.10122308498475,12.537142125571648,2.7325787927350405,-5.21481810897436,0.526028716653711,-9.8468395586785,2.1995660589410586,-27.33671346682164,27.61335250247102,33.36409380896756,38.39599245215204,1577399465.0,-27.688200908718706,-51.12849332998097,7.0507317
46005,1577399465.45,1.0293315283798583,3.849058737257049,4.602122752119855,1.0694490049780865,-1.3081100338819545,3.5713313446789243,7.185699924078219,-10.446193819073931,-1.5227122558593749,18.938576302877287,-0.0882032440929878,-0.9683748570884144,-1.8089108350800305,6.404225419207317,-0.6319371665396342,10.638539384051068,51.50771722560975,-20.574430140053355,2.7325787927350405,-4.3968074252136775,0.526028716653711,-2.450812508805297,8.431669892607392,-29.99161955832629,27.61335250247102,33.699553718513194,38.44391529637284,1577399465.0,-27.688200908718706,-51.12849332998097,7.0507317
46006,1577399465.46,4.026872006895484,-0.5083882842273245,7.829506590010479,3.157192852634336,0.238544238578982,5.6303447724133,5.909590439214938,16.000157719012005,-0.7852981445312499,6.456886849752286,-5.276191525342988,-1.6092439977134143,4.508227836794969,0.7584734660823171,1.3517054115853655,26.294056962176068,81.93374261623475,-0.9821449838033536,3.790351228632481,-4.3968074252136775,0.526028716653711,-9.230503971189066,8.248372721028971,-31.90905173552409,27.517506814029414,33.55578518585078,38.58768382903526,1577399465.0,-27.688200908718706,-51.12849332998097,7.0507317
46007,1577399465.47,1.6997079932236083,0.0039708710461119,12.45749839909251,1.7110950498999613,0.554578857719607,5.185023263624237,-8.103671877679592,-15.186713106183308,4.781220715332031,-1.2945779939977131,-0.7901075409679879,-1.1514803258384143,-1.8394284132050305,3.169362137957317,0.1310022865853658,16.742055009051068,96.03286370998477,-16.027310999428355,1.8511017628205124,-4.601310096153848,0.6763226356976285,-9.230503971189066,-0.916485857892108,-29.84412477546492,27.61335250247102,33.55578518585078,38.39599245215204,1577399465.0,-27.688200908718706,-51.12849332998097,7.0507317
46008,1577399465.48,2.568803195860328,1.538654135206268,12.67537075016673,1.8379877378882423,-0.2235366818311732,9.99258019721799,0.3358889743711887,2.0060490153987223,3.574543078613281,-2.9425272127477133,7.266533084032012,-2.8299471227134143,-8.675365913205031,8.326832841082316,1.1991175209603655,33.862416337176064,99.93911370998477,-22.191861780678355,3.43776041666667,-5.21481810897436,0.526028716653711,-9.8468395586785,-1.099783029470529,-3.147569077557058,27.565429658250217,33.50786234162997,38.39599245215204,1577399465.0,-27.688200908718706,-51.12849332998097,7.0507317
46009,1577399465.49,2.2252352576279053,0.9448921234875182,10.16624741032298,4.524282000583555,0.0637675173875758,12.008497995069552,1.0709088840391574,6.495177128191692,16.103400366210938,-8.481467642435213,14.850151248094512,-2.3569246617759143,-0.6797604444550305,8.754078934832316,-1.7916051352896345,29.956166337176068,104.24209222560977,-6.475309046303353,4.05479433760684,-4.29455608974359,0.4508817571317554,-9.8468395586785,-1.099783029470529,-3.147569077557058,27.68523676880223,33.50786234162997,38.49183814059364,1577399465.0,-27.688200908718706,-51.12849332998097,7.0507317
46010,1577399465.5,1.0915807715439207,-3.072578262254668,8.617198936201886,1.5195589170874615,-1.1967796566846889,8.571621511915254,-2.005640249261624,4.962888065691691,16.29733070068359,-8.008445181497713,23.19670886528201,-0.7547518102134145,-3.762035835080031,10.295216630144816,-0.3725377524771344,14.376942704363568,37.45437249904725,-20.92538228849085,4.671828258547009,-4.601310096153848,1.2774983118733108,-7.689665002465481,-1.3747287868381617,2.3834852797442947,27.61335250247102,33.43597807529877,38.37203103004163,1577399465.0,-27.688200908718706,-51.12849332998097,7.0507317
46011,1577399465.51,2.0109542090439207,-1.585779031297637,5.794435178877667,-0.4173502259789436,-0.4725336544874232,5.960744601514862,-7.277672304925686,-8.437458626202838,15.00925020751953,-9.686911978372711,20.54167956840701,-2.0364900914634143,-7.515697944455031,10.493580887957316,0.5582483803353658,-5.718882490948933,-8.672946836890244,26.147981969321645,4.671828258547009,-4.601310096153848,1.2774983118733108,-3.067148096294731,-3.48264625999001,5.554623111263735,27.61335250247102,33.50786234162997,38.30014676371043,1577399465.0,-27.688200908718706,-51.12849332998097,7.0507317
46012,1577399465.52,0.1099580908798583,4.706182931592987,9.256450779463606,0.0207886778296491,2.201789599907107,2.994328744581268,-1.864382351312404,-17.793998714093462,13.204022155761718,5.083595834127286,13.431083865282012,-4.203238138338414,-7.393627631955031,7.899586747332317,-0.4488316977896341,-20.24524967844893,-49.81064214939025,-10.564664515053352,2.556283386752135,-7.873352831196582,1.2774983118733108,0.8363106244716829,-0.3665943431568428,6.292097025570584,27.852966723575044,33.50786234162997,38.49183814059364,1577399465.0,-27.688200908718706,-51.12849332998097,7.0507317
46013,1577399465.53,0.4571173316025145,1.8331409394054867,6.04822055485423,-2.1818768495141,-0.4438032345655481,6.219318380811737,4.73403742407822,18.679269376726847,8.532934716796875,1.3604513028772869,2.1090623809070124,-2.9825350133384143,1.8837161180449693,-3.025706221417683,-2.0052281821646343,-24.42615788157393,-68.36532964939025,-2.630094202553354,3.2614650106837644,-5.41932077991453,1.2774983118733108,-3.2725932921245406,-0.3665943431568428,-3.737548209002536,27.373738281367,33.50786234162997,38.25222391948962,1577399465.0,-27.688200908718706,-51.12849332998097,7.0507317
46014,1577399465.54,-0.2683257714248282,1.7254018646984557,9.658676658369854,-4.046959942775819,1.9551868289110133,13.571911679151585,-1.3496289943788102,-11.39908607981612,10.429142431640624,-8.161033072122713,5.923759646532012,-4.538931497713414,-4.006176460080031,6.739918778582317,-1.1507359946646345,-30.43812077219893,-60.27817144626525,5.823274938071647,3.790351228632481,-7.259844818376068,1.127204392829393,-3.2725932921245406,-1.099783029470529,-3.737548209002536,27.75712103513344,33.699553718513194,38.39599245215204,1577399465.0,-27.688200908718706,-51.12849332998097,7.0507317
46015,1577399465.55,-1.666539540956078,-2.1244744048327933,10.973093369795636,1.1460634581030866,-5.660768652046017,11.649367746046115,1.556931821050876,-0.3594222248356514,15.14332550048828,-17.529929556497713,12.424003787157012,-3.5928865758384143,-3.1211666944550305,15.620534012957316,-4.538187166539634,-55.950816084698936,-54.41879644626525,4.327913609946647,3.966646634615387,-5.01031543803419,1.5780861499611456,0.219975036982249,-2.0162688873626373,1.4247691911453937,27.852966723575044,33.41201665318837,38.44391529637284,1577399465.0,-27.688200908718706,-51.12849332998097,7.0507317
46016,1577399465.56,0.2105145606064208,-4.839499087449981,8.195819444014386,-0.1611706483422249,-3.776531945503049,11.148979599073458,0.5968569553282199,0.076322477312785,9.751583361816406,-25.83071080649772,13.980400271532012,-0.3275057164634145,-3.853588569455032,-0.4317120807926829,0.8939417397103658,-14.477427412823932,-52.74032964939025,19.708772984946645,4.495532852564104,-5.623823450854701,-0.0751469595219649,-1.629031725486053,-4.032537774725275,-1.6726212489433638,27.565429658250217,33.65163087429239,38.30014676371043,1577399465.0,-27.688200908718706,-51.12849332998097,7.0507317
46017,1577399465.57,-1.0500326134658435,1.2956426667004086,14.517708927656964,-3.043789447170351,2.0653201052782006,18.58536995551877,0.9009205661680636,-2.234082124737995,17.41542287597656,-12.357200064310216,13.659965701219512,-0.8768221227134144,-1.7173581007050305,-5.894358565167683,-0.8760777915396342,-23.41907780344893,-61.46835699314025,15.741487828696648,3.614055822649572,-4.396807425213676,1.127204392829393,-8.203277992040011,-3.665943431568431,-1.6726212489433638,27.68523676880223,33.699553718513194,38.39599245215204,1577399465.0,-27.688200908718706,-51.12849332998097,7.0507317
46018,1577399465.58,-1.2810730736709215,1.3423295990734556,13.352929819990948,-0.7465529542504286,1.2488973391649196,12.185668917921117,-0.1513310634706079,2.3412372478205983,12.169727038574218,-9.564841665872711,1.956474490282012,-1.8839022008384143,-6.310253608517532,8.586232255144816,-0.2657262290396341,-26.98963444407393,-79.93149175876525,-3.896573694740853,3.43776041666667,-5.21481810897436,0.2254408785658761,-3.169870694209636,-3.940889188936064,-1.008894726067202,27.70919819091263,33.579746607961184,38.41995387426245,1577399465.0,-27.688200908718706,-51.12849332998097,7.0507317
46019,1577399465.59,-1.2307948388076404,1.4740106903820491,10.750432615401104,1.390272027439024,-3.537111779487424,10.485785739210176,2.629534164800876,7.419338969012005,8.046911779785155,0.8416524747522866,12.240898318407012,-1.2430330602134143,-4.708080756955031,5.610768387957317,-3.1954137290396343,-24.18201725657393,-75.65903082126525,16.809603063071645,3.614055822649576,-4.601310096153848,0.3757347976097936,-1.629031725486053,-4.032537774725275,1.867253539729502,27.565429658250217,33.41201665318837,38.30014676371043,1577399465.0,-27.688200908718706,-51.12849332998097,7.0507317
46020,1577399465.6,-2.1429856713271715,-5.754084121629669,6.962805589033917,-3.857818011623476,-0.2762091183546107,6.190587960889862,-0.3153338771913102,-6.967418806866901,0.45968671875,-10.053122915872711,7.663261599657012,0.1302579554115854,-3.4568600538300305,-5.833323408917683,0.6192835365853658,-24.42615788157393,-43.40195074314025,11.072298375571648,3.614055822649576,-4.601310096153848,0.3757347976097936,-3.2725932921245406,-4.032537774725275,-4.032537774725275,27.565429658250217,33.50786234162997,38.39599245215204,1577399465.0,-27.688200908718706,-51.12849332998097,7.0507317
46021,1577399465.61,0.155447922422827,-0.4892346709460745,6.608463743330792,-0.8147877015648811,1.7636506960985132,11.730770602491427,4.741220029058689,5.152029996844036,-0.2035071411132812,-0.4706033846227134,7.602226443407012,-1.5176912633384143,-3.4873776319550305,6.587330887957317,-1.0591832602896345,-11.028941084698932,-23.504489805640244,3.717562047446646,3.614055822649576,-4.601310096153848,0.3757347976097936,-1.629031725486053,-3.299349088411588,-4.032537774725275,27.565429658250217,33.55578518585078,38.44391529637284,1577399465.0,-27.688200908718706,-51.12849332998097,7.0507317
46022,1577399465.62,-1.532464247987328,0.2529678437023619,9.4264390973347,-2.268068109279725,-3.32881623505383,7.538523495557831,-8.122825490960842,-1.7791838093083077,8.05648858642578,1.8792501310022869,-4.696357540967988,-1.1514803258384143,-4.158764350705031,4.542653153582317,-1.0286656821646345,-9.258921553448932,-12.487644102515244,3.046175328696646,4.671828258547009,-4.192304754273503,1.5780861499611456,-1.629031725486053,-3.299349088411588,-4.032537774725275,27.70919819091263,33.65163087429239,38.39599245215204,1577399465.0,-27.688200908718706,-51.12849332998097,7.0507317
46023,1577399465.63,-1.9682089501357651,2.529853622510956,12.88606049626048,-2.7277548280297257,3.219325305473513,16.533539132764865,2.540948703375095,3.124141190691692,12.801796276855468,-6.726706900247714,-7.839668087842988,-1.4871736852134143,-4.341869819455031,-8.457835127667684,3.2437952553353657,-4.193003584698933,-9.405368711890244,-3.057340296303354,3.2614650106837644,-7.055342147435899,1.2774983118733108,-3.2725932921245406,-1.099783029470529,-3.4425586432797965,27.565429658250217,33.41201665318837,38.39599245215204,1577399465.0,-27.688200908718706,-51.12849332998097,7.0507317
46024,1577399465.64,-2.6373883141494376,-3.413751998826934,12.59875629704173,-2.622409954982851,-1.8156807858350796,14.73549368598752,2.1746358493711884,6.303640995379192,13.546392993164062,-15.805686392435216,9.738456912157012,0.3286222132240856,-4.433422553830031,10.890309403582316,-3.3174840415396343,-16.735728194073932,-17.187351133765244,1.8865073599466464,3.4377604166666664,-5.828326121794872,0.9769104737854696,-1.629031725486053,8.065075549450551,-2.852579511834319,27.58939108036062,33.50786234162997,38.30014676371043,1577399465.0,-27.688200908718706,-51.12849332998097,7.0507317
46025,1577399465.65,-2.5523941552138907,1.3207817841320493,14.305822080733137,-0.3634806886254285,-2.170022631538205,13.923859323194552,-1.1784435756776392,-2.7955224140446355,8.394071020507813,-4.224265493997714,-0.1797559784679878,-0.0528475133384145,-0.0999264600800304,-7.466013838605182,-0.5251256431021344,-2.453501631573933,4.281765077172256,6.708284703696647,3.2614650106837644,-5.41932077991453,0.6763226356976285,4.226156355663568,0.641540100524476,-17.528310406540577,27.61335250247102,33.53182376374038,38.44391529637284,1577399465.0,-27.688200908718706,-51.12849332998097,7.0507317
46026,1577399465.66,-1.8269510521865464,3.7796268891125178,10.001047495772198,-2.0166769349633187,1.6678826296922633,6.327057455518768,-1.399907229242091,-2.76080648997237,4.836287353515624,4.595314584127286,-4.757392697217988,-0.4800936070884145,-0.8323483350800305,5.275075028582317,-4.599222322789634,-0.6834821003239329,23.73672113185976,4.633089391196647,3.790351228632481,-5.21481810897436,0.2254408785658761,-3.067148096294731,0.1832971715784216,-39.87377001003804,27.61335250247102,33.699553718513194,38.25222391948962,1577399465.0,-27.688200908718706,-51.12849332998097,7.0507317
46027,1577399465.67,0.7803345557236083,0.5761850678234557,5.617264256026105,0.3152754820288678,1.378184228813357,2.1826943817882998,3.881701633062595,-2.3442154011051826,5.942408520507812,0.4449239591272865,-17.971504025342988,-2.6773592320884143,-2.6328854444550305,2.192799637957317,-1.2422887290396345,6.854359696551067,20.01357660060976,-10.930875452553352,3.085169604700852,-6.441834134615385,-0.6763226356976347,-3.067148096294731,1.2830802010489508,-39.87377001003804,27.61335250247102,33.65163087429239,38.39599245215204,1577399465.0,-27.688200908718706,-51.12849332998097,7.0507317
46028,1577399465.68,0.2344565772079833,-0.3144579497546683,7.731344321944073,-0.1444112367211311,-2.9792627926710176,7.5816191254406435,1.336665268316501,4.891062015887004,5.913678100585937,13.292824349752289,-6.252754025342988,-0.8768221227134145,-4.372387397580031,-7.908518721417683,-0.2352086509146341,4.687611649676067,17.053371522484756,-4.674771936928353,1.6748063568376068,-4.3968074252136775,0.8266165547415459,-9.8468395586785,0.7331886863136862,-40.90623349006763,27.70919819091263,33.31617096474676,38.49183814059364,1577399465.0,-27.688200908718706,-51.12849332998097,7.0507317
46029,1577399465.69,1.735621018125952,-2.5123350737781056,8.33947154362376,1.2873213560523051,2.750061780082888,8.718864914014862,-1.548347732171779,-4.479843281964557,10.002974536132813,-3.919089712747713,-9.609687619092988,-2.2806307164634143,-9.987621772580033,4.054371903582317,-1.3948766196646345,1.0560198528010671,19.83047113185976,-2.691129358803354,1.6748063568376068,-4.3968074252136775,0.8266165547415459,-9.8468395586785,0.3665943431568428,-29.99161955832629,27.75712103513344,33.41201665318837,38.58768382903526,1577399465.0,-27.688200908718706,-51.12849332998097,7.0507317
46030,1577399465.7,3.042855124571265,2.316769674757049,12.249202854658916,0.9832577452124616,3.8753365603563257,11.654156149366427,0.27124552954697,2.3149010295588788,11.81777939453125,10.393654427877289,-6.863105587842988,0.6795743616615855,-5.532055366330031,2.284352372332317,2.9691370522103657,6.610219071551067,8.203273866234756,-15.905240686928352,1.6748063568376068,-4.3968074252136775,0.8266165547415459,-9.8468395586785,0.3665943431568428,-29.99161955832629,27.517506814029414,33.41201665318837,38.44391529637284,1577399465.0,-27.688200908718706,-51.12849332998097,7.0507317
46031,1577399465.71,-0.7387863976455313,-1.923361465379669,11.832611765791729,4.414148724216368,-6.606478307807736,11.302208505323458,4.15942902564072,8.139993668719036,8.980650427246093,-15.637839712747711,11.188041873094512,-0.1749178258384143,0.2968020555449695,8.998219559832316,-5.453714510289634,-5.108530928448933,3.289943788109756,-2.080777796303354,3.878498931623934,-6.339582799145299,0.6011756761756697,-2.0399221171456747,8.431669892607392,-31.761556952662723,27.68523676880223,33.65163087429239,38.10845538682721,1577399465.0,-27.688200908718706,-51.12849332998097,7.0507317
46032,1577399465.72,-2.669710036561547,2.5178826142101745,13.70248326237376,0.3966783384741804,-1.861170617378048,5.163475448682831,0.2353325046446262,-3.740034968976276,11.066000073242186,-6.146872915872714,15.841972537157012,0.6185392054115855,-4.738598335080031,-4.734690596417683,1.1075647865853655,0.7508440715510671,12.811428163109756,3.778597203696646,4.142942040598292,-6.850839476495726,1.7283800690050692,-2.2453673129754868,8.248372721028971,-32.20404130124683,27.75712103513344,33.50786234162997,38.39599245215204,1577399465.0,-27.688200908718706,-51.12849332998097,7.0507317
46033,1577399465.73,0.5504911963486083,0.1595939789562682,8.53819028141673,0.9461476194800396,2.5369778323289824,14.603812594678924,5.44272111548447,4.151253702898724,6.719326959228515,-7.916892447122714,-7.198798947217988,-2.3721834508384143,3.318042289919969,4.466359208269816,-1.2422887290396345,5.267445634051067,15.023952577172258,0.4826987661966462,2.027397168803418,-3.987802083333333,0.8266165547415459,-9.33322656910397,3.207700502622377,-16.643341709372358,27.421661125587804,33.43597807529877,38.46787671848324,1577399465.0,-27.688200908718706,-51.12849332998097,7.0507317
46034,1577399465.74,1.9702527808212644,-0.6711939971179495,3.4816363751667296,-2.653534576564882,1.3039639773485134,2.71181294868283,2.95275138892197,1.0483683513362223,-4.367023828124999,15.825783334127289,-18.764961056592988,-1.9144197789634143,-1.4121823194550305,-3.422434737042683,-2.4019566977896343,10.852162430926068,50.98891839748475,-0.5548988900533537,3.966646634615387,-5.41932077991453,-0.2254408785658824,-9.8468395586785,-2.5661604020979016,-0.1976734203296699,27.75712103513344,33.55578518585078,38.58768382903526,1577399465.0,-27.688200908718706,-51.12849332998097,7.0507317
46035,1577399465.75,2.1809425269150147,2.0821379120617367,5.557409214522198,2.8938306700171488,0.6264049075242945,7.327833749464081,-5.371887783441311,-11.473306331280964,-0.5147533569335937,15.306984506002289,-5.703437619092988,-3.3182283727134143,3.8673586961699695,5.275075028582317,-4.171976229039634,15.551869462176068,90.78384027248477,-2.202848108803354,2.908874198717946,-3.3742940705128213,0.6763226356976285,-9.641394362848688,-2.3828632305194803,6.7345813741546925,27.373738281367,33.747476562734,38.39599245215204,1577399465.0,-27.688200908718706,-51.12849332998097,7.0507317
46036,1577399465.76,0.3613492651962646,-1.4086081084460744,2.636483189131573,2.1995121885718363,-0.7909624752882045,4.519435202100799,2.399690805425876,-1.934806917218464,12.758700646972656,13.475929818502289,-0.0576856659679878,0.0997403772865854,-3.2127194288300305,-2.476389815167683,-1.1812535727896345,27.301137040301068,84.71084222560975,-20.391324671303355,0.6170339209401732,-5.21481810897436,0.526028716653711,-2.0399221171456747,0.0,5.702117894125108,27.565429658250217,33.50786234162997,38.25222391948962,1577399465.0,-27.688200908718706,-51.12849332998097,7.0507317
46037,1577399465.77,1.5584500952743896,-1.2769270171374807,8.71536120426829,3.15479865097418,-0.7622320553663294,12.458607907178928,-2.501239992913967,4.582210001726848,23.43205164794922,-2.9730447908727133,1.773369021532012,-3.0740877477134143,-1.1680416944550305,-3.758128096417683,0.4666956459603658,18.664662430926068,43.14590081935975,-11.663297327553352,3.085169604700852,-5.21481810897436,0.526028716653711,-0.8072509421668069,-3.665943431568431,-2.2626003803888417,27.565429658250217,33.55578518585078,38.44391529637284,1577399465.0,-27.688200908718706,-51.12849332998097,7.0507317
46038,1577399465.78,-0.2790996788955317,-0.5335274016589656,12.87169528629954,1.4908284971655863,-2.512393468940549,9.279108102491424,-6.231406179437405,2.85120220143388,32.175676110839845,-9.534324087747711,8.273613162157012,0.5269864710365857,-9.041576850705033,-5.406077315167683,0.7718714272103658,2.398793290301067,-27.868503477515244,-16.454557093178355,3.085169604700852,-5.21481810897436,0.526028716653711,-0.8072509421668069,-3.665943431568431,-2.2626003803888417,27.58939108036062,33.41201665318837,38.58768382903526,1577399465.0,-27.688200908718706,-51.12849332998097,7.0507317
46039,1577399465.79,-1.1446035790420157,4.988698727491425,14.293851072432354,-0.958439801174256,5.237637304985232,23.591645626905485,4.283927511968845,10.08408541676591,25.79512868652344,13.506447396627289,14.865410037157012,1.5951017054115857,-0.7102780225800305,-7.542307783917683,2.8165491615853657,-17.864878584698932,-74.80453863376525,-13.860562952553352,2.908874198717946,-4.192304754273503,1.2774983118733108,0.0145298411524369,-3.665943431568431,-4.032537774725275,27.852966723575044,33.41201665318837,38.39599245215204,1577399465.0,-27.688200908718706,-51.12849332998097,7.0507317
46040,1577399465.8,0.8401895972275145,-6.958367556688263,8.334683140303447,2.495196093601133,-3.535914678657346,7.406842404249238,1.1678740512754862,2.545941489763958,12.64018766479492,-17.896140493997713,8.883964724657012,0.4659513147865854,-3.594189155392532,14.65923030201982,-2.9054967368521343,-28.683360030011432,-101.87363043064023,12.308260289634148,4.495532852564104,-5.21481810897436,0.526028716653711,-2.964425498379825,-3.0244033310439558,-3.9587903832945903,27.517506814029414,33.62766945218199,38.084493964716806,1577399465.0,-27.688200908718706,-51.12849332998097,7.0507317
46041,1577399465.81,2.0109542090439207,-0.7502026519031058,6.06737416813548,1.5195589170874615,2.498670605766482,17.182367782667207,1.2528682102110322,5.391450162859661,6.289567761230469,10.332619271627289,16.879570193407012,1.1373380335365857,-1.2595944288300305,2.742116044207317,6.478658536585366,-30.46863835032393,-111.60873785251523,12.720247594321648,2.203692574786324,-4.192304754273503,1.5780861499611456,-3.2725932921245406,-2.5661604020979016,-33.53149434699915,27.70919819091263,33.41201665318837,38.30014676371043,1577399465.0,-27.688200908718706,-51.12849332998097,7.0507317
46042,1577399465.82,3.770692429258765,-0.0319421538562308,2.650848399092511,6.183463751071836,0.813152637016482,4.272832431104705,3.7979045749571263,17.099096281023723,8.55448253173828,9.630714974752289,-8.144843869092988,-1.9754549352134143,-0.2525143507050305,11.042897294207316,-3.8362828696646334,-17.254527022198932,-92.38266363376523,33.22806009432165,3.966646634615387,-5.41932077991453,-1.4277922309172344,-3.2725932921245406,-2.5661604020979016,-33.53149434699915,27.70919819091263,33.41201665318837,38.49183814059364,1577399465.0,-27.688200908718706,-51.12849332998097,7.0507317
46043,1577399465.83,-1.3936005516982657,-0.1612290435046683,5.531072996260479,-7.870499994045351,1.8402651492235131,13.464172604444553,-1.014440761956935,-2.413647249249714,2.152387292480469,20.983254037252287,-5.276191525342988,1.7782071741615857,2.066821586794969,-15.385325362042684,3.1217249428353657,-30.07190983469893,-51.00082769626525,28.314730016196645,3.43776041666667,-6.441834134615385,0.526028716653711,-2.450812508805297,-2.5661604020979016,-34.41646304416737,27.565429658250217,33.31617096474676,38.39599245215204,1577399465.0,-27.688200908718706,-51.12849332998097,7.0507317
46044,1577399465.84,-1.4390903832412345,0.7940574188976743,10.731279002119852,-1.2289845887719124,0.4348687747117945,15.963719137647676,-1.4549738674256851,-17.851459553937215,5.791573815917968,1.6656270841272869,-16.598213009717988,-1.9754549352134143,7.041186821169969,7.533375809832317,0.7108362709603658,-20.27576725657393,-8.978122618140244,10.339876500571648,3.43776041666667,-3.987802083333333,1.127204392829393,-3.067148096294731,3.48264625999001,-34.26896826130599,27.75712103513344,33.50786234162997,38.49183814059364,1577399465.0,-27.688200908718706,-51.12849332998097,7.0507317
46045,1577399465.85,-3.0791185204482656,-0.8938547515124813,12.951901041914777,-3.948797674709413,-4.236218664253049,8.058065255811737,-2.4653269680116234,-9.244304585675495,12.39238779296875,-11.273826040872711,8.807670779344512,4.250131002286586,3.165454399294969,-6.840403487042683,2.3587854897103657,-3.674204756573933,8.050685975609756,-2.965787561928354,2.027397168803418,-5.623823450854701,0.8266165547415523,0.0145298411524369,-4.032537774725275,-3.4425586432797965,27.58939108036062,33.55578518585078,38.44391529637284,1577399465.0,-27.688200908718706,-51.12849332998097,7.0507317
46046,1577399465.86,-3.0958779320693592,-1.1021502959460745,15.557989548994854,-4.240890277248476,3.58563815947742,20.80718909614377,7.250343368902438,-2.408858845929401,16.60378851318359,-6.421531118997714,-4.452216915967988,2.6632169397865857,5.698413383669969,-17.185862471417682,8.065572599085366,9.082142899676068,2.252346131859756,-15.935758265053352,2.556283386752135,-6.237331463675212,1.8786739880489869,1.6580914077909268,-3.299349088411588,-2.2626003803888417,27.61335250247102,33.65163087429239,38.635606673256056,1577399465.0,-27.688200908718706,-51.12849332998097,7.0507317
46047,1577399465.87,-2.2100233178115465,-4.126026992723418,13.06323141911204,-2.3243318482933977,-3.009190313422971,14.166870791700411,2.791142776861423,5.294484995623333,18.35155572509765,1.1163106778772869,-8.053291134717988,4.005990377286586,8.200854789919969,3.9628191692073167,2.5418909584603657,8.014027665301068,-14.929050352515244,-1.4093910775533525,2.556283386752135,-6.237331463675212,1.8786739880489869,-2.3480899108903905,-1.1914316152597402,-18.70826866943153,27.75712103513344,33.60370803007159,38.34806960793124,1577399465.0,-27.688200908718706,-51.12849332998097,7.0507317
46048,1577399465.88,-1.6114729027724843,0.8347588471203307,11.111957066084695,-2.85943591933832,-2.5459122921827366,9.236012472608612,-3.631303176507717,-4.898828572491901,7.905653881835937,8.898293099752287,-5.215156369092988,5.135140767911586,16.53215361804497,4.420582841082317,-0.6319371665396342,-7.794077803448933,0.6043969131097561,7.898470250571647,4.495532852564104,-5.623823450854701,1.127204392829393,-3.2725932921245406,-1.099783029470529,-3.4425586432797965,27.61335250247102,33.747476562734,38.39599245215204,1577399465.0,-27.688200908718706,-51.12849332998097,7.0507317
46049,1577399465.89,1.4890182471298583,-0.3527651763171683,4.147224436690167,5.28084972519293,-3.5251407711866425,-2.897801541063262,-0.4230729518983415,-0.5964481891911202,8.353369592285155,21.563088021627287,-8.419502072217988,0.2523282679115854,8.902759086794969,-8.915598799542684,1.3517054115853655,8.075062821551068,-6.689304258765244,12.506624547446648,2.027397168803418,-6.0328287927350415,0.526028716653711,-2.0399221171456747,0.7331886863136862,-3.4425586432797965,27.61335250247102,33.50786234162997,38.58768382903526,1577399465.0,-27.688200908718706,-51.12849332998097,7.0507317
46050,1577399465.9,0.4858477515243896,0.3894373383312682,8.813523472334698,-3.764444146877382,2.2784040530321072,10.65098565376096,-2.69756452904678,-6.07438158762862,8.722076647949219,21.990334115377287,-15.743720822217988,0.5880216272865855,6.247729789919969,-17.063792158917682,7.211080411585366,-1.6600446003239329,-17.095798399390244,8.539339391196647,3.2614650106837644,-6.237331463675212,-0.2254408785658824,3.712543366089037,0.7331886863136862,-3.147569077557058,27.70919819091263,33.65163087429239,38.25222391948962,1577399465.0,-27.688200908718706,-51.12849332998097,7.0507317
46051,1577399465.91,-1.0943253441787344,1.0071413666515807,7.697825498701886,-0.6831066102562874,-0.5994263424757044,10.895194223096896,-0.217171609124904,-2.9667078327458074,13.941436267089845,15.429054818502289,0.1254198027820121,2.9989102991615857,4.965991508669969,16.780201981707318,-1.8831578696646345,-0.0731305378239328,-34.49081793064025,-6.475309046303353,2.908874198717946,-7.055342147435899,0.3757347976097936,4.123433757748661,0.0,-31.466567386939985,27.61335250247102,33.50786234162997,38.58768382903526,1577399465.0,-27.688200908718706,-51.12849332998097,7.0507317
46052,1577399465.92,-0.4407082909560781,-1.0925734893054495,9.333065232588606,2.266549835056211,-2.038341540229611,7.785126266553925,3.101191891851657,7.641999723406536,12.332532751464845,3.0694356778772867,-13.241279415967988,-0.5106111852134145,27.21330596179497,-22.43488590891768,0.4056604897103658,-1.5379742878239329,-44.50058355564025,-1.1957680306783538,4.319237446581198,-5.01031543803419,0.3757347976097936,3.3016529744294165,-1.466377372627372,-40.90623349006763,27.565429658250217,33.65163087429239,38.58768382903526,1577399465.0,-27.688200908718706,-51.12849332998097,7.0507317
46053,1577399465.93,-3.5364110375381093,-0.2953043364734187,13.623474607588603,1.8260167295874612,-1.4685215451124232,23.644318063428926,7.262314377203219,4.9269750407893484,10.455478649902345,-2.1338113924352133,4.428398318407012,2.1749356897865857,-14.961987006955033,0.4838152629573171,2.3587854897103657,1.6358538371760671,-28.539890196265244,3.137728063071646,3.261465010683761,-4.805812767094016,0.3757347976097904,-2.450812508805297,2.1995660589410586,-41.79120218723584,27.805043879354244,33.41201665318837,38.25222391948962,1577399465.0,-27.688200908718706,-51.12849332998097,7.0507317
46054,1577399465.94,-3.941031118104516,1.1292456513195497,14.806210227705792,-1.4899525697289435,3.2121427004930445,20.20145607612424,-1.663269411859279,4.476865128679973,7.199364392089843,1.3299337247522869,-2.041328244092988,-0.7852693883384145,-13.893871772580033,73.17668635670732,-3.8057652915396334,4.077260087176067,-7.391208555640244,3.290315953696646,3.085169604700852,-5.21481810897436,0.2254408785658761,-8.203277992040011,8.065075549450551,-41.79120218723584,27.61335250247102,33.747476562734,38.44391529637284,1577399465.0,-27.688200908718706,-51.12849332998097,7.0507317
46055,1577399465.95,1.544084885313452,-1.4301559233874808,7.2764460065143854,1.0562808958472272,-2.3100834286573453,10.658168258741425,-0.0759137111756858,-0.1403527729313545,13.903129040527345,16.008888802877287,-8.358466915967988,1.6866544397865857,-5.699902046017531,18.626515458269814,-2.0204869712271343,9.082142899676068,21.14272699123476,6.097933141196647,3.085169604700852,-5.21481810897436,0.2254408785658761,-10.56589774408284,7.973426963661339,-40.83248609863693,27.565429658250217,33.45993949740917,38.30014676371043,1577399465.0,-27.688200908718706,-51.12849332998097,7.0507317
46056,1577399465.96,-0.8525109765029532,1.8666597626476744,8.72972641422923,-1.7197959291039435,-0.2594497067335169,3.664705209425018,-3.236259902581936,-5.32739066965987,3.2321722412109373,10.607277474752289,-14.339912228467988,-2.4942537633384143,6.522387993044969,-1.0725812214176829,-2.4935094321646343,1.3306780559260671,24.92690667873476,-2.263883265053354,3.085169604700852,-5.21481810897436,0.2254408785658761,-11.490401125316987,7.698481206293707,-40.61124392434488,27.565429658250217,33.41201665318837,38.58768382903526,1577399465.0,-27.688200908718706,-51.12849332998097,7.0507317
46057,1577399465.97,1.5129602637314208,-3.781261953660918,7.092092478682354,2.0510716856421487,-3.972856481635861,3.566542941358612,4.073237765875095,-3.337809090070026,5.966350537109375,5.388771615377286,-13.699043087842988,-2.4942537633384143,7.926196586794969,-10.868723799542684,-1.2422887290396345,11.279408524676068,17.999416444359756,-8.581021936928353,2.7325787927350405,-5.623823450854701,1.4277922309172282,-11.490401125316987,7.698481206293707,-40.61124392434488,27.61335250247102,33.41201665318837,38.49183814059364,1577399465.0,-27.688200908718706,-51.12849332998097,7.0507317
46058,1577399465.98,2.161788913633764,3.0493953827648617,6.378620383955792,-0.2856691346703499,3.161864465629763,14.457766293409396,-4.775731570062405,-6.651384187726276,7.3932947265625,21.837746224752287,-18.093574337842988,-2.7689119664634143,1.1207766649199695,-12.547190596417684,1.3517054115853655,14.727894852801068,12.811428163109756,-12.517789515053352,4.495532852564104,-4.3968074252136775,-0.6763226356976347,-16.010195433572836,-1.099783029470529,-32.3515360841082,27.517506814029414,33.747476562734,38.58768382903526,1577399465.0,-27.688200908718706,-51.12849332998097,7.0507317
46059,1577399465.99,-1.621049709413109,3.0972794159679866,13.52291813786204,-0.9033731629906624,-1.8156807858350796,8.663798275831269,2.2919517307188446,5.571015287371379,6.986280444335937,2.9168477872522867,-6.893623165967988,-3.6234041539634143,9.146899711794967,2.406422684832317,-6.552347322789634,8.776967118426068,14.856105897484756,-12.243131311928352,3.43776041666667,-3.987802083333333,-0.3757347976097998,-16.421085825232456,1.4663773726273728,-2.852579511834319,27.70919819091263,33.55578518585078,38.39599245215204,1577399465.0,-27.688200908718706,-51.12849332998097,7.0507317
46060,1577399466.0,-1.1769253014541257,-1.5283181914538868,7.574524113203839,-3.1826531434594134,-1.552318603217892,1.940880014112518,2.610380551519626,8.678689042254192,9.153032946777342,-2.133811392435212,-2.499091915967988,-1.6855379430259143,-2.2361569288300305,-0.7674054401676829,-1.9441930259146345,10.241810868426068,18.82339105373476,-0.0666176400533536,2.468135683760682,-5.317069444444446,0.6011756761756759,-8.203277992040011,1.832971715784216,5.407128328402368,27.68523676880223,33.65163087429239,38.39599245215204,1577399466.0,-27.6881445450573,-51.128527452349054,7.088579
46061,1577399466.01,1.3310009375595455,-1.396637100145293,11.107168662764384,-1.8107755921898807,-1.4613389401319543,15.089835531690646,1.28638703345322,3.583827909441692,11.578359228515623,0.5975118497522866,-2.132880978467988,-0.3580232945884145,4.294604789919969,-13.432200362042684,-2.7376500571646343,16.558949540301068,19.89150628810976,-3.057340296303354,3.2614650106837644,-5.01031543803419,-0.5260287166537173,-11.490401125316987,1.0997830294705304,5.407128328402368,27.517506814029414,33.84332225117561,38.30014676371043,1577399466.0,-27.6881445450573,-51.128527452349054,7.088579
46062,1577399466.02,-0.3233924096084219,0.7557501923351744,9.498265147139389,-0.4484748475609749,-0.0224237423780487,7.82702479560666,-0.2052006008241232,-2.521386323956745,11.3772462890625,9.020363412252289,-8.846748165967988,-1.0294100133384143,6.522387993044969,-1.9423321979801829,-2.4324742759146343,5.862538407488567,14.337307069359756,-0.5854164681783538,4.495532852564104,-3.578796741452992,1.127204392829393,-0.49908314842209,-1.374728786838162,0.9085374511305996,27.75712103513344,33.62766945218199,38.49183814059365,1577399466.0,-27.6881445450573,-51.128527452349054,7.088579
46063,1577399466.03,0.2655811987900145,1.7254018646984557,10.436792197920637,-1.2098309754906624,0.698230957328982,8.22805357368283,-0.5882728664491227,0.1002644939143475,9.313444458007812,2.1844259122522867,-12.539375119092988,-1.4566561070884143,2.310962211794969,-17.765696455792682,1.2601526772103655,6.610219071551067,4.388576600609756,-5.620816858803353,4.495532852564104,-4.805812767094017,0.526028716653711,0.219975036982249,-2.3828632305194803,-3.8850429918639056,27.90088956779585,33.65163087429239,38.49183814059364,1577399466.0,-27.6881445450573,-51.128527452349054,7.088579
46064,1577399466.04,-0.1079142601943594,2.1348103485851744,8.686630784346416,-0.9464687928734749,1.9695520388719507,11.79301984565549,-2.5515182277772483,0.0212558391291912,9.399635717773435,14.360939584127289,-7.229316525342988,1.1068204554115857,6.583423149294969,-1.0115460651676829,-3.5311070884146343,2.124135087176067,5.761867616234756,-3.881314905678354,4.495532852564104,-4.805812767094017,0.526028716653711,1.6580914077909268,-4.032537774725275,1.867253539729502,27.565429658250217,33.891245095396414,38.44391529637284,1577399466.0,-27.6881445450573,-51.128527452349054,7.088579
46065,1577399466.05,0.5073955664657958,-2.909772549364043,8.641140952803449,2.3168280699194925,-2.5650659054639866,4.148333944776581,-0.0423948879334977,-2.47350229075362,9.193734375,-11.670554556497711,-4.971015744092988,-2.1280428258384143,5.057544243044969,-6.840403487042683,-1.6390172446646345,3.924672196551067,9.668117616234756,-3.301480921303354,3.614055822649576,-5.01031543803419,0.9769104737854758,0.6308654286418709,-1.649674544205794,-2.115105597527472,27.565429658250217,33.55578518585078,38.30014676371043,1577399466.0,-27.6881445450573,-51.128527452349054,7.088579
46066,1577399466.06,0.7037201025986083,3.195441684034393,6.620434751631573,-1.408549713283631,3.255238330375857,10.150597506788303,3.936768271246189,3.825642277117473,6.797138513183594,12.712990365377289,-1.949775509717988,2.1444181116615857,0.3578372117949695,-18.31501286204268,3.9151819740853657,3.527943680926067,12.994533631859756,-3.179410608803354,2.7325787927350405,-3.987802083333333,0.2254408785658761,-1.4235865296562409,-3.1160519168331664,-3.2950638604184275,27.70919819091263,33.65163087429239,38.39599245215204,1577399466.0,-27.6881445450573,-51.128527452349054,7.088579
46067,1577399466.07,0.8150504797958744,-0.1959449675769344,6.602478239180401,0.1692291807593365,1.569720361625857,10.72041750190549,-0.9043074855897476,-2.897275984601276,10.326191760253906,5.480324349752288,-9.563911251905488,0.0081876429115856,0.5104251024199695,1.6434832317073171,-4.904398104039634,6.427113602801067,13.330226991234756,-2.660611780678354,3.085169604700855,-4.192304754273505,0.6763226356976316,-1.4235865296562409,-3.48264625999001,-34.56395782702874,27.68523676880223,33.65163087429239,38.49183814059364,1577399466.0,-27.6881445450573,-51.128527452349054,7.088579
46068,1577399466.08,-0.562812575624047,0.8443356537609557,8.983511790205792,1.6703936216773052,0.2529094485399195,6.5497182099133,-3.1764048610780296,-0.3785758381169014,8.607154968261717,-3.3087381502477133,-8.236396603467988,0.1607755335365854,-2.7244381788300305,-4.948313643292683,0.1920374428353658,7.098500321551067,11.621242616234756,5.304476109946647,3.43776041666667,-3.987802083333333,0.526028716653711,-1.2181413338264289,-2.5661604020979016,-35.89141087278106,27.75712103513344,33.55578518585078,38.44391529637284,1577399466.0,-27.6881445450573,-51.128527452349054,7.088579
46069,1577399466.09,1.0772155615829833,-1.9520918853015432,8.49270044987376,-0.2365880006371467,0.9376511233446072,8.30586512763791,-1.0323972744081076,2.3819386760432546,8.080430603027343,-1.996482290872713,-3.384101681592988,1.8392423304115848,2.219409477419969,-2.6594952839176838,0.1767786537728658,3.650013993426068,13.574367616234756,-1.4704262338033534,2.908874198717946,-5.01031543803419,0.0751469595219524,-0.8072509421668068,-3.1160519168331664,-16.56959431794167,27.61335250247102,33.55578518585078,38.39599245215204,1577399466.0,-27.6881445450573,-51.128527452349054,7.088579
46070,1577399466.1,2.2479801733993896,-1.9712454985827927,9.732896909834698,0.911431695407774,-1.7318837277296106,2.5777376557140803,0.050978976812595,-5.485407979230183,10.223241088867187,-0.1043924471227134,-10.738838009717988,0.9542325647865856,5.515307914919969,-2.598460127667683,2.8165491615853657,5.084340165301067,10.827785584984756,-0.0971352181783536,3.43776041666667,-4.3968074252136775,0.8266165547415459,-2.861702900464919,-2.5661604020979016,0.6872952768385466,27.565429658250217,33.41201665318837,38.30014676371043,1577399466.0,-27.6881445450573,-51.128527452349054,7.088579
46071,1577399466.11,1.773928244688452,0.0590375092297057,11.772756724287822,3.317604363864805,-1.236283984077267,10.856886996534396,0.9966886325743136,-0.4432192829411202,10.2280294921875,1.3604513028772869,-1.919257931592988,1.8087247522865848,0.1136965867949695,-3.605540205792683,0.4666956459603658,0.8423968059260671,0.970607850609756,-5.040982874428353,3.085169604700852,-4.805812767094017,-0.0751469595219649,-2.861702900464919,-2.5661604020979016,-2.852579511834319,27.61335250247102,33.55578518585078,38.44391529637284,1577399466.0,-27.6881445450573,-51.128527452349054,7.088579
46072,1577399466.12,1.850542697813452,-1.9137846587390432,6.304400132490948,-0.9105557679711312,2.469940185844607,10.658168258741428,-0.1046441310975602,3.162448417254192,12.559981909179688,6.548439584127286,1.925956912157012,3.4566739710365857,1.1818118211699695,-5.222971846417683,3.0606897865853657,4.565541337176067,3.106838319359756,1.6423667349466462,3.085169604700852,-4.805812767094017,-0.0751469595219649,-2.861702900464919,-2.1995660589410586,-2.852579511834319,27.75712103513344,33.699553718513194,38.635606673256056,1577399466.0,-27.6881445450573,-51.128527452349054,7.088579
46073,1577399466.13,0.864131613829077,5.254455111768769,11.088015049483136,0.4517449766577741,0.8682192752000757,10.847310189893772,-3.327239565667873,-10.999254402570026,11.207257971191405,7.799660287252286,-6.802070431592988,0.5269864710365855,-0.1304440382050304,1.9181414348323167,2.2977503334603657,-3.430064131573933,-2.569431211890244,1.4592612661966462,3.085169604700852,-4.805812767094017,-0.0751469595219649,-3.2725932921245406,-1.099783029470529,-2.852579511834319,27.373738281367,33.55578518585078,38.44391529637284,1577399466.0,-27.6881445450573,-51.128527452349054,7.088579
46074,1577399466.14,0.4391608191513427,-0.8244229033679494,9.647902750899153,-0.939286187893006,-4.26734328583508,6.125944516065643,-0.523629421624904,-1.4918796100895575,9.22007059326172,-0.6689676424352132,7.464897341844512,2.7547696741615857,1.5175051805449695,1.4298601848323171,0.8023890053353658,-2.087290694073933,-7.238620665015244,-7.238248499428353,4.05479433760684,-6.54408547008547,0.4508817571317491,-2.861702900464919,-1.099783029470529,-4.032537774725275,27.733159613023037,33.65163087429239,38.58768382903526,1577399466.0,-27.6881445450573,-51.128527452349054,7.088579
46075,1577399466.15,-0.5580241723037345,1.0478427948742368,13.42236166813548,-0.2928517396508187,1.042995996391482,13.710775375440646,5.069225656500095,9.602850883074504,9.945513696289062,-7.062400259622714,-6.710517697217988,-1.6702791539634143,0.8156008836699695,-12.211497237042684,3.3963831459603657,-1.6600446003239329,-11.968845274390244,4.755159703696647,3.790351228632481,-6.441834134615385,1.127204392829393,-3.2725932921245406,-1.099783029470529,-4.032537774725275,27.565429658250217,33.65163087429239,38.39599245215204,1577399466.0,-27.6881445450573,-51.128527452349054,7.088579
46076,1577399466.16,-2.250724746034203,-4.013499514696075,6.053008958174542,-1.329541058498476,-1.2111448666456264,9.951878768995332,-0.9869074428651392,0.2846180217463798,12.470199346923827,-0.3180154939977134,11.355888552782012,4.982552877286586,-0.9239010694550304,2.345387528582317,-1.1965123618521345,-5.490000655011433,-23.855441954077744,4.205843297446647,3.085169604700852,-6.0328287927350415,0.2254408785658761,4.945214541067904,-0.3665943431568431,-18.192036929416737,27.61335250247102,33.579746607961184,38.41995387426245,1577399466.0,-27.6881445450573,-51.128527452349054,7.088579
46077,1577399466.17,-1.0009514794326406,4.236919406202362,8.159906419112042,-2.038224749904725,5.431567639457888,12.010892196729708,1.0038712375547825,0.9741480998713788,8.29351455078125,-1.3250955721227131,-8.511054806592988,-1.3651033727134143,-3.945141303830032,-5.497630049542683,0.8023890053353658,-9.594614912823932,-25.243991758765244,7.074495641196647,3.43776041666667,-6.441834134615385,1.127204392829393,3.3016529744294165,3.2993490884115886,-39.431285661453934,27.565429658250217,33.699553718513194,38.39599245215204,1577399466.0,-27.6881445450573,-51.128527452349054,7.088579
46078,1577399466.18,0.136294309141577,2.4891521942882995,11.54530756657298,2.1731759703101177,-2.1604458248975797,10.46423792426877,1.935215683355564,0.8568322185237225,9.160215551757812,4.442726693502286,-12.020576290967988,0.6795743616615855,-1.5952877882050305,3.810231278582317,-1.9441930259146345,-6.970103194073933,-15.447849180640244,4.114290563071647,3.085169604700852,-7.259844818376068,0.2254408785658761,-2.2453673129754868,3.48264625999001,-41.34871783865174,27.565429658250217,33.36409380896756,38.49183814059364,1577399466.0,-27.6881445450573,-51.128527452349054,7.088579
46079,1577399466.19,-0.2898735863662344,-1.6312688628406056,10.171035813643291,1.5865965635718364,-0.2211424801710169,9.463461630323456,0.836277121343845,-0.7736191120426827,4.910507604980468,-5.322898306497714,-3.048408322217988,0.1302579554115854,-4.311352241330031,-1.8050030964176829,-0.1131383384146341,-3.063853194073933,3.106838319359756,4.694124547446647,3.2614650106837644,-5.01031543803419,0.9769104737854758,-2.2453673129754868,0.549891514735265,-40.758738707206255,27.61335250247102,33.55578518585078,38.25222391948962,1577399466.0,-27.6881445450573,-51.128527452349054,7.088579
46080,1577399466.2,-0.3976126610732657,-2.562613308641387,11.708113279463603,3.2362015074194925,-0.5156292843702357,8.378888278272674,-1.931419997796779,-2.26281254465987,9.617508068847656,-18.44545690024772,4.733574099657012,0.6795743616615855,-0.6492428663300305,-2.110178877667683,-3.1648961509146343,3.436390946551067,12.597805116234756,0.5742515005716463,2.379987980769229,-5.623823450854701,0.8266165547415459,-2.2453673129754868,0.549891514735265,-40.758738707206255,27.565429658250217,33.55578518585078,38.58768382903526,1577399466.0,-27.6881445450573,-51.128527452349054,7.088579
46081,1577399466.21,0.5576738013290771,-1.2984748320788868,7.106457688643292,1.2202837095679302,-3.199529345405393,5.991869223096893,0.5729149387266574,-2.466319685773151,6.727706665039063,-0.8062967439977134,-6.893623165967988,-0.0833650914634145,-4.860668647580031,-0.8284405964176829,0.5277308022103658,-3.674204756573933,14.337307069359756,4.968782750571647,2.027397168803418,-3.987802083333333,0.8266165547415459,-1.4235865296562409,0.549891514735265,-40.758738707206255,27.61335250247102,33.41201665318837,38.39599245215204,1577399466.0,-27.6881445450573,-51.128527452349054,7.088579
46082,1577399466.22,-0.0408766137099849,2.532247824171112,11.657835044600322,-3.2688444032250383,3.901672778618044,12.69323966987424,7.271891183843844,-3.809466817120808,8.358157995605469,-2.469504751810213,-9.106147580030488,-1.8228670445884143,0.4799075242949695,-9.861643721417684,0.5277308022103658,-1.9041852253239329,9.332424256859756,-8.581021936928353,1.9392494658119648,-4.29455608974359,1.0520574333074284,-2.2453673129754868,3.48264625999001,-41.64370740437448,27.58939108036062,33.699553718513194,38.39599245215204,1577399466.0,-27.6881445450573,-51.128527452349054,7.088579
46083,1577399466.23,0.471482541563452,-2.430932217332793,8.033013731123761,1.238240222019102,-1.2231158749464084,5.520211496046112,-1.4968723964784203,0.6736757915217704,7.953537915039062,-3.5223611971227133,-0.1797559784679878,0.4659513147865854,-4.189281928830031,3.306691239519817,-2.4935094321646343,4.916493485613568,22.63808831935976,-0.0208412728658538,2.556283386752135,-5.828326121794873,1.2774983118733108,-6.046103435826993,5.59056373314186,-29.91787216689561,27.61335250247102,33.50786234162997,38.53976098481445,1577399466.0,-27.6881445450573,-51.128527452349054,7.088579
46084,1577399466.24,1.706890598204077,-0.3288231597156058,6.416927610518292,0.5546956480444929,1.5912681765672634,8.869699618604706,0.48193527564072,-3.186974385480182,10.544064111328124,-4.010642447122714,11.508476443407012,-0.5411287633384145,-7.057934272580031,-9.709055830792684,0.9854944740853658,0.1099749309260671,20.47134027248476,-10.320523890053352,2.203692574786324,-5.828326121794873,0.9769104737854758,-11.079510733657369,-3.299349088411588,-3.147569077557058,27.517506814029414,33.50786234162997,38.30014676371043,1577399466.0,-27.6881445450573,-51.128527452349054,7.088579
46085,1577399466.25,0.5480969946884521,0.2194490204601744,9.723320103194077,-0.1180750184594124,0.650346924125857,8.137073910596893,1.671853500738376,7.991553165789348,11.168950744628903,-7.581199087747714,-5.337226681592988,-1.3651033727134143,-4.036694038205031,2.314869950457317,-2.1883336509146343,5.938832352801067,17.724758241234756,0.5742515005716463,3.2614650106837644,-3.783299412393162,0.3757347976097936,-12.723072300295856,-1.832971715784216,5.407128328402368,27.517506814029414,33.55578518585078,38.39599245215204,1577399466.0,-27.6881445450573,-51.128527452349054,7.088579
46086,1577399466.26,-1.4319077782607654,2.745331771925018,7.913303648115948,-1.2577150086937874,0.0901037356492945,7.995816012647674,-4.703905520257717,-9.794970967511432,7.864952453613281,6.548439584127286,3.2382127715320124,0.2218106897865854,-4.280834663205031,-0.4011945026676829,-1.7000524009146345,-3.124888350323933,21.50893792873476,-3.606656702553354,2.556283386752135,-3.783299412393162,1.8786739880489869,-9.8468395586785,3.2993490884115886,5.407128328402368,27.61335250247102,33.699553718513194,38.44391529637284,1577399466.0,-27.6881445450573,-51.128527452349054,7.088579
46087,1577399466.27,-0.2012881249404532,0.0662201142101744,8.219761460615947,-0.2569387147484749,-0.5108408810499232,7.916807357862519,0.7165670383360325,5.805647050066692,7.465120776367187,-8.222068228372713,-1.003730587842988,-2.7383943883384143,-5.135326850705031,0.7279558879573171,-0.7234899009146342,-2.697642256573933,17.419582459984756,-3.728727015053354,2.7325787927350405,-5.21481810897436,-0.3757347976097998,-2.656257704635109,-0.916485857892108,-1.8201160318047327,27.373738281367,33.699553718513194,38.635606673256056,1577399466.0,-27.6881445450573,-51.128527452349054,7.088579
46088,1577399466.28,-0.2563547631240469,-0.407831814500762,6.697049204756573,-0.1491996400414436,-0.2929685299757044,5.776391073682831,-1.9074779811952165,-0.5509583576481515,6.859387756347656,-6.391013540872714,5.008232302782012,-0.4495760289634145,-4.006176460080031,-1.5913800495426829,-2.7071324790396343,-4.009898115948933,24.34707269435976,4.877230016196647,3.790351228632481,-4.3968074252136775,0.526028716653711,-2.861702900464919,0.3665943431568428,5.702117894125108,27.517506814029414,33.699553718513194,38.39599245215204,1577399466.0,-27.6881445450573,-51.128527452349054,7.088579
46089,1577399466.29,0.3493782568954833,1.7050511505871275,9.115192881514384,-1.6264220643578498,1.280021960746951,9.01335171821408,-0.8899422756288102,-5.2819008381169015,10.441113439941406,-3.262961783060214,-2.407539181592988,-1.3040682164634143,-5.898266303830031,-8.915598799542684,0.2835901772103658,-1.6600446003239329,19.86098870998476,-10.961393030678352,3.349612713675217,-3.88555074786325,1.50293919043919,-3.2725932921245406,-1.832971715784216,5.407128328402368,27.565429658250217,33.699553718513194,38.15637823104801,1577399466.0,-27.6881445450573,-51.128527452349054,7.088579
46090,1577399466.3,0.5840100195907958,-1.789286172410918,8.748880027510479,-1.9903407167016,0.755691797172732,10.512121957471896,1.2624450168516574,8.137599467058878,9.076418493652342,-13.196433462747711,-1.705634884717988,-0.4190584508384145,-5.654125678830031,2.620045731707317,-1.4253941977896345,5.603138993426067,15.924221131859756,-8.886197718178353,3.43776041666667,-3.169791399572651,1.127204392829393,-2.861702900464919,-3.299349088411588,-4.032537774725275,27.565429658250217,33.55578518585078,38.49183814059364,1577399466.0,-27.6881445450573,-51.128527452349054,7.088579
46091,1577399466.31,-0.8692703881240469,-0.5107824858874808,6.847883909346417,1.3735126158179305,-0.6760407956007045,7.821039291456268,-3.851569729242092,-3.809466817120808,9.160215551757812,-8.130515493997713,6.656181521532012,0.6490567835365855,-7.653027046017532,-0.3249005573551828,-1.0439244712271345,-3.918345381573933,10.873561952172256,-0.0971352181783538,3.2614650106837644,-5.41932077991453,0.0751469595219524,-0.8072509421668069,-3.665943431568431,-0.9351473346365172,27.565429658250217,33.55578518585078,38.515799562704046,1577399466.0,-27.6881445450573,-51.128527452349054,7.088579
