,timestamp,acc_x_dashboard,acc_y_dashboard,acc_z_dashboard,acc_x_above_suspension,acc_y_above_suspension,acc_z_above_suspension,acc_x_below_suspension,acc_y_below_suspension,acc_z_below_suspension,gyro_x_dashboard,gyro_y_dashboard,gyro_z_dashboard,gyro_x_above_suspension,gyro_y_above_suspension,gyro_z_above_suspension,gyro_x_below_suspension,gyro_y_below_suspension,gyro_z_below_suspension,mag_x_dashboard,mag_y_dashboard,mag_z_dashboard,mag_x_above_suspension,mag_y_above_suspension,mag_z_above_suspension,temp_dashboard,temp_above_suspension,temp_below_suspension,timestamp_gps,latitude,longitude,speed
87863,1577399884.03,0.059679856016577,-0.6328867705554495,9.696983884932354,1.6512400083960552,-1.6887880978467982,10.057223642042208,0.5441845188047825,0.5575570110041912,9.708487731933593,1.6656270841272869,3.909599490282013,0.9542325647865856,-4.494457710080031,13.270680497332316,1.9315393959603653,-0.6224469440739329,4.052883241234756,1.1235679068216462,-28.1191172542735,-15.235448985042735,-0.5260287166537173,-0.8072509421668069,-4.032537774725275,-4.032537774725275,27.08620121604217,30.872105909485725,33.12447958786354,1577399884.0,-27.71624472566597,-51.10072127190012,21.410707
87864,1577399884.04,0.7611809424423583,-0.6137331572741994,9.13195229313548,0.2147190123023053,-0.5754843258741419,10.34452784126096,-0.1477397609803727,-3.4766727863590887,7.912836486816405,0.7500997403772866,1.590263552782012,0.5575040491615855,0.3273196336699695,-0.4011945026676829,1.0770472084603655,0.5067034465510671,3.900295350609756,-0.5548988900533537,-28.1191172542735,-15.235448985042735,-0.5260287166537173,-6.148826033741899,-4.032537774725275,-39.431285661453934,26.84658699493815,30.92002875370653,33.02863389942193,1577399884.0,-27.71624472566597,-51.10072127190012,21.410707
87865,1577399884.05,0.6402737586044677,-0.7023186186999807,9.18223052799876,0.9844548460425396,-1.102208691108517,8.723653317335174,0.6399525852110325,-1.0058566730778389,9.817423907470705,-0.5926736971227132,2.3532030059070124,1.0610440882240857,-3.319530952267531,4.695241044207316,1.3517054115853655,2.383534501238567,3.244167420922256,0.4674399771341463,-29.000594284188036,-14.621940972222225,-0.976910473785479,-6.148826033741899,-4.032537774725275,-39.431285661453934,26.870548417048557,30.92002875370653,33.17240243208434,1577399884.0,-27.71624472566597,-51.10072127190012,21.410707
87866,1577399884.06,0.4906361548447021,-0.3240347563952933,9.694589683272198,0.0974031309546491,-0.8077218869092982,9.367693563917204,0.5010888889219699,-0.7616481037419015,11.441889733886718,-1.2335428377477131,2.5668260527820124,0.7711270960365855,-0.4966549757050305,1.1246844035823171,1.1991175209603655,-4.009898115948933,12.017971131859756,-0.2192055306783537,-29.353185096153844,-15.848956997863246,-0.3757347976097998,-6.55971642540152,-35.559651286213786,-1.9676108146661029,26.798664150717343,30.872105909485725,33.02863389942193,1577399884.0,-27.71624472566597,-51.10072127190012,21.410707
87867,1577399884.07,0.5672506079697021,-0.8818837432116995,8.945204563643292,0.6001854795874616,-0.2139598751905482,9.37248196723752,0.7836046848204075,0.2223687785823162,11.750741748046874,-1.813376822122713,0.5831834746570121,1.0457852991615857,-1.0459713819550305,6.434742997332317,0.6803186928353658,0.8118792278010671,11.163478944359756,0.8183921255716463,-29.353185096153844,-15.439951655982904,-0.3757347976097998,-6.55971642540152,-39.22559471778221,9.53698224852071,27.038278371821367,30.77626022104412,33.22032527630515,1577399884.0,-27.71624472566597,-51.10072127190012,21.410707
87868,1577399884.08,0.8713142188095457,-0.8818837432116995,10.738461607100325,0.6767999327124616,-1.1548811276319544,9.5759891083508,0.7620568698790012,-0.4647670978825264,8.681375219726561,0.1702657560022865,-0.4238966034679878,0.4964688929115854,-1.6868405225800305,3.291432450457317,1.6873987709603655,0.3846331340510671,-0.5857886337652439,1.8559897818216464,-29.353185096153844,-15.439951655982904,-0.3757347976097998,-3.2725932921245406,-39.22559471778221,3.0472118026204567,26.89450983915896,30.680414532602512,33.17240243208434,1577399884.0,-27.71624472566597,-51.10072127190012,21.410707
87869,1577399884.09,0.5708419104599364,-0.4090289153308402,10.655861649824931,1.5674429502905864,-0.3264873532178919,10.167356918409396,0.0126717502500954,-1.8845286823551823,9.077615594482422,-2.3016580721227133,1.437675662157012,0.7558683069740855,-2.2819332960175305,2.085988114519817,0.4666956459603658,-1.3396100300114329,3.671413514672256,1.3219321646341462,-29.17688969017094,-14.826443643162392,-0.6763226356976377,-6.970606817061143,-24.92841533466533,3.0472118026204567,26.84658699493815,30.89606733159613,33.10051816575314,1577399884.0,-27.71624472566597,-51.10072127190012,21.410707
87870,1577399884.1,0.634288254454077,-0.9920170195788868,9.172653721358136,1.6608168150366802,-0.0918555905225794,8.738018527296111,0.3861672092344699,1.2279334758479412,9.5384994140625,-2.1490701814977133,1.040947146532012,0.4354337366615854,-4.280834663205031,9.700123856707316,0.5582483803353658,-3.582652022198933,-4.827731993140244,1.0014975943216462,-28.29541266025641,-15.030946314102565,-1.277498311873317,10.69768002430262,-37.392623001998,-2.5575899461115803,26.84658699493815,30.92002875370653,33.17240243208434,1577399884.0,-27.71624472566597,-51.10072127190012,21.410707
87871,1577399884.11,0.1865725440048583,-0.6424635771960745,9.766415733076888,1.7805268980444926,-1.2051593624952357,9.882446920850803,-0.312939675531154,-2.269995149640339,12.284648718261716,-4.102195181497714,-2.071845822217988,0.5575040491615855,1.0902590867949695,-6.138499190167683,1.4737757240853655,-0.8971051471989329,-5.621189024390244,0.2385581411966463,-28.64800347222222,-14.21293563034188,-0.6763226356976347,10.69768002430262,-1.832971715784216,-39.13629609573119,26.990355527600563,31.111720130589752,33.17240243208434,1577399884.0,-27.71624472566597,-51.10072127190012,21.410707
87872,1577399884.12,0.0524972510361088,-0.7250635344714651,10.812681858565169,0.1357103575171491,-0.1636816403272669,9.848928097608615,0.2664571262266575,-1.7672128010075263,11.820173596191406,-1.9659647127477131,2.6431199980945124,0.8016446741615856,-2.1751217725800305,0.8195086223323171,0.5277308022103658,-2.667124678448933,-4.186862852515244,-0.0055824838033536,-28.64800347222222,-14.21293563034188,-0.6763226356976347,-8.203277992040011,-36.292839972527474,-41.201223055790365,27.038278371821367,30.92002875370653,33.17240243208434,1577399884.0,-27.71624472566597,-51.10072127190012,21.410707
87873,1577399884.13,0.222485568907202,-0.9082199614734182,10.654664548994852,0.911431695407774,-1.0459449520948452,10.932304348829318,0.5358048129942355,-0.1726744953434639,9.721655841064452,-3.4308084627477133,-1.034248165967988,0.6185392054115855,-1.8089108350800305,-1.0573224323551829,1.0617884193978655,-6.527598311261432,-4.965061094702744,1.3066733755716462,-29.00059428418804,-16.25796233974359,-1.277498311873317,-7.997832796210199,-20.162688873626376,-40.31625435862215,26.84658699493815,30.99191302003773,33.02863389942193,1577399884.0,-27.71624472566597,-51.10072127190012,21.410707
87874,1577399884.14,0.2655811987900145,-1.099756094285918,10.38890816471751,0.3272464903296491,-1.2913506222608606,8.163410128858612,0.5370019138243137,0.114629703875285,10.050858569335936,-1.2640604158727131,-0.0576856659679878,0.3743985804115854,-2.7854733350800305,3.657643387957317,-0.1131383384146341,-5.749400069073933,5.944973084984756,2.191683141196646,-28.47170806623932,-13.599427617521366,-2.0289679070929103,-11.901291516976611,-39.22559471778221,-1.6726212489433638,26.89450983915896,30.77626022104412,33.12447958786354,1577399884.0,-27.71624472566597,-51.10072127190012,21.410707
87875,1577399884.15,-0.0767896386123282,-0.2330550933093558,9.785569346358136,-0.6591645936547249,0.3414949099657007,9.997368600538303,0.2927933444883762,-0.1583092853825264,10.601524951171877,0.2618184903772865,4.245292849657012,0.6185392054115855,-0.0083737257050304,2.559010575457317,1.5042933022103655,-2.484019209698933,3.656154725609756,0.6963218130716463,-29.70577590811965,-15.848956997863246,-1.277498311873317,-2.450812508805297,-37.392623001998,-4.032537774725275,26.702818462275737,30.92002875370653,33.41201665318837,1577399884.0,-27.71624472566597,-51.10072127190012,21.410707
87876,1577399884.16,0.8126562781357176,-1.2206632781238087,8.687827885176494,-0.2401793031273811,-1.1788231442335169,9.348539950635956,0.3861672092344699,-1.1949986042301828,10.972626208496091,1.8029561856897869,0.3237840605945121,0.5422452600990855,3.9894290086699695,-6.809885908917683,0.0699671303353658,0.4456682903010671,2.954250428734756,0.2995932974466463,-28.29541266025641,-13.803930288461538,-1.578086149961158,-2.450812508805297,-37.392623001998,-4.032537774725275,26.84658699493815,31.01587444214814,33.22032527630515,1577399884.0,-27.71624472566597,-51.10072127190012,21.410707
87877,1577399884.17,0.6654128760361083,0.2122664154797057,10.451157407881572,0.3882986326636334,-0.4426061337354701,8.799070669630096,0.982323422613376,-0.689822053937214,8.441955053710936,3.1915059903772867,-0.2713087128429878,0.1302579554115854,0.9529299852324692,-3.102000166730183,1.2754114662728655,-0.6224469440739328,1.840358827172256,0.4979575552591463,-29.00059428418804,-15.030946314102565,-1.8786739880489929,-2.861702900464919,-38.85900037462537,7.472055288461539,26.84658699493815,30.728337376823312,33.10051816575314,1577399884.0,-27.71624472566597,-51.10072127190012,21.410707
87878,1577399884.18,0.6103462378525145,-0.6807708037585745,8.897320530440167,0.5451188414038678,-1.169246337592892,9.848928097608615,1.377366696539157,-0.613207600812214,7.031770275878906,-3.3697733064977133,4.977714724657012,0.9847501429115856,2.494067680544969,-6.992991377667683,0.4361780678353658,-2.819712569073933,-9.405368711890244,0.5437339224466463,-25.65098157051282,-13.190422275641025,-1.4277922309172344,-3.6834836837841647,-3.665943431568431,-3.737548209002536,27.038278371821367,30.92002875370653,33.12447958786354,1577399884.0,-27.71624472566597,-51.10072127190012,21.410707
87879,1577399884.19,0.2871290137314208,-1.0566604644031057,7.446434324385479,-0.4795994691430061,-0.4629568478467981,7.5624655121593936,2.1554822360899384,-1.0274044880192452,9.655815295410155,-0.5316385408727134,0.949394412157012,0.8626798304115855,-6.844311225705031,7.319752762957317,0.4056604897103658,3.833119462176067,-4.431003477515244,2.588411656821646,-27.590231036324784,-14.21293563034188,-2.479849664224669,9.875899240983376,-2.9327547452547447,-2.852579511834319,26.84658699493815,30.728337376823312,33.17240243208434,1577399884.0,-27.71624472566597,-51.10072127190012,21.410707
87880,1577399884.2,0.0369349402450931,-0.7382316436023244,10.25602997257884,0.3703421202124616,-0.9034899533155482,8.884064828565643,0.5657323337461887,-2.95234262278487,11.79144317626953,-1.4013895174352131,-3.460395626905488,0.2675870569740854,-0.5576901319550305,-1.8965558307926829,0.4056604897103658,-5.291636397198933,3.381496522484756,0.7878745474466463,-27.9428218482906,-14.62194097222222,-2.479849664224669,9.875899240983376,-2.5661604020979016,-40.61124392434488,27.03827837182137,30.680414532602512,33.17240243208434,1577399884.0,-27.71624472566597,-51.10072127190012,21.410707
87881,1577399884.21,-0.0983374535537344,-0.762173660203887,11.732055296065166,0.2602088438452746,-0.9513739865186732,10.639014645460176,0.0581615817930642,-1.1207783527653388,11.518504187011718,-1.874411978372713,-2.315986447217988,0.6185392054115855,-1.3053707960175305,-3.971751143292683,0.9702356850228656,0.1557512981135671,-0.2043189072027438,-0.7685219369283537,-27.41393563034188,-14.41743830128205,-2.630143583268586,9.875899240983376,-2.5661604020979016,-38.84130653000845,27.08620121604217,30.89606733159613,33.02863389942193,1577399884.0,-27.71624472566597,-51.10072127190012,21.410707
87882,1577399884.22,0.4906361548447021,-0.5826085356921683,10.724096397139386,0.2386610289038678,-0.709559618842892,10.95026086128049,0.4532048557188449,-0.2349237385075264,12.416329809570312,-0.8368143221227134,-0.4238966034679878,0.5269864710365855,0.1747317430449695,-4.398997237042683,0.1310022865853658,-0.0731305378239328,-11.450046446265244,-0.8295570931783537,-26.00357238247863,-14.41743830128205,-1.1272043928293995,-12.517627104466046,-35.74294845779221,-2.70508472897295,26.89450983915896,30.680414532602512,33.17240243208434,1577399884.0,-27.71624472566597,-51.10072127190012,21.410707
87883,1577399884.23,0.1722073340439208,-0.5107824858874808,10.262015476729228,1.217889507907774,-1.9042662472608607,9.47303843696408,0.9368335910704076,-1.3171028888981513,9.907206469726562,-3.0340799471227133,-1.247871212842988,0.6490567835365855,1.7006106492949695,4.664723466082317,0.2225550209603658,-1.8736676471989329,-0.4637183212652439,-0.1886879525533537,-28.29541266025641,-15.439951655982904,0.526028716653711,-9.641394362848688,-35.74294845779221,-3.5900534261411665,26.990355527600563,30.872105909485725,33.12447958786354,1577399884.0,-27.71624472566597,-51.10072127190012,21.410707
87884,1577399884.24,0.0153871253036869,-1.2098893706531058,9.84662148869212,-0.1228634217797254,-1.0471420529249231,10.447478512647676,0.2544861179258768,-0.2708367634098702,10.803834991455078,-0.6079324861852133,-0.622260861280488,0.8169034632240856,1.1818118211699693,-5.070383955792683,0.5582483803353657,0.7203264934260671,-3.240817930640244,2.649446813071646,-28.824298878205127,-14.41743830128205,-0.8266165547415584,-2.2453673129754868,-2.3828632305194803,1.1297796254226546,26.870548417048557,30.967951597927332,33.00467247731153,1577399884.0,-27.71624472566597,-51.10072127190012,21.410707
87885,1577399884.25,1.1346764014267332,-0.1468638335437307,8.88295532047923,0.5594840513648054,-0.7502610470655482,8.840969198682831,-0.2506904323670915,-0.4288540729801827,10.412383020019533,3.0389180997522867,-2.315986447217988,0.3743985804115854,1.4564700242949695,1.8571062785823167,1.1380823647103655,4.382435868426067,-5.865329649390244,3.046175328696646,-27.9428218482906,-14.21293563034188,-0.9769104737854758,-4.916154858763031,-38.85900037462537,-1.6726212489433638,27.038278371821367,30.92002875370653,33.17240243208434,1577399884.0,-27.71624472566597,-51.10072127190012,21.410707
87886,1577399884.26,0.9335634619736084,-0.5682433257312308,8.868590110518292,1.1293040464819928,-0.8412407101514857,6.851387619092987,1.5521434177305635,0.0260442424495037,9.478644372558591,3.2830587247522867,-1.492011837842988,0.3133634241615854,-0.1304440382050304,2.314869950457317,-0.1436559165396341,0.9949846965510672,-2.416843321265244,0.8183921255716463,-29.353185096153844,-13.803930288461538,-1.578086149961158,9.875899240983376,-42.15834946303696,-2.852579511834319,26.990355527600563,30.92002875370653,32.789019678317906,1577399884.0,-27.71624472566597,-51.10072127190012,21.410707
87887,1577399884.27,0.6294998511337645,-0.7537939543933401,8.53100767643626,0.2482378355444928,-1.5187997799757045,9.382058773878144,0.2377267063047825,-1.1830275959294014,8.267178332519531,-1.4166483064977131,0.3085252715320121,0.3438810022865854,-2.3887448194550305,0.8195086223323171,1.4127405678353655,-7.977183272198933,-3.088230040015244,-1.4399086556783538,-27.590231036324788,-15.030946314102565,-1.4277922309172375,10.69768002430262,-4.032537774725275,-0.4926629860524088,26.96639410549016,30.92002875370653,32.789019678317906,1577399884.0,-27.71624472566597,-51.10072127190012,21.410707
87888,1577399884.28,-0.1414330834365469,-1.308051638719512,9.91006783268626,-0.1420170350609754,-0.7155451229932825,9.66457456977658,1.212166781988376,-1.8522069599430733,8.78432589111328,-1.1419901033727131,-5.245673947217988,0.5575040491615855,0.4036135789824695,-2.705271651105183,-0.0063268149771341,-4.193003584698933,0.2229271865472561,-0.2344643197408537,-28.47170806623932,-14.826443643162394,-1.1272043928293995,12.135796395111296,-3.849240603146853,-0.0501786374683009,26.89450983915896,30.82418306526492,33.07655674364274,1577399884.0,-27.71624472566597,-51.10072127190012,21.410707
87889,1577399884.29,0.0189784277939208,-0.4628984526843558,11.48066412174876,1.3950604307593364,-0.805327685249142,11.187286825635958,0.050978976812595,-1.5230042316715888,11.207257971191405,-1.5692361971227131,-5.794990353467988,-0.2054354039634145,-0.5271725538300305,1.9181414348323167,0.9854944740853658,-1.5990094440739329,17.785793397484756,-0.8295570931783537,-28.47170806623932,-14.008432959401707,-1.7283800690050757,12.135796395111296,-3.849240603146853,-0.0501786374683009,26.798664150717343,30.77626022104412,33.17240243208434,1577399884.0,-27.71624472566597,-51.10072127190012,21.410707
87890,1577399884.3,0.1889667456650145,-0.9561039946765432,11.035342612959695,0.3368232969702741,-0.5132350827100794,12.008497995069552,0.3909556125547824,-1.6714447346012764,13.206416357421874,-0.1654276033727134,1.376640505907012,0.8321622522865855,-1.7478756788300305,-2.171214033917683,-0.1741734946646341,2.551381180926067,0.6654320693597561,-0.1276527963033537,-28.824298878205127,-14.008432959401707,-0.2254408785658824,11.519460807621863,-1.099783029470529,-37.07136913567202,26.89450983915896,30.92002875370653,32.88486536675951,1577399884.0,-27.71624472566597,-51.10072127190012,21.410707
87891,1577399884.31,0.2500188879989989,-0.8842779448718557,9.749656321455792,0.7222897642554303,-0.1588932370069544,10.552823385694552,0.19463107642197,-1.57328246653487,9.710881933593749,-0.4248270174352132,-0.195014767530488,0.8169034632240856,2.097339164919969,-3.758128096417683,1.0465296303353655,-11.547739912823932,2.313381288109756,-0.2497231088033537,-28.03096955128205,-14.110684294871795,-1.5029391904391964,-14.366633866934349,-39.22559471778221,-0.4926629860524088,26.894509839158957,31.01587444214814,33.12447958786354,1577399884.0,-27.71624472566597,-51.10072127190012,21.410707
87892,1577399884.32,0.4475405249618895,-1.2266487822741994,9.768809934737044,0.7342607725562115,-1.455353435981564,9.274319699171112,-0.4769424892518571,-0.4982859211247145,11.16057103881836,-0.6537088533727134,-0.942695431592988,0.8321622522865855,1.5937991258574693,-2.995188643292683,-0.0673619712271341,2.185170243426067,-1.974338438452744,2.023836461509146,-28.824298878205127,-14.41743830128205,-1.7283800690050757,-4.916154858763031,-4.032537774725275,-1.6726212489433638,26.990355527600563,30.80022164315452,32.98071105520113,1577399884.0,-27.71624472566597,-51.10072127190012,21.410707
87893,1577399884.33,0.7420273291611083,-1.384666091844512,8.947598765303448,0.8324230406226178,-0.0750961789014857,8.670980880811737,2.3925082004454072,-0.2277411335270577,7.244854223632812,1.3604513028772869,-2.407539181592988,0.5880216272865855,1.7921633836699695,-1.9575909870426829,0.2835901772103658,-4.315073897198933,1.5504418349847562,1.0625327505716462,-28.824298878205127,-14.41743830128205,-1.7283800690050757,9.875899240983376,-4.032537774725275,-4.032537774725275,26.89450983915896,30.92002875370653,32.789019678317906,1577399884.0,-27.71624472566597,-51.10072127190012,21.410707
87894,1577399884.34,1.6949195899032958,0.2793040619640807,8.495094651533917,1.7709500914038676,0.0422197024461695,10.253548178175022,0.1539296481993137,-2.8900933796208075,5.537788439941406,3.3440938810022867,-3.811347775342988,0.8016446741615855,-1.8394284132050305,-1.0420636432926829,1.6568811928353655,-4.864390303448933,0.146633241234756,-0.0361000619283536,-27.9428218482906,-15.848956997863246,-1.277498311873317,10.081344436813186,-46.37418440934065,-3.000074294695689,26.89450983915896,30.77626022104412,33.12447958786354,1577399884.0,-27.71624472566597,-51.10072127190012,21.410707
87895,1577399884.35,0.9910243018173582,-0.580214334032012,9.14512040226634,0.8288317381323834,-0.3001511349561737,7.447543832471894,2.3374415622618137,-1.3242854938786202,8.384494213867187,0.2313009122522867,-0.4696729706554878,0.7100919397865855,-4.036694038205031,0.6974383098323171,-0.0826207602896345,4.657094071551067,-5.224460508765244,0.1927817740091463,-27.76652644230769,-14.41743830128205,-1.1272043928293964,-4.813432260848125,-38.76735178883615,-0.8613999432058325,26.94243268337976,31.063797286368946,33.10051816575314,1577399884.0,-27.71624472566597,-51.10072127190012,21.410707
87896,1577399884.36,1.1179169898056396,-0.656828787157012,8.57649750797923,1.1460634581030866,-0.6113973507764856,12.207216732862522,-0.4350439601991227,-1.1854217975895578,12.042834350585936,-1.6607889314977131,-2.438056759717988,0.1912931116615854,0.2662844774199695,-3.239329268292683,0.4361780678353658,-4.620249678448933,13.513332459984756,0.2080405630716463,-29.17688969017094,-14.008432959401707,-1.7283800690050757,10.69768002430262,-37.02602865884116,-1.6726212489433638,26.990355527600563,30.92002875370653,33.12447958786354,1577399884.0,-27.71624472566597,-51.10072127190012,21.410707
87897,1577399884.37,-0.1366446801162344,-1.1332749175281056,10.726490598799542,-0.0941330018578499,-1.4900693600538295,8.912795248487518,0.0270369602110325,-0.5389873493473702,13.776236352539062,-0.5926736971227134,-2.651679806592988,0.7406095179115855,2.280444633669969,-9.220774580792684,-0.3572789634146341,0.5982561809260671,7.074123475609756,0.2690757193216463,-29.17688969017094,-14.008432959401707,-1.7283800690050757,10.081344436813186,-0.1832971715784212,-2.70508472897295,27.08620121604217,30.92002875370653,33.17240243208434,1577399884.0,-27.71624472566597,-51.10072127190012,21.410707
87898,1577399884.38,0.5241549780868896,-0.9489213896960744,11.140687486006572,0.8132694273413679,0.2457268435594508,9.724429611280486,-0.8181162258241227,-0.1798571003239327,8.992621435546875,-0.3485330721227134,-3.567207150342988,0.7711270960365855,-4.982738960080031,8.448903153582316,1.3211878334603655,-0.8665875690739329,-4.766696836890244,-0.3107582650533537,-28.29541266025641,-17.07597302350427,-1.8786739880489929,9.875899240983376,-3.665943431568431,-41.79120218723584,26.990355527600563,30.92002875370653,33.12447958786354,1577399884.0,-27.71624472566597,-51.10072127190012,21.410707
87899,1577399884.39,0.4307811133407958,-0.886672146532012,10.569670390059308,0.1560610716284777,-0.4689423519971888,11.126234683301972,0.4675700656797829,-1.5756766681950265,9.419986431884766,0.7958761075647867,-1.385200314405488,0.9389737757240856,0.6477542039824693,-1.8660382526676829,0.2072962318978658,0.5829973918635671,-2.004856016577744,0.0554526724466463,-28.03096955128205,-14.724192307692306,-0.3005878380878411,-7.586942404550577,-3.48264625999001,-36.92387435281065,27.014316949710967,30.94399017581693,33.07655674364274,1577399884.0,-27.71624472566597,-51.10072127190012,21.410707
87900,1577399884.4,0.5385201880478271,-0.685559207078887,10.125545982100324,1.3064749693335551,-1.0399594479444545,6.741254342725799,0.9057089694883762,-0.1295788654606514,8.341398583984375,0.6585470060022866,-2.254951290967988,0.6490567835365855,0.4799075242949695,0.5753679973323171,0.6803186928353658,-0.0731305378239328,-3.790134336890244,1.7949546255716462,-27.061344818376067,-13.599427617521366,-1.7283800690050757,-7.586942404550577,-3.48264625999001,-36.92387435281065,27.08620121604217,30.872105909485725,32.98071105520113,1577399884.0,-27.71624472566597,-51.10072127190012,21.410707
87901,1577399884.41,0.9455344702743896,-0.9656808013171682,8.988300193526106,1.58420236191168,-1.3631766720655485,8.563241806104706,0.9919002292540012,-1.685809944562214,11.03248125,0.1092305997522865,-0.0576856659679878,0.6185392054115855,-1.3206295850800305,-2.262766768292683,0.4666956459603658,-1.1107281940739329,2.435451600609756,1.0320151724466462,-27.061344818376067,-13.599427617521366,-1.7283800690050757,10.081344436813186,-2.3828632305194803,-41.34871783865174,26.798664150717343,30.92002875370653,33.17240243208434,1577399884.0,-27.71624472566597,-51.10072127190012,21.410707
87902,1577399884.42,1.1693923254989989,-0.77294756767459,9.045761033369857,0.537936236423399,0.8825844851610133,10.062012045362522,0.84585392798447,-0.881358186749714,9.866505041503906,2.1539083341272867,-1.644599728467988,0.5422452600990855,0.9071536180449696,-4.276926924542683,0.6803186928353658,6.945912430926067,-4.827731993140244,0.5437339224466463,-27.061344818376064,-13.803930288461537,-0.5260287166537204,-3.2725932921245406,-39.22559471778221,-2.5575899461115803,26.94243268337976,31.063797286368946,33.12447958786354,1577399884.0,-27.71624472566597,-51.10072127190012,21.410707
87903,1577399884.43,0.5217607764267334,-0.1732000518054495,10.647481944014386,0.7701737974585552,-1.1297420102003135,9.366496463087127,0.510665695562595,-0.8478393635075269,10.075997686767575,0.6585470060022866,1.346122927782012,0.8321622522865855,-0.5119137647675305,-2.079661299542683,0.6345423256478656,-3.964121748761433,-1.989597227515244,0.7726157583841463,-27.061344818376067,-15.235448985042735,-2.630143583268586,-7.997832796210198,-39.04229754620378,-3.295063860418427,26.798664150717343,30.99191302003773,33.24428669841555,1577399884.0,-27.71624472566597,-51.10072127190012,21.410707
87904,1577399884.44,0.4020506934189208,-1.1284865142077931,10.238073460127668,-0.3574951844750374,0.4827528079149195,8.836180795362518,0.9104973728086888,0.50727877614091,8.034940771484374,-2.4237283846227133,-1.034248165967988,0.8931974085365855,0.0221438524199695,-4.246409346417683,0.5582483803353658,0.1099749309260671,6.189113709984756,1.9475425161966464,-27.9428218482906,-14.62194097222222,-0.6763226356976347,11.519460807621863,-38.85900037462537,-1.0826421174978862,26.65489561805493,30.77626022104412,33.12447958786354,1577399884.0,-27.71624472566597,-51.10072127190012,21.410707
87905,1577399884.45,0.3972622900986083,-0.3527651763171683,8.748880027510479,0.1357103575171491,-0.3001511349561732,11.213623043897677,-0.4350439601991227,-1.34343910715987,8.650250598144531,1.3299337247522869,-0.973213009717988,0.4354337366615854,1.2123293992949695,-10.655100752667684,0.8023890053353658,1.1170550090510671,4.083400819359756,1.6118491568216462,-27.9428218482906,-14.62194097222222,-0.6763226356976347,10.90312522013243,-3.1160519168331664,1.4247691911453937,26.990355527600563,31.01587444214814,33.12447958786354,1577399884.0,-27.71624472566597,-51.10072127190012,21.410707
87906,1577399884.46,0.4870448523544677,-0.6999244170398244,10.629525431563213,-0.0701909852562874,-1.9593328854444545,9.3461457489758,0.2688513278868137,-2.2580241413395576,12.54561669921875,-0.5468973299352133,-4.299629025342988,0.8321622522865855,0.0526614305449695,1.0331316692073171,0.1615198647103658,-3.735239912823933,4.541164491234756,-0.5548988900533537,-27.14949252136752,-15.33770032051282,-0.3005878380878411,10.286789632642996,-2.5661604020979016,-36.77637956994928,26.96639410549016,30.92002875370653,33.36409380896756,1577399884.0,-27.71624472566597,-51.10072127190012,21.410707
87907,1577399884.47,0.7659693457626708,-0.7765388701648245,10.621145725752667,0.2171132139624616,-0.1229802121046107,10.145809103467988,0.5022859897520482,0.1828644511897381,11.77348666381836,-0.2569803377477134,-2.529609494092988,0.9542325647865856,0.5867190477324695,-1.9118146198551829,1.0312708412728655,-2.575571944073933,-0.9062232040777438,-1.0126625619283538,-27.23764022435897,-14.21293563034188,-1.578086149961158,1.2472010161313043,-3.849240603146853,-19.8144795408918,27.038278371821367,30.943990175816936,33.07655674364274,1577399884.0,-27.71624472566597,-51.10072127190012,21.410707
87908,1577399884.48,1.228050266172827,-1.413396511766387,8.468758433272198,1.4908284971655863,-1.1836115475538294,8.951102475050018,0.0054891452696262,-0.4168830646794014,7.874529260253905,1.7876973966272869,-0.973213009717988,1.0763028772865857,0.1747317430449695,4.969899247332317,0.6498011147103658,2.185170243426067,-2.935642149390244,0.2995932974466463,-29.70577590811965,-13.394924946581195,-0.3757347976097998,-9.641394362848688,-35.74294845779221,-2.115105597527472,26.990355527600563,30.92002875370653,33.12447958786354,1577399884.0,-27.71624472566597,-51.10072127190012,21.410707
87909,1577399884.49,0.2847348120712645,-0.675982400438262,9.0433668317097,0.7821448057593365,-0.3145163449171106,7.2775555146008,-0.2626614406678727,-0.325903401593464,7.615955480957031,0.5669942716272866,-1.247871212842988,1.1678556116615857,0.2357668992949695,0.6974383098323171,0.3751429115853658,-2.728159834698933,3.961330506859756,1.0014975943216462,-29.70577590811965,-13.394924946581195,-0.3757347976097998,-9.641394362848688,-36.10954280094905,-0.345168203191039,26.89450983915896,30.92002875370653,33.02863389942193,1577399884.0,-27.71624472566597,-51.10072127190012,21.410707
87910,1577399884.5,1.362125559141577,-0.8064663909167775,9.811905564619854,2.0941673155249614,-1.451762133491329,7.993421810987519,-0.0016934597108415,-3.275559846905964,10.896011755371092,-0.1043924471227131,-2.224433712842988,0.9389737757240856,-0.2830319288300305,-2.567942549542683,0.7413538490853658,-6.756480147198933,2.343898866234756,0.5132163443216463,-28.03096955128205,-13.292673611111107,-1.6532331094831136,-1.834476921315863,-3.849240603146853,-2.70508472897295,26.96639410549016,30.872105909485725,33.17240243208434,1577399884.0,-27.71624472566597,-51.10072127190012,21.410707
87911,1577399884.51,0.979053293516577,0.1212867523937682,10.436792197920637,0.5762434629858991,0.5306368411180445,9.556835495069553,2.119569211187595,-0.3618164264958077,8.593986859130858,0.2007833341272865,-2.071845822217988,0.4659513147865854,-0.7407956007050305,-2.659495283917683,0.7718714272103656,-0.0883893268864328,3.503566834984756,0.8946860708841464,-28.1191172542735,-13.599427617521366,-1.7283800690050757,-4.299819271273597,-38.3091088598901,-3.8850429918639056,27.038278371821367,30.82418306526492,33.17240243208434,1577399884.0,-27.71624472566597,-51.10072127190012,21.410707
87912,1577399884.52,0.988630100157202,-0.3000927397937308,9.021819016768292,2.5251236143530864,-1.1093912960889858,10.715629098585175,-0.1285861476991227,-0.2468947468083077,10.764330664062498,-0.0433572908727134,2.1395799590320124,1.1373380335365857,-4.677563178830031,6.556813309832317,0.4361780678353658,-0.1036481159489328,1.3063012099847562,-0.5243813119283537,-27.76652644230769,-14.008432959401707,-0.8266165547415584,11.519460807621863,-39.22559471778221,-3.737548209002536,26.89450983915896,30.5845688441609,32.83694252253871,1577399884.0,-27.71624472566597,-51.10072127190012,21.410707
87913,1577399884.53,0.7516041358017332,-0.9082199614734182,9.048155235030013,1.5506835386694926,-0.7430784420850794,9.791467257764864,0.9871118259336888,0.6341714641291912,10.187328063964843,-1.843894400247713,1.376640505907012,0.8626798304115855,1.5785403367949695,-4.734690596417683,1.2296350990853655,-0.9886578815739328,3.198391053734756,0.6963218130716463,-27.76652644230769,-14.008432959401707,-0.8266165547415584,10.492234828472808,-39.04229754620379,-3.8850429918639056,26.89450983915896,30.872105909485725,33.12447958786354,1577399884.0,-27.71624472566597,-51.10072127190012,21.410707
87914,1577399884.54,0.5026071631454833,-0.8902634490222463,9.409679685713606,0.0662785093726183,-1.020805834663205,9.55084999091916,0.0306282627012673,-1.0585291096012763,10.48181486816406,2.1081319669397867,-0.1339796112804878,0.8016446741615855,-1.5952877882050305,1.9944353801448167,0.7718714272103657,-4.620249678448933,12.017971131859756,1.0930503286966462,-28.383560363247863,-14.315186965811964,-0.601175676175679,11.724906003451672,-1.832971715784216,-20.40445867233728,26.870548417048557,30.92002875370653,33.10051816575314,1577399884.0,-27.71624472566597,-51.10072127190012,21.410707
87915,1577399884.55,0.3062826270126708,-0.1348928252429495,9.874154807783915,1.351964800876524,-0.5491481076124232,10.430719101026584,2.217731479254001,0.0116790324885662,10.615890161132812,0.1702657560022865,-0.7595899628429879,0.9237149866615856,-0.1304440382050304,-5.131419112042683,0.1004847084603658,-2.422984053448933,0.909572694359756,-0.5243813119283537,-28.1191172542735,-14.008432959401707,-2.0289679070929103,10.90312522013243,-3.849240603146853,-3.8850429918639056,26.84658699493815,30.872105909485725,32.789019678317906,1577399884.0,-27.71624472566597,-51.10072127190012,21.410707
87916,1577399884.56,0.4954245581650146,-0.8387881133288869,9.014636411787825,-0.3431299745140999,0.8921612918016383,10.224817758253147,0.8410655246641575,-0.1032426471989327,7.096413720703125,-0.8062967439977134,-1.614082150342988,1.0763028772865857,-2.0835690382050305,2.711598466082317,0.7413538490853658,-3.491099287823933,-1.7149390243902438,0.4826987661966463,-29.88207131410256,-13.599427617521366,-1.1272043928293995,9.875899240983376,-38.492406031468526,-1.6726212489433638,26.990355527600563,31.01587444214814,33.12447958786354,1577399884.0,-27.71624472566597,-51.10072127190012,21.410707
87917,1577399884.57,0.6199230444931395,-0.8339997100085744,9.96752867253001,1.7350370665015238,-1.6409040646436732,8.843363400342987,0.012671750250095,-0.5006801227848702,8.930372192382812,-1.1114725252477131,-2.758491330030488,1.0763028772865857,-1.2901120069550305,5.549733231707317,0.7718714272103658,-2.850230147198933,-0.4637183212652439,0.2690757193216463,-26.708754006410253,-13.190422275641025,-0.8266165547415584,-12.723072300295856,-37.02602865884116,-1.6726212489433638,26.870548417048557,30.92002875370653,33.17240243208434,1577399884.0,-27.71624472566597,-51.10072127190012,21.410707
87918,1577399884.58,1.1658010230087643,-1.9066020537585744,9.357007249190168,1.142472155612852,-0.66646398896008,8.417195504835174,0.6148134677793923,-0.7065814655583078,9.879673150634764,-3.0951151033727133,-0.8816602753429879,0.7711270960365855,-0.8933834913300305,0.5143328410823171,0.5582483803353658,-1.5684918659489329,-1.7759741806402438,1.2151206411966462,-28.64800347222222,-12.576914262820512,-1.578086149961158,-4.299819271273598,-18.87960867257742,-3.737548209002536,26.990355527600563,30.848144487375325,33.19636385419474,1577399884.0,-27.71624472566597,-51.10072127190012,21.410707
87919,1577399884.59,1.4339516089462645,-0.4437448394031058,9.44559271061595,1.4429444639624611,-0.6161857540967982,11.857663290479708,1.3486362766172824,-1.3649869221012765,9.25837781982422,0.8111348966272866,-0.3018262909679878,1.4119962366615857,-5.318432319455031,8.082692216082316,0.8329065834603658,1.3306780559260671,0.177150819359756,1.7644370474466462,-28.64800347222222,-13.803930288461538,-0.0751469595219649,-5.327045250422654,-39.22559471778221,-3.147569077557058,26.65489561805493,30.728337376823312,33.12447958786354,1577399884.0,-27.71624472566597,-51.10072127190012,21.410707
87920,1577399884.6,1.0508793433212644,0.2218432221203307,11.717690086104229,1.294503961032774,-0.0607309689405482,8.568030209425018,1.19061896704697,-0.0793006305973702,9.272743029785156,-3.2477029939977133,-3.719795040967988,0.6185392054115855,0.6019778367949695,-3.666575362042683,-0.5098668540396342,-1.2633160846989329,2.618557069359756,0.6047690786966463,-29.00059428418804,-10.531887553418803,-1.578086149961158,9.875899240983376,-41.42516077672328,4.227170065511412,26.89450983915896,30.728337376823312,33.12447958786354,1577399884.0,-27.71624472566597,-51.10072127190012,21.410707
87921,1577399884.61,0.6558360693954833,-0.570637527391387,9.064914646651104,1.4405502623023052,-0.2163540768507044,8.613520040967988,0.031825363531345,0.6365656657893475,9.337386474609374,-1.1419901033727131,2.7194139434070124,1.0305265100990857,-2.7549557569550305,1.1246844035823171,1.7789515053353655,-5.169566084698933,-3.240817930640244,0.0249350943216463,-28.64800347222222,-13.394924946581195,-1.277498311873317,10.081344436813186,-36.10954280094905,-2.70508472897295,26.822625572827747,30.92002875370653,32.88486536675951,1577399884.0,-27.71624472566597,-51.10072127190012,21.410707
87922,1577399884.62,0.4451463233017333,-1.348753066942168,9.019424815108136,0.3416117002905871,-0.7634291561964076,11.223199850538302,1.1858305637266573,-1.59243607981612,8.52335791015625,-1.2335428377477131,-0.3933790253429878,1.1068204554115857,-1.1070065382050305,1.4908953410823171,0.4361780678353657,-1.2022809284489329,-3.240817930640244,0.9099448599466462,-28.824298878205127,-13.599427617521366,-0.5260287166537173,10.286789632642998,-36.10954280094905,-3.590053426141166,26.798664150717343,30.82418306526492,33.19636385419474,1577399884.0,-27.71624472566597,-51.10072127190012,21.410707
87923,1577399884.63,0.5480969946884521,-0.9728634062976368,10.185401023604228,1.1652170713843366,-1.4326085202100791,7.394871395948455,-0.7391075710389664,-0.4863149128239327,9.962273107910155,2.4590841153772867,-3.658759884717988,1.1678556116615857,-2.4802975538300305,3.260914872332317,1.3211878334603655,-5.291636397198933,7.470851991234756,1.7339194693216462,-27.590231036324784,-15.030946314102565,-1.578086149961158,10.69768002430262,-33.36008522727273,-4.032537774725275,26.84658699493815,30.77626022104412,33.31617096474676,1577399884.0,-27.71624472566597,-51.10072127190012,21.410707
87924,1577399884.64,0.5480969946884521,-0.8268171050281057,11.679382859541729,0.8372114439429303,-1.552318603217892,10.928713046339084,0.21378468970322,-3.27795404856612,11.920730065917969,-0.4400858064977134,-3.017890744092988,0.8321622522865855,-1.3206295850800305,-5.406077315167683,1.4432581459603655,2.612416337176067,2.862697694359756,-0.8295570931783537,-28.1191172542735,-14.008432959401707,-0.2254408785658824,10.69768002430262,-33.36008522727273,-4.032537774725275,26.84658699493815,30.872105909485725,33.17240243208434,1577399884.0,-27.71624472566597,-51.10072127190012,21.410707
87925,1577399884.65,0.8928620337509521,-0.6340838713855276,9.191807334639384,0.5786376646460554,1.3039639773485134,11.220805648878146,2.2680097141172824,0.4546063396174725,10.168174450683592,-1.3861307283727131,0.4000780059070121,1.2594083460365857,3.592700493044969,-13.004954268292684,0.5887659584603658,2.826039384051067,-4.217380430640244,-0.2192055306783537,-28.1191172542735,-13.190422275641025,-0.5260287166537173,-5.7379356420822765,-33.72667957042957,-3.737548209002536,26.89450983915896,30.92002875370653,32.98071105520113,1577399884.0,-27.71624472566597,-51.10072127190012,21.410707
87926,1577399884.66,0.710902707579077,-0.2593913115710745,9.634734641768294,2.1707817686499613,-1.6397069638135953,8.433954916456269,0.2401209079649387,-2.088035823468464,9.97903251953125,-5.200827993997714,-0.973213009717988,0.8016446741615855,-0.9544186475800304,-3.468211104230183,0.4819544350228658,0.0794573528010671,1.7793236709222562,0.0859702505716463,-28.1191172542735,-12.781416933760685,-1.4277922309172344,-9.949562156593403,-37.11767724463037,-3.368811251849112,26.798664150717343,30.872105909485725,33.10051816575314,1577399884.0,-27.71624472566597,-51.10072127190012,21.410707
87927,1577399884.67,0.9575054785751708,-1.5163471831531057,10.020201109053447,0.5546956480444929,0.0302486941453883,12.001315390089085,1.8107171970274385,1.6828317912776287,8.724470849609375,-0.6537088533727134,-1.247871212842988,0.7711270960365855,-1.9004635694550305,-2.934153487042683,1.5042933022103655,-8.007700850323932,3.106838319359756,1.1846030630716462,-29.52948050213675,-14.41743830128205,-0.8266165547415584,-1.4235865296562409,-36.10954280094905,-1.525126466081995,27.08620121604217,31.01587444214814,32.98071105520113,1577399884.0,-27.71624472566597,-51.10072127190012,21.410707
87928,1577399884.68,1.0724271582626708,-1.1907357573718558,10.376937156416728,0.988046148532774,-0.6880118039014858,10.397200277784396,-0.504475808343654,-3.658632112530964,9.10514891357422,-1.4166483064977131,-1.797187619092988,0.9237149866615856,-0.5576901319550305,2.467457841082317,1.1380823647103655,-5.322153975323933,3.534084413109756,1.3982261099466462,-27.76652644230769,-12.372411591880342,-0.8266165547415584,9.875899240983376,-39.22559471778221,-4.032537774725275,26.89450983915896,31.01587444214814,33.12447958786354,1577399884.0,-27.71624472566597,-51.10072127190012,21.410707
87929,1577399884.69,0.9419431677841552,-0.2402376982898245,10.546925474287823,1.3112633726538676,-0.4162699154737513,8.293894119337127,1.4180681247618137,-0.7305234821598703,7.633911993408202,-1.0504373689977131,0.7662889434070124,0.7558683069740855,-0.0083737257050304,-5.558665205792684,0.9397181068978656,-0.5614117878239329,0.0398217177972561,2.023836461509146,-27.590231036324784,-12.985919604700852,-1.578086149961158,10.90312522013243,-21.629066246253743,-3.885042991863905,26.894509839158957,30.89606733159613,33.00467247731153,1577399884.0,-27.71624472566597,-51.10072127190012,21.410707
87930,1577399884.7,0.873708420469702,-0.5203592925281058,9.41207388737376,0.8611534605444928,0.1571413821336695,11.13461438911252,0.108439816656345,-1.5230042316715888,11.616666455078123,-3.4308084627477133,4.245292849657012,1.1983731897865857,0.8461184617949695,-4.826243330792683,1.2296350990853655,2.703969071551067,-4.522556211890244,0.8183921255716463,-27.9428218482906,-13.394924946581195,-0.3757347976097998,10.081344436813186,-37.57592017357642,-0.9351473346365172,26.84658699493815,30.680414532602512,33.17240243208434,1577399884.0,-27.71624472566597,-51.10072127190012,21.410707
87931,1577399884.71,0.5552795996689208,-1.2481965972156055,9.72571430485423,0.5762434629858991,-1.4565505368116418,9.769919442823456,-0.0567600978944352,0.0499862590510662,12.93587156982422,-2.7289041658727133,-0.7901075409679879,0.8626798304115855,0.4493899461699695,-0.0349835651676829,0.7413538490853658,0.1710100871760671,-6.262058165015244,-0.0666176400533536,-29.00059428418804,-14.62194097222222,0.526028716653711,10.69768002430262,-4.032537774725275,-2.852579511834319,26.89450983915896,30.728337376823312,33.02863389942193,1577399884.0,-27.71624472566597,-51.10072127190012,21.410707
87932,1577399884.72,0.5193665747665771,-0.8280142058581839,10.284760392500711,0.928191107028868,-0.6688581906202358,10.028493222120334,-1.3568115993592789,-1.3410449054997138,10.407594616699216,0.5517354825647867,1.391899294969512,1.1525968225990857,-2.5718502882050305,1.0941668254573171,0.8939417397103658,1.6968889934260671,1.1842308974847562,0.1164878286966463,-29.353185096153844,-14.00843295940171,-0.6763226356976377,11.519460807621863,-4.032537774725275,-37.07136913567202,26.84658699493815,31.01587444214814,33.17240243208434,1577399884.0,-27.71624472566597,-51.10072127190012,21.410707
87933,1577399884.73,0.4762709448837645,-1.0542662627429495,10.25483287174876,0.4577304808081652,-1.1057999935987513,10.374455362012911,0.1718861606504861,0.4067223064143475,11.90756195678711,-0.2264627596227134,2.4752733184070124,1.2899259241615857,-0.5576901319550305,2.574269364519817,1.3211878334603655,-1.8126324909489329,4.724269959984756,0.3911460318216462,-29.00059428418804,-12.985919604700852,-0.3757347976097998,10.184067034728091,-3.757592017357642,-20.478206063767963,26.798664150717343,30.89606733159613,33.12447958786354,1577399884.0,-27.71624472566597,-51.10072127190012,21.410707
87934,1577399884.74,0.4906361548447021,-1.0446894561023243,9.1199812848347,-0.3024285462914436,-0.5012640744092982,8.132285507276581,1.3223000583555635,-1.159085579327839,8.760383874511719,-0.7147440096227134,-2.285468869092988,0.4354337366615854,1.0292239305449695,0.148121903582317,1.4737757240853655,-6.054575850323933,5.304103944359756,-0.1276527963033537,-29.00059428418804,-12.985919604700852,-0.3757347976097998,-9.435949167018876,-1.099783029470529,-4.032537774725275,26.702818462275737,30.680414532602512,32.98071105520113,1577399884.0,-27.71624472566597,-51.10072127190012,21.410707
87935,1577399884.75,1.1107343848251707,-0.0870087920398245,10.534954465987042,2.3120396665991803,-1.4110607052686732,9.264742892530489,1.317511655035251,-1.5230042316715888,9.351751684570312,-1.3250955721227131,-0.7290723847179879,0.5880216272865855,-2.4802975538300305,5.732838700457317,0.7413538490853658,-3.796275069073933,7.257228944359756,0.3911460318216463,-28.29541266025641,-13.803930288461538,-0.9769104737854758,-9.435949167018876,-1.099783029470529,-4.032537774725275,26.84658699493815,30.680414532602512,32.83694252253871,1577399884.0,-27.71624472566597,-51.10072127190012,21.410707
87936,1577399884.76,1.0149663184189208,-0.8076634917468557,9.687407078291727,0.6169448912085553,-0.9609507931592982,7.835404501417206,0.8721901462461887,-1.3961115436833076,8.542511523437499,-0.9131082674352132,-0.2102735565929878,1.1373380335365857,1.3343997117949695,-6.199534346417683,0.5582483803353658,5.572621415301067,-2.386325743140244,2.710481969321646,-29.000594284188036,-14.62194097222222,-0.375734797609803,-9.435949167018876,-0.7331886863136862,-4.032537774725275,26.870548417048557,30.92002875370653,33.17240243208434,1577399884.0,-27.71624472566597,-51.10072127190012,21.410707
87937,1577399884.77,1.3764907691025146,-0.2330550933093558,9.608398423506577,1.2107069029273052,-0.0104527340772674,10.211649649122286,-0.0711253078553732,-0.51384823191573,11.258733306884764,1.4825216153772869,-1.888740353467988,0.7100919397865855,-1.6410641553925305,3.718678544207317,1.7026575600228655,0.8729143840510671,6.021267030297256,0.4064048208841463,-29.52948050213675,-13.599427617521366,-1.4277922309172344,-9.230503971189066,-22.9121464473027,0.9822848425612848,26.89450983915896,30.848144487375325,33.05259532153234,1577399884.0,-27.71624472566597,-51.10072127190012,21.410707
87938,1577399884.78,0.8306127905868895,-0.9345561797351368,9.716137498213604,2.1037441221655864,-0.4414090329053919,8.3118506317883,1.32469426001572,-0.7113698688786203,8.549694128417968,-1.4166483064977131,4.214775271532012,1.0457852991615857,3.7452883836699695,-3.178294112042683,-0.2657262290396341,-2.789194990948933,1.4283715224847562,0.4826987661966463,-29.52948050213675,-13.599427617521366,-1.4277922309172344,11.519460807621863,-3.665943431568431,-3.737548209002536,26.990355527600563,30.872105909485725,33.12447958786354,1577399884.0,-27.71624472566597,-51.10072127190012,21.410707
87939,1577399884.79,1.1059459815048582,-1.0422952544421682,10.412850181319072,0.537936236423399,-1.2985332272413297,8.709288107374237,0.2473035129454075,0.4474237346370037,7.034164477539062,-1.3556131502477131,2.5973436309070124,0.4049161585365854,-1.0459713819550305,2.497975419207317,2.1756800209603657,-5.627329756573933,1.2757836318597562,0.3911460318216463,-29.52948050213675,-12.781416933760685,-1.4277922309172344,9.875899240983376,-4.032537774725275,-2.852579511834319,27.038278371821367,30.77626022104412,33.12447958786354,1577399884.0,-27.71624472566597,-51.10072127190012,21.410707
87940,1577399884.8,0.4535260291122802,-0.8160431975574026,11.101183158613996,0.1189509458960553,-0.1181918087842981,12.300590597608617,0.0174601535704075,-0.4815265095036202,8.219294299316406,0.5975118497522869,2.6736375762195124,0.9847501429115856,-3.3653073194550305,14.003102372332316,1.6873987709603655,0.6592913371760671,16.839748475609756,1.3982261099466462,-28.38356036324786,-14.928694978632478,-1.202351352351355,10.286789632642996,-2.9327547452547447,-38.25132739856297,26.870548417048557,30.92002875370653,33.12447958786354,1577399884.0,-27.71624472566597,-51.10072127190012,21.410707
87941,1577399884.81,0.959899680235327,-0.9369503813952932,9.66825346501048,1.468083581394102,-0.6365364682081269,9.289882009962128,-0.4194816494081075,-2.105992335919636,10.45667575073242,1.6961446622522869,4.947197146532012,0.6795743616615855,-1.2443356397675305,2.330128739519817,0.8786829506478656,-1.2938336628239329,8.737331483422256,-0.7685219369283536,-29.00059428418804,-15.439951655982904,-0.0751469595219649,10.594957426387714,-3.390997674200799,-37.58760087568681,26.84658699493815,30.94399017581693,33.14844100997394,1577399884.0,-27.71624472566597,-51.10072127190012,21.410707
87942,1577399884.82,1.1658010230087643,-1.1117271025866995,8.911685740401106,1.6751820249976177,-0.6951944088819545,11.802596652296115,0.7907872898008762,-1.7025693561833075,10.86728133544922,0.2923360685022865,5.130302615282012,1.3509610804115857,2.158374321169969,-5.467112471417683,1.1380823647103655,0.6898089153010671,10.949855897484756,-0.5854164681783537,-29.00059428418804,-15.439951655982904,-0.0751469595219649,-11.490401125316987,-34.826462599900104,-2.5575899461115803,26.990355527600563,30.872105909485725,33.12447958786354,1577399884.0,-27.71624472566597,-51.10072127190012,21.410707
87943,1577399884.83,0.8713142188095457,-0.5610607207507621,9.596427415205794,-0.0438547669945686,0.487541211235232,9.025322726514862,1.193013168707126,0.3947512981135662,9.593566052246093,1.3909688810022869,0.8883592559070121,0.5880216272865855,-0.6492428663300305,0.8195086223323171,1.0160120522103655,0.8729143840510671,-0.4026831650152439,0.6658042349466463,-29.52948050213675,-14.41743830128205,-1.1272043928293995,-9.8468395586785,-36.292839972527474,-0.1976734203296699,26.798664150717343,30.92002875370653,32.88486536675951,1577399884.0,-27.71624472566597,-51.10072127190012,21.410707
87944,1577399884.84,0.8042765723251708,-1.1584140349597465,9.71853169987376,1.6189182859839455,-1.1429101193311733,9.962652676466035,-0.365612112054592,-0.7221437763493233,10.290278735351562,0.6738057950647868,3.757011599657013,1.0763028772865857,-2.2971920850800305,5.534474442644816,1.6416224037728655,2.719227860613567,-0.9367407822027438,2.069612828696646,-29.441332799145293,-14.315186965811964,-1.202351352351355,-5.42976784833756,-21.53741766046453,-2.631337337542265,26.894509839158957,30.94399017581693,33.00467247731153,1577399884.0,-27.71624472566597,-51.10072127190012,21.410707
87945,1577399884.85,0.8713142188095457,-0.0319421538562308,10.381725559737042,0.7797506040991803,0.8634308718797632,10.473814730909396,-0.791780007562404,-1.309920283917683,10.778695874023438,1.6045919278772869,1.712333865282012,0.1912931116615854,-2.8465084913300305,6.800953934832317,2.1146448647103657,1.1780901653010671,-9.466403868140244,2.344271031821646,-30.41095753205128,-13.394924946581195,-0.9769104737854758,-6.354271229571711,-41.97505229145854,0.2448109282544379,26.990355527600563,31.111720130589752,32.88486536675951,1577399884.0,-27.71624472566597,-51.10072127190012,21.410707
87946,1577399884.86,0.3421956519150145,-0.034336355516387,10.716913792158916,0.8731244688452741,-1.4876751583936731,9.925542550733615,0.6064337619688449,-0.2875961750309639,13.2926076171875,-0.2264627596227134,2.8109666777820124,0.8321622522865855,-1.2901120069550305,5.397145341082317,1.0770472084603655,-1.3243512409489329,-4.369968321265244,1.5202964224466462,-30.41095753205128,-13.394924946581195,-0.9769104737854758,-6.55971642540152,-42.15834946303696,-3.4425586432797965,27.038278371821367,31.01587444214814,33.02863389942193,1577399884.0,-27.71624472566597,-51.10072127190012,21.410707
87947,1577399884.87,-0.0552418236709224,-0.94533008720584,9.572485398604227,1.2585909361304302,-1.2243129757764857,9.956667172315646,0.9559872043516576,-1.5517346515934638,11.326968054199218,-2.5152811189977133,3.985893435594512,1.0457852991615857,3.348559868044969,-6.260569502667683,1.4737757240853655,0.4456682903010671,1.947170350609756,1.1235679068216462,-30.05836672008547,-13.599427617521368,-0.676322635697641,9.875899240983376,-36.292839972527474,-0.4926629860524088,26.84658699493815,31.01587444214814,32.98071105520113,1577399884.0,-27.71624472566597,-51.10072127190012,21.410707
87948,1577399884.88,-0.1222794701552969,-0.5251476958484183,11.004217991377669,-0.5873385438500374,-0.6616755856397675,10.08116565864377,-0.384765725335842,-0.1415498737614332,8.696937530517578,0.4449239591272865,2.0785448027820124,1.0763028772865857,-1.8546872022675305,5.244557450457316,1.7789515053353655,-3.185923506573933,0.7569848037347562,1.3524497427591462,-27.9428218482906,-13.394924946581195,-0.3757347976097998,10.492234828472808,-19.61279735889111,-20.846943020921387,26.798664150717343,30.84814448737532,33.12447958786354,1577399884.0,-27.71624472566597,-51.10072127190012,21.410707
87949,1577399884.89,0.3996564917587645,-0.8076634917468557,11.171812107588604,1.014382366794493,-0.9370087765577356,8.101160885694549,0.3454657810118137,-1.45836078684737,10.697293017578124,1.3299337247522869,2.2921678496570124,0.9542325647865856,2.127856743044969,-3.361399580792683,1.5042933022103655,-3.765757490948933,6.829982850609756,-0.5548988900533537,-29.353185096153844,-15.030946314102565,-1.578086149961158,10.69768002430262,-4.032537774725275,-41.79120218723584,26.84658699493815,30.728337376823312,33.17240243208434,1577399884.0,-27.71624472566597,-51.10072127190012,21.410707
87950,1577399884.9,0.5983752295517333,-1.1596111357898244,9.56530279362376,-0.4149560243187874,0.4899354128953883,9.79864986274533,-0.0711253078553727,-0.2061933185856514,10.5344873046875,1.1163106778772869,3.787529177782013,1.4425138147865857,-3.5178952100800305,4.756276200457317,1.2296350990853655,-2.697642256573933,1.7640648818597562,-1.0126625619283538,-29.353185096153844,-15.030946314102565,-1.578086149961158,-7.381497208720765,-3.665943431568431,-4.032537774725275,27.038278371821367,30.680414532602512,33.12447958786354,1577399884.0,-27.71624472566597,-51.10072127190012,21.410707
87951,1577399884.91,0.3541666602157958,-0.7202751311511526,9.072097251631574,1.773344293064024,-1.583443224799923,11.127431784132051,-0.2243542141053727,-0.8693871784489328,10.263942517089845,-0.0128397127477134,3.1771776152820124,1.7019132288490857,2.036304008669969,3.352467606707317,1.3211878334603655,-4.193003584698933,-6.262058165015244,1.6728843130716462,-29.000594284188036,-14.62194097222222,-0.976910473785479,-13.955743475274724,-33.36008522727273,0.6872952768385466,26.702818462275737,31.01587444214814,33.12447958786354,1577399884.0,-27.71624472566597,-51.10072127190012,21.410707
87952,1577399884.92,0.050103049375952,-0.3934666045398245,9.996259092451885,0.8539708555640241,-0.1157976071241424,10.247562674024628,-0.1309803493592795,-0.6156018024723706,9.02614025878906,0.9332052091272866,1.620781130907012,1.4119962366615857,1.5175051805449695,-5.070383955792683,1.7331751381478655,1.5443011028010671,-12.624973204077744,3.580232945884146,-28.29541266025641,-14.62194097222222,-0.6763226356976347,-5.327045250422652,-18.696311500999,-1.9676108146661029,26.84658699493815,30.96795159792733,33.05259532153234,1577399884.0,-27.71624472566597,-51.10072127190012,21.410707
87953,1577399884.93,0.5983752295517333,-1.2649560088366991,9.060126243330792,1.371118414157774,-0.9561623898389856,11.54402287299924,0.71177863501572,-2.322667586163776,10.378864196777345,1.5130391935022869,0.918876834032012,1.5645841272865857,-2.9380612257050305,5.214039872332317,1.4127405678353655,-0.1952008503239328,0.4212914443597561,3.229280797446646,-28.824298878205127,-13.190422275641025,-1.4277922309172344,-3.2725932921245406,-3.665943431568431,-2.5575899461115803,26.990355527600563,31.063797286368946,33.17240243208434,1577399884.0,-27.71624472566597,-51.10072127190012,21.410707
87954,1577399884.94,1.0221489233993897,-0.2474203032702933,10.271592283369854,1.0622663999976178,-0.2091714718702357,9.28868490913205,-0.1549223659608415,-2.930794807843464,8.935160595703124,1.5435567716272869,0.4305955840320121,1.5340665491615857,-4.372387397580031,9.822194169207316,1.2296350990853655,2.765004227801067,1.0926781631097562,1.2151206411966462,-28.824298878205127,-13.190422275641025,-1.4277922309172344,-9.025058775359255,-39.22559471778221,-2.852579511834319,26.798664150717343,31.111720130589752,33.22032527630515,1577399884.0,-27.71624472566597,-51.10072127190012,21.410707
87955,1577399884.95,0.8808910254501708,-0.82442290336795,9.062520444990948,0.3882986326636334,-1.2231158749464075,8.987015499952362,0.1910397739317361,-0.4504018879215894,9.795876092529296,-0.4706033846227133,2.0022508574695124,1.7171720179115857,2.768725883669969,-1.8660382526676829,2.1451624428353657,4.306141923113567,4.159694764672256,1.4592612661966462,-28.736151175213674,-13.497176282051282,-1.2023513523513552,-6.251548631656803,-21.53741766046453,-3.2213164689877427,26.918471261269357,30.92002875370653,33.148441009973936,1577399884.0,-27.71624472566597,-51.10072127190012,21.410707
87956,1577399884.96,0.2200913672470458,-0.6161273589343557,10.520589256026105,-0.6950776185570686,-0.795750878608517,8.781114157178925,-0.2866034572694352,-1.9036822956364323,10.927136376953124,0.3533712247522865,1.529228396532012,1.5035489710365857,4.691333305544969,1.7350359660823171,1.4127405678353655,-6.146128584698933,1.3368187881097562,0.7878745474466463,-28.1191172542735,-15.235448985042735,-3.531907097532104,10.286789632642996,-1.466377372627372,-2.852579511834319,26.89450983915896,31.01587444214814,33.12447958786354,1577399884.0,-27.71624472566597,-51.10072127190012,21.410707
87957,1577399884.97,0.4595115332626708,-0.3168521514148245,10.87971950504954,0.3104870787085553,-1.6768170895460168,8.323821640089081,0.0773151950743137,0.8879568401057537,11.966219897460936,0.4144063810022865,-0.0576856659679878,1.2899259241615857,3.226489555544969,-3.880198408917683,2.4503382240853657,-2.178843428448933,-4.247898008765244,1.7339194693216462,-28.47170806623932,-16.462465010683758,-2.630143583268586,0.0145298411524369,0.0,0.6872952768385466,26.89450983915896,30.92002875370653,33.02863389942193,1577399884.0,-27.71624472566597,-51.10072127190012,21.410707
87958,1577399884.98,0.3781086768173583,-0.9201909697741996,11.574037986494854,0.4876580015601178,-1.516405578315548,10.085954061964085,0.73093224829697,-1.927624312237995,11.863269226074218,-2.8509744783727133,1.742851443407012,1.3509610804115857,-1.1375241163300305,3.627125809832317,1.6873987709603655,-3.277476240948933,7.013088319359756,1.7034018911966462,-28.64800347222222,-15.030946314102565,-1.8786739880489929,0.4254202328120589,-2.5661604020979016,1.867253539729502,26.798664150717343,30.872105909485725,33.17240243208434,1577399884.0,-27.71624472566597,-51.10072127190012,21.410707
87959,1577399884.99,0.5325346838974364,-1.135669119188262,9.984288084151103,0.7881303099097277,-0.8424378109815638,9.619084738233612,-0.0531687954042013,-1.1076102436344797,9.182960467529297,-0.0891336580602131,3.2229539824695124,1.2288907679115857,0.4188723680449695,3.199879716082317,1.5958460365853655,-0.4546002643864328,2.954250428734756,1.3982261099466462,-28.119117254273505,-14.621940972222225,-2.3295557451807483,-6.970606817061145,-17.963122814685313,3.047211802620457,26.84658699493815,30.89606733159613,33.10051816575314,1577399884.0,-27.71624472566597,-51.10072127190012,21.410707
87960,1577399885.0,0.0931986792587645,-0.6616171904773245,10.666635557295637,1.055083795017149,-1.4589447384717982,8.934343063428924,0.3215237644102512,-1.149508772687214,7.249642626953125,-2.8814920564977133,2.4142381621570124,1.3509610804115857,1.3038821336699695,-0.1265362995426829,1.1075647865853655,0.8729143840510671,9.149318788109756,0.9099448599466464,-28.824298878205127,-15.235448985042735,-1.4277922309172344,-5.7379356420822765,-2.5661604020979016,-1.6726212489433638,27.038278371821367,30.92002875370653,33.02863389942193,1577399885.0,-27.71639132611987,-51.10058391782761,21.152838
87961,1577399885.01,0.385291281797827,-0.426985427782012,9.500659348799545,0.4565333799780866,0.1164399539110133,9.080389364698457,-0.360823708734279,-1.2907666706364327,8.690952026367187,-0.7452615877477134,3.1161424590320124,1.2288907679115857,-0.6492428663300305,-2.690012862042683,1.7179163490853655,-0.8360699909489329,7.226711366234756,0.9099448599466464,-27.590231036324784,-13.803930288461538,-3.0810253404003385,-4.916154858763031,-2.5661604020979016,-3.737548209002536,26.798664150717343,30.872105909485725,32.98071105520113,1577399885.0,-27.71639132611987,-51.10058391782761,21.152838
87962,1577399885.02,0.8473722022079833,-0.9800460112781056,10.647481944014386,0.8635476622046491,-1.858776415717892,10.363681454542208,0.3047643527891575,-2.0593054035465888,12.073958972167969,0.6738057950647868,2.2769090605945124,1.0000089319740857,-1.3206295850800305,5.549733231707317,1.9925745522103653,-2.697642256573933,3.991848084984756,-0.7074867806783537,-29.00059428418804,-14.62194097222222,-1.578086149961158,-3.2725932921245406,-4.032537774725275,0.9822848425612848,26.894509839158957,30.872105909485725,33.17240243208434,1577399885.0,-27.71639132611987,-51.10058391782761,21.152838
87963,1577399885.03,0.3685318701767333,-0.5682433257312308,10.769586228682352,0.1895798948706652,-0.2833917233350799,10.562400192335176,0.7812104831602512,-0.7149611713688545,10.490194573974607,-1.2335428377477131,3.848564334032013,1.2594083460365857,0.4493899461699695,6.266896317644816,1.5042933022103655,-1.3701276081364329,-0.4179419540777438,-0.4023109994283537,-27.590231036324784,-15.848956997863246,-1.578086149961158,-7.176052012890954,-37.392623001998,0.2448109282544379,27.038278371821367,30.82418306526492,33.17240243208434,1577399885.0,-27.71639132611987,-51.10058391782761,21.152838
87964,1577399885.04,0.327830441954077,-0.7358374419421682,9.15110590641673,1.4357618589819927,-2.213118261421017,10.054829440382052,0.3215237644102512,-0.1822513019840889,11.645396875,2.5811544278772867,4.672538943407012,0.9542325647865856,-0.4966549757050305,3.016774247332317,2.1756800209603657,-2.331431319073933,-3.118747618140244,0.4216636099466463,-27.9428218482906,-15.439951655982904,-1.8786739880489929,-4.0943740754437865,-3.299349088411588,0.6872952768385466,26.798664150717343,30.728337376823312,33.17240243208434,1577399885.0,-27.71639132611987,-51.10058391782761,21.152838
87965,1577399885.05,0.1602363257431396,-1.0279300444812307,8.574103306319072,0.9234027037085554,-0.7550494503858607,9.707670199659391,1.1882247653868137,-0.584477180890339,10.587159741210938,-0.6842264314977134,3.940117068407013,1.4119962366615857,3.287524711794969,-2.232249190167683,1.3822229897103655,-1.2327985065739329,-8.672946836890244,2.466341344321646,-29.00059428418804,-14.62194097222222,-0.3757347976097998,9.875899240983376,1.0997830294705304,1.2772744082840235,26.798664150717343,30.92002875370653,33.22032527630515,1577399885.0,-27.71639132611987,-51.10058391782761,21.152838
87966,1577399885.06,0.1925580481552489,-0.982440212938262,9.91126493351634,-0.0893445985375374,-0.1277686154249232,10.150597506788303,0.6016453586485324,-0.2085875202458077,8.796296899414061,1.0400167325647869,-0.2407911347179878,0.9084561975990856,-0.1304440382050304,2.101246903582317,0.7718714272103658,-4.803355147198933,-12.579196836890244,2.802034703696646,-27.23764022435897,-14.21293563034188,-1.8786739880489929,1.247201016131305,1.0997830294705304,-4.032537774725275,26.94243268337976,31.063797286368946,33.17240243208434,1577399885.0,-27.71639132611987,-51.10058391782761,21.152838
87967,1577399885.07,0.6869606909775146,-1.3056574370593557,10.834229673506574,0.7234868650855084,-1.4122578060987514,8.717667813184784,0.2975817478086887,-1.9108649006169012,9.415198028564452,0.5975118497522866,4.184257693407012,0.7406095179115855,-1.4579586866425305,6.129567216082317,1.6568811928353655,0.4609270793635672,3.381496522484756,-0.3260170541158537,-27.590231036324784,-13.803930288461538,-1.8786739880489929,-7.997832796210198,-3.665943431568431,-38.25132739856298,26.84658699493815,30.94399017581693,33.148441009973936,1577399885.0,-27.71639132611987,-51.10058391782761,21.152838
87968,1577399885.08,0.9144098486923584,-1.4828283599109182,8.741697422530011,0.2362668272437116,-0.3576119747999232,8.663798275831269,-0.4901105983827165,-1.1255667560856517,12.739547033691403,2.5811544278772867,2.8109666777820124,1.3204435022865857,-2.5108151319550305,3.169362137957317,2.1756800209603657,-3.369028975323933,0.055080506859756,-1.2262856088033538,-28.47170806623932,-14.008432959401707,-1.1272043928293995,10.286789632642996,-37.392623001998,-2.852579511834319,26.84658699493815,30.872105909485725,33.17240243208434,1577399885.0,-27.71639132611987,-51.10058391782761,21.152838
87969,1577399885.09,0.5337317847275146,-0.0965855986804495,10.479887827803449,1.7110950498999613,-2.4908456539991426,12.075535641553929,0.4867236789610324,-1.40089994700362,10.259154113769531,0.2923360685022865,4.184257693407012,0.4964688929115854,0.9681887742949696,6.617848466082317,1.6873987709603655,-0.5614117878239329,0.2992211318597561,-0.3107582650533537,-29.17688969017094,-14.826443643162394,-2.630143583268586,-12.723072300295856,-38.85900037462537,-3.4425586432797965,26.84658699493815,30.92002875370653,33.12447958786354,1577399885.0,-27.71639132611987,-51.10058391782761,21.152838
87970,1577399885.1,0.2200913672470458,-1.3834689910144338,11.696142271162822,-0.5562139222680061,-1.4350027218702357,9.96145557563596,0.4915120822813449,1.984501200457316,12.591106530761715,-0.9436258455602136,4.123222537157012,0.7863858850990855,-2.3582272413300305,7.838551591082317,0.8634241615853658,-0.6529645221989329,-0.951999571265244,1.6423667349466462,-27.590231036324784,-14.21293563034188,-2.479849664224669,-12.723072300295856,-38.85900037462537,-3.4425586432797965,26.75074130649654,31.01587444214814,33.12447958786354,1577399885.0,-27.71639132611987,-51.10058391782761,21.152838
87971,1577399885.11,0.5528853980087646,-0.800480886766387,10.973093369795636,0.7749622007788678,-1.1931883541944543,11.15257090156369,-0.0028905605409201,-1.5756766681950265,11.38921729736328,-0.1043924471227134,2.1395799590320124,1.0457852991615857,-0.8018307569550305,-0.5232648151676829,2.1146448647103657,-1.8889264362614329,-12.411350157202744,2.390047399009146,-27.590231036324784,-14.21293563034188,-2.479849664224669,-11.079510733657363,-39.04229754620378,-3.147569077557057,26.990355527600563,30.94399017581693,33.148441009973936,1577399885.0,-27.71639132611987,-51.10058391782761,21.152838
87972,1577399885.12,0.126717502500952,-1.1907357573718558,9.627552036787824,0.5714550596655866,-0.7526552487257044,9.303050119092989,1.0876682956602512,-1.6953867512028389,7.829039428710937,1.6351095060022869,6.503593630907012,1.4730313929115857,-0.5576901319550305,6.404225419207317,0.3446253334603658,-0.3172711628239328,-12.731784727515244,2.405306188071646,-29.00059428418804,-12.167908920940173,-1.8786739880489929,-5.532490446252464,-3.1160519168331664,-3.8850429918639056,26.89450983915896,31.01587444214814,33.12447958786354,1577399885.0,-27.71639132611987,-51.10058391782761,21.152838
87973,1577399885.13,0.5504911963486083,-1.2936864287585743,8.796764060713604,0.6815883360327741,-1.8156807858350796,6.327057455518768,0.4963004856016574,-2.1790154865544014,8.152256652832031,0.8721700528772866,3.3297655059070124,0.8321622522865855,-0.6492428663300305,1.2467547160823171,1.9925745522103653,-3.430064131573933,6.677394959984756,-0.1581703744283537,-27.9428218482906,-15.848956997863246,-2.179261826136828,10.90312522013243,-36.10954280094905,-0.0501786374683009,26.798664150717343,31.01587444214814,33.31617096474676,1577399885.0,-27.71639132611987,-51.10058391782761,21.152838
87974,1577399885.14,0.404444895079077,-1.6121152495593556,8.976329185225323,-0.0450518678246472,-1.303321630561642,9.845336795118378,0.2161788913633762,-1.436812971905964,9.97304701538086,0.4449239591272867,3.2839891387195124,0.8931974085365856,-1.2901120069550305,2.7726336223323167,1.2448938881478655,0.1710100871760671,3.457790467797256,0.9099448599466462,-29.17688969017094,-14.621940972222225,-1.4277922309172375,5.458827530642433,-20.071040287837164,-17.380815623679204,26.870548417048557,30.872105909485725,33.17240243208434,1577399885.0,-27.71639132611987,-51.10058391782761,21.152838
87975,1577399885.15,0.1147464942001708,-0.6233099639148244,12.340182517744854,0.3583711119116803,-2.0598893551710167,11.153768002393772,-0.1812585842225602,-0.3905468464176827,12.306196533203124,1.1773458341272869,1.193535037157012,0.6490567835365855,0.0221438524199695,-5.009348799542683,2.5724085365853657,-4.742319990948933,-10.534519102515244,1.0320151724466462,-29.88207131410256,-14.826443643162394,-1.1272043928293995,-9.025058775359255,-4.032537774725275,-37.07136913567202,26.84658699493815,30.77626022104412,33.12447958786354,1577399885.0,-27.71639132611987,-51.10058391782761,21.152838
87976,1577399885.16,-0.1270678734756094,-1.413396511766387,11.724872691084698,0.2530262388648053,-0.9513739865186732,12.097083456495334,0.3909556125547824,0.6078352458674725,11.578359228515623,-1.4166483064977131,2.7804490996570124,1.0457852991615857,-2.9380612257050305,7.472340653582317,0.9244593178353658,-2.056773115948933,-10.198825743140244,2.222200719321646,-28.1191172542735,-14.008432959401707,-1.7283800690050757,-9.8468395586785,-2.5661604020979016,-34.41646304416737,26.990355527600563,30.728337376823312,33.12447958786354,1577399885.0,-27.71639132611987,-51.10058391782761,21.152838
87977,1577399885.17,-0.6825226586318595,-1.7007007109851369,9.182230527998762,0.1572581724585553,-1.494857763374142,9.343751547315645,0.0437963718321262,-2.030574983624714,8.930372192382812,0.2007833341272865,4.367363162157012,1.3509610804115857,-1.7478756788300305,4.695241044207317,0.6192835365853658,2.337758134051067,-12.914890196265244,3.351351109946646,-27.76652644230769,-14.826443643162394,-2.0289679070929103,-13.133962691955478,-35.193056943056945,-3.4425586432797965,26.84658699493815,31.01587444214814,33.02863389942193,1577399885.0,-27.71639132611987,-51.10058391782761,21.152838
87978,1577399885.18,-0.0336940087295161,-1.29009512626834,10.85577748844798,0.7438375791968366,-1.697167803657345,10.923924643018772,0.3729991001036111,-1.6439114155094794,9.969455712890625,-2.2558817049352133,0.3390428496570119,0.8626798304115856,-1.1680416944550305,1.9181414348323167,1.1075647865853655,-2.834971358136433,-5.499118711890244,1.2761557974466464,-29.000594284188036,-15.235448985042735,-1.7283800690050757,-9.435949167018878,-18.146419986263737,-3.590053426141166,26.94243268337976,30.80022164315452,33.02863389942193,1577399885.0,-27.71639132611987,-51.10058391782761,21.152838
87979,1577399885.19,0.2560043921493896,-1.1787647490710744,11.320252610518292,-0.1539880433617561,-0.0774903805616419,9.880052719190646,0.9152857761290012,-0.5126511310856514,10.838550915527344,0.9026876310022866,-1.125800900342988,0.4659513147865854,1.2733645555449695,-1.7744855182926829,1.9010218178353653,7.922474930926067,-1.1351050400152438,1.9780600943216464,-29.52948050213675,-15.235448985042735,-1.7283800690050757,-7.9978327962102,-36.84273148726273,-3.8850429918639056,26.89450983915896,30.92002875370653,33.12447958786354,1577399885.0,-27.71639132611987,-51.10058391782761,21.152838
87980,1577399885.2,1.1203111914657955,-0.8220287017077932,10.922815134932351,2.276126641696836,-1.8683532223585169,10.351710446241428,-0.3656121120545915,-2.4304066608708075,11.827356201171874,-2.2711404939977133,-1.644599728467988,0.6185392054115855,2.616137993044969,-0.7368878620426829,2.0230921303353657,-10.174448897198932,3.534084413109756,0.9709800161966464,-29.17688969017094,-14.826443643162394,-1.7283800690050757,-4.299819271273597,-39.04229754620379,-2.70508472897295,26.89450983915896,30.92002875370653,33.12447958786354,1577399885.0,-27.71639132611987,-51.10058391782761,21.152838
87981,1577399885.21,0.3805028784775146,-1.4481124358386526,9.945980857588603,1.4166082457007427,-2.0167937252882044,8.639856259229706,0.6423467868711887,-3.0337454792301823,10.103531005859374,-1.2335428377477131,5.221855349657012,1.0610440882240857,2.646655571169969,-6.046946455792683,0.3446253334603658,-3.674204756573933,-5.346530821265244,1.7339194693216462,-28.736151175213674,-15.33770032051282,-0.9017635142635172,9.875899240983376,-39.04229754620379,-2.70508472897295,26.990355527600563,30.872105909485725,33.17240243208434,1577399885.0,-27.71639132611987,-51.10058391782761,21.152838
87982,1577399885.22,-0.3353634179092032,-0.0989798003406057,10.94436294987376,-0.4317154359398811,-0.409087310493283,11.168133212354707,1.1199900180723603,-1.5649027607243238,10.059238275146484,-1.2945779939977131,2.3226854277820124,1.1983731897865857,0.1136965867949693,-0.599558760480183,1.6416224037728655,-1.2938336628239329,-5.132907774390244,1.9322837271341464,-30.23466212606837,-14.008432959401707,-1.7283800690050757,10.184067034728091,-36.201191386738266,-1.5988738575126789,26.84658699493815,30.872105909485725,33.22032527630515,1577399885.0,-27.71639132611987,-51.10058391782761,21.152838
87983,1577399885.23,-1.0081340844131097,-1.7342195342273243,9.754444724776103,-0.5370603089867562,-2.375923974311642,8.960679281690643,1.3414536716368135,-0.5174395344059639,9.363722692871091,-2.3321756502477133,3.5433885527820124,1.9002774866615848,-1.9004635694550305,7.624928544207317,1.0465296303353655,1.2086077434260671,-3.240817930640244,0.6352866568216463,-30.23466212606837,-14.008432959401707,-1.7283800690050757,10.492234828472808,-2.3828632305194803,-38.98880131286983,26.990355527600563,30.728337376823312,33.17240243208434,1577399885.0,-27.71639132611987,-51.10058391782761,21.152838
87984,1577399885.24,-0.3616996361709219,-1.7198543242663868,9.80232875797923,1.095785223239805,-1.2506491940382043,9.7675252411633,1.7795925754454074,2.2789880046565347,11.774683764648437,2.9778829435022867,2.5363084746570124,1.3204435022865857,-2.6939206007050305,1.1552019817073171,2.3587854897103657,-0.1646832721989328,5.365139100609756,1.4287436880716462,-29.00059428418804,-15.439951655982904,-1.578086149961158,9.875899240983376,-4.032537774725275,-41.201223055790365,26.990355527600563,30.92002875370653,33.12447958786354,1577399885.0,-27.71639132611987,-51.10058391782761,21.152838
87985,1577399885.25,-0.0648186303115469,-1.4253675200671685,10.06449383976634,0.9569215269507428,-1.2314955807569543,12.353263034132052,-1.5842607570741227,-3.845379842023151,12.433089221191404,0.9026876310022868,0.674736209032012,1.4882901819740857,-0.4051022413300305,-4.124339033917683,1.3822229897103655,0.1404925090510671,-1.2571753525152438,2.466341344321646,-27.942821848290595,-14.212935630341878,-1.578086149961155,9.875899240983376,-33.36008522727273,-1.6726212489433638,26.84658699493815,30.728337376823312,33.17240243208434,1577399885.0,-27.71639132611987,-51.10058391782761,21.152838
87986,1577399885.26,-0.0552418236709219,-1.296080630418731,8.80634086735423,0.1261335508765241,-1.4230317135694543,8.295091220167206,-0.9114900905702163,-2.349003804425495,12.387599389648436,0.3838888028772865,0.6747362090320121,1.3814786585365857,0.1899905321074695,2.330128739519817,1.5042933022103655,-2.285654951886433,-3.118747618140244,0.4216636099466464,-29.88207131410256,-14.41743830128205,-1.1272043928293995,-12.312181908636234,-35.92624562937063,-4.032537774725275,26.89450983915896,31.01587444214814,33.17240243208434,1577399885.0,-27.71639132611987,-51.10058391782761,21.152838
87987,1577399885.27,0.2560043921493896,-1.597750039598418,9.44559271061595,0.9569215269507428,-2.2250892697217983,10.296643808057834,-1.1987942897889663,-0.3115381916325264,11.731588134765625,0.5059591153772866,1.864921755907012,1.5340665491615857,-1.6258053663300305,0.3922625285823171,1.2296350990853655,1.4527483684260671,-8.398288633765244,1.7644370474466462,-29.88207131410256,-14.41743830128205,-1.1272043928293995,-3.067148096294731,-3.849240603146853,-3.8850429918639056,26.84658699493815,30.92002875370653,33.17240243208434,1577399885.0,-27.71639132611987,-51.10058391782761,21.152838
87988,1577399885.28,0.232062375547827,-1.2721386138171682,10.151882200362042,-0.0031533387719124,-0.6784349972608608,10.141020700147678,0.78839308814072,0.0308326457698162,10.35492218017578,1.3299337247522869,-1.339423947217988,1.0763028772865857,-0.8323483350800305,-2.445872237042683,1.5042933022103655,-2.270396162823933,-1.5318335556402438,2.313753453696646,-29.88207131410256,-14.41743830128205,-1.1272043928293995,-6.55971642540152,-38.85900037462537,-1.9676108146661029,26.990355527600563,30.872105909485725,33.12447958786354,1577399885.0,-27.71639132611987,-51.10058391782761,21.152838
87989,1577399885.29,0.0249639319443119,-0.8064663909167775,10.065690940596417,0.5726521604956647,-1.0591130612257045,9.923148349073458,0.0545702793028298,-3.0026208576481515,10.754753857421877,-0.9894022127477136,0.354301638719512,1.3967374475990857,-0.3288082960175305,1.0178728801448171,1.1991175209603655,-3.246958662823933,-13.891452696265244,1.9780600943216464,-29.6176282051282,-13.906181623931625,-1.8035270285270344,-7.381497208720765,-39.22559471778221,2.752222236897718,26.89450983915896,30.943990175816936,33.24428669841555,1577399885.0,-27.71639132611987,-51.10058391782761,21.152838
87990,1577399885.3,0.1865725440048583,-2.208271462938262,8.329894736983135,0.288939263767149,-1.0327768429639856,7.878500131300018,0.8147293064024388,-1.82227943919112,7.572859851074218,-1.6607889314977131,0.0033494902820121,0.8626798304115855,-2.7854733350800305,8.509938309832316,1.7484339272103655,-0.6834821003239329,-5.987399961890244,1.6728843130716462,-30.41095753205128,-15.848956997863246,-0.3757347976097998,11.519460807621863,-2.9327547452547447,-3.737548209002536,26.89450983915896,30.92002875370653,33.17240243208434,1577399885.0,-27.71639132611987,-51.10058391782761,21.152838
87991,1577399885.31,-0.2683257714248282,-0.8794895415515432,10.98985278141673,0.2075364073218366,-2.239454479682736,12.07314143989377,1.159494345464939,-2.892487581280964,6.801926916503906,-0.1654276033727134,-0.3628614472179878,0.9542325647865856,4.355639946169969,-8.793528487042684,1.8094690834603653,-1.0191754596989329,4.144435975609756,2.130647984946646,-30.41095753205128,-15.848956997863246,-0.3757347976097998,11.519460807621863,-4.032537774725275,-1.0826421174978862,26.798664150717343,30.728337376823312,33.12447958786354,1577399885.0,-27.71639132611987,-51.10058391782761,21.152838
87992,1577399885.32,0.050103049375952,-0.8028750884265432,9.840635984541729,-0.6208573670922248,-0.7263190304639857,10.081165658643773,-0.408707741937404,-0.5246221393864327,11.015721838378903,1.3604513028772869,-0.912177853467988,1.5035489710365857,-1.7783932569550305,-1.7134503620426829,-0.0215856040396341,1.1170550090510671,2.404934022484756,2.466341344321646,-30.41095753205128,-15.848956997863246,-0.3757347976097998,10.69768002430262,-0.3665943431568428,-1.0826421174978862,26.89450983915896,30.77626022104412,33.17240243208434,1577399885.0,-27.71639132611987,-51.10058391782761,21.152838
87993,1577399885.33,0.2272739722275145,-1.3152342436999809,10.02498951237376,1.0874055174292585,-1.5427417965772672,10.044055532911347,-1.1030262233827164,-1.97550834544112,12.893973040771485,-0.5316385408727134,-0.0271680878429878,1.1373380335365857,-0.8476071241425305,-6.992991377667684,1.3211878334603655,-1.8889264362614329,1.6877709365472562,-0.1429115853658537,-30.41095753205128,-15.848956997863246,-0.3757347976097998,4.945214541067907,-0.7331886863136859,-0.9351473346365168,26.84658699493815,30.967951597927332,33.12447958786354,1577399885.0,-27.71639132611987,-51.10058391782761,21.152838
87994,1577399885.34,-0.3844445519424063,-1.5319094939441211,10.655861649824931,-1.5186829896508185,-0.4007076046827356,12.681268661573458,0.5178483005430637,-1.297949275616901,10.366893188476562,-2.530539908060214,-2.026069455030488,1.1220792444740857,-2.2666745069550305,-2.110178877667683,0.4361780678353658,-0.2257184284489328,-3.790134336890244,1.8254722036966464,-29.353185096153844,-14.62194097222222,-1.277498311873317,-0.8072509421668069,-1.099783029470529,-0.7876525517751477,27.03827837182137,30.872105909485725,33.12447958786354,1577399885.0,-27.71639132611987,-51.10058391782761,21.152838
87995,1577399885.35,-0.5508415673232657,-1.9329382720202928,10.422426987959698,0.3200638853491803,-2.612949938667112,9.626267343214082,0.3933498142149387,-1.851009859112995,7.371746911621093,-2.7289041658727133,-2.712714962842988,1.3509610804115857,-2.2971920850800305,9.120289872332316,1.1991175209603655,-3.613169600323933,4.174953553734756,1.9780600943216464,-29.70577590811965,-15.439951655982904,-1.277498311873317,-9.025058775359255,-39.22559471778221,-2.852579511834319,26.84658699493815,30.680414532602512,33.12447958786354,1577399885.0,-27.71639132611987,-51.10058391782761,21.152838
87996,1577399885.36,0.1291117041611083,-1.346358865282012,8.229338267256573,0.4254087583960553,-2.770967248237424,9.291079110792204,0.8314887180235325,-2.1071894367497137,8.626308581542968,1.9708028653772869,-1.766670040967988,1.9918302210365848,3.6537356492949695,-10.319407393292684,0.4972132240853658,-1.5379742878239329,9.240871522484756,2.435823766196646,-29.17688969017094,-14.41743830128205,-2.0289679070929103,-3.2725932921245406,-37.759217345154845,-2.852579511834319,26.89450983915896,30.728337376823312,33.02863389942193,1577399885.0,-27.71639132611987,-51.10058391782761,21.152838
87997,1577399885.37,0.5313375830673583,-0.561060720750762,9.93640405094798,0.6540550169409777,-0.2905743283155487,9.243195077589082,0.0761180942442361,-3.0265628742497137,10.140641131591796,-0.2874979158727133,-2.682197384717988,1.2136319788490857,-1.3358883741425305,-1.5608624714176829,0.8176477943978656,-2.682383467511433,-4.415744688452744,0.9709800161966462,-29.353185096153844,-14.826443643162392,-1.8786739880489929,-8.203277992040011,-38.492406031468526,-3.737548209002536,26.798664150717343,30.82418306526492,33.17240243208434,1577399885.0,-27.71639132611987,-51.10058391782761,21.152838
87998,1577399885.38,0.0070074194931395,-2.4812104521960743,8.8901379254597,1.5195589170874615,-1.8922952389600796,8.584789621046111,0.7548742648985325,-0.3618164264958077,10.991779821777342,-4.651511587747714,1.834404177782012,1.2594083460365857,-0.4051022413300305,-4.276926924542683,1.2296350990853655,-0.8360699909489329,-8.764499571265244,-0.0361000619283536,-30.058366720085463,-14.21293563034188,-1.8786739880489929,-5.7379356420822765,-38.492406031468526,-4.032537774725275,27.038278371821367,30.77626022104412,33.17240243208434,1577399885.0,-27.71639132611987,-51.10058391782761,21.152838
87999,1577399885.39,-0.0767896386123282,-1.626480459520293,9.524601365401104,-0.0127301454125374,-0.8029334835889858,9.41557759712033,0.797969894781345,2.733886320086224,10.63504377441406,-1.7523416658727131,0.1559373809070121,1.7476895960365857,-4.494457710080031,3.688160966082317,1.0465296303353655,1.2696428996760671,-17.187351133765244,1.6118491568216462,-28.824298878205127,-14.41743830128205,-2.0289679070929103,10.492234828472808,-36.47613714410589,-2.115105597527472,26.89450983915896,30.728337376823312,33.12447958786354,1577399885.0,-27.71639132611987,-51.10058391782761,21.152838
88000,1577399885.4,-0.4263430809951407,-0.8459707183093557,11.396867063643292,0.4852637998999616,-2.2538196896436733,11.788231442335178,-0.7845974025819352,-0.383364241437214,9.641450085449218,-0.9588846346227134,-5.032050900342988,0.8626798304115855,-1.3206295850800305,-0.5842999714176829,1.1380823647103655,-0.5919293659489329,16.992336366234756,2.893587438071646,-28.1191172542735,-14.41743830128205,-2.0289679070929103,10.492234828472808,-3.1160519168331664,-2.115105597527472,26.89450983915896,30.77626022104412,33.12447958786354,1577399885.0,-27.71639132611987,-51.10058391782761,21.152838
88001,1577399885.41,0.0752421668075931,-1.2051009673327933,10.276380686690167,-0.0270953553734753,-1.0136232296827357,9.9590613739758,0.1982223789122043,-1.0908508320133856,11.378443389892578,-1.2945779939977131,-1.690376095655488,1.2899259241615857,-2.1446041944550305,-5.985911299542684,1.0160120522103655,-1.0496930378239329,-0.2195776962652439,1.6881431021341462,-28.29541266025641,-15.235448985042732,-1.277498311873314,-0.190915354677374,-2.566160402097902,-39.28379087859256,26.84658699493815,30.872105909485725,33.17240243208434,1577399885.0,-27.71639132611987,-51.10058391782761,21.152838
88002,1577399885.42,0.1147464942001708,-1.7653441558093557,10.240467661787823,1.4597038755835552,-2.071860363471798,11.362063546827365,-1.4860984890077165,-2.1335256550114323,10.503362683105468,-1.3556131502477131,-0.7290723847179879,0.8626798304115855,1.1207766649199695,1.1857195598323171,0.6803186928353658,-1.2022809284489329,0.085598084984756,-0.4328285775533537,-29.00059428418804,-14.62194097222222,-1.8786739880489929,-10.874065537827557,-1.649674544205794,-39.28379087859256,27.08620121604217,30.872105909485725,32.83694252253871,1577399885.0,-27.71639132611987,-51.10058391782761,21.152838
88003,1577399885.43,-0.2707199730849844,-0.9944112212390432,9.019424815108136,-0.2186314881859749,-1.9665154904249231,7.378111984327362,0.2377267063047825,-1.45836078684737,7.613561279296874,2.5201192716272867,1.132499880907012,1.9918302210365848,-4.524975288205031,4.847828934832317,0.4361780678353658,2.551381180926067,2.069240663109756,0.4521811880716463,-27.9428218482906,-15.439951655982904,-0.9769104737854758,-16.421085825232456,-37.759217345154845,-2.852579511834319,27.038278371821367,31.063797286368946,33.02863389942193,1577399885.0,-27.71639132611987,-51.10058391782761,21.152838
88004,1577399885.44,0.356560861875952,-1.6408456694812306,8.624381541182354,-0.6064921571312873,-1.4326085202100791,7.380506185987518,-0.9426147121522476,-1.3793521320622135,6.533776330566406,-4.163230337747714,-3.658759884717988,1.0763028772865857,2.890796196169969,-12.608225752667684,1.0465296303353655,-1.6295270221989329,-7.330173399390244,0.1470054068216463,-29.00059428418804,-13.394924946581195,-2.179261826136828,-16.421085825232456,-37.759217345154845,-2.852579511834319,26.89450983915896,30.77626022104412,33.17240243208434,1577399885.0,-27.71639132611987,-51.10058391782761,21.152838
88005,1577399885.45,0.6510476660751708,-1.5498660063952931,9.339050736738995,1.04790119003668,-1.5786548214796106,9.56162389838986,0.8937379611875954,-1.7863664142887763,10.396820709228516,0.6280294278772868,-2.315986447217988,1.2441495569740857,1.1665530321074695,-6.916697432355184,0.4209192787728658,-0.3935651081364328,0.131374452172256,1.4134848990091462,-29.00059428418804,-13.394924946581195,-2.179261826136828,-14.777524258593967,-37.392623001998,-4.032537774725275,27.038278371821367,30.80022164315452,33.00467247731153,1577399885.0,-27.71639132611987,-51.10058391782761,21.152838
88006,1577399885.46,0.1578421240829833,-0.532330300828887,10.95633395817454,0.8180578306616804,-0.1948062619092982,11.18010422065549,0.0437963718321262,-3.31626127512862,10.192116467285157,0.8416524747522866,-1.705634884717988,1.1983731897865857,0.8156008836699695,-4.948313643292683,0.9244593178353658,-9.014780928448932,0.2992211318597561,0.8183921255716463,-29.70577590811965,-14.62194097222222,-0.9769104737854758,-14.777524258593967,-38.85900037462537,-4.032537774725275,27.038278371821367,30.92002875370653,33.12447958786354,1577399885.0,-27.71639132611987,-51.10058391782761,21.152838
88007,1577399885.47,-0.3138156029677969,-1.7366137358874807,9.670647666670636,1.6967298399390238,-1.7318837277296106,11.144191195753146,0.97992922095322,-1.187815999249714,10.345345373535157,-2.3321756502477133,-2.163398556592988,0.7711270960365855,-1.0459713819550305,-0.9199933307926828,0.1615198647103658,-1.2938336628239329,-3.576511290015244,1.4287436880716462,-29.00059428418804,-15.848956997863246,-2.179261826136828,-5.327045250422654,-38.85900037462537,-2.852579511834319,27.038278371821367,30.92002875370653,33.17240243208434,1577399885.0,-27.71639132611987,-51.10058391782761,21.152838
88008,1577399885.48,-0.2611431664443594,-1.597750039598418,9.831059177901103,0.0028321653784777,-1.2386781857374232,10.817382669141816,1.279204428472751,-0.1738715961735425,9.595960253906249,-4.956687368997714,-3.231513790967988,1.2594083460365857,0.1442141649199693,-4.276926924542683,0.8176477943978658,-1.2938336628239329,-10.030979063452744,1.9322837271341464,-28.29541266025641,-15.030946314102565,-2.479849664224669,3.917988561918852,-2.3828632305194803,-3.295063860418428,26.89450983915896,30.752298798933715,33.07655674364273,1577399885.0,-27.71639132611987,-51.10058391782761,21.152838
88009,1577399885.49,-0.6801284569717032,-1.317628445360137,10.71451959049876,0.0375480894507428,-1.7773735592725797,11.048423129346896,1.0589378757383765,0.2463107951838787,8.142679846191406,-1.4319070955602131,-3.490913205030488,1.4425138147865857,-0.8018307569550305,1.4603777629573171,0.5887659584603658,2.093617509051067,-5.041355040015244,4.327913609946647,-29.70577590811965,-15.030946314102565,-0.3757347976097998,9.875899240983376,-2.1995660589410586,-41.4962126215131,26.990355527600563,31.01587444214814,32.98071105520113,1577399885.0,-27.71639132611987,-51.10058391782761,21.152838
88010,1577399885.5,-0.0073577904677969,-1.6408456694812306,10.578050095869854,-0.6232515687523811,-1.2578317990186731,8.800267770460174,0.30955275610947,-2.598000777081745,8.394071020507813,-2.9425272127477133,-5.733955197217988,1.1373380335365857,2.799243461794969,-9.770090987042684,0.8634241615853658,-5.871470381573933,-6.780856993140244,1.1846030630716462,-29.00059428418804,-16.25796233974359,-1.277498311873317,9.875899240983376,-2.1995660589410586,-41.4962126215131,26.84658699493815,30.77626022104412,33.12447958786354,1577399885.0,-27.71639132611987,-51.10058391782761,21.152838
88011,1577399885.51,-0.0169345971084219,-1.2936864287585743,9.474323130537824,1.0000171568335554,-1.7031533078077357,10.38283506782346,-0.5475714382264665,-1.2309116291325264,7.618349682617187,0.4144063810022865,-5.764472775342988,1.6256192835365857,0.6935305711699695,-10.655100752667684,1.3211878334603655,-2.178843428448933,2.679592225609756,-0.0971352181783536,-29.70577590811965,-15.030946314102565,-3.682201016576021,9.875899240983376,0.0,-37.07136913567202,26.990355527600563,30.872105909485725,33.17240243208434,1577399885.0,-27.71639132611987,-51.10058391782761,21.152838
88012,1577399885.52,-0.4167662743545157,-0.963286599657012,9.230114561201887,-0.516709594875428,-1.237481084907345,8.778719955518769,0.5022859897520482,-1.2692188556950263,8.558073834228516,-4.224265493997714,-5.032050900342988,1.2899259241615857,1.9447512742949693,-4.780466963605183,0.5277308022103658,0.9492083293635672,-2.737277891577744,0.5895102896341462,-27.9428218482906,-16.66696768162393,-0.9769104737854758,-0.1909153546773732,-37.57592017357642,-2.85257951183432,26.84658699493815,30.752298798933715,33.24428669841555,1577399885.0,-27.71639132611987,-51.10058391782761,21.152838
88013,1577399885.53,0.2955087195419676,-1.90301075126834,9.626354935957746,1.543500933689024,-2.2370602780225792,9.70288179633908,-1.0168349636170917,-1.676233137921589,9.488221179199218,-1.2335428377477131,-4.879463009717988,1.5951017054115857,3.043384086794969,-8.915598799542684,0.3141077553353658,-0.8055524128239329,0.146633241234756,0.0554526724466463,-28.824298878205127,-16.053459668803416,-1.7283800690050757,-2.861702900464919,-4.032537774725275,-4.032537774725275,26.94243268337976,31.01587444214814,33.891245095396414,1577399885.0,-27.71639132611987,-51.10058391782761,21.152838
88014,1577399885.54,0.6821722876572021,-1.4852225615710744,11.123928074385478,0.7917216123999615,-1.681605492866329,7.950326181104706,3.3980728977110326,0.8688032268245037,8.48505068359375,-0.2264627596227134,-4.024970822217988,1.5951017054115857,-1.3511471632050305,-1.1336163776676829,0.9549768959603658,1.1170550090510671,2.008205506859756,1.1235679068216462,-28.47170806623932,-13.599427617521366,-1.7283800690050757,-3.2725932921245406,-3.299349088411588,-1.6726212489433638,26.798664150717343,30.872105909485725,33.22032527630515,1577399885.0,-27.71639132611987,-51.10058391782761,21.152838
88015,1577399885.55,1.3405777442001707,-0.7885098784656057,10.106392368819073,1.3184459776343365,0.6383759158250758,10.49057414253049,0.2281498996641575,-4.937135799054401,8.674192614746094,-1.1114725252477131,-4.024970822217988,1.8392423304115848,-4.463940131955031,1.1857195598323171,0.6498011147103658,-5.688364912823933,-1.1351050400152438,1.2456382193216462,-28.1191172542735,-14.008432959401707,-1.7283800690050757,-9.8468395586785,-38.492406031468526,-4.032537774725275,26.798664150717343,30.872105909485725,33.98709078383802,1577399885.0,-27.71639132611987,-51.10058391782761,21.152838
88016,1577399885.56,0.9371547644638426,-1.6252833586902151,9.91605333683665,1.5614574461401958,-1.8539880123975796,8.415998404005096,0.961972708502048,-1.3027376789372138,10.026916552734374,-1.4471658846227131,-1.781928830030488,1.1678556116615857,-0.4203610303925305,-2.4306134479801838,0.3293665443978658,1.5443011028010671,1.2300072646722562,-0.1429115853658536,-28.03096955128205,-15.13319764957265,-1.6532331094831136,-8.203277992040011,-38.492406031468526,-2.115105597527472,26.94243268337976,30.92002875370653,33.00467247731153,1577399885.0,-27.71639132611987,-51.10058391782761,21.152838
88017,1577399885.57,0.3757144751572021,-1.5331065947741993,10.518195054365949,1.4070314390601175,-1.839622802436642,11.069970944288302,0.2856107395079075,-1.3123144855778388,10.342951171875,-1.2640604158727131,-2.499091915967988,1.2899259241615857,-1.7173581007050305,-10.777171065167684,2.2977503334603657,0.5372210246760671,-12.457126524390244,-0.0971352181783536,-27.76652644230769,-15.235448985042735,-2.0289679070929103,9.875899240983376,-38.492406031468526,-2.2626003803888417,26.990355527600563,30.872105909485725,33.17240243208434,1577399885.0,-27.71639132611987,-51.10058391782761,21.152838
88018,1577399885.58,-0.0121461937881094,-1.6001442412585745,9.007453806807357,1.1269098448218366,-0.6401277706983607,12.267071774366428,0.4891178806211887,-2.6722210285465886,11.10191309814453,2.7337423185022867,1.163017459032012,1.3204435022865857,-1.3816647413300305,0.4532976848323171,-0.6319371665396342,2.154652665301067,-6.719821836890244,2.527376500571646,-29.52948050213675,-15.644454326923077,-2.329555745180745,9.875899240983376,-38.492406031468526,-2.2626003803888417,26.89450983915896,30.77626022104412,33.12447958786354,1577399885.0,-27.71639132611987,-51.10058391782761,21.152838
88019,1577399885.59,0.6558360693954833,-1.2601676055163868,8.811129270674542,0.8563650572241803,-1.3392346554639856,8.041305844190644,-1.1437276516053727,-3.75679438059737,8.91840118408203,1.7876973966272869,0.5831834746570121,1.5951017054115857,-1.5342526319550305,2.162282059832317,0.5582483803353658,0.0489397746760671,-7.513278868140244,2.771517125571646,-29.17688969017094,-16.053459668803416,-2.329555745180745,10.286789632642996,-4.032537774725275,-38.25132739856297,27.08620121604217,31.01587444214814,33.02863389942193,1577399885.0,-27.71639132611987,-51.10058391782761,21.152838
88020,1577399885.6,0.0872131751083744,-1.4373385283679494,10.117166276289776,0.4505478758276964,-1.5187997799757045,11.162147708204316,0.1826600681211892,-1.8749518757145576,10.389638104248046,1.6503682950647869,-3.674018673780488,0.8779386194740856,1.0139651414824693,-4.902537276105184,0.7718714272103657,2.124135087176067,-0.9825171493902438,1.6576255240091462,-29.70577590811965,-14.826443643162392,-2.780437502312504,-12.723072300295856,-18.696311500999,-17.602057797971256,26.870548417048557,30.84814448737532,33.19636385419474,1577399885.0,-27.71639132611987,-51.10058391782761,21.152838
88021,1577399885.61,0.3302246436142333,-1.4636747466296682,10.161459007002666,0.2195074156226178,-0.9250377682569544,7.775549459913299,-0.322516482171779,-1.1255667560856517,10.065223779296874,-2.7289041658727133,-5.459296994092988,1.2288907679115857,3.592700493044969,-6.657298018292683,1.3822229897103655,-6.024058272198933,-8.703464415015244,-0.8295570931783537,-29.88207131410256,-15.644454326923077,-2.630143583268586,-6.55971642540152,-33.36008522727273,-3.737548209002536,26.89450983915896,31.01587444214814,32.98071105520113,1577399885.0,-27.71639132611987,-51.10058391782761,21.152838
88022,1577399885.62,0.481059348204077,-1.7725267607898243,10.573261692549542,2.175570171970274,-2.5842195187452366,10.227211959913303,-0.1022499294374039,-0.1559150837223702,10.450690246582033,-1.2030252596227131,-4.696357540967988,1.1068204554115857,-3.853588569455032,4.847828934832317,-0.1131383384146341,0.5067034465510671,5.182033631859756,-0.5548988900533537,-29.88207131410256,-15.644454326923077,-2.630143583268586,-3.2725932921245406,-4.032537774725275,-4.032537774725275,26.89450983915896,31.063797286368946,33.12447958786354,1577399885.0,-27.71639132611987,-51.10058391782761,21.152838
88023,1577399885.63,0.8593432105087645,-1.3726950835437306,10.262015476729228,0.1237393492163678,-0.4102844113233607,10.37565246284299,2.505035678472751,0.7874003703791912,9.392453112792968,0.3228536466272865,-1.919257931592988,1.6561368616615857,1.1512942430449695,-11.143382002667684,1.1991175209603655,3.497426102801067,-1.5928687118902438,2.039095250571646,-28.47170806623932,-14.41743830128205,-2.630143583268586,-3.2725932921245406,-4.032537774725275,-4.032537774725275,26.798664150717343,30.92002875370653,33.17240243208434,1577399885.0,-27.71639132611987,-51.10058391782761,21.152838
88024,1577399885.64,0.8904678320907958,-1.4313530242175587,9.511433256270246,1.6703936216773052,-1.8108923825147671,9.24319507758908,0.0833006992247048,-1.896499690655964,10.409988818359375,0.8721700528772866,-2.285468869092988,1.2136319788490857,3.150195610232469,-2.781565596417683,0.7566126381478656,-3.582652022198933,8.310085389672256,0.7726157583841462,-28.29541266025641,-14.621940972222225,-1.7283800690050757,-7.484219806635671,-39.133946131993,-2.926326903265004,27.038278371821367,30.77626022104412,33.19636385419474,1577399885.0,-27.71639132611987,-51.10058391782761,21.152838
88025,1577399885.65,1.0436967383407958,-1.7988629790515431,9.72571430485423,0.3104870787085553,-1.322475243842892,7.823433493116425,1.9136678684141573,-0.2732309650700265,9.947907897949218,0.1702657560022865,-0.0882032440929878,1.7476895960365857,1.3038821336699695,-2.171214033917683,0.9244593178353658,5.297963212176067,3.228908631859756,-0.1581703744283537,-28.1191172542735,-15.644454326923077,-3.231319259444269,10.081344436813186,-36.10954280094905,-0.345168203191039,26.89450983915896,30.872105909485725,33.12447958786354,1577399885.0,-27.71639132611987,-51.10058391782761,21.152838
88026,1577399885.66,0.5433085913681396,-1.3319936553210745,11.044919419600324,0.9784693418921492,-0.7071654171827357,9.872870114210178,1.1882247653868137,1.8073302776057536,7.436390356445312,-2.7289041658727133,-6.802070431592988,1.0763028772865857,-7.912426460080031,16.383473466082318,0.8023890053353658,3.924672196551067,1.0926781631097562,0.5742515005716463,-28.1191172542735,-15.644454326923077,-3.231319259444269,10.90312522013243,-0.916485857892108,-0.345168203191039,26.798664150717343,30.77626022104412,32.83694252253871,1577399885.0,-27.71639132611987,-51.10058391782761,21.152838
88027,1577399885.67,0.9144098486923584,-1.2529850005359182,10.68339496891673,1.6823646299780863,-1.43859402436047,9.27551680000119,-0.9761335353944351,-5.953474403790729,13.101071484375,1.9708028653772869,-1.400459103467988,1.1983731897865857,0.2052493211699695,-1.4998273151676829,1.3059290443978655,-1.6905621784489329,0.0398217177972561,0.2538169302591462,-29.00059428418804,-12.985919604700852,-2.479849664224669,6.177885716046774,-0.5498915147352647,-2.115105597527472,26.990355527600563,30.82418306526492,33.10051816575314,1577399885.0,-27.71639132611987,-51.10058391782761,21.152838
88028,1577399885.68,0.5636593054794676,-1.367906680223418,11.038933915449933,1.1149388365210553,-1.581049023139767,12.621413620069552,1.1738595554258762,-1.8150968342106517,10.096348400878906,-0.6079324861852134,-0.4849317597179878,1.4577726038490857,-1.6563229444550305,0.5143328410823171,2.0841272865853657,-0.2562360065739328,1.7030297256097562,-0.4023109994283537,-29.088741987179485,-14.724192307692306,-2.5549966237466246,1.041755820301493,-3.849240603146853,-2.4100951632502112,26.990355527600563,30.872105909485725,33.17240243208434,1577399885.0,-27.71639132611987,-51.10058391782761,21.152838
88029,1577399885.69,0.2368507788681395,-1.7222485259265432,9.83345337956126,-0.4388980409203499,-2.500422460639768,10.102713473585178,1.6359404758360323,-1.0082508747379952,9.100360510253903,3.1304708341272867,-0.4238966034679878,1.2594083460365857,5.454272758669969,-2.049143721417683,1.2296350990853655,3.741566727801067,-7.635349180640244,2.863069859946646,-27.41393563034188,-14.41743830128205,-1.7283800690050757,-14.57207906276416,-39.04229754620379,0.8347900596999165,27.08620121604217,31.01587444214814,33.02863389942193,1577399885.0,-27.71639132611987,-51.10058391782761,21.152838
88030,1577399885.7,-0.1629808983779532,-1.442126931688262,10.72170219547923,-0.5705791322289436,-2.0598893551710167,6.769984762647675,1.7436795505430636,0.5384033977229412,12.174515441894531,0.8416524747522866,-1.827705197217988,1.7476895960365857,2.921313774294969,-6.870921065167683,1.9925745522103653,-6.298716475323933,-8.123630430640244,1.4592612661966462,-27.41393563034188,-14.41743830128205,-1.7283800690050757,-6.354271229571711,-33.1767880556943,-2.70508472897295,26.990355527600563,30.872105909485725,33.12447958786354,1577399885.0,-27.71639132611987,-51.10058391782761,21.152838
88031,1577399885.71,0.3876854834579833,-1.394242898485137,9.567696995283915,-0.3419328736840222,-0.92144646576672,9.45508192451291,0.2245585971739236,0.5755135234553631,10.66137999267578,0.3686300138147865,-0.866401486280488,1.8545011194740852,3.287524711794969,-7.420237471417683,1.3669642006478655,1.7426653606135671,1.6419945693597562,1.9933188833841464,-28.64800347222222,-16.053459668803416,-2.479849664224669,-5.943380837912087,-19.246203015734267,-2.85257951183432,26.94243268337976,30.84814448737532,33.24428669841555,1577399885.0,-27.71639132611987,-51.10058391782761,21.152838
88032,1577399885.72,0.7803345557236083,0.0566433075695494,10.173430015303447,0.7558085874976178,-1.0136232296827357,8.532117184522674,-0.9402205104920914,-1.99466195872237,8.834604125976561,4.259621224752286,-2.804267697217988,1.3814786585365857,0.9071536180449696,0.9720965129573172,2.3587854897103657,-9.869273115948932,3.442531678734756,1.0320151724466462,-30.23466212606837,-13.599427617521366,-2.0289679070929103,-9.8468395586785,-39.22559471778221,-3.4425586432797965,27.038278371821367,30.872105909485725,33.17240243208434,1577399885.0,-27.71639132611987,-51.10058391782761,21.152838
88033,1577399885.73,0.5911926245712645,-1.3822718901843556,9.25405657780345,-0.2569387147484749,-2.4764804440382053,8.400436093214081,2.042954758062595,-2.657855818585652,12.006921325683592,-0.7452615877477134,0.1864549590320121,1.3814786585365857,6.034106743044969,-12.028391768292684,1.5653284584603655,-0.7139996784489329,2.191310975609756,1.0320151724466462,-28.64800347222222,-14.62194097222222,-2.780437502312504,-4.916154858763031,-38.85900037462537,-4.032537774725275,26.84658699493815,30.92002875370653,33.17240243208434,1577399885.0,-27.71639132611987,-51.10058391782761,21.152838
88034,1577399885.74,1.419586398985327,-2.5219118804187306,8.214973057295635,-0.1037098084984749,-1.3200810421827356,7.1243266083508,3.024577438726657,-1.72651137278487,7.874529260253905,2.0623555997522867,1.834404177782012,1.9307950647865848,0.8461184617949695,-5.406077315167683,0.7718714272103658,1.1170550090510671,5.822902772484756,-0.4938637338033537,-28.64800347222222,-14.62194097222222,-2.780437502312504,-6.55971642540152,-4.032537774725275,-4.032537774725275,26.84658699493815,30.872105909485725,33.12447958786354,1577399885.0,-27.71639132611987,-51.10058391782761,21.152838
88035,1577399885.75,0.3745173743271239,-1.126092312547637,11.167023704268292,1.0347330809058208,-1.648086669624142,10.393608975294162,0.0246427585508767,0.3564440715510668,10.04846436767578,0.8721700528772867,-3.033149533155488,1.4425138147865857,-0.2830319288300305,-0.0807599323551828,1.7026575600228655,1.4832659465510671,7.104641053734756,1.3982261099466462,-29.000594284188036,-15.644454326923077,-2.3295557451807483,1.658091407790928,-2.3828632305194803,-4.032537774725275,26.894509839158957,30.872105909485725,33.17240243208434,1577399885.0,-27.71639132611987,-51.10058391782761,21.152838
88036,1577399885.76,0.9838416968368896,-1.461280544969512,11.471087315108136,0.1261335508765241,-0.4509858395460169,9.238406674268768,0.4029266208555637,-1.5948302814762765,8.597578161621094,-1.0199197908727131,-2.102363400342988,1.6866544397865857,-2.6328854444550305,4.603688309832317,1.2601526772103655,-1.2327985065739329,-0.3416480087652439,1.0014975943216462,-29.17688969017094,-14.826443643162394,-2.930731421356421,10.90312522013243,-0.916485857892108,-40.46374914148351,26.89450983915896,30.728337376823312,33.41201665318837,1577399885.0,-27.71639132611987,-51.10058391782761,21.152838
88037,1577399885.77,0.7061143042587645,-1.5809906279773245,9.85260699284251,2.4604801695288674,-2.004822716987423,10.52169876411252,-0.3656121120545915,-5.363303694562213,10.338162768554689,-0.0433572908727134,-0.4849317597179878,1.7171720179115857,-2.8159909132050305,2.009694169207317,2.2367151772103657,1.4527483684260671,1.5504418349847562,0.6963218130716463,-29.00059428418804,-15.439951655982904,-1.8786739880489929,10.081344436813186,0.549891514735265,-35.74391608991969,26.65489561805493,30.92002875370653,33.31617096474676,1577399885.0,-27.71639132611987,-51.10058391782761,21.152838
88038,1577399885.78,0.6318940527939207,-1.5091645781726368,8.610016331221416,0.9257969053687116,-0.8388465084913295,10.174539523389866,0.4747526706602512,-3.7160929523747135,7.491456994628906,0.9332052091272866,2.4752733184070124,1.9307950647865848,2.371997368044969,-7.939036299542683,0.8329065834603658,4.779164384051067,-3.027194883765244,1.3982261099466462,-29.00059428418804,-15.439951655982904,-1.8786739880489929,10.90312522013243,-39.04229754620379,0.8347900596999165,26.89450983915896,30.728337376823312,33.17240243208434,1577399885.0,-27.71639132611987,-51.10058391782761,21.152838
88039,1577399885.79,0.7240708167099364,-1.2757299163074023,9.204975443770245,1.371118414157774,-1.6325243588331266,8.010181222608612,-0.5020816066834978,0.1780760478694261,7.8541785461425775,1.1315694669397869,-0.866401486280488,1.7324308069740857,1.4869876024199693,-0.3859357136051831,1.5653284584603655,1.1323137981135671,1.4894066787347562,1.3677085318216464,-28.20726495726496,-16.564716346153844,-2.2544087856587893,-15.90747283565793,-38.76735178883615,-0.2714208117603546,26.94243268337976,30.92002875370653,33.07655674364273,1577399885.0,-27.71639132611987,-51.10058391782761,21.152838
88040,1577399885.8,1.1370706030868896,-1.2912922270984182,9.309123215987045,0.4828695982398053,-0.9058841549757044,8.704499704053925,1.0349958591368138,-2.4782906940739324,12.11705460205078,-0.4706033846227134,-0.2102735565929878,1.8392423304115848,4.294604789919969,-11.723215987042684,1.8705042397103653,-9.686167647198932,0.8790551162347561,0.4216636099466463,-29.70577590811965,-15.439951655982904,-3.0810253404003385,-16.215640629402646,-39.04229754620379,-3.5900534261411665,27.038278371821367,30.872105909485725,33.17240243208434,1577399885.0,-27.71639132611987,-51.10058391782761,21.152838
88041,1577399885.81,0.9287750586532958,-0.8747011382312307,10.774374632002669,0.5714550596655866,-0.0679135739210169,11.165739010694551,-0.5092642116639665,0.6006526408870038,9.679757312011718,-0.6842264314977134,-1.125800900342988,1.4730313929115857,-4.097729194455031,5.214039872332317,2.6029261147103657,-6.848032881573933,1.3673363662347562,1.0014975943216462,-26.88504941239316,-15.030946314102565,-2.780437502312504,-9.641394362848688,-39.04229754620379,-3.2950638604184275,26.89450983915896,30.92002875370653,33.22032527630515,1577399885.0,-27.71639132611987,-51.10058391782761,21.152838
88042,1577399885.82,0.2560043921493896,-1.118909707567168,11.133504881026104,0.9760751402319928,-2.0562980526807824,8.808647476270723,1.2289261936094698,-1.3314680988590888,9.758765966796874,-0.3485330721227134,2.3837205840320124,1.5951017054115857,3.348559868044969,-2.903635908917683,1.3059290443978655,-0.6377057331364329,9.988552186547256,0.8031333365091462,-26.88504941239316,-15.030946314102565,-2.780437502312504,1.8635366036207377,-38.67570320304695,0.2448109282544377,26.89450983915896,30.92002875370653,33.31617096474676,1577399885.0,-27.71639132611987,-51.10058391782761,21.152838
88043,1577399885.83,0.8318098914169677,-1.6599992827624803,10.325461820723367,0.8587592588843366,-1.075872472846798,11.955825558546117,0.2449093112852512,-3.242041023663776,11.899182250976562,-2.5763162752477133,0.6899949980945123,1.5951017054115857,-0.8323483350800305,-0.8284405964176829,2.3587854897103657,2.826039384051067,4.083400819359756,1.4897788443216462,-27.23764022435897,-15.235448985042732,-2.780437502312504,10.286789632642996,-3.665943431568431,-1.3776316832206257,26.89450983915896,31.111720130589752,33.22032527630515,1577399885.0,-27.71639132611987,-51.10058391782761,21.152838
88044,1577399885.84,0.5624622046493896,-1.3703008818835745,10.240467661787823,0.8707302671851178,-1.6025968380811733,9.83935129096799,1.0685146823790013,-1.22851742747237,10.39322940673828,-0.6842264314977134,1.468193240282012,1.8087247522865848,-2.4192623975800305,6.038014481707317,0.7718714272103658,3.314320634051067,3.106838319359756,1.3982261099466462,-28.824298878205127,-16.462465010683758,-1.4277922309172344,10.081344436813186,-3.849240603146853,1.1297796254226546,26.990355527600563,30.92002875370653,33.12447958786354,1577399885.0,-27.71639132611987,-51.10058391782761,21.152838
88045,1577399885.85,0.1099580908798583,-1.3990313018054494,11.14308168766673,0.911431695407774,-0.9824986081007044,9.16658062446408,0.53939611548447,-1.159085579327839,9.32062706298828,-2.4542459627477133,-1.461494259717988,1.5951017054115857,-3.731518256955032,9.517018387957316,2.3282679115853657,-1.2022809284489329,5.914455506859756,1.7034018911966462,-27.76652644230769,-15.235448985042735,-2.329555745180745,9.875899240983376,-2.1995660589410586,-41.79120218723584,26.84658699493815,31.063797286368946,33.12447958786354,1577399885.0,-27.71639132611987,-51.10058391782761,21.152838
88046,1577399885.86,0.6223172461532958,-1.71147461845584,8.975132084395245,1.3004894651831644,-1.3093071347120326,9.087571969678926,0.9583814060118138,-2.451954475812214,9.169792358398436,1.4825216153772869,3.741752810594512,1.7019132288490857,-0.0846676710175304,-0.660593916730183,0.9397181068978656,-0.3477887409489328,3.610378358422256,1.4897788443216462,-27.590231036324784,-14.62194097222222,-2.179261826136828,10.389512230557903,-16.22179968469031,-37.1451165271027,27.038278371821367,30.96795159792733,33.148441009973936,1577399885.0,-27.71639132611987,-51.10058391782761,21.152838
88047,1577399885.87,-0.0743954369521719,-0.7190780303210744,9.230114561201887,0.9784693418921492,-0.4509858395460169,7.612743747022675,-0.6217916896913103,-1.8534040607731512,8.02536396484375,-1.2945779939977131,3.0856248809070124,1.7171720179115857,-5.776195991330031,8.570973466082316,2.8470667397103657,1.3611956340510671,4.907375428734756,0.3606284536966463,-29.17688969017094,-15.644454326923077,-2.630143583268586,-15.599305041913214,-37.759217345154845,0.0973161453930689,26.89450983915896,30.77626022104412,33.17240243208434,1577399885.0,-27.71639132611987,-51.10058391782761,21.152838
88048,1577399885.88,0.088410275938452,-1.147640127489043,10.106392368819073,0.6360985044898053,-1.525982384956173,8.623096847608611,-0.6529163112733415,-0.6946104572575265,8.283937744140625,-6.268943228372714,1.803886599657012,1.2288907679115857,2.707690727419969,-3.666575362042683,0.7718714272103658,3.100697587176067,4.876857850609756,0.5742515005716463,-27.76652644230769,-14.826443643162394,-2.329555745180745,-4.916154858763031,-36.292839972527474,-3.4425586432797965,26.798664150717343,31.111720130589752,33.17240243208434,1577399885.0,-27.71639132611987,-51.10058391782761,21.152838
88049,1577399885.89,0.7731519507431396,-1.5019819731921682,9.500659348799545,-0.6208573670922248,-1.8779300289991416,6.844205014112518,-0.054365896234279,2.77458774830888,11.968614099121092,-1.0199197908727131,0.979911990282012,1.5340665491615857,-0.4356198194550305,-3.391917158917683,1.8399866615853653,-6.878550459698933,5.517726991234756,0.0859702505716463,-29.353185096153844,-15.439951655982904,-2.780437502312504,-3.2725932921245406,-3.299349088411588,-1.0826421174978862,26.798664150717343,30.872105909485725,33.12447958786354,1577399885.0,-27.71639132611987,-51.10058391782761,21.152838
88050,1577399885.9,0.6031636328720458,-0.916599667283965,10.685789170576886,0.5977912779273054,-0.6892089047315643,10.616269729688693,1.4934854770567354,-0.7879843220036201,9.337386474609374,-1.9812235018102131,0.6899949980945121,1.3204435022865857,-4.570751655392531,2.101246903582317,1.5958460365853655,-2.621348311261433,2.633815858422256,0.4826987661966463,-29.00059428418804,-13.803930288461538,-1.8786739880489929,-5.7379356420822765,-39.04229754620378,-3.0000742946956884,26.84658699493815,31.01587444214814,33.17240243208434,1577399885.0,-27.71639132611987,-51.10058391782761,21.152838
88051,1577399885.91,0.088410275938452,-1.806045584032012,10.795922446944072,1.2992923643530865,-0.4031018063428919,10.059617843702366,1.1499175388243137,-1.111201546124714,8.149862451171874,-5.872214712747714,0.6747362090320121,1.8697599085365848,-4.555492866330031,2.742116044207317,1.2601526772103655,-6.176646162823933,2.618557069359756,0.3301108755716463,-28.47170806623932,-13.599427617521366,-1.4277922309172344,10.081344436813186,-38.67570320304695,-3.000074294695689,26.990355527600563,30.92002875370653,32.98071105520113,1577399885.0,-27.71639132611987,-51.10058391782761,21.152838
88052,1577399885.92,0.1793899390243895,-1.0806024810046682,9.562908591963604,2.21627160019293,-2.447750024116329,9.439519613721894,0.6399525852110325,-0.7520712971012765,9.66539210205078,-1.2945779939977131,0.0643846465320121,1.0763028772865857,-2.6328854444550305,3.596608231707317,1.9315393959603653,-3.094370772198933,-4.644626524390244,2.161165563071646,-28.47170806623932,-14.41743830128205,-3.231319259444269,10.081344436813186,-38.67570320304695,-3.000074294695689,26.798664150717343,30.92002875370653,32.98071105520113,1577399885.0,-27.71639132611987,-51.10058391782761,21.152838
88053,1577399885.93,0.4355695166611083,-1.5426834014148243,9.371372459151106,-0.3191879579125374,-0.3552177731397669,9.956667172315646,0.23293830298447,0.3229252483088787,9.78031378173828,-1.7828592439977131,1.712333865282012,1.8087247522865848,-1.7783932569550305,-4.215891768292683,0.8329065834603658,-1.8431500690739329,-1.989597227515244,4.663606969321647,-28.64800347222222,-17.07597302350427,-1.578086149961158,9.875899240983376,-36.292839972527474,-3.4425586432797965,27.08620121604217,30.77626022104412,33.31617096474676,1577399885.0,-27.71639132611987,-51.10058391782761,21.152838
88054,1577399885.94,0.3745173743271239,-1.069828573533965,9.276801493574933,1.3878778257788678,-1.5223910824659388,9.04567344062619,-0.3548382045838884,-4.035718874005573,9.156624249267578,0.1397481778772865,2.5820848418445124,1.7934659632240857,-3.1822018507050305,5.549733231707317,1.4585169350228655,-3.140147139386433,-5.758518125952744,2.344271031821646,-27.9428218482906,-16.66696768162393,-1.8786739880489929,0.0145298411524379,-4.032537774725275,-39.1362960957312,26.990355527600563,30.89606733159613,33.148441009973936,1577399885.0,-27.71639132611987,-51.10058391782761,21.152838
88055,1577399885.95,0.6271056494736083,-1.8874484404773244,9.198989939619857,-0.4580516542015999,-1.286562218940548,8.012575424268768,-0.8133278225038102,-2.006632967023151,8.56166513671875,-0.6231912752477134,1.040947146532012,1.5645841272865857,-1.3206295850800305,-4.124339033917683,1.6873987709603655,-3.063853194073933,-1.837009336890244,0.4521811880716463,-30.058366720085463,-15.848956997863246,-1.8786739880489929,-9.435949167018876,-2.5661604020979016,-37.95633783284024,26.89450983915896,30.92002875370653,33.41201665318837,1577399885.0,-27.71639132611987,-51.10058391782761,21.152838
88056,1577399885.96,0.3589550635361083,-2.0861671782702933,10.096815562178447,0.4278029600562116,-1.8444112057569544,10.423536496046117,-2.125350332269435,-1.9922677570622136,11.341333264160156,-2.0880350252477133,0.3695604277820121,0.9237149866615856,-5.135326850705031,-0.3401593464176829,2.4198206459603657,-0.7750348346989329,-0.2500952743902439,1.1540854849466462,-27.76652644230769,-16.462465010683758,-2.0289679070929103,-16.010195433572836,-39.22559471778221,-0.4926629860524088,26.990355527600563,30.872105909485725,33.02863389942193,1577399885.0,-27.71639132611987,-51.10058391782761,21.152838
88057,1577399885.97,0.279946408750952,-1.5738080229968556,11.05928462956126,-0.2066604798851941,-2.009611120307736,9.050461843946502,0.7141728366758763,1.3620087688166922,11.361683978271484,-2.1795877596227133,1.132499880907012,1.1068204554115857,-2.1751217725800305,3.001515458269817,1.7636927162728655,-0.9428815143864328,-10.671848204077744,2.649446813071646,-28.1191172542735,-14.008432959401707,-2.630143583268586,-6.148826033741898,-18.696311500999,-1.9676108146661029,27.038278371821367,30.92002875370653,33.148441009973936,1577399885.0,-27.71639132611987,-51.10058391782761,21.152838
88058,1577399885.98,0.1075638892197025,-1.636057266160918,11.169417905928448,0.8611534605444928,-1.8659590206983607,11.883999508741429,1.774804172125095,-1.448783980206745,11.525686791992188,-1.7523416658727136,1.513969607469512,1.4272550257240857,-2.3277096632050305,0.239674637957317,1.2296350990853655,-6.268198897198933,-14.776462461890244,5.670687047446647,-28.47170806623932,-16.462465010683758,-1.4277922309172344,-5.943380837912087,-37.94251451673326,-3.2950638604184275,26.870548417048557,30.92002875370653,33.41201665318837,1577399885.0,-27.71639132611987,-51.10058391782761,21.152838
88059,1577399885.99,0.461905734922827,-0.2019304717273245,11.25800336735423,0.1716233824194928,0.0015182742235133,10.734782711866428,0.9392277927305638,-4.762359077862995,10.773907470703124,-3.1866678377477133,-2.132880978467988,1.3204435022865857,-3.1822018507050305,3.047291825457317,1.9315393959603653,-1.8431500690739329,-11.999362852515244,3.778597203696646,-28.29541266025641,-16.66696768162393,-2.179261826136828,-5.7379356420822765,-39.958783404095904,-4.032537774725275,26.89450983915896,30.92002875370653,33.17240243208434,1577399885.0,-27.71639132611987,-51.10058391782761,21.152838
88060,1577399886.0,0.3637434668564208,-2.131657009813262,9.294758006026106,0.4732927915991803,-1.693576501167111,9.104331381300018,1.4108855197813448,-0.5916597858708077,10.297461340332031,-2.2101053377477133,1.407158084032012,1.6561368616615857,-1.9920163038300305,-0.6148175495426829,1.4737757240853655,-9.258921553448932,-2.355808165015244,0.1164878286966463,-28.1191172542735,-15.235448985042735,-1.4277922309172344,-7.381497208720765,-42.89153814935064,-4.032537774725275,27.038278371821367,30.872105909485725,33.02863389942193,1577399886.0,-27.71653163593585,-51.10044525766481,20.700596
88061,1577399886.01,0.7611809424423583,-1.84554991142459,8.764442338301494,0.5511043455542585,-1.8635648190382048,8.922372055128143,1.269627621832126,-0.6048278950016671,8.437166650390624,1.0705343106897869,1.2087938262195124,1.3204435022865857,-0.2677731397675305,-2.476389815167683,1.4432581459603655,1.9410296184260671,1.0469017959222562,1.2151206411966464,-28.824298878205127,-15.644454326923077,-2.479849664224669,10.286789632642996,-4.032537774725275,2.4572326711749795,26.918471261269357,30.89606733159613,33.17240243208434,1577399886.0,-27.71653163593585,-51.10044525766481,20.700596
88062,1577399886.02,0.5648564063095458,-1.7126717192859182,9.1199812848347,2.0750137022437114,-1.6911822995069543,9.659786166456268,-1.5722897487733414,-3.41202934153487,10.54645831298828,3.0389180997522867,2.2006151152820124,1.8087247522865848,-1.8699459913300305,6.587330887957317,1.9925745522103653,0.3235979778010671,5.517726991234756,2.557894078696646,-28.824298878205127,-16.462465010683758,-1.4277922309172344,11.10857041596224,0.0,-2.852579511834319,26.798664150717343,30.77626022104412,33.22032527630515,1577399886.0,-27.71653163593585,-51.10044525766481,20.700596
88063,1577399886.03,0.4068390967392333,-0.9034315581531056,10.573261692549542,1.179582281345274,-1.451762133491329,10.428324899366428,-0.9545857204530288,-3.1103599323551823,11.319785449218749,-1.0504373689977131,-0.3018262909679878,0.9237149866615856,-1.6258053663300305,5.793873856707317,1.6873987709603655,2.612416337176067,6.921535584984756,2.496858922446646,-28.824298878205127,-16.462465010683758,-1.4277922309172344,10.286789632642996,-0.3665943431568428,-0.4926629860524088,26.84658699493815,31.01587444214814,33.17240243208434,1577399886.0,-27.71653163593585,-51.10044525766481,20.700596
