,timestamp,acc_x_dashboard,acc_y_dashboard,acc_z_dashboard,acc_x_above_suspension,acc_y_above_suspension,acc_z_above_suspension,acc_x_below_suspension,acc_y_below_suspension,acc_z_below_suspension,gyro_x_dashboard,gyro_y_dashboard,gyro_z_dashboard,gyro_x_above_suspension,gyro_y_above_suspension,gyro_z_above_suspension,gyro_x_below_suspension,gyro_y_below_suspension,gyro_z_below_suspension,mag_x_dashboard,mag_y_dashboard,mag_z_dashboard,mag_x_above_suspension,mag_y_above_suspension,mag_z_above_suspension,temp_dashboard,temp_above_suspension,temp_below_suspension,timestamp_gps,latitude,longitude,speed
122349,1577396653.91,0.6730100866699219,0.7174225274658202,8.788695309143066,0.3341955146603462,1.336665268316501,8.071788118985804,-0.5109340352376296,0.1488395365397128,4.130795930989583,-4.9800872802734375,0.0696182250976562,-0.365447998046875,-1.718288514672256,-3.420015660727896,1.8479882217035064,-5.308423723493304,-19.49128650483631,0.7473173595610119,-2.81039393669602,-24.30617477760335,1.2771167200854732,31.419639141925344,-6.115354660915408,-8.724572649572671,30.201186090394465,34.08293647227963,33.12447958786354,1577396653.0,-27.711405579576827,-51.1064720450027,23.65516
122350,1577396653.92,0.1798045446777343,0.5534197137451171,6.720105074768066,-2.0671887504763715,0.0054891452696262,5.359157638028773,-1.3728466328938795,0.7162653299967441,6.08685868733724,-5.1326751708984375,-0.7085800170898438,-0.289154052734375,-2.389675233422256,0.3641640267721036,1.0850487685785062,-3.782544817243304,-27.91413806733631,-0.961667015438988,-2.4089090885965883,-24.21122878237833,0.2736678685897474,31.419639141925344,-8.724572649572648,-61.90292022792025,30.10534040195285,34.22670500494204,33.41201665318837,1577396653.0,-27.711405579576827,-51.1064720450027,23.65516
122351,1577396653.93,-0.0284909997558583,0.7461529473876952,8.769541695861815,0.4850302192501904,0.6219960727598607,9.17312088265768,1.0919839762369787,-1.996365150960286,12.022084602864586,-3.393173217773437,-1.0290145874023438,0.153350830078125,-6.616359803734756,5.185941370522103,1.1308251357660062,-2.3329598563058034,-14.98994373139881,1.083010718936012,-2.649799997456247,-24.49606676805337,-0.3648904914529891,30.646269821187605,-8.64303458742711,-45.28468660968663,30.48872315571929,34.17878216072124,33.48390091951957,1577396653.0,-27.711405579576827,-51.1064720450027,23.65516
122352,1577396653.94,0.3162740393066406,0.0470460626220703,8.534909933166503,0.9758415595822212,-0.8923364772889665,6.774130819181116,-0.9347077290852858,1.4488910380045563,9.639853951009114,-3.8204193115234375,-0.9984970092773438,-0.121307373046875,-3.732448670922256,-6.868501988852897,1.9090233779535064,-2.2566659109933034,0.1620338076636905,0.0454130626860119,-2.649799997456247,-24.49606676805337,-0.3648904914529891,31.03295448155648,-8.561496525281571,-3.7391025641025832,30.249108934615272,34.08293647227963,33.50786234162997,1577396653.0,-27.711405579576827,-51.1064720450027,23.65516
122353,1577396653.95,0.2013523596191406,-0.4461594793701171,9.332179085998536,-1.344139849109184,1.17146535376572,9.721393062833462,1.035720237223307,0.6803523050944004,8.648654463704426,-3.7899017333984375,-0.8764266967773438,-0.090789794921875,-7.303005311547256,-10.011812535727897,0.6272850967035062,-3.874097551618304,-3.3780052548363093,0.960940406436012,-3.2921757544153376,-24.875850748953425,0.7297809829059857,31.03295448155648,-7.256887530952951,-2.0772792022792146,30.249108934615272,33.84332225117561,33.41201665318837,1577396653.0,-27.711405579576827,-51.1064720450027,23.65516
122354,1577396653.96,-0.3636792321777338,-0.2510320440673823,10.589134957580566,0.7052967719845649,1.200195773687595,11.39254582162252,-1.4279132710774731,3.002727915445964,10.247981172688805,-3.6830902099609375,-1.5325546264648438,0.016021728515625,-5.624538514672256,-2.107759801352896,0.0779686904535061,1.0392325265066966,-1.6995384579613095,1.968020484561012,-1.686236362017612,-24.496066768053375,-0.5473357371794874,34.12643176450744,-7.256887530952951,-88.49209401709405,30.392877467277685,34.22670500494204,33.55578518585078,1577396653.0,-27.711405579576827,-51.1064720450027,23.65516
122355,1577396653.97,0.4503493322753906,-0.2618059515380859,10.21563949859619,0.662201142101753,0.0641470859434548,10.007500161222133,0.4850538553873694,-0.0642444112141928,12.924698628743492,-3.545761108398437,-1.3647079467773438,0.061798095703125,-3.686672303734756,-4.167696324790397,1.0240136123285062,-3.935132707868304,2.7712867373511907,0.5794706798735119,-1.5256424227778391,-22.78703885400314,-0.1824452457264983,34.12643176450744,-8.724572649572648,-81.84480056980057,30.249108934615272,34.130859316500434,33.48390091951957,1577396653.0,-27.711405579576827,-51.1064720450027,23.65516
122356,1577396653.98,0.3450044592285156,0.274495220336914,10.103112020568847,0.4227809760861275,1.1738595554258762,10.561757845548303,-0.0105458882649733,1.2070766703287754,8.179390938313801,-2.691268920898437,-1.2121200561523438,0.061798095703125,-3.549343202172256,-2.901216832602896,0.5967675185785062,-3.2637459891183034,4.831223260788691,0.7167997814360119,-1.5256424227778391,-22.78703885400314,-0.1824452457264983,34.706458755060744,-5.870740474478792,-8.309116809116826,30.201186090394465,33.939167939617214,33.50786234162997,1577396653.0,-27.711405579576827,-51.1064720450027,23.65516
122357,1577396653.99,0.6155492468261718,0.2912546319580078,8.63307220123291,-2.3185799247927776,0.73093224829697,9.333532393888149,0.2360568827311194,0.1895409647623691,5.584076338704427,-3.454208374023437,-1.2121200561523438,-0.029754638671875,2.706760313452744,-6.227632848227897,1.2681542373285062,-3.690992082868304,-8.74909900483631,-2.792721702938988,-1.5256424227778391,-23.9263907967033,-0.1824452457264983,55.78077274516421,-8.235344276699415,-68.55021367521368,30.34495462305688,34.17878216072124,33.22032527630515,1577396653.0,-27.711405579576827,-51.1064720450027,23.65516
122358,1577396654.0,0.2827552160644531,0.5091269830322266,7.246829440002441,-0.252383892077934,-0.3823715236756852,8.414158956388148,-0.6378267232259108,-1.833559438069661,6.891310445149739,-4.1713714599609375,-1.3494491577148438,0.046539306640625,-4.953151795922256,8.725980433022103,-1.4479102157964938,5.952562604631696,-14.57795642671131,-0.992184593563988,-2.0074242404971567,-24.306174777603346,1.6420072115384583,55.78077274516421,-8.235344276699415,-68.55021367521368,30.249108934615272,34.03501362805883,33.55578518585078,1577396654.0,-27.711535507355684,-51.10627968208913,23.86969
122359,1577396654.01,-0.0739808312988271,-0.1827972967529296,9.023327071838375,0.0205550971798778,-0.0579571987245138,7.510347829679163,-0.6557832356770826,-0.2366269307454428,10.669360664876304,-1.1348724365234375,-1.944541931152344,0.031280517578125,-0.4518090224847562,-3.2826865591653966,1.1460839248285062,-2.485547746930804,-5.30061267671131,0.4116240001860119,-3.131581815175565,-23.546606815803248,1.2771167200854732,32.96637778340082,-5.29997403946002,-1.2463675213675387,30.249108934615272,33.98709078383802,33.53182376374038,1577396654.0,-27.711535507355684,-51.10627968208913,23.86969
122360,1577396654.02,0.0600944616699218,-0.9489418280029296,11.841302425842285,1.0261197944455025,0.031825363531345,10.578517257169397,0.2791525126139319,1.7649256571451817,7.327055147298177,-1.8367767333984373,-1.3952255249023438,0.214385986328125,-2.359157655297256,-0.4598105826028963,-0.5934180282964938,-3.2027108328683034,-9.48152087983631,2.242678687686012,-3.131581815175565,-23.546606815803248,1.2771167200854732,33.73974710413857,-8.398420400990494,-7.8936609686609795,30.201186090394465,34.17878216072124,33.41201665318837,1577396654.0,-27.711535507355684,-51.10627968208913,23.86969
122361,1577396654.03,-0.686896456298828,0.6862979058837889,10.876439156799316,1.04048500440644,0.3981382175352512,11.086088009122522,1.0692390604654944,0.2254539896647128,10.374873860677086,0.0553131103515625,-1.6698837280273438,0.824737548828125,0.173801329077744,-3.297945348227896,1.6954003310785062,-1.4937264578683034,-14.70002673921131,0.930422828311012,-1.8468303012573843,-23.16682283490319,1.6420072115384623,32.57969312303195,-8.724572649572648,-8.724572649572671,30.009494713511245,34.27462784916285,33.41201665318837,1577396654.0,-27.711535507355684,-51.10627968208913,23.86969
122362,1577396654.04,-0.7467514978027343,-0.4856638067626953,10.29345105255127,-2.5172986625857465,-1.4046956325624038,6.5802004847084605,2.07480375773112,-0.6963136494954424,12.809776949055992,-2.416610717773437,-3.714561462402344,0.260162353515625,2.676242735327744,-17.061373082602895,0.6272850967035062,-0.1509530203683033,-7.894606817336309,1.052493140811012,-2.3286121189767024,-22.787038854003136,0.5473357371794911,31.22629681174091,-8.64303458742711,-81.42934472934473,30.201186090394465,34.08293647227963,33.41201665318837,1577396654.0,-27.711535507355684,-51.10627968208913,23.86969
122363,1577396654.05,-0.1960851159667959,0.1523909356689453,12.78222367828369,0.461088202648628,1.5485521152403292,11.539789223722131,0.2097206644694011,0.907801462809244,12.245942458089196,0.2079010009765625,-3.806114196777344,0.519561767578125,-4.602199647484756,-4.472872106040396,0.3678856826410062,-0.6544930594308035,4.068283807663691,0.0911894298735118,-2.3286121189767024,-22.976930844453165,1.824452457264953,31.419639141925344,-8.398420400990494,-75.19750712250713,30.201186090394465,34.17878216072124,33.45993949740917,1577396654.0,-27.711535507355684,-51.10627968208913,23.86969
122364,1577396654.06,0.1534683264160156,0.159573540649414,10.986572433166502,-0.922760356921684,-1.950573611078029,7.209875521329554,-0.5444528584798171,0.1943293680826816,6.232904988606771,-1.5010833740234375,-3.165245056152344,0.336456298828125,3.164523985327744,-2.901216832602896,0.2610741592035062,-0.2119881766183033,-0.2346947079613094,-0.229245140438988,-2.3286121189767024,-22.976930844453165,1.824452457264953,31.80632380229421,-8.724572649572648,1.2463675213675056,30.392877467277685,34.03501362805883,33.55578518585078,1577396654.0,-27.711535507355684,-51.10627968208913,23.86969
122365,1577396654.07,0.4695029455566405,0.4444835382080078,7.893263888244628,3.0037303657345644,0.9272567844297824,9.508309115079555,0.0684627665201819,1.003569529215494,7.473101448567708,-1.8978118896484373,-3.623008728027344,0.550079345703125,3.011936094702744,-3.481050816977896,-0.3187598251714938,-2.2871834891183034,-5.056472051711309,-1.572018577938988,-2.81039393669602,-22.02747089220304,1.2771167200854732,33.73974710413857,-8.724572649572648,-75.19750712250713,30.249108934615272,34.08293647227963,33.55578518585078,1577396654.0,-27.711535507355684,-51.10627968208913,23.86969
122366,1577396654.08,0.0421379492187504,0.240976397094727,8.631875100402832,-1.7236208122439496,-0.8312843349549829,7.531895644620571,0.7184885172526038,2.454455735270182,9.705694496663412,-0.8602142333984375,-3.714561462402344,0.336456298828125,2.096408750952744,-4.900118199790397,0.5967675185785062,0.1999991280691966,-2.1573021298363093,-1.480465843563988,-1.9271272708772709,-22.881984849228157,0.456113114316242,31.90299496738643,-4.64766954229571,-83.50662393162395,30.22514751250487,34.08293647227963,33.53182376374038,1577396654.0,-27.711535507355684,-51.10627968208913,23.86969
122367,1577396654.09,0.4479551306152343,-0.0654814154052724,9.408793539123534,2.59192768018769,2.081261984625095,12.697385726407678,-2.1557505757649733,0.6085262552897128,11.358890743001306,-1.3790130615234375,-2.890586853027344,0.275421142578125,-1.352077577172256,-10.713716832602897,0.3526268935785062,-2.7449471609933034,-5.117507207961309,1.998538062686012,-1.686236362017612,-23.73649880625328,0.3648904914529966,31.61298147210978,-8.316882338844954,-4.985470085470089,30.249108934615272,34.08293647227963,33.50786234162997,1577396654.0,-27.711535507355684,-51.10627968208913,23.86969
122368,1577396654.1,-0.1577778894042958,-0.1301248602294911,9.269929842834472,0.2384274482540962,0.1898426731016575,6.984820565274866,1.4594939310709631,-0.1839544942220048,11.600705110677088,0.2384185791015625,-2.982139587402344,0.489044189453125,-5.624538514672256,5.857328089272103,1.2986718154535062,0.1847403390066966,-2.2488548642113093,3.005618140811012,-1.686236362017612,-23.73649880625328,0.3648904914529966,30.83961215137204,-8.64303458742711,-4.985470085470089,30.392877467277685,34.03501362805883,33.50786234162997,1577396654.0,-27.711535507355684,-51.10627968208913,23.86969
122369,1577396654.11,-0.1194706628417963,-0.4641159918212891,11.442667849426268,0.8585256782345649,0.9081031711485325,10.513873812345178,1.2248621683756509,2.7992207743326825,13.204820222981771,1.0623931884765625,-3.531455993652344,0.595855712890625,-4.800563905297256,1.0355507455221036,-0.4408301376714938,-0.8833748953683034,0.6197974795386905,1.479739234561012,-3.131581815175565,-22.787038854003143,1.2771167200854694,32.77303545321639,-7.175349468807411,-86.41481481481483,30.22514751250487,33.939167939617214,33.50786234162997,1577396654.0,-27.711535507355684,-51.10627968208913,23.86969
122370,1577396654.12,0.5221753820800781,-0.0678756170654287,10.347320589904784,0.5484765632443306,0.055767380132908,11.78280069222799,-0.7204266805013015,1.367488181559244,12.48536262410482,-0.8602142333984375,-2.768516540527344,0.092315673828125,4.415744688452744,-4.152437535727897,0.2763329482660062,0.2457754952566966,7.79142833891369,-0.824337913876488,-2.9709878759357924,-22.217362882653063,-0.3648904914529891,32.38635079284752,-8.479958463136033,-88.07663817663818,30.201186090394465,34.058975050169224,33.48390091951957,1577396654.0,-27.711535507355684,-51.10627968208913,23.86969
122371,1577396654.13,0.5078101721191406,0.1571793389892578,9.370486312561034,0.7388155952267524,3.1706237399961887,7.937712826017054,0.9279811625162756,0.946108689371744,7.623936153157552,0.3604888916015625,-2.951622009277344,0.428009033203125,5.026096250952744,0.6693398080221036,2.519374940453506,0.0931876046316966,10.32438732328869,-0.5954560779389881,-1.3650484835380667,-22.976930844453165,-1.094671474358975,32.57969312303195,-6.115354660915408,-67.71930199430203,30.249108934615272,34.08293647227963,33.50786234162997,1577396654.0,-27.711535507355684,-51.10627968208913,23.86969
122372,1577396654.14,-0.0548272180175771,0.6910863092041014,10.929111593322752,-0.0776071708865277,-0.2099890041444352,6.527528048185022,0.9279811625162756,1.7361952372233065,6.572881624348958,0.6656646728515625,-3.073692321777344,0.275421142578125,1.760715391577744,-1.2227500357278964,-1.4479102157964938,1.8937247140066968,1.0775611514136905,-0.4733857654389881,-1.3650484835380667,-22.976930844453165,-1.094671474358975,35.28648574561405,-8.724572649572648,-66.88839031339033,30.34495462305688,34.17878216072124,33.31617096474676,1577396654.0,-27.711535507355684,-51.10627968208913,23.86969
122373,1577396654.15,0.6215347509765625,0.527083495483399,7.938753719787597,0.40841576612519,0.8506423313047825,8.373457528165492,-1.3704524312337234,-1.0722033101399735,5.9839080159505205,-0.2803802490234375,-2.615928649902344,0.016021728515625,2.737277891577744,-4.060884801352897,-0.1661719345464938,3.2364981515066966,-15.06623767671131,-1.327877952938988,-2.4892060582164746,-23.356714825353222,1.2771167200854694,32.19300846266308,-7.419963655244028,-86.83027065527065,30.201186090394465,33.939167939617214,33.31617096474676,1577396654.0,-27.711535507355684,-51.10627968208913,23.86969
122374,1577396654.16,0.5485116003417968,0.3343502618408203,7.491038009338378,-0.9694472892947312,0.0138688510801736,7.446901485685022,-0.2954558858235676,-0.9297483113606768,9.45789462483724,-0.9822845458984376,-2.737998962402344,-0.182342529296875,-0.1618920302972561,-2.7333701529153966,0.6272850967035062,1.3291495186941966,-12.41120837983631,0.6252470470610121,-4.255739389853973,-23.35671482535321,1.094671474358975,32.57969312303195,-5.136897915168943,-2.0772792022792146,30.201186090394465,34.03501362805883,33.45993949740917,1577396654.0,-27.711535507355684,-51.10627968208913,23.86969
122375,1577396654.17,0.7065289099121094,-0.8699331732177734,8.305066573791503,2.4147567573361277,1.442010141363376,14.107570504239709,0.8657319193522132,1.5374764994303378,8.902439839680989,0.9403228759765624,-2.615928649902344,0.336456298828125,-0.0703392959222559,6.925443323647103,0.0779686904535061,-0.3340584891183034,-2.2793724423363093,2.639407203311012,-3.773957572134656,-23.16682283490319,1.2771167200854732,30.646269821187605,-4.64766954229571,-2.0772792022792146,30.201186090394465,34.03501362805883,33.55578518585078,1577396654.0,-27.711535507355684,-51.10627968208913,23.86969
122376,1577396654.18,0.3785232824707031,0.6815095025634764,12.375209396057128,0.9423227363400336,-1.3017449611756853,11.191432882169396,-0.1350443745930983,2.2916500223795566,10.769917134602869,4.3582916259765625,-1.6088485717773438,0.794219970703125,5.544895079077744,-9.157320348227897,0.9019432998285062,3.2059805733816966,-7.467360723586309,0.6557646251860119,-3.773957572134656,-23.16682283490319,1.2771167200854732,32.19300846266308,-8.07226815240834,-5.400925925925935,30.009494713511245,34.22670500494204,33.50786234162997,1577396654.0,-27.711535507355684,-51.10627968208913,23.86969
122377,1577396654.19,-0.2583343591308583,0.3511096734619141,10.773488485412596,0.9961922736935498,0.9739437168028298,9.98834654794088,-0.7335947896321607,-0.3383805013020834,12.640985732014975,0.3604888916015627,-1.715660095214844,0.092315673828125,1.867526915015244,-2.809664098227896,0.2152977920160061,1.0087149483816966,-2.2335960751488093,-0.152951195126488,-2.890690906315906,-22.502200868328103,0.6385583600427366,32.38635079284752,-8.072268152408338,-80.18297720797722,30.392877467277685,34.202743582831644,33.45993949740917,1577396654.0,-27.711535507355684,-51.10627968208913,23.86969
122378,1577396654.2,0.8142679846191406,-0.4820725042724609,10.601105965881349,0.437146186047065,0.4579932590391574,6.347962923673304,1.6773662821451818,0.1416569315592441,11.401986372884116,-1.2874603271484375,-3.195762634277344,-0.304412841796875,2.126926329077744,-3.938814488852896,-0.5018652939214938,-2.8059823172433034,7.821945917038691,-0.3513154529389881,-2.81039393669602,-22.40725487310309,0.5473357371794949,34.12643176450744,-5.463050163751098,-8.724572649572671,30.201186090394465,34.03501362805883,33.699553718513194,1577396654.0,-27.711535507355684,-51.10627968208913,23.86969
122379,1577396654.21,0.8477868078613281,0.542645806274414,9.447100765686034,2.24716264112519,0.4484164523985324,9.843497347501428,-0.0584299214680983,-0.5167485249837236,8.033344637044271,-0.0972747802734375,-1.944541931152344,-0.060272216796875,-0.650173280297256,8.848050745522103,0.6578026748285062,-1.0664803641183034,7.669358026413691,-0.3207978748139881,-1.3650484835380667,-22.217362882653063,1.4595619658119638,33.73974710413857,-6.115354660915408,0.4154558404558297,30.201186090394465,33.84332225117561,33.41201665318837,1577396654.0,-27.711535507355684,-51.10627968208913,23.86969
122380,1577396654.22,0.6706158850097657,0.7988253839111327,8.757570687561035,0.9542937446408148,0.223361496343845,9.94405381722799,-0.8628816792805982,2.2413717875162757,8.203332954915364,0.1468658447265625,-0.9069442749023438,0.275421142578125,-1.687770936547256,-0.7649863638528964,0.2305565810785061,-0.6697518484933034,2.3592994326636907,-1.358395531063988,-1.3650484835380667,-22.217362882653063,1.4595619658119638,33.93308943432301,-4.729207604441249,-5.816381766381765,30.34495462305688,34.17878216072124,33.22032527630515,1577396654.0,-27.711535507355684,-51.10627968208913,23.86969
122381,1577396654.23,0.8166621862792969,0.5438429071044921,8.111136239318848,-1.709255602283012,0.2532890170957986,9.691465542081506,0.352175663248698,0.2481989054361977,7.202556660970052,0.2384185791015625,-1.1816024780273438,0.275421142578125,2.538913633765244,-3.6794150747903966,-0.0441016220464938,-0.3645760672433033,-4.613967168898809,-0.870114281063988,-2.4892060582164746,-23.166822834903197,1.6420072115384623,33.83641826923079,-4.443824386931864,-81.22161680911682,30.297031778836075,34.22670500494205,33.41201665318837,1577396654.0,-27.711535507355684,-51.10627968208913,23.86969
122382,1577396654.24,0.5006275671386718,0.2912546319580078,8.82460833404541,3.142594062023627,-0.217171609124904,9.280859957364711,-1.9019651997884108,-0.3778848286946611,7.758011446126302,-0.3414154052734375,-1.4562606811523438,0.092315673828125,4.080051329077744,-3.664156285727896,1.3597069717035062,1.6801016671316966,-6.277175176711309,1.296633765811012,-2.649799997456247,-24.49606676805337,1.4595619658119638,30.83961215137204,-7.012273344516334,-3.323646723646737,30.249108934615272,34.03501362805883,33.41201665318837,1577396654.0,-27.711535507355684,-51.10627968208913,23.86969
122383,1577396654.25,0.3450044592285156,0.1715445489501953,8.98980824859619,0.6167113105587837,-0.8612118557069351,7.305643587735804,0.7364450297037757,0.8072449930826816,9.194532442220051,-0.1888275146484375,-0.9374618530273438,0.611114501953125,-5.532985780297256,0.5167519173971036,0.0779686904535061,0.9171622140066966,-8.07771228608631,3.402346656436012,-3.2921757544153376,-23.35671482535321,0.7297809829059857,32.19300846266308,-8.724572649572648,-8.724572649572671,30.249108934615272,34.08293647227963,33.50786234162997,1577396654.0,-27.711535507355684,-51.10627968208913,23.86969
122384,1577396654.26,-0.3816357446289052,0.2637213128662114,11.158954952697751,-0.6234851494021527,0.7357206516172825,10.523450618985803,-0.4271369771321608,2.918930857340494,13.243127449544271,1.2454986572265625,-1.5783309936523438,0.321197509765625,1.943820860327744,-9.615084020102897,-1.0511817001714938,-0.0594002859933033,-8.26081775483631,2.914065406436012,-3.2921757544153376,-23.35671482535321,0.7297809829059857,32.38635079284752,-7.990730090262799,-88.07663817663818,30.22514751250487,34.22670500494204,33.36409380896756,1577396654.0,-27.711535507355684,-51.10627968208913,23.86969
122385,1577396654.27,0.1893813513183593,-0.3192667913818359,11.12783033111572,1.023725592785346,-0.7929771083924829,11.180658974698693,-0.2092646260579425,-0.5131572224934897,11.861673091634117,0.0247955322265625,-1.944541931152344,0.672149658203125,-0.2076683974847561,2.073148401772104,0.8714257217035062,-1.0817391531808034,-0.4178001767113093,0.411624000186012,-3.131581815175565,-23.16682283490319,0.912226228632484,34.70645875506075,-7.827653965971722,-80.18297720797722,30.201186090394465,34.17878216072124,33.53182376374038,1577396654.0,-27.711535507355684,-51.10627968208913,23.86969
122386,1577396654.28,0.7232883215332031,0.1332373223876953,9.492590597229002,-0.9179719536013714,1.1187929172422826,10.521056417325646,0.3150655375162756,0.9437144877115878,7.635907161458333,-0.2193450927734375,-1.3341903686523438,0.641632080078125,-0.528102967797256,-8.546968785727897,0.4136620498285062,-0.5781991141183034,-0.0821068173363094,-1.541500999813988,-2.16801817973693,-24.30617477760335,0.912226228632484,37.02656671727397,-6.033816598769869,-71.45840455840457,30.009494713511245,34.22670500494204,33.41201665318837,1577396654.0,-27.711535507355684,-51.10627968208913,23.86969
122387,1577396654.29,0.0816422766113281,0.494761773071289,9.588358663635251,-0.5325054863162152,2.3111053440000946,10.454018770841271,1.1961317484537757,2.076171872965494,8.121930098470052,-0.4329681396484375,-2.249717712402344,0.366973876953125,-0.4670678115472559,3.293851526772104,1.3597069717035062,2.7176993233816966,-6.033034551711309,-0.7785615466889881,-2.81039393669602,-23.9263907967033,0.912226228632484,33.73974710413857,-6.115354660915408,-65.22656695156695,30.05741755773205,34.08293647227963,33.41201665318837,1577396654.0,-27.711535507355684,-51.10627968208913,23.86969
122388,1577396654.3,0.5030217687988281,0.9819818109130858,8.500194009094237,1.1218878608517524,-1.7901620998475605,5.988832674649866,-2.2874316670735677,-3.31557026570638,8.900045638020833,-0.5397796630859375,-2.066612243652344,0.763702392578125,4.110568907202744,-1.8941367544778964,0.0169335342035061,3.7247794015066966,-7.803054082961309,0.1369657970610119,-2.81039393669602,-23.9263907967033,0.912226228632484,32.19300846266308,-8.398420400990494,-83.50662393162395,30.22514751250487,34.08293647227963,33.50786234162997,1577396654.0,-27.711535507355684,-51.10627968208913,23.86969
122389,1577396654.31,0.8669404211425781,0.7605181573486327,6.071276424865722,0.0959724494747999,2.2141401767637667,7.655197030118615,-0.3876326497395831,-1.1464235616048173,9.925961049397788,-1.6536712646484375,-1.3647079467773438,0.397491455078125,-0.6043969131097562,-1.4211142935403962,0.9782372451410062,-0.7613045828683034,-4.491896856398809,-0.046139671688988,-2.16801817973693,-23.16682283490319,0.5473357371794949,32.289679627755305,-8.357651369917726,-42.58422364672367,30.05741755773205,34.01105220594842,33.53182376374038,1577396654.0,-27.711535507355684,-51.10627968208913,23.86969
122390,1577396654.32,0.7831433630371094,-0.9489418280029296,8.613918587951659,-0.0584535576052777,-0.9593741237733414,11.900116573575646,-1.4542494893391922,-0.7920817159016923,7.485072456868489,-1.4705657958984375,-1.822471618652344,0.550079345703125,-2.969509217797256,1.2796913705221036,-0.9291113876714938,1.5580313546316966,-0.2346947079613094,2.547854468936012,-3.2921757544153376,-21.45779492085296,1.4595619658119638,31.22629681174091,-7.827653965971723,-8.309116809116826,30.249108934615272,34.08293647227963,33.65163087429239,1577396654.0,-27.711535507355684,-51.10627968208913,23.86969
122391,1577396654.33,0.3976768957519531,0.6551732843017577,10.742363863830564,2.275893061047065,1.3869435031797823,9.790824910977992,-0.1063139546712233,1.4177664164225254,8.102776485188802,0.6961822509765625,-1.1816024780273438,0.916290283203125,-0.833278749047256,-12.941500035727897,2.275234315453506,-0.2730233328683034,-3.805251348586309,1.449221656436012,-2.649799997456247,-24.116282787153324,1.824452457264953,32.38635079284752,-8.479958463136033,-8.309116809116826,30.249108934615272,33.891245095396414,33.41201665318837,1577396654.0,-27.711535507355684,-51.10627968208913,23.86969
122392,1577396654.34,-0.0189141931152338,0.5163095880126953,9.995372945861815,-1.813403374499809,0.8290945163633763,8.99355575814596,-0.4702326070149733,-1.4959770039876297,10.767522932942711,-0.3261566162109375,-0.7696151733398438,0.626373291015625,-5.258327577172256,0.5167519173971036,-0.0441016220464938,3.4501211983816966,-3.0423118954613093,0.5336943126860119,-2.649799997456247,-24.116282787153324,1.824452457264953,32.38635079284752,-8.479958463136033,-8.309116809116826,30.297031778836075,34.22670500494204,33.41201665318837,1577396654.0,-27.711535507355684,-51.10627968208913,23.86969
122393,1577396654.35,-0.0093373864746083,-0.3384204046630859,11.44147074859619,1.0632299201779247,1.3594101840879855,11.216571999601037,0.9555144816080724,-0.2126849141438803,13.862028578694664,-1.2264251708984375,-1.6698837280273438,0.336456298828125,-0.558620545922256,2.042630823647104,0.4746972060785061,0.5967276436941966,3.5800025576636907,0.4268827892485118,-3.45276969365511,-22.40725487310309,0.1824452457264983,34.9964722503374,-6.971504313443565,-6.231837606837628,30.249108934615272,34.058975050169224,33.50786234162997,1577396654.0,-27.711535507355684,-51.10627968208913,23.86969
122394,1577396654.36,0.6418854650878907,-0.0319625921630849,11.156560751037595,-0.1135201957888714,-0.9186726955506852,9.577740963224086,-0.4702326070149733,1.480015659586588,7.461130440266927,-1.8978118896484373,-1.6393661499023438,0.183868408203125,-1.992946717797256,-1.7415488638528964,0.2305565810785061,5.220140729631696,5.136399042038691,1.205081031436012,-3.613363632894883,-23.35671482535321,0.3648904914529966,34.12643176450744,-6.115354660915408,-1.2463675213675387,30.249108934615272,34.27462784916285,33.41201665318837,1577396654.0,-27.711535507355684,-51.10627968208913,23.86969
122395,1577396654.37,0.3402160559082031,0.3439270684814453,9.399216732482907,1.119493659191596,2.2105488742735324,10.41092314095846,-0.6282499165852858,1.214259275309244,4.118824922688802,-1.8672943115234373,-0.6628036499023438,0.397491455078125,6.033176329077744,-3.847261754477896,0.8714257217035062,3.0228751046316966,-5.331130254836309,-2.792721702938988,-2.16801817973693,-22.78703885400314,1.2771167200854732,31.419639141925344,-8.724572649572648,-75.19750712250713,30.392877467277685,34.08293647227963,33.50786234162997,1577396654.0,-27.711535507355684,-51.10627968208913,23.86969
122396,1577396654.38,0.5963956335449219,0.7844601739501952,7.269574355773924,-0.7036909050173871,-0.4482120693299826,6.219873134854945,-0.4534731953938795,-1.173956880696614,7.189388551839192,-2.035140991210937,-1.4867782592773438,0.565338134765625,1.0740698837652438,-1.2227500357278962,0.9477196670160062,-0.8681161063058034,-13.81501697358631,0.075930640811012,-2.16801817973693,-22.78703885400314,1.2771167200854732,31.99966613247865,-4.810745666586787,-80.18297720797722,30.153263246173665,34.058975050169224,33.53182376374038,1577396654.0,-27.711535507355684,-51.10627968208913,23.86969
122397,1577396654.39,0.5892130285644531,0.5689820245361328,6.574058773498535,1.081186432629096,1.0302074558165013,9.225793319181117,-0.783873024495442,-0.8375715474446611,7.389304390462239,-1.9893646240234373,-1.3647079467773438,0.183868408203125,-2.176052186547256,-7.875582066977897,1.3597069717035062,2.4125235421316966,-10.06135486421131,1.876467750186012,-3.2921757544153376,-25.255634729853483,0.7297809829059857,30.646269821187605,-4.810745666586787,-86.83027065527065,30.249108934615272,34.03501362805883,33.55578518585078,1577396654.0,-27.711535507355684,-51.10627968208913,23.86969
122398,1577396654.4,0.7137115148925781,0.236187993774414,7.977060946350097,-0.472650444812309,-0.5475714382264665,8.198680806974085,-0.4103775655110671,0.1488395365397128,8.744422530110677,-0.8907318115234375,-0.2660751342773437,0.428009033203125,7.955783750952744,-10.439058629477897,3.099208924828506,1.5275137765066966,-8.96272205171131,4.287356422061012,-2.81039393669602,-23.16682283490319,0.5473357371794949,33.73974710413857,-4.158441169422477,-7.8936609686609795,30.201186090394465,34.03501362805883,33.36409380896756,1577396654.0,-27.711535507355684,-51.10627968208913,23.86969
122399,1577396654.41,-0.0069431848144526,0.1679532464599614,10.799824703674314,0.1258999702267525,-0.8731828640077165,8.86666307015768,0.4946306620279944,3.3546755594889324,12.388397456868493,-0.9975433349609376,-1.563072204589844,0.626373291015625,-6.631618592797256,6.559232386147103,-0.5018652939214938,-0.5476815359933034,-3.5916283017113093,2.914065406436012,-4.416333329093746,-22.40725487310309,0.912226228632484,33.73974710413857,-6.767659158079718,-87.66118233618238,30.297031778836075,34.08293647227963,33.50786234162997,1577396654.0,-27.711535507355684,-51.10627968208913,23.86969
122400,1577396654.42,0.2229001745605468,-0.1995567083740234,11.791024190979003,0.7938822334103461,0.621996072759861,12.782379885343223,0.3126713358561199,1.597331540934244,12.924698628743492,-1.8367767333984373,-1.2426376342773438,0.428009033203125,1.6996802353277438,4.484037073647103,1.2528954482660062,-3.492627825055804,9.14946056547619,-0.198727562313988,-4.416333329093746,-22.40725487310309,0.912226228632484,33.73974710413857,-8.398420400990494,-83.92207977207978,30.249108934615272,34.130859316500434,33.55578518585078,1577396654.0,-27.711535507355684,-51.10627968208913,23.86969
122401,1577396654.43,0.6059724401855469,0.2337937921142578,10.26112933013916,0.0205550971798775,0.5178483005430637,10.147560958341272,0.4180162089029944,1.0825781840006503,9.68773798421224,-2.935409545898437,-0.7848739624023438,0.305938720703125,3.103488829077744,-12.270113316977897,0.1695214248285061,-2.1956307547433034,17.92326427641369,-1.816159202938988,-2.4892060582164746,-22.40725487310309,0.5473357371794949,33.73974710413857,-5.29997403946002,-8.724572649572671,30.201186090394465,34.03501362805883,33.41201665318837,1577396654.0,-27.711535507355684,-51.10627968208913,23.86969
122402,1577396654.44,0.3258508459472656,-0.1061828436279287,10.220427901916503,1.2463863471798775,2.4978530734922826,9.553798946622525,0.5880045267740881,1.013146335856119,8.677384883626303,-2.447128295898437,-1.3647079467773438,0.366973876953125,-2.847438905297256,1.1881386361471036,1.8479882217035064,-1.7378670828683034,5.838303338913691,-1.541500999813988,-2.007424240497157,-22.217362882653063,0.3648904914529966,33.73974710413857,-5.29997403946002,-8.724572649572671,30.201186090394465,34.27462784916285,33.41201665318837,1577396654.0,-27.711535507355684,-51.10627968208913,23.86969
122403,1577396654.45,0.4120421057128905,0.5617994195556639,9.132263247375487,-0.9514907768435588,-0.8923364772889665,9.074958614591274,0.7220798197428382,-3.66033530476888,8.873709419759114,-1.9435882568359373,-1.3341903686523438,0.275421142578125,0.356906797827744,5.582669886147103,-0.7460059189214938,0.3373282296316966,-0.0210716610863094,-0.015622093563988,-2.890690906315906,-22.692092858778125,0.0912226228632491,30.646269821187605,-5.9522785366243305,-86.83027065527065,30.392877467277685,34.27462784916285,33.22032527630515,1577396654.0,-27.711535507355684,-51.10627968208913,23.86969
122404,1577396654.46,0.8453926062011718,0.5737704278564453,7.0241686856079095,1.14942117994355,0.9344393894102512,7.235014638761195,0.1067699930826819,0.0087787394205727,8.643866060384115,-2.782821655273437,-0.2965927124023437,0.153350830078125,-3.640895936547256,1.5543495736471034,0.5357323623285062,-1.951490129743304,4.632859002976191,0.213259742373512,-2.4892060582164746,-22.40725487310309,0.1824452457264983,30.646269821187605,-7.256887530952951,-43.207407407407416,30.34495462305688,33.98709078383802,33.38805523107796,1577396654.0,-27.711535507355684,-51.10627968208913,23.86969
122405,1577396654.47,0.8693346228027343,-0.7741651068115234,8.886857577209472,-0.8389632988162151,0.21378468970322,7.487602913907679,0.6167349466959632,-1.2948640645345046,10.7627345296224,-2.721786499023437,-0.9984970092773438,0.550079345703125,-3.946071717797256,-1.8025840201028964,-0.0441016220464938,-1.0359627859933034,14.23063732328869,2.029055640811012,-2.4892060582164746,-24.6859587585034,0.912226228632484,33.73974710413857,-8.724572649572648,-7.8936609686609795,30.201186090394465,34.22670500494204,33.50786234162997,1577396654.0,-27.711535507355684,-51.10627968208913,23.86969
122406,1577396654.48,0.359369669189453,0.4444835382080078,9.930729501037597,1.7467744941525338,2.2153372775938447,10.968772127774866,1.2511983866373697,2.203064560953776,9.58478731282552,-0.7381439208984375,-0.1440048217773437,0.061798095703125,-5.441433045922256,2.744535120522104,0.2000390029535061,-0.5781991141183034,15.32927013578869,0.8083525158110119,-2.4892060582164746,-23.546606815803248,0.912226228632484,55.394088084795335,-8.724572649572648,-8.724572649572671,30.249108934615272,34.27462784916285,33.699553718513194,1577396654.0,-27.711535507355684,-51.10627968208913,23.86969
122407,1577396654.49,0.0732625708007817,-0.0439336004638671,11.14818104522705,0.9566879463009712,-0.2482962307069357,11.193827083829552,-0.3205950032552082,1.9145632609049472,11.162566206868492,0.1010894775390625,-0.0829696655273437,0.351715087890625,1.699680235327744,-0.2919639029153966,0.6425438857660062,-0.6087166922433034,15.22245861235119,-0.7785615466889879,-2.649799997456247,-22.976930844453168,2.006897702991451,55.49075924988755,-8.68380361849988,-8.516844729344749,30.273070356725672,34.058975050169224,33.48390091951957,1577396654.0,-27.711535507355684,-51.10627968208913,23.86969
122408,1577396654.5,-0.3277662072753896,-0.7143100653076172,11.999319735412596,-1.6721454765505903,0.1970252780821262,12.654290096524864,1.6103286356608069,-0.7465918843587236,13.942234334309898,-1.4095306396484375,-0.5712509155273438,0.031280517578125,-6.356960389672256,1.859525354897104,0.5052147842035062,-1.1580330984933034,21.70744396391369,0.7473173595610119,-3.131581815175565,-23.546606815803248,2.006897702991451,33.73974710413857,-5.626126288042175,-7.8936609686609795,30.392877467277685,34.22670500494204,33.41201665318837,1577396654.0,-27.711535507355684,-51.10627968208913,23.86969
122409,1577396654.51,0.4718971472167968,-0.6448782171630859,11.05839848297119,0.7124793769650337,1.279204428472751,12.525003206876429,-1.4063654561360672,0.2829148295084628,8.464300935872396,-1.0128021240234375,-0.9374618530273438,0.275421142578125,2.584690000952744,2.836087854897104,0.4746972060785062,-3.1416756766183034,14.38322521391369,0.3811064220610119,-2.3286121189767024,-22.217362882653063,0.3648904914529966,33.73974710413857,-5.626126288042175,-7.8936609686609795,30.249108934615272,34.03501362805883,33.31617096474676,1577396654.0,-27.711535507355684,-51.10627968208913,23.86969
122410,1577396654.52,0.4335899206542968,0.8443152154541015,10.385627816467284,2.204067011242377,-0.6984061428163102,11.186644478849084,-0.4103775655110671,0.9532912943522128,7.884904134114583,0.2079010009765625,-0.0524520874023437,0.855255126953125,0.601047422827744,11.075833948647103,0.9629784560785062,1.8021719796316968,5.716233026413691,-1.266842796688988,-2.16801817973693,-23.546606815803248,0.1824452457264983,30.646269821187605,-8.724572649572648,-70.21203703703704,30.05741755773205,34.03501362805883,33.41201665318837,1577396654.0,-27.711535507355684,-51.10627968208913,23.86969
122411,1577396654.53,0.6275202551269532,0.5043385797119141,8.457098379211425,0.1845579109005806,1.1092161106016574,7.81321433968893,0.3833002848307287,-0.4652731892903646,7.968701192220052,-0.1125335693359375,0.0238418579101562,0.260162353515625,0.036472227515244,0.2268349252096033,0.4289208388910062,0.0626700265066966,-4.827590215773809,-0.915890648251488,-2.81039393669602,-24.49606676805338,0.1824452457264983,30.646269821187605,-7.419963655244028,-79.35206552706555,30.297031778836075,34.17878216072124,33.50786234162997,1577396654.0,-27.711535507355684,-51.10627968208913,23.86969
122412,1577396654.54,1.1853692419433597,0.102112700805664,8.879674972229003,0.3653201362423775,-0.188441189203029,9.592106173185025,-1.365664027913411,-2.8630661519368488,9.359732356770833,-1.7452239990234375,0.1916885375976562,0.000762939453125,0.997775938452744,3.537992151772104,0.6578026748285062,-0.1814705984933033,1.9320533389136905,1.449221656436012,-2.649799997456247,-25.255634729853483,-0.3648904914529891,30.646269821187605,-7.419963655244028,4.570014245014226,30.249108934615272,34.27462784916285,33.36409380896756,1577396654.0,-27.711535507355684,-51.10627968208913,23.86969
122413,1577396654.55,1.3433865515136718,0.0015562310791015,7.804678426818847,1.919157013683784,0.3334947727110324,9.678297432950648,0.6071581400553381,0.2996742411295566,10.868079402669274,-0.3719329833984375,0.7104873657226562,0.275421142578125,-2.328640077172256,5.735257776772103,0.6883202529535062,-0.0899178641183033,6.265549432663691,2.120608375186012,-3.45276969365511,-22.02747089220304,1.6420072115384623,34.89980108524518,-8.724572649572648,7.062749287749271,30.249108934615272,33.84332225117561,33.41201665318837,1577396654.0,-27.711535507355684,-51.10627968208913,23.86969
122414,1577396654.56,0.6730100866699219,0.0207098443603515,10.325772774963378,1.3876442451290962,-0.7774147976014665,10.008697262052207,-0.7742962178548171,2.8662584208170574,10.978212679036462,2.3441314697265625,1.5344619750976562,0.611114501953125,5.026096250952744,-2.596041051352896,1.5122948623285062,0.0931876046316966,4.953293573288691,-0.137692406063988,-3.131581815175565,-21.267902930402933,0.1824452457264983,33.3530624437697,-8.724572649572648,-7.062749287749304,30.249108934615272,34.03501362805883,33.699553718513194,1577396654.0,-27.711535507355684,-51.10627968208913,23.86969
122415,1577396654.57,-0.168551796874999,0.255341607055664,12.199235574035644,0.9495053413205023,0.7093844333555641,11.54098632455221,-0.8102092427571608,-0.0798067220052084,14.06314151814779,2.0999908447265625,1.2903213500976562,0.290679931640625,-2.343898866234756,1.2186562142721034,0.4441796279535062,2.0615713936941966,15.05461193266369,0.1522245861235119,-1.8468303012573848,-23.166822834903197,0.7297809829059857,33.159720113585266,-8.561496525281571,-44.0383190883191,30.36891604516728,34.17878216072124,33.50786234162997,1577396654.0,-27.711535507355684,-51.10627968208913,23.86969
122416,1577396654.58,0.5293579870605468,-0.5969941839599608,12.075934188537596,2.263922052746284,-1.46455067406631,12.259246822599083,-1.099907643636067,1.6116967508951816,9.15143681233724,-0.2498626708984375,1.6870498657226562,0.275421142578125,8.444065000952744,-2.992769566977896,0.1390038467035061,-2.1651131766183034,21.67692638578869,-1.297360374813988,-1.686236362017612,-24.116282787153324,0.7297809829059857,32.19300846266308,-5.626126288042175,-61.90292022792025,30.48872315571929,34.17878216072124,33.41201665318837,1577396654.0,-27.711535507355684,-51.10627968208913,23.86969
122417,1577396654.59,0.416830509033203,0.3343502618408203,11.070369491271972,0.3557433296017525,3.558484408941501,7.25057694955221,-1.3321452046712234,2.0450472513834628,6.5273917928059895,-0.5245208740234375,0.9851455688476562,0.519561767578125,-4.647976014672256,8.817533167397103,1.1155663467035062,2.5345938546316966,5.563645135788691,-1.236325218563988,-1.5256424227778391,-23.546606815803248,0.1824452457264983,31.61298147210978,-8.153806214553878,-61.48746438746439,30.392877467277685,33.939167939617214,33.41201665318837,1577396654.0,-27.711535507355684,-51.10627968208913,23.86969
122418,1577396654.6,0.1941697546386718,0.647990679321289,9.61589198272705,-0.8317806938357464,0.970352414312595,7.738994088224085,0.0205787333170569,-1.7377913716634108,5.078899788411459,-0.1888275146484375,0.9393692016601562,0.534820556640625,4.415744688452744,4.819730433022103,-0.0135840439214938,1.0392325265066966,-12.13655017671131,-1.663571312313988,-2.4089090885965883,-23.071876839678172,0.456113114316242,33.15972011358526,-5.870740474478792,-61.48746438746439,30.36891604516728,34.370473537604454,33.41201665318837,1577396654.0,-27.711535507355684,-51.10627968208913,23.86969
122419,1577396654.61,0.6993463049316406,1.0550049615478514,5.95156634185791,-0.0632419609255907,-0.0795050136659201,8.821173238614708,-0.4522760945638019,-2.6092807759602863,10.72203310139974,-0.5550384521484375,1.7786026000976562,0.122833251953125,-1.2910424209222562,-1.3905967154153964,0.3068505263910062,-1.4021737234933034,-8.68806384858631,1.342410132998512,-3.45276969365511,-25.44552672030351,-0.5473357371794875,32.869706618308605,-5.9930475676971,-105.73351139601144,30.05741755773205,34.058975050169224,33.36409380896757,1577396654.0,-27.711535507355684,-51.10627968208913,23.86969
122420,1577396654.62,1.192551846923828,-0.8795099798583984,6.370551632385253,0.4227809760861275,0.932045187750095,9.321561385587367,-0.9969569722493484,2.595713633219401,10.4945839436849,-0.1583099365234375,1.839637756347656,0.641632080078125,0.845188047827744,2.561429651772104,1.6954003310785062,-2.2566659109933034,4.983811151413691,2.364749000186012,-3.45276969365511,-25.44552672030351,-0.5473357371794875,30.646269821187605,-8.07226815240834,-4.570014245014259,30.392877467277685,34.08293647227963,33.36409380896756,1577396654.0,-27.711535507355684,-51.10627968208913,23.86969
122421,1577396654.63,0.9938331091308592,0.226611187133789,11.108676717834472,2.3956031440548773,0.4675700656797824,7.84433896127096,0.2073264628092444,0.1823583597819003,12.151371492513023,2.3441314697265625,1.839637756347656,0.733184814453125,-1.046901795922256,-0.5513633169778964,0.2305565810785061,-1.5852791922433034,6.448654901413691,0.7473173595610119,-2.9709878759357924,-22.976930844453165,0.0,55.78077274516421,-8.07226815240834,-7.8936609686609795,30.249108934615272,34.08293647227963,33.41201665318837,1577396654.0,-27.711535507355684,-51.10627968208913,23.86969
122422,1577396654.64,0.2372653845214843,0.2948459344482422,12.45062674835205,1.4882007148556589,0.3023701511290012,12.613588668302208,-0.4438963887532545,2.1360269144694004,12.53683795979818,1.8253326416015625,2.327919006347656,0.611114501953125,2.462619688452744,6.650785120522103,-0.1356543564214938,0.4288809640066966,9.80558849516369,0.6862822033110119,-2.248315149356816,-22.312308877878078,1.0034488514957256,55.78077274516421,-8.07226815240834,-7.8936609686609795,30.32099320094648,34.08293647227963,33.36409380896756,1577396654.0,-27.711535507355684,-51.10627968208913,23.86969
122423,1577396654.65,-0.0524330163574208,-0.5993883856201171,11.266694027404784,1.124282062511909,0.3227208652403298,12.820687111905723,-0.5815629842122395,0.5211378946940102,11.672531160481771,0.1468658447265625,1.992225646972656,0.214385986328125,1.837009336890244,-1.9704306997903964,0.6272850967035062,-4.179273332868304,11.89604259672619,-1.480465843563988,-2.16801817973693,-22.02747089220304,0.1824452457264983,30.646269821187605,-8.561496525281571,-41.96103988603989,30.48872315571929,34.17878216072124,33.45993949740917,1577396654.0,-27.711535507355684,-51.10627968208913,23.86969
122424,1577396654.66,0.7376535314941406,0.3439270684814453,10.103112020568847,-0.5803895195193403,-0.408707741937404,12.845826229337366,-0.3122152974446608,-0.4401340718587236,7.602388338216146,-0.2803802490234375,1.961708068847656,0.214385986328125,-0.558620545922256,10.465482386147103,-0.5629004501714938,2.2904532296316966,3.67155529203869,2.151125953311012,-2.16801817973693,-22.02747089220304,0.1824452457264983,30.646269821187605,-8.724572649572648,-2.0772792022792146,30.05741755773205,34.08293647227963,33.31617096474676,1577396654.0,-27.711535507355684,-51.10627968208913,23.86969
122425,1577396654.67,0.4192247106933593,0.3008314385986328,9.528503622131346,1.3206065986447213,0.797969894781345,8.586541475919397,0.0947989847819006,3.167927829996745,6.50823817952474,-0.0057220458984375,1.7175674438476562,0.458526611328125,1.333469297827744,2.103665979897104,0.8409081435785062,0.9171622140066966,-8.96272205171131,0.4726591564360119,-2.16801817973693,-23.546606815803248,1.6420072115384623,33.73974710413857,-8.07226815240834,-61.90292022792025,30.201186090394465,33.939167939617214,33.31617096474676,1577396654.0,-27.711535507355684,-51.10627968208913,23.86969
122426,1577396654.68,0.5221753820800782,0.926915172729492,6.740455788879394,0.2084999275021431,0.712975735845798,7.399017452481899,-0.2427834493001301,0.442129239908854,9.47585113728841,-0.2346038818359375,2.449989318847656,0.397491455078125,2.248996641577744,-1.1006797232278964,0.7340966201410062,1.3291495186941966,-7.14692615327381,-0.3055390857514881,-2.890690906315906,-24.40112077282836,0.2736678685897474,32.19300846266309,-7.093811406661874,-75.19750712250715,30.201186090394465,34.01105220594842,33.148441009973936,1577396654.0,-27.711535507355684,-51.10627968208913,23.86969
122427,1577396654.69,0.5580884069824218,-0.1468842718505849,8.604341781311033,-1.04007623826934,-1.002469753656154,9.862650960782675,-1.6122667989095043,-0.9309454121907548,9.211291853841146,0.2689361572265625,2.205848693847656,0.183868408203125,-6.967311952172256,10.190824183022103,-0.3187598251714938,1.9852774483816968,-1.2722923642113095,1.235598609561012,-1.686236362017612,-24.116282787153324,0.3648904914529966,31.419639141925344,-7.419963655244028,4.570014245014226,30.392877467277685,34.22670500494204,33.41201665318837,1577396654.0,-27.711535507355684,-51.10627968208913,23.86969
122428,1577396654.7,0.4575319372558593,0.2385821954345703,11.010514449768063,2.546437848644721,1.307934848394626,8.392611141446741,-0.362493532307942,-2.4608402730305987,7.997431612141927,1.9474029541015625,2.297401428222656,0.641632080078125,1.119846250952744,2.836087854897104,1.0240136123285062,1.2223379952566966,-6.338210332961309,1.662844703311012,-1.686236362017612,-24.116282787153324,0.3648904914529966,34.51311642487631,-4.810745666586787,5.400925925925918,30.201186090394465,34.27462784916285,33.41201665318837,1577396654.0,-27.711535507355684,-51.10627968208913,23.86969
122429,1577396654.71,0.4264073156738281,0.6910863092041014,11.003331844787596,-0.3026621269412152,0.8147293064024388,11.710974642423302,0.2121148661295569,0.3882597025553378,11.916739729817712,1.2760162353515625,2.938270568847656,0.489044189453125,5.422824766577744,-1.9551719107278964,1.0850487685785062,-2.6839120047433034,-4.171462286086309,1.510256812686012,-2.649799997456247,-22.976930844453165,-1.094671474358975,32.19300846266308,-5.463050163751098,-4.570014245014259,30.34495462305688,34.17878216072124,33.36409380896756,1577396654.0,-27.711535507355684,-51.10627968208913,23.86969
122430,1577396654.72,-0.3145980981445302,-0.2845508673095703,10.463439370422362,-0.5277170829959027,0.7704365756895485,11.855823842862756,-0.8401367635091139,2.0677921671549475,12.512895943196618,0.0095367431640625,1.7786026000976562,0.183868408203125,-1.825100038109756,4.178861292397103,-0.7307471298589938,0.1694815499441966,0.8791968936011905,-0.0919160388764881,-2.248315149356816,-22.12241688742805,0.8210036057692349,33.256391278677484,-7.94996105919003,-86.20708689458691,30.249108934615272,33.98709078383802,33.45993949740917,1577396654.0,-27.711535507355684,-51.10627968208913,23.86969
122431,1577396654.73,0.6035782385253906,0.4899733697509765,12.205221078186034,0.0468913154415962,0.5920685520079074,11.18903868050924,-0.3529167256673171,-0.8040527242024736,10.983001082356774,1.0929107666015625,1.900672912597656,0.214385986328125,-3.152614686547256,5.613187464272103,0.1084862685785061,3.5416739327566966,-0.4483177548363095,0.6252470470610119,-3.131581815175565,-22.02747089220304,0.5473357371794949,30.646269821187605,-8.724572649572648,-61.90292022792025,30.34495462305688,34.17878216072124,33.36409380896756,1577396654.0,-27.711535507355684,-51.10627968208913,23.86969
122432,1577396654.74,0.1031900915527343,0.7796717706298827,11.31936646392822,1.6414296211056587,0.27124552954697,7.442113082364711,-0.9897743672688796,-0.981223647054036,10.8393489827474,-0.1277923583984375,2.511024475097656,0.397491455078125,6.826633360327744,-3.328462926352896,1.2681542373285062,1.5885489327566966,-3.5916283017113093,0.6252470470610119,-3.131581815175565,-22.02747089220304,0.5473357371794949,56.94082672627082,-8.724572649572648,-60.241096866096896,30.34495462305688,33.939167939617214,33.50786234162997,1577396654.0,-27.711535507355684,-51.10627968208913,23.86969
122433,1577396654.75,0.6155492468261718,0.6455964776611327,8.537304134826659,1.0189371894650336,1.193013168707126,6.503586031583461,-1.540440749104817,0.9413202860514316,10.537679573567711,0.0858306884765625,1.6717910766601562,0.748443603515625,3.195041563452744,-4.762789098227897,0.9019432998285062,0.9476797921316966,0.4977271670386905,0.0148954845610119,-2.730096967076133,-23.071876839678183,1.3683393429487185,56.94082672627082,-8.724572649572648,-60.241096866096896,30.440800311498485,34.08293647227963,33.55578518585078,1577396654.0,-27.711535507355684,-51.10627968208913,23.86969
122434,1577396654.76,0.2372653845214843,0.6982689141845703,10.514914706115722,-0.1889375480837938,0.6962163242247044,8.56619076180807,0.6239175516764324,0.1225033182779946,8.6666109761556,0.5741119384765625,1.931190490722656,0.275421142578125,-0.9095726943597562,2.118924768959604,-0.4408301376714938,0.1847403390066966,3.3511207217261907,-0.931149437313988,-2.4892060582164746,-24.30617477760335,-0.1824452457264983,30.83961215137204,-8.072268152408338,-58.57927350427352,30.249108934615272,34.058975050169224,33.43597807529876,1577396654.0,-27.711535507355684,-51.10627968208913,23.86969
122435,1577396654.77,0.7568071447753907,0.025498247680664,8.302672372131347,-0.625879351062309,-0.523629421624904,9.012709371427212,-0.2284182393391921,-0.9070033955891924,7.564081111653646,-0.3108978271484375,2.511024475097656,0.092315673828125,1.211398985327744,9.153226526772103,-0.8070410751714938,-1.3106209891183034,0.3451392764136905,1.205081031436012,-3.2921757544153376,-23.73649880625328,1.4595619658119638,32.57969312303195,-8.724572649572648,-1.2463675213675387,30.392877467277685,34.17878216072124,33.17240243208434,1577396654.0,-27.711535507355684,-51.10627968208913,23.86969
122436,1577396654.78,1.0680533605957032,0.1619677423095703,7.936359518127441,1.7563513007931588,0.63516418189072,8.30402568002096,0.3677379740397131,3.00512211710612,11.18890242513021,-1.2264251708984375,2.755165100097656,0.061798095703125,-1.779323670922256,0.6083046517721036,0.8409081435785062,2.9618399483816966,-0.8450462704613095,2.456301734561012,-3.2921757544153376,-23.73649880625328,1.4595619658119638,32.57969312303195,-8.724572649572648,-1.2463675213675387,30.009494713511245,33.939167939617214,33.31617096474676,1577396654.0,-27.711535507355684,-51.10627968208913,23.86969
122437,1577396654.79,0.2707842077636724,0.2218227838134765,11.06438398712158,-1.1119022880740277,1.525807199468845,8.260930050138148,-0.5707890767415358,2.885412034098308,11.47620662434896,0.6198883056640625,2.648353576660156,0.214385986328125,7.467502500952744,-12.788912145102897,1.0545311904535062,1.3444083077566966,0.4977271670386905,1.693362281436012,-3.2118787847954517,-23.641552811028262,1.0034488514957294,32.57969312303195,-8.724572649572648,-1.2463675213675387,30.201186090394465,34.08293647227963,33.36409380896756,1577396654.0,-27.711535507355684,-51.10627968208913,23.86969
122438,1577396654.8,0.1319205114746093,-0.2546233465576171,11.980166122131347,2.0891453315548776,-0.2028063991639669,10.177488479093224,0.4814625528971351,1.1065202006022128,11.856884688313803,0.5741119384765625,3.426551818847656,0.122833251953125,0.2195776962652438,0.8066689095846034,0.7798729873285062,-1.7378670828683034,2.4966285342261907,0.304812476748512,-2.649799997456247,-24.116282787153324,0.7297809829059857,33.06304894849304,-7.949961059190031,-40.50694444444445,30.249108934615272,34.058975050169224,33.55578518585078,1577396654.0,-27.711535507355684,-51.10627968208913,23.86969
122439,1577396654.81,0.5580884069824218,0.2960430352783203,10.258735128479003,-1.2890732109255902,1.3318768649961883,8.359092318204555,2.1059283793131507,-0.9477048238118486,7.362968172200521,0.0858306884765625,2.877235412597656,0.153350830078125,5.117648985327744,4.697660120522103,0.6578026748285062,0.6425040108816966,-2.8592064267113093,0.4421415783110119,-2.9709878759357924,-22.59714686355312,1.824452457264953,33.73974710413857,-6.115354660915408,-0.4154558404558628,30.249108934615272,34.22670500494204,33.41201665318837,1577396654.0,-27.711535507355684,-51.10627968208913,23.86969
122440,1577396654.82,0.0026336218261718,0.571376226196289,9.91636429107666,-0.1398564140505902,-0.7965684108827165,10.841879439786585,-0.9011889058430984,1.2094708719889316,7.365362373860677,-1.2874603271484375,3.151893615722656,0.153350830078125,0.662082579077744,8.542874964272103,-0.8680762314214938,0.8256094796316966,-11.52619861421131,-1.266842796688988,-2.9709878759357924,-22.59714686355312,1.824452457264953,30.646269821187605,-8.07226815240834,37.80648148148147,30.05741755773205,34.27462784916285,33.55578518585078,1577396654.0,-27.711535507355684,-51.10627968208913,23.86969
122441,1577396654.83,0.4467580297851562,0.9149441644287108,7.347385909729003,2.4219393623165963,1.7628331638243135,12.129959932950646,-1.1813105000813795,-1.3427480977376296,9.53450907796224,-2.019882202148437,2.938270568847656,-0.273895263671875,-9.958034608422256,11.777738245522103,0.7493554092035062,0.8256094796316966,-10.30549548921131,-0.6870088123139881,-2.1680181797369293,-22.976930844453165,1.0946714743589747,30.646269821187605,-8.07226815240834,-68.55021367521368,30.32099320094648,34.03501362805883,33.41201665318837,1577396654.0,-27.711535507355684,-51.10627968208913,23.86969
122442,1577396654.84,0.5389347937011718,0.236187993774414,7.78313061187744,-0.6270764518923876,0.141958639898533,5.056291128019007,-0.3529167256673176,-0.5861803731282552,8.701326900227864,-0.2193450927734375,3.334999084472656,0.031280517578125,2.996677305640244,0.7151161752096036,0.4441796279535062,0.5051749093191966,-1.287551153273809,0.838870093936012,-2.16801817973693,-23.16682283490319,0.5473357371794949,31.61298147210978,-8.072268152408338,-44.869230769230775,30.05741755773205,33.98709078383802,33.36409380896757,1577396654.0,-27.711535507355684,-51.10627968208913,23.86969
122443,1577396654.85,0.8022969763183594,-0.1301248602294911,9.79426000640869,2.939086920910346,1.6503056857969698,8.481196602872522,1.370908469645182,-1.1655771748860673,8.124324300130208,0.0858306884765625,2.877235412597656,0.061798095703125,0.387424375952744,11.625150354897103,1.0240136123285062,-0.6697518484933034,-1.5164329892113095,1.784915015811012,-3.773957572134656,-25.06574273940345,2.006897702991451,56.16745740553308,-4.810745666586787,-8.724572649572671,30.201186090394465,33.891245095396414,33.22032527630515,1577396654.0,-27.711535507355684,-51.10627968208913,23.86969
122444,1577396654.86,0.7472303381347656,0.5402516046142578,10.112688827209473,1.2344153388790962,-1.711153445062404,9.13481365609518,0.2671815043131507,1.5757837259928378,9.599152522786458,-1.2569427490234375,3.029823303222656,0.031280517578125,-0.3449974990472559,2.775052698647104,1.4207421279535062,-3.0501229422433034,-2.9507591610863093,0.5336943126860119,-2.3286121189767024,-22.976930844453165,0.0,56.16745740553308,-4.810745666586787,-8.724572649572671,30.249108934615272,34.17878216072124,33.50786234162997,1577396654.0,-27.711535507355684,-51.10627968208913,23.86969
122445,1577396654.87,0.0158017309570317,0.4145560174560547,9.860100552062988,-1.202881951159965,1.5329898044493135,11.08010250497213,-0.4163630696614582,0.5785987345377598,11.690487672932946,-0.8449554443359375,3.151893615722656,-0.121307373046875,-2.618557069359756,-1.6042197622903966,0.5204735732660062,-1.7531258719308034,2.8628394717261907,-0.091916038876488,-2.569503027836361,-22.692092858778125,0.6385583600427366,34.706458755060744,-8.072268152408338,-81.84480056980058,30.32099320094648,34.130859316500434,33.45993949740917,1577396654.0,-27.711535507355684,-51.10627968208913,23.86969
122446,1577396654.88,0.5365405920410156,0.188303960571289,12.29141233795166,1.0452734077267525,-0.0471832912538102,14.71330352425924,0.0062135233561194,0.1440511332194003,7.3150841389973955,-0.9212493896484376,3.334999084472656,-0.243377685546875,0.448459532202744,-2.931734410727896,-0.3797949814214938,-4.942212785993304,-0.1126243954613094,-0.015622093563988,-2.81039393669602,-24.30617477760335,2.006897702991451,55.394088084795335,-6.60458303378864,-7.062749287749304,30.249108934615272,34.27462784916285,33.50786234162997,1577396654.0,-27.711535507355684,-51.10627968208913,23.86969
122447,1577396654.89,0.0816422766113281,0.398993706665039,10.59152915924072,3.200054901867377,0.4555990573790012,6.917782918790492,-0.965832350667317,1.2669317118326815,8.811460176595052,-2.691268920898437,3.365516662597656,-0.334930419921875,-3.274684999047256,-0.2461875357278963,-0.2882422470464938,3.0533926827566966,-8.23030017671131,-0.4733857654389881,-2.9709878759357924,-23.73649880625328,0.7297809829059857,32.96637778340082,-8.561496525281571,-7.8936609686609795,30.201186090394465,33.939167939617214,33.50786234162997,1577396654.0,-27.711535507355684,-51.10627968208913,23.86969
122448,1577396654.9,0.1594538305664067,0.2529474053955078,6.89009339263916,-1.8253743828005904,-0.0328180812928727,8.62963710580221,-0.735988991292317,0.2015119730631503,7.786741866048177,-3.332138061523437,2.953529357910156,-0.151824951171875,3.317111875952744,1.1271034798971036,1.5428124404535062,-2.8059823172433034,-12.16706775483631,-0.4428681873139881,-3.131581815175565,-23.546606815803248,0.912226228632484,32.96637778340082,-8.561496525281571,-7.8936609686609795,30.36891604516728,34.08293647227963,33.55578518585078,1577396654.0,-27.711535507355684,-51.10627968208913,23.86969
122449,1577396654.91,-0.3588908288574208,0.6695384942626952,9.164584969787596,-0.8078386772341845,0.7824075839903294,7.52591014047018,0.7747522562662756,-0.5526615498860677,10.682528774007164,0.3604888916015625,2.022743225097656,0.275421142578125,-3.137355897484756,2.424100550209604,-0.3492774032964938,0.5509512765066966,-0.3720238095238093,0.7625761486235119,-2.16801817973693,-22.78703885400314,1.2771167200854732,33.3530624437697,-8.561496525281571,-5.400925925925943,30.201186090394465,34.011052205948424,33.48390091951957,1577396654.0,-27.711535507355684,-51.10627968208913,23.86969
122450,1577396654.92,0.4407725256347656,-0.2163161199951171,9.779894796447753,1.8952149970822207,-0.6696757228944352,9.07017021127096,-0.3984065572102858,1.9827980082194003,8.658231270345052,-0.3414154052734375,2.907752990722656,0.336456298828125,3.408664610327744,-4.152437535727897,0.8409081435785062,-0.8833748953683034,3.79362560453869,2.273196265811012,-2.9709878759357924,-24.49606676805337,2.18934294871795,34.31977409469187,-8.316882338844954,-4.985470085470089,30.201186090394465,33.939167939617214,33.50786234162997,1577396654.0,-27.711535507355684,-51.10627968208913,23.86969
122451,1577396654.93,0.4599261389160156,0.571376226196289,8.63307220123291,-0.0392999443240277,0.67347140845322,6.247406453946741,1.083604270426432,1.2741143168131503,8.186573543294271,-1.4705657958984375,3.182411193847656,0.000762939453125,-4.892116639672256,-1.7415488638528964,1.6648827529535062,-0.3645760672433034,-2.3098900204613093,0.2895536876860119,-3.613363632894883,-24.116282787153324,0.7297809829059857,35.28648574561405,-8.316882338844954,-4.985470085470089,30.34495462305688,34.08293647227963,33.50786234162997,1577396654.0,-27.711535507355684,-51.10627968208913,23.86969
122452,1577396654.94,-0.1422155786132812,-0.1720233892822265,9.746375973205565,-1.7128469047732464,0.90331476782822,8.574570467618617,0.7268682230631507,2.509522373453776,10.231221761067712,-2.874374389648437,1.6107559204101562,-0.579071044921875,-1.626735780297256,-1.7720664419778964,-0.1356543564214938,-1.920972551618304,-4.385085332961309,-0.2597627185639881,-3.2921757544153376,-22.59714686355312,1.824452457264953,35.28648574561405,-8.398420400990494,-76.85933048433051,30.273070356725672,34.08293647227963,33.55578518585078,1577396654.0,-27.711535507355684,-51.10627968208913,23.86969
122453,1577396654.95,0.2133233679199218,0.1356315240478515,11.254723019104002,1.0644270210080025,0.0629499851133767,12.32628446908346,-0.1134965596516925,0.4971958780924477,13.409524464925132,-0.5245208740234375,1.931190490722656,-0.273895263671875,-3.808742616234756,1.1728798470846036,0.3678856826410062,-2.4702889578683034,7.59306408110119,0.3963652111235118,-2.4892060582164746,-23.16682283490319,1.2771167200854732,33.73974710413857,-8.235344276699417,-77.27478632478633,30.249108934615272,34.08293647227963,33.48390091951957,1577396654.0,-27.711535507355684,-51.10627968208913,23.86969
122454,1577396654.96,0.5628768103027343,0.6025008477783202,11.056004281311036,-0.3912475883669965,2.062108371343845,8.414158956388148,0.5784277201334631,2.143209519449869,8.636683455403645,0.2384185791015625,1.900672912597656,0.031280517578125,0.967258360327744,2.683499964272104,1.0240136123285062,-0.1204354422433033,6.784348260788691,-0.3818330310639881,-3.45276969365511,-21.267902930402933,2.371788194444441,32.19300846266308,-5.463050163751098,-2.908190883190908,30.392877467277685,34.08293647227963,33.50786234162997,1577396654.0,-27.711535507355684,-51.10627968208913,23.86969
122455,1577396654.97,-0.0572214196777333,0.1069011041259765,10.86686235015869,1.0740038276486277,1.3510304782774385,11.251287923673305,0.2312684794108069,1.2477780985514315,8.696538496907552,-0.9212493896484376,1.2598037719726562,-0.121307373046875,-0.3755150771722559,6.681302698647103,0.2305565810785061,1.3444083077566966,8.18815685453869,-0.015622093563988,-1.8468303012573843,-23.16682283490319,0.912226228632484,32.19300846266308,-5.463050163751098,-2.908190883190908,30.392877467277685,34.03501362805883,33.36409380896756,1577396654.0,-27.711535507355684,-51.10627968208913,23.86969
122456,1577396654.98,0.2157175695800781,0.3726574884033208,9.796654208068846,-0.96346178514434,0.146747043218845,10.83230263314596,-1.6601508321126297,2.9141424540201823,9.795477058919271,-1.1348724365234375,1.458168029785156,-0.197601318359375,3.286594297827744,-15.504976598227897,-0.4713477157964938,-3.3858163016183034,3.3663795107886907,-2.273922874813988,-3.2921757544153376,-24.875850748953425,1.824452457264953,32.19300846266308,-8.724572649572648,-72.70477207977208,30.22514751250487,34.17878216072124,33.65163087429239,1577396654.0,-27.711535507355684,-51.10627968208913,23.86969
122457,1577396654.99,0.301908829345703,0.5881356378173828,8.317037582092285,0.7986706367306586,0.548972922125095,8.426129964688927,-1.8313362508138016,-2.171141872151692,7.90645194905599,-1.3790130615234375,2.266883850097656,-0.334930419921875,2.004856016577744,1.4627968392721036,0.8714257217035062,-1.7378670828683036,-1.226515997023809,-1.327877952938988,-3.2921757544153376,-23.35671482535321,1.094671474358975,32.289679627755305,-8.194575245626647,-6.439565527065542,30.249108934615272,34.10689789439003,33.579746607961184,1577396654.0,-27.711535507355684,-51.10627968208913,23.86969
122458,1577396655.0,0.5844246252441406,-0.7526172918701172,9.23880522125244,-0.7168590141482464,0.5777033420469699,9.19227449593893,0.4730828470865881,-1.5893508687337234,8.789912361653645,-0.7076263427734375,1.5954971313476562,-0.090789794921875,-3.793483827172256,4.575589808022103,1.0240136123285062,1.5580313546316966,-0.8145286923363095,2.334231422061012,-3.2921757544153376,-22.59714686355312,2.9191239316239352,32.19300846266308,-7.093811406661874,-5.400925925925935,30.201186090394465,34.27462784916285,33.36409380896756,1577396655.0,-27.711666109319875,-51.10608549153071,24.005302
122459,1577396655.01,0.4240131140136718,-0.1277306585693349,10.170149667053222,2.0005598701290963,0.4603874606993137,8.708645760587366,-1.269895961507161,2.009134226481119,9.608729329427083,0.9708404541015624,0.8325576782226562,-0.029754638671875,4.873508360327744,-3.481050816977896,0.0169335342035061,3.3280508858816966,-2.5845482235863093,2.029055640811012,-2.3286121189767024,-23.35671482535321,1.824452457264953,32.19300846266308,-7.093811406661874,-5.400925925925935,30.392877467277685,34.08293647227963,33.50786234162997,1577396655.0,-27.711666109319875,-51.10608549153071,24.005302
122460,1577396655.02,-0.2703053674316396,0.3331531610107421,9.667367318420409,0.4958041267208931,0.6231931735899388,9.634004702237757,0.3282336466471355,0.0039903361002602,10.881247511800131,0.0553131103515625,1.1072158813476562,-0.197601318359375,-3.885036561547256,5.170682581459603,-0.3645361923589938,0.8561270577566967,-0.5093529110863094,-0.275021507626488,-2.9709878759357924,-24.116282787153324,0.7297809829059857,33.06304894849305,-8.520727494208803,-86.62254273504277,30.17722466828406,33.91520651750682,33.45993949740917,1577396655.0,-27.711666109319875,-51.10608549153071,24.005302
122461,1577396655.03,0.3402160559082031,-0.1229422552490224,9.772712191467283,0.1857550117306587,0.2281498996641575,10.798783809903773,1.5983576273600255,1.192711460367838,8.41641690266927,-0.4329681396484375,0.9546279907226562,-0.182342529296875,0.509494688452744,3.782132776772104,-0.3797949814214938,2.9008047921316966,-0.6619408017113095,-0.9006318591889881,-2.81039393669602,-23.16682283490319,0.5473357371794949,33.73974710413857,-8.561496525281571,-2.0772792022792146,30.392877467277685,33.939167939617214,33.65163087429239,1577396655.0,-27.711666109319875,-51.10608549153071,24.005302
122462,1577396655.04,-0.3181894006347646,0.312802446899414,10.888410165100096,-0.4750446464724652,1.3294826633360324,9.407752645352993,0.5640625101725256,0.3667118876139316,9.97025378011068,0.0553131103515625,-0.0524520874023437,-0.212860107421875,2.401584532202744,-1.2837851919778964,0.6272850967035062,1.0087149483816966,-8.23030017671131,-0.5954560779389881,-2.9709878759357924,-24.116282787153324,0.3648904914529966,32.19300846266308,-8.561496525281571,-71.87386039886043,30.34495462305688,34.17878216072124,33.55578518585078,1577396655.0,-27.711666109319875,-51.10608549153071,24.005302
122463,1577396655.05,0.2181117712402343,0.820373198852539,9.071211105041504,1.8688787788205024,-0.1142209377381852,9.912929195645958,-2.064770912679036,0.4169901224772129,9.038909334309896,-1.2264251708984375,0.1001358032226562,-0.334930419921875,1.363986875952744,2.988675745522104,-0.4713477157964938,-0.2119881766183033,-6.063552129836309,0.1369657970610119,-2.81039393669602,-23.9263907967033,0.912226228632484,32.19300846266308,-8.561496525281571,-71.87386039886043,30.249108934615272,34.17878216072124,33.50786234162997,1577396655.0,-27.711666109319875,-51.10608549153071,24.005302
122464,1577396655.06,0.1750161413574223,0.0889445916748051,7.920797207336425,-0.3421664543337938,0.4591903598692361,8.463240090421351,-0.3229892049153645,-0.0798067220052084,8.898848537190755,-0.4634857177734375,-0.0066757202148437,-0.182342529296875,0.341648008765244,-3.6336387076028966,0.0169335342035061,1.5275137765066966,0.0094459170386905,-1.327877952938988,-2.9709878759357924,-23.73649880625328,0.7297809829059857,30.646269821187605,-7.990730090262799,-44.45377492877496,30.297031778836075,34.01105220594842,33.43597807529876,1577396655.0,-27.711666109319875,-51.10608549153071,24.005302
122465,1577396655.07,0.1534683264160156,0.1547851373291015,9.882845467834471,0.3940505561642525,-0.3991309352967789,10.477960787442834,-0.3433399190266921,-0.8806671773274736,8.505002364095052,-0.5245208740234375,-0.3881454467773437,-0.212860107421875,-2.969509217797256,9.458402308022103,-0.9901465439214938,0.6119864327566966,-1.7910911923363095,1.662844703311012,-2.9709878759357924,-22.976930844453165,1.824452457264953,31.22629681174091,-8.64303458742711,0.0,30.249108934615272,34.08293647227963,33.41201665318837,1577396655.0,-27.711666109319875,-51.10608549153071,24.005302
122466,1577396655.08,0.4718971472167968,0.0709880792236328,8.621101192932128,2.0819627265744085,-1.2969565578553728,11.823502120450646,1.3876678812662755,1.9349139750162756,9.58478731282552,0.5741119384765625,0.2832412719726562,-0.304412841796875,1.272434141577744,-1.8331015982278964,1.6343651748285062,1.1002676827566966,-6.185622442336309,2.029055640811012,-3.934551511374428,-24.116282787153324,0.3648904914529966,30.83961215137204,-7.338425593098489,-3.323646723646737,30.249108934615272,34.27462784916285,33.55578518585078,1577396655.0,-27.711666109319875,-51.10608549153071,24.005302
122467,1577396655.09,-0.058418520507812,0.437300933227539,9.275915346984862,0.5544620673947213,2.380537192144626,5.689557467130335,-0.2763022725423171,3.134409006754557,11.11228797200521,-0.0972747802734375,-0.1287460327148437,-0.060272216796875,3.591770079077744,-4.518648473227897,-0.0135840439214938,0.5204336983816966,-3.3169700985863093,1.754397437686012,-3.2921757544153376,-22.976930844453165,1.6420072115384623,33.15972011358526,-7.338425593098489,-86.41481481481483,30.297031778836075,34.08293647227963,33.65163087429239,1577396655.0,-27.711666109319875,-51.10608549153071,24.005302
122468,1577396655.1,0.2181117712402343,-0.1995567083740234,11.79341839263916,-0.3266041435427783,-0.3081512722108415,12.29875114999166,1.4942098551432288,-0.1456472676595052,10.621476631673175,0.2994537353515625,-1.0290145874023438,-0.426483154296875,-1.260524842797256,-0.9480918326028964,-0.7765234970464938,-0.0136239188058033,-0.0973656063988095,-0.015622093563988,-3.2921757544153376,-21.83757890175301,2.18934294871795,30.83961215137204,-6.930735282370796,-45.70014245014247,30.201186090394465,33.84332225117561,33.48390091951957,1577396655.0,-27.711666109319875,-51.10608549153071,24.005302
122469,1577396655.11,0.0146046301269531,-0.0152031805419912,10.979389828186036,0.9016213081173774,-1.1892174831483415,8.79004861703268,-0.8748526875813796,1.8104154886881505,6.924829268391927,-0.4634857177734375,-0.2965927124023437,-0.060272216796875,1.760715391577744,-0.4598105826028963,0.7798729873285062,0.2457754952566966,-5.880446661086309,-0.2597627185639881,-2.81039393669602,-22.78703885400314,1.6420072115384623,33.73974710413857,-8.561496525281571,-5.400925925925935,30.05741755773205,34.08293647227963,33.41201665318837,1577396655.0,-27.711666109319875,-51.10608549153071,24.005302
122470,1577396655.12,0.2181117712402343,0.8514978204345702,8.170991280822753,-0.7479836357302777,2.62713996314072,7.971231649259241,0.0421265482584631,0.7880913798014316,7.626330354817708,-0.3414154052734375,-0.2660751342773437,0.122833251953125,7.284397032202744,-5.830904332602897,0.6272850967035062,5.983080182756696,-9.14582752046131,-2.395993187313988,-1.8468303012573843,-23.16682283490319,2.371788194444441,33.73974710413857,-8.561496525281571,-5.400925925925935,30.249108934615272,34.03501362805883,33.50786234162997,1577396655.0,-27.711666109319875,-51.10608549153071,24.005302
122471,1577396655.13,-0.067995327148437,0.2206256829833989,9.073605306701658,0.283917279797065,0.3478599826719699,5.802084945157679,-0.707258571370442,0.7282363382975253,8.72287471516927,-0.3414154052734375,-1.5630722045898438,0.092315673828125,-2.267604920922256,7.535794886147103,0.1084862685785061,4.090990339006696,-10.70222400483631,-0.992184593563988,-2.328612118976702,-23.546606815803244,0.7297809829059858,33.73974710413857,-8.561496525281571,-5.400925925925935,30.249108934615272,33.939167939617214,33.50786234162997,1577396655.0,-27.711666109319875,-51.10608549153071,24.005302
122472,1577396655.14,0.4240131140136718,0.8347384088134765,8.534909933166503,0.7495895026974561,0.2808223361875955,8.149599672940882,-0.2451776509602863,-0.2689486531575517,7.93757657063802,-0.8296966552734375,-1.2731552124023438,-0.121307373046875,-0.6501732802972561,-1.2532676138528964,-0.2577246689214938,1.3901846749441966,-10.64118884858631,0.503176734561012,-2.649799997456247,-23.35671482535321,0.3648904914529966,32.09633729757087,-6.726890127006948,-6.024109686609696,30.392877467277685,34.17878216072124,33.45993949740917,1577396655.0,-27.711666109319875,-51.10608549153071,24.005302
122473,1577396655.15,0.8238447912597656,-0.2498349432373046,7.857350863342284,-1.660174468249809,0.0174601535704075,4.695963778165492,0.1785960428873694,-1.057838100179036,8.567251607259115,-0.5550384521484375,-1.3341903686523438,0.000762939453125,-1.809841249047256,0.0895058236471036,0.4746972060785062,-1.4632088797433034,-7.284255254836309,3.677004859561012,-2.649799997456247,-23.35671482535321,0.3648904914529966,30.83961215137204,-4.729207604441249,0.0,30.201186090394465,34.03501362805883,33.50786234162997,1577396655.0,-27.711666109319875,-51.10608549153071,24.005302
122474,1577396655.16,0.7472303381347656,0.264918413696289,9.504561605529783,-0.8413575004763714,0.63516418189072,12.163478756192834,0.4371698221842444,2.5526180033365886,11.447476204427089,-0.1888275146484375,-1.0290145874023438,-0.273895263671875,-3.732448670922256,9.336331995522103,-1.2037695907964938,6.501879010881696,-3.835768926711309,1.571291968936012,-3.131581815175565,-22.78703885400314,0.912226228632484,30.83961215137204,-4.729207604441249,0.0,30.34495462305688,34.08293647227963,33.36409380896756,1577396655.0,-27.711666109319875,-51.10608549153071,24.005302
122475,1577396655.17,0.2468421911621093,0.5438429071044921,10.777079787902831,2.28546986768769,0.5082714939024386,11.47634287972799,-0.1278617696126296,-0.0379081929524736,12.699643672688804,-0.0057220458984375,-0.9984970092773438,-0.380706787109375,2.004856016577744,-4.579683629477897,-0.2272070907964938,-0.1814705984933033,4.312424432663691,0.5642118908110119,-2.730096967076133,-23.261768830128204,0.8210036057692349,31.61298147210978,-8.316882338844954,-78.93660968660973,30.297031778836075,34.08293647227963,33.41201665318837,1577396655.0,-27.711666109319875,-51.10608549153071,24.005302
122476,1577396655.18,0.5796362219238281,-0.0104147772216787,9.806231014709471,-0.2428070854373094,0.2245585971739236,8.983978951505334,0.8741116251627601,1.1819375528971348,9.2029121480306,-1.6536712646484375,-0.4491806030273437,-0.304412841796875,2.950900938452744,-3.1758750357278966,1.1308251357660062,-3.706250871930804,4.876999627976191,-2.167111351376488,-2.81039393669602,-23.546606815803248,1.2771167200854732,32.48302195793974,-8.276113307772185,-37.18329772079773,30.201186090394465,34.202743582831644,33.41201665318837,1577396655.0,-27.711666109319875,-51.10608549153071,24.005302
122477,1577396655.19,0.2205059729003906,0.217034380493164,9.41837034576416,1.8521193671994087,-0.1764701809022477,7.322402999356898,0.1402888163248694,0.1751757548014316,7.741252034505208,-3.087997436523437,-0.8459091186523438,-0.609588623046875,-8.706813905297256,5.765775354897103,-1.9972266220464936,1.8326895577566968,-6.795974004836309,-0.8701142810639881,-2.81039393669602,-23.546606815803248,1.2771167200854732,33.73974710413857,-8.724572649572648,-2.0772792022792146,30.34495462305688,34.17878216072124,33.36409380896756,1577396655.0,-27.711666109319875,-51.10608549153071,24.005302
122478,1577396655.2,0.4862623571777343,1.1028889947509763,8.211692709045408,-0.2452012870974652,0.0653441867735325,10.877792464688929,-0.4989630269368483,0.4289611307779941,8.988631099446614,-2.080917358398437,-1.2426376342773438,-0.609588623046875,5.331272032202744,-7.417818395102897,0.6883202529535062,-1.2190682547433034,-10.06135486421131,-0.8395967029389881,-2.649799997456247,-22.976930844453165,1.4595619658119638,33.73974710413857,-4.810745666586787,-68.55021367521368,30.201186090394465,34.22670500494204,33.50786234162997,1577396655.0,-27.711666109319875,-51.10608549153071,24.005302
122479,1577396655.21,0.5149927770996094,0.312802446899414,7.289925069885253,-0.1494332206912152,0.5417903171446268,5.560270577481898,0.4347756205240887,0.5007871805826817,9.286709206136068,-1.9588470458984373,-0.2508163452148437,-0.106048583984375,-2.877956483422256,-0.4292930044778966,0.6425438857660062,0.4136221749441966,-3.1338646298363093,-0.213986351376488,-3.0512848455556787,-23.451660820578237,0.6385583600427366,33.44973360886192,-8.357651369917724,-48.40060541310544,30.22514751250487,34.011052205948424,33.19636385419474,1577396655.0,-27.711666109319875,-51.10608549153071,24.005302
122480,1577396655.22,0.8022969763183594,-0.3025073797607421,9.28429505279541,0.8345836616330025,0.146747043218845,11.653513802579551,0.3342191507975256,-0.0498792012532548,7.635907161458333,-0.8907318115234375,-0.5712509155273438,-0.579071044921875,4.842990782202744,-7.722994176352897,0.9934960342035062,-8.604322160993304,0.8029029482886905,0.6252470470610119,-2.81039393669602,-23.16682283490319,1.2771167200854732,33.15972011358526,-8.64303458742711,-8.309116809116826,30.249108934615272,34.08293647227963,33.41201665318837,1577396655.0,-27.711666109319875,-51.10608549153071,24.005302
122481,1577396655.23,0.5772420202636718,0.188303960571289,10.83573772857666,0.6406533271603462,-1.5172231105897476,6.941724935392054,1.1099404886881508,0.5031813822428379,9.005390511067707,-0.8602142333984375,-0.6628036499023438,-0.518035888671875,-3.152614686547256,7.596830042397103,0.3526268935785062,1.0087149483816966,-4.232497442336309,1.449221656436012,-2.81039393669602,-23.16682283490319,1.2771167200854732,33.73974710413857,-8.561496525281571,-8.724572649572671,30.34495462305688,34.17878216072124,33.41201665318837,1577396655.0,-27.711666109319875,-51.10608549153071,24.005302
122482,1577396655.24,0.0684741674804692,0.188303960571289,9.981007735900878,0.8776792915158149,1.8083229953672824,8.964825338224086,-0.0727951314290358,-0.0929748311360673,11.70604998372396,-1.7147064208984375,-0.3576278686523437,-0.457000732421875,-3.000026795922256,-2.351900426352896,-0.0441016220464938,-5.094800676618304,-1.852126348586309,0.2285185314360119,-3.051284845555679,-22.31230887787808,0.821003605769231,33.73974710413857,-7.256887530952951,-83.50662393162395,30.22514751250487,33.891245095396414,33.41201665318837,1577396655.0,-27.711666109319875,-51.10608549153071,24.005302
122483,1577396655.25,0.1654393347167968,-0.4030638494873046,11.69046772125244,0.3892621528439405,-0.9725422329042016,9.736955373624475,1.4714649393717445,1.3351664591471346,11.94307594807943,-1.0433197021484375,-1.4257431030273438,-0.304412841796875,0.311130430640244,-0.4750693716653961,-0.2119483017339938,-1.6768319266183034,11.13310314360119,-0.778561546688988,-3.613363632894883,-22.217362882653063,1.094671474358975,32.289679627755305,-6.6453520648614095,-45.90787037037039,30.249108934615272,34.17878216072124,33.45993949740917,1577396655.0,-27.711666109319875,-51.10608549153071,24.005302
122484,1577396655.26,0.4096479040527343,-0.3886986395263671,10.648989999084472,0.3533491279415967,-0.3692034145448266,9.771072747281702,0.8340087473551431,0.2015119730631506,9.137071602376302,-2.050399780273437,-1.6088485717773438,-0.334930419921875,0.5094946884527439,-1.6118491568216462,-0.0669898056402438,-2.393995012555804,6.311325799851191,-0.8853730701264879,-3.613363632894883,-22.217362882653063,1.094671474358975,33.06304894849305,-7.134580437734643,-47.15423789173792,30.249108934615272,34.09491718333483,33.34013238685716,1577396655.0,-27.711666109319875,-51.10608549153071,24.005302
122485,1577396655.27,0.4036623999023437,0.3271676568603515,8.744402578430174,0.3174361030392529,0.2341354038145485,9.805190120938928,0.1965525553385418,-0.9321425130208334,6.331067256673177,-1.4705657958984375,-0.8153915405273438,-0.380706787109375,0.7078589462652438,-2.748628941977896,0.0779686904535061,-3.111158098493304,1.489548456101191,-0.992184593563988,-2.730096967076133,-22.69209285877813,1.0034488514957294,33.83641826923079,-7.623808810607875,-48.40060541310544,30.297031778836075,34.01105220594842,33.22032527630515,1577396655.0,-27.711666109319875,-51.10608549153071,24.005302
122486,1577396655.28,0.2348711828613281,0.9137470635986328,8.910799593811035,0.1354767768673775,-0.1740759792420915,6.84835107064596,0.2264800760904944,-1.2038844014485672,7.298324727376302,-2.050399780273437,-0.8459091186523438,-0.548553466796875,-3.091579530297256,-2.107759801352896,-0.2882422470464938,0.2152579171316966,-5.636306036086309,-1.022702171688988,-2.649799997456247,-22.59714686355312,1.4595619658119638,33.73974710413857,-7.419963655244028,-81.01388888888891,30.201186090394465,34.08293647227963,33.36409380896756,1577396655.0,-27.711666109319875,-51.10608549153071,24.005302
122487,1577396655.29,0.0960074865722656,0.312802446899414,9.605118075256346,-0.9754327934451212,1.7891693820860324,9.534645333341274,0.6885609965006507,1.022723142496744,7.853779512532552,-2.416610717773437,-1.2731552124023438,-0.457000732421875,-5.655056092797256,-1.9856894888528964,0.5357323623285062,-0.3035409109933034,-4.385085332961309,-0.9006318591889881,-2.649799997456247,-22.59714686355312,1.4595619658119638,31.419639141925344,-4.973821790877865,-2.0772792022792146,30.392877467277685,34.17878216072124,33.41201665318837,1577396655.0,-27.711666109319875,-51.10608549153071,24.005302
122488,1577396655.3,0.6418854650878907,-0.9489418280029296,8.736022872619628,1.5468586555294872,-0.7714292934510764,9.295225167325649,0.8178478861490882,0.0829989908854165,11.378044356282556,-2.050399780273437,-1.0290145874023438,-0.304412841796875,0.9977759384527438,2.561429651772104,1.2071190810785062,-1.6768319266183034,0.9707496279761906,1.693362281436012,-2.3286121189767024,-23.35671482535321,0.3648904914529966,31.032954481556477,-6.68612109593418,-3.739102564102575,30.48872315571929,34.08293647227963,33.45993949740917,1577396655.0,-27.711666109319875,-51.10608549153071,24.005302
122489,1577396655.31,0.301908829345703,-0.0726640203857421,10.79024789703369,1.2104733222775337,0.11801662329697,10.236146419767053,1.1674013285319007,4.673880674235026,10.77470553792318,-0.4940032958984375,-1.4410018920898438,-0.197601318359375,1.577609922827744,-6.288668004477897,0.0169335342035061,-3.721509660993304,6.326584588913691,-0.3818330310639881,-3.2921757544153376,-23.356714825353222,1.4595619658119714,33.3530624437697,-8.398420400990494,-8.724572649572671,30.32099320094648,34.17878216072124,33.41201665318837,1577396655.0,-27.711666109319875,-51.10608549153071,24.005302
122490,1577396655.32,0.2875436193847656,0.0374692559814453,10.646595797424316,-1.296255815906059,1.1642827487852512,11.62957178597799,0.3390075541178381,-1.0913569234212237,13.374808540852868,-0.7076263427734375,-1.7309188842773438,0.031280517578125,-6.997829530297256,3.385404261147104,1.0240136123285062,-3.2027108328683034,12.15544201078869,-1.205807640438988,-3.2921757544153376,-22.976930844453165,0.7297809829059857,32.96637778340082,-8.398420400990494,-8.724572649572671,30.249108934615272,33.84332225117561,33.41201665318837,1577396655.0,-27.711666109319875,-51.10608549153071,24.005302
122491,1577396655.33,0.1558625280761718,-0.0152031805419912,10.383233614807128,-1.497368755359184,-1.4884926906678726,12.853008834317832,-0.7096527730305983,0.3571350809733066,12.757104512532557,-1.0128021240234375,-1.1816024780273438,-0.243377685546875,5.331272032202744,-2.351900426352896,-1.0816992782964938,-3.0501229422433034,17.28239513578869,0.1980009533110119,-3.2921757544153376,-22.976930844453165,0.7297809829059857,31.419639141925344,-5.789202412333252,-4.985470085470089,30.201186090394465,34.08293647227963,33.41201665318837,1577396655.0,-27.711666109319875,-51.10608549153071,24.005302
122492,1577396655.34,0.2037465612792968,0.0302866510009765,10.421540841369628,1.199699414806831,1.1989986728575168,9.36226281381002,0.3725263773600262,1.470438852945963,6.778782967122396,-1.0738372802734375,-1.959800720214844,0.061798095703125,0.9977759384527438,0.8829628548971036,1.1155663467035062,0.4746573311941965,12.44535900297619,-1.449948265438988,-3.0512848455556787,-22.692092858778125,1.0034488514957294,33.73974710413857,-5.789202412333253,-0.4154558404558545,30.05741755773205,34.058975050169224,33.29220954263636,1577396655.0,-27.711666109319875,-51.10608549153071,24.005302
122493,1577396655.35,0.2755726110839843,0.3822342950439453,9.478225387268065,-0.9802211967654338,-1.5339825222108414,8.538657442716273,1.186554941813151,0.5630364237467441,3.929682991536458,-1.4400482177734375,-1.5783309936523438,0.092315673828125,-1.962429139672256,4.819730433022103,-1.8751563095464936,0.9781973702566966,-12.65534900483631,-2.182370140438988,-3.131581815175565,-23.16682283490319,1.6420072115384623,33.73974710413857,-5.463050163751098,-2.0772792022792146,30.249108934615272,34.03501362805883,33.31617096474676,1577396655.0,-27.711666109319875,-51.10608549153071,24.005302
122494,1577396655.36,0.0816422766113281,1.1699266412353515,6.820661544494628,0.2671578681759712,2.3374415622618137,9.465213485196742,-0.0273052998860671,-1.517524818929036,8.284735811360678,-1.3179779052734375,-1.2426376342773438,0.031280517578125,-0.3755150771722559,-7.600923863852897,0.7188378310785062,-1.4326913016183034,-17.75178455171131,0.4116240001860119,-2.649799997456247,-22.976930844453165,2.5542334401709463,33.73974710413857,-4.484593418004633,-82.67571225071227,30.201186090394465,34.27462784916285,33.41201665318837,1577396655.0,-27.711666109319875,-51.10608549153071,24.005302
122495,1577396655.37,0.3234566442871093,-1.0399214910888672,7.3258380947875965,-0.1853462455935589,-2.393500918206935,5.600972005704554,-0.7096527730305983,-1.7928580098470046,11.43789939778646,-1.8672943115234373,-1.5478134155273438,-0.151824951171875,2.615207579077744,3.141263636147104,0.5052147842035062,-1.890454973493304,-7.436843145461309,1.388186500186012,-2.649799997456247,-22.976930844453165,2.5542334401709463,30.646269821187605,-7.093811406661874,-5.400925925925935,30.392877467277685,33.939167939617214,33.41201665318837,1577396655.0,-27.711666109319875,-51.10608549153071,24.005302
122496,1577396655.38,0.3569754675292969,0.1416170281982421,12.18846166656494,1.3912355476193303,1.7592418613340792,9.106083236173305,-0.0488531148274738,1.5686011210123691,10.604717220052084,1.3065338134765625,-1.822471618652344,0.244903564453125,3.362888243140244,-12.575289098227897,0.0169335342035061,1.1918204171316966,0.9249732607886904,2.196902320498512,-2.730096967076133,-22.881984849228157,2.2805655715811985,31.322967976833127,-6.319199816279255,-48.40060541310544,30.36891604516728,34.058975050169224,33.26824812052595,1577396655.0,-27.711666109319875,-51.10608549153071,24.005302
122497,1577396655.39,0.6538564733886719,-0.1660378851318359,10.565192940979005,-0.4798330497927777,-1.033594375238185,11.722945650724084,0.0277613382975256,-1.6803305318196609,14.626976009114586,-1.2569427490234375,-1.2121200561523438,-0.151824951171875,-5.197292420922256,-3.908296910727896,-0.4713477157964938,3.8163321358816966,7.089524042038691,-0.076657249813988,-2.3286121189767024,-23.35671482535321,1.094671474358975,31.80632380229421,-7.419963655244028,-88.49209401709405,30.249108934615272,34.08293647227963,33.36409380896756,1577396655.0,-27.711666109319875,-51.10608549153071,24.005302
122498,1577396655.4,0.5125985754394531,-0.7837419134521485,9.557234042053222,2.0819627265744085,0.6710772067930637,12.366985897306115,-0.0704009297688796,2.38502388712565,12.335725020345055,-0.9212493896484376,-1.7614364624023438,-0.426483154296875,-3.793483827172256,1.981595667397104,-0.5018652939214938,3.3890860421316966,17.70964122953869,-0.8701142810639881,-2.9709878759357924,-22.976930844453165,1.4595619658119638,30.646269821187605,-8.398420400990494,-75.19750712250713,30.249108934615272,34.03501362805883,33.41201665318837,1577396655.0,-27.711666109319875,-51.10608549153071,24.005302
122499,1577396655.41,0.6706158850097657,-0.0343567938232412,11.044033273010252,0.7436039985470649,0.2341354038145486,8.997147060636195,-1.1023018452962234,-0.3228181905110673,7.537744893391928,-0.0057220458984375,-1.914024353027344,-0.029754638671875,0.356906797827744,-3.0995810904153966,-0.1203955673589937,-1.3411385672433034,12.93364025297619,-1.999264671688988,-2.9709878759357924,-22.976930844453165,1.4595619658119638,33.06304894849305,-7.053042375589104,-66.68066239316241,30.201186090394465,33.91520651750682,33.36409380896757,1577396655.0,-27.711666109319875,-51.10608549153071,24.005302
122500,1577396655.42,0.7041347082519531,0.8347384088134765,8.764753292541503,0.8633140815548774,-0.3656121120545915,8.794837020352992,1.4283693094889318,1.1041259989420569,5.2871953328450525,-1.1959075927734375,-0.8611679077148438,0.016021728515625,4.720920469702744,-5.342623082602897,-0.9901465439214938,1.7106192452566966,-9.51203845796131,-1.816159202938988,-3.131581815175565,-23.736498806253262,0.7297809829059819,32.38635079284752,-7.338425593098489,-88.07663817663818,30.32099320094648,34.08293647227963,33.41201665318837,1577396655.0,-27.711666109319875,-51.10608549153071,24.005302
122501,1577396655.43,0.8693346228027343,1.0238803399658205,5.865375082092284,-0.3074505302615277,0.5370019138243137,5.744624105313929,0.3078829325358069,-1.855107253011067,8.770758748372396,-1.1653900146484375,-1.3036727905273438,-0.121307373046875,-3.061061952172256,5.063871058022103,0.7188378310785062,1.8632071358816968,-14.21174548921131,0.0759306408110119,-2.9709878759357924,-24.875850748953425,1.4595619658119638,32.38635079284752,-7.338425593098489,-88.07663817663818,30.05741755773205,33.939167939617214,33.41201665318837,1577396655.0,-27.711666109319875,-51.10608549153071,24.005302
122502,1577396655.44,0.3952826940917968,-0.1827972967529296,8.135078255920408,-0.5516590995974653,0.5417903171446262,5.301696798185023,1.205708555094401,-0.2916935689290361,10.461065120442711,-1.4400482177734375,-1.0595321655273438,0.031280517578125,5.880588438452744,-7.234712926352897,1.5122948623285062,-0.7002694266183034,-9.23738025483631,0.8083525158110119,-2.16801817973693,-23.546606815803248,-0.1824452457264983,32.19300846266308,-8.724572649572648,0.4154558404558297,30.201186090394465,33.939167939617214,33.41201665318837,1577396655.0,-27.711666109319875,-51.10608549153071,24.005302
122503,1577396655.45,1.0776301672363282,-1.0327388861083984,9.945094710998534,-0.3266041435427778,0.0246427585508762,7.810820138028773,-0.419954372151692,-0.3467602071126299,12.007719392903647,0.5130767822265625,-0.6322860717773438,0.031280517578125,-4.342800233422256,4.117826136147103,-0.4103125595464938,-0.4256112234933034,-1.913161504836309,1.510256812686012,-2.16801817973693,-23.546606815803248,-0.1824452457264983,32.19300846266308,-8.724572649572648,0.4154558404558297,30.249108934615272,33.939167939617214,33.65163087429239,1577396655.0,-27.711666109319875,-51.10608549153071,24.005302
122504,1577396655.46,0.2181117712402348,0.3834313958740233,11.647372091369627,0.1151260627560498,0.8386713230040016,10.272059444669395,0.6574363749186194,1.6009228434244784,11.333751625569665,1.1234283447265625,-0.8001327514648438,0.321197509765625,-1.901393983422256,-3.0843223013528966,-0.3645361923589938,-2.2871834891183034,-1.592726934523809,-0.1529511951264879,-2.730096967076133,-22.69209285877813,0.0912226228632491,55.394088084795335,-7.419963655244028,-83.0911680911681,30.12930182406326,34.01105220594842,33.41201665318837,1577396655.0,-27.711666109319875,-51.10608549153071,24.005302
122505,1577396655.47,0.3090914343261718,-0.2570175482177734,9.375274715881346,1.988588861828315,-0.5643308498475602,12.189814974454553,-0.5276934468587233,-0.2557805440266923,13.865619881184898,-1.7452239990234375,-1.2121200561523438,-0.304412841796875,3.500217344702744,-4.579683629477897,-0.4713477157964938,-2.0125252859933034,4.953293573288691,-0.4733857654389881,-2.4892060582164746,-23.16682283490319,0.1824452457264983,56.36079973571752,-8.64303458742711,-80.59843304843305,30.249108934615272,33.891245095396414,33.50786234162997,1577396655.0,-27.711666109319875,-51.10608549153071,24.005302
122506,1577396655.48,0.981862100830078,-0.1540668768310546,10.50294369781494,1.739591889172065,0.1204108249571262,8.371063326505334,0.2312684794108069,-0.4377398701985673,12.512895943196618,-1.3790130615234375,0.1001358032226562,0.031280517578125,1.425022032202744,-6.563326207602897,1.5428124404535062,0.3068106515066966,15.29875255766369,1.052493140811012,-2.16801817973693,-22.78703885400314,0.912226228632484,34.12643176450744,-8.724572649572648,-2.0772792022792146,30.201186090394465,34.03501362805883,33.31617096474676,1577396655.0,-27.711666109319875,-51.10608549153071,24.005302
122507,1577396655.49,0.7448361364746093,0.3499125726318364,10.373656808166505,-1.3968122856326215,0.4555990573790012,9.280859957364711,-0.2739080708821608,1.8439343119303375,7.504226070149739,-0.4940032958984375,-0.2660751342773437,0.061798095703125,-1.504665467797256,7.444242151772103,-0.6544531845464938,1.2833731515066966,11.02629162016369,-0.137692406063988,-3.131581815175565,-25.06574273940345,-0.1824452457264983,33.3530624437697,-4.810745666586787,-2.0772792022792146,30.201186090394465,34.08293647227963,33.41201665318837,1577396655.0,-27.711666109319875,-51.10608549153071,24.005302
122508,1577396655.5,1.192551846923828,0.4061763116455078,8.558851949768066,1.7635339057736277,1.2552624118711886,11.574505147794396,-0.5372702534993483,0.2805206278483066,8.702524001057943,-0.1277923583984375,0.1611709594726562,-0.121307373046875,0.921481993140244,5.552152308022103,0.3678856826410062,0.1389639718191966,5.365280877976191,-1.251584007626488,-2.81039393669602,-22.40725487310309,2.371788194444441,32.2896796277553,-7.379194624171259,-74.98977920227921,30.5366459999401,33.93916793961722,33.29220954263636,1577396655.0,-27.711666109319875,-51.10608549153071,24.005302
122509,1577396655.51,1.3146561315917968,1.2848483209228514,6.779960116271972,-1.9714206840701212,0.8243061130430638,6.96327275033346,-1.3417220113118484,-0.4161920552571611,8.591193623860677,-0.4940032958984375,0.8630752563476562,-0.334930419921875,0.356906797827744,-5.800386754477897,1.0240136123285062,-3.629956926618304,0.2230689639136905,-1.449948265438988,-2.3286121189767024,-24.875850748953425,0.7297809829059857,31.80632380229421,-5.9522785366243305,-87.66118233618238,30.201186090394465,34.17878216072124,33.41201665318837,1577396655.0,-27.711666109319875,-51.10608549153071,24.005302
122510,1577396655.52,1.1686098303222656,0.1476025323486328,8.22366371734619,0.9518995429806586,1.5425666110899383,7.892222994474085,-1.8205623433430984,-1.3954205342610673,6.752446748860677,-1.3790130615234375,1.6870498657226562,-0.457000732421875,-1.748806092797256,2.744535120522104,-0.7154883407964938,-1.1275155203683034,-2.0047142392113093,0.1369657970610119,-2.4892060582164746,-24.30617477760335,0.1824452457264983,31.61298147210978,-5.218435977314481,-71.45840455840457,30.201186090394465,33.939167939617214,33.41201665318837,1577396655.0,-27.711666109319875,-51.10608549153071,24.005302
122511,1577396655.53,0.8250418920898438,-0.0882263311767578,9.36569790924072,2.84092465284394,-0.581090261468654,11.174673470548305,1.7420097269694006,-1.2996524678548171,7.669425984700521,-0.6771087646484375,1.931190490722656,-0.090789794921875,-1.931911561547256,4.056790979897103,1.0850487685785062,0.0626700265066966,-6.948561895461309,0.8999052501860119,-2.4892060582164746,-23.546606815803248,0.912226228632484,55.394088084795335,-4.484593418004633,-4.570014245014259,30.392877467277685,33.939167939617214,33.50786234162997,1577396655.0,-27.711666109319875,-51.10608549153071,24.005302
122512,1577396655.54,0.2109291662597656,-0.0223857855224599,10.498155294494628,0.4347519843869092,0.9104973728086893,10.343885494474083,0.0098048258463542,1.1603897379557284,13.186863710530602,0.8792877197265625,2.236366271972656,0.305938720703125,-1.4283715224847562,-1.4363730826028964,0.3984032607660062,-0.2119881766183033,-0.2804710751488091,1.800173804873512,-2.16801817973693,-23.16682283490319,1.2771167200854732,30.646269821187605,-7.419963655244028,-88.49209401709405,30.249108934615272,33.98709078383802,33.31617096474676,1577396655.0,-27.711666109319875,-51.10608549153071,24.005302
122513,1577396655.55,0.7328651281738281,-0.1756146917724609,11.41034612701416,0.9303517280392524,0.8769785495665012,11.47634287972799,0.6263117533365882,1.3339693583170569,10.00856100667318,0.5435943603515625,2.266883850097656,-0.426483154296875,-2.237087342797256,10.312894495522103,0.0779686904535061,-0.0594002859933033,0.5282447451636905,-1.694088890438988,-2.81039393669602,-23.546606815803248,2.371788194444441,30.646269821187605,-8.561496525281571,-75.19750712250713,30.201186090394465,34.08293647227963,33.22032527630515,1577396655.0,-27.711666109319875,-51.10608549153071,24.005302
122514,1577396655.56,0.7975085729980469,0.0853532891845703,11.951435702209473,-0.0608477592654339,-1.5986259670350602,12.448388753751429,-0.5755774800618483,-1.938904311116536,8.682173286946615,-0.7991790771484375,1.809120178222656,-0.548553466796875,0.356906797827744,-8.485933629477897,0.0474511123285061,0.9781973702566966,-3.683181036086309,-0.2597627185639881,-2.4892060582164746,-22.78703885400314,0.5473357371794949,55.78077274516421,-5.789202412333252,-8.724572649572671,30.249108934615272,33.891245095396414,33.31617096474676,1577396655.0,-27.711666109319875,-51.10608549153071,24.005302
122515,1577396655.57,0.5425260961914062,0.6408080743408202,8.62588959625244,1.1673776923947212,1.027813254156345,7.375075435880335,0.6287059549967444,3.788026059977213,6.359797676595052,-1.8672943115234373,2.160072326660156,-0.380706787109375,-1.138454530297256,6.131986292397103,0.5357323623285062,0.2457754952566966,-14.66950916108631,-0.5954560779389881,-2.16801817973693,-22.40725487310309,0.912226228632484,55.394088084795335,-5.789202412333252,-5.400925925925935,30.201186090394465,34.17878216072124,33.41201665318837,1577396655.0,-27.711666109319875,-51.10608549153071,24.005302
122516,1577396655.58,0.4671087438964843,0.6144718560791015,7.294713473205565,-0.6941140983767621,1.0816827915098606,6.722655483487757,-1.1860989034016922,-2.663150313313802,10.377268062337242,-1.8062591552734373,1.900672912597656,-0.029754638671875,-0.0703392959222559,3.370145472084604,0.0779686904535062,-0.3645760672433034,-10.35127185639881,0.2895536876860121,-3.613363632894883,-23.73649880625328,1.4595619658119638,30.646269821187605,-5.9522785366243305,-98.4630341880342,30.201186090394465,34.17878216072124,33.43597807529877,1577396655.0,-27.711666109319875,-51.10608549153071,24.005302
122517,1577396655.59,-0.1074996545410146,0.5641936212158203,8.973048836975096,-0.3792765800662152,-0.7103771511170914,11.090876412442832,1.536108384195963,0.7928797831217441,10.087569661458335,-0.8602142333984375,1.5649795532226562,0.000762939453125,-4.617458436547256,5.002835901772103,-0.9901465439214938,-1.3716561453683034,6.692795526413691,0.7167997814360119,-2.16801817973693,-24.30617477760335,1.2771167200854732,30.646269821187605,-8.07226815240834,-8.724572649572671,30.009494713511245,34.08293647227963,33.50786234162997,1577396655.0,-27.711666109319875,-51.10608549153071,24.005302
122518,1577396655.6,1.3194445349121091,-0.8842983831787109,9.964248324279785,-0.3720939750857465,-0.1333745510194352,11.696609432462363,-0.5061456319173171,1.444102634684244,7.123548006184896,-0.6771087646484375,1.5344619750976562,0.000762939453125,-3.030544374047256,0.1505409798971036,0.6578026748285062,-0.7002694266183034,7.547287713913691,1.083010718936012,-3.131581815175565,-23.16682283490319,2.006897702991451,31.61298147210978,-8.316882338844954,-5.816381766381765,30.34495462305688,34.03501362805883,32.64525114565549,1577396655.0,-27.711666109319875,-51.10608549153071,24.005302
122519,1577396655.61,0.3713406774902343,0.4193444207763676,10.228807607727047,1.28948197706269,0.6686830051329075,8.015524379972133,-0.6785281514485676,1.1196883097330723,11.152989400227863,-1.6536712646484373,1.824378967285156,-0.075531005859375,1.4860571884527438,-5.876680699790397,0.9629784560785062,-1.0359627859933034,1.947312127976191,0.0301542736235118,-2.649799997456247,-22.217362882653063,0.7297809829059857,32.19300846266308,-7.746115903826182,-81.84480056980057,30.201186090394465,34.058975050169224,33.41201665318837,1577396655.0,-27.711666109319875,-51.10608549153071,24.005302
122520,1577396655.62,0.1031900915527343,0.3965995050048828,10.301830758361817,1.6198818061642526,0.4843294773008762,12.400504720548302,1.057268052164713,0.1344743265787754,14.887943990071618,-1.8062591552734373,1.7786026000976562,0.000762939453125,-8.310085389672256,9.153226526772103,0.2305565810785061,-1.829419817243304,12.30802990141369,-0.229245140438988,-2.4892060582164746,-22.40725487310309,0.912226228632484,32.19300846266308,-7.746115903826182,-81.84480056980057,30.249108934615272,34.17878216072124,33.55578518585078,1577396655.0,-27.711666109319875,-51.10608549153071,24.005302
122521,1577396655.63,0.8956708410644532,-0.4868609075927734,12.126212423400878,1.2631457588009714,-0.5643308498475602,10.082917513517051,0.0445207499186194,1.1687694437662752,13.25749265950521,-1.4400482177734375,2.175331115722656,-0.273895263671875,-0.833278749047256,-2.443453160727896,0.0779686904535061,-0.1814705984933033,25.12541271391369,0.960940406436012,-3.2921757544153376,-22.976930844453165,1.4595619658119638,33.73974710413857,-7.909192028117261,-8.724572649572671,30.201186090394465,34.03501362805883,33.50786234162997,1577396655.0,-27.711666109319875,-51.10608549153071,24.005302
122522,1577396655.64,0.4886565588378906,-0.3037044805908203,9.511744210510251,0.2887056831173775,1.6287578708555637,10.87060985970846,-0.0632183247884108,0.8790710428873691,7.726886824544271,-0.8907318115234375,2.205848693847656,0.122833251953125,-3.366237733422256,0.3641640267721036,0.5052147842035062,-1.982007707868304,18.68620372953869,-1.694088890438988,-3.0512848455556787,-22.881984849228157,2.0981203258547043,31.61298147210978,-5.381512101605559,-4.985470085470089,30.297031778836075,34.17878216072124,33.41201665318837,1577396655.0,-27.711666109319875,-51.10608549153071,24.005302
122523,1577396655.65,0.7089231115722656,0.2218227838134765,10.02410336578369,0.1486448859982373,-0.0124673671815451,9.575346761563928,-0.860487477620442,-0.2869051656087241,6.016229738362631,-0.7381439208984375,2.144813537597656,0.183868408203125,0.372165586890244,1.3712441048971038,-0.1661719345464938,-1.0207039969308034,3.3663795107886907,-1.388913109188988,-3.613363632894883,-21.45779492085296,2.5542334401709463,34.706458755060744,-6.930735282370796,-40.29921652421655,30.5366459999401,34.03501362805883,33.43597807529877,1577396655.0,-27.711666109319875,-51.10608549153071,24.005302
122524,1577396655.66,0.0888248815917968,0.9137470635986328,9.614694881896972,1.3804616401486276,0.3358889743711887,9.113265841153774,0.6885609965006507,0.2470018046061191,7.499437666829427,-0.3719329833984375,1.961708068847656,0.092315673828125,-1.291042420922256,-3.023287145102896,0.5662499404535062,-3.721509660993304,-6.338210332961309,-1.144772484188988,-1.0438606050585215,-23.73649880625328,0.7297809829059857,34.89980108524518,-5.9522785366243305,-8.724572649572671,30.201186090394465,34.08293647227963,33.41201665318837,1577396655.0,-27.711666109319875,-51.10608549153071,24.005302
122525,1577396655.67,0.7687781530761719,-0.4677072943115234,8.180568087463378,-1.1119022880740277,-1.2778029445741226,9.046228194669398,-0.6354325215657546,-1.7737043965657546,6.41247011311849,-1.3179779052734375,2.541542053222656,-0.151824951171875,6.002658750952744,-8.974214879477897,1.5428124404535062,1.5275137765066966,-6.612868536086309,2.120608375186012,-2.9709878759357924,-23.35671482535321,0.3648904914529966,31.419639141925344,-5.9522785366243305,-8.724572649572671,30.392877467277685,33.939167939617214,33.22032527630515,1577396655.0,-27.711666109319875,-51.10608549153071,24.005302
122526,1577396655.68,0.3916913916015625,-0.2067393133544921,9.6733528225708,0.3246187080197212,0.5226367038633762,7.166779891446741,1.4570997294108068,-0.9860120503743486,12.450646700032555,-0.0972747802734375,2.083778381347656,-0.029754638671875,-4.922634217797256,10.709623011147103,0.6578026748285062,-1.0359627859933034,-4.140944707961309,3.310793922061012,-2.569503027836361,-22.69209285877813,1.0034488514957294,32.19300846266308,-4.158441169422477,-7.062749287749304,30.34495462305688,34.08293647227963,33.50786234162997,1577396655.0,-27.711666109319875,-51.10608549153071,24.005302
122527,1577396655.69,-0.1098938562011709,-0.4006696478271484,12.499707882385252,1.3601109260372994,0.0928775058653293,11.15791405892721,-0.0560357198079425,1.3986128031412752,12.991736275227868,2.4662017822265625,1.992225646972656,0.244903564453125,-0.4212914443597561,2.942899378334604,0.8409081435785062,0.2610342843191966,8.26445079985119,0.487917945498512,-2.3286121189767024,-22.59714686355312,0.7297809829059857,32.96637778340083,-5.136897915168943,-7.8936609686609875,30.249108934615272,33.98709078383802,33.48390091951957,1577396655.0,-27.711666109319875,-51.10608549153071,24.005302
122528,1577396655.7,0.0888248815917968,0.5210979913330078,13.342466866760253,1.5432673530392524,-0.4685627834413102,11.32311397347799,0.3725263773600256,-1.4504871724446609,16.41305044759115,1.2454986572265625,3.365516662597656,-0.334930419921875,6.399387266577744,-3.542085973227896,0.7493554092035062,-2.5923592703683034,20.85295177641369,-2.395993187313988,-3.131581815175565,-22.78703885400314,2.736678685897437,34.51311642487631,-8.398420400990494,-73.53568376068378,30.201186090394465,34.17878216072124,33.31617096474676,1577396655.0,-27.711666109319875,-51.10608549153071,24.005302
122529,1577396655.71,0.2899378210449218,-0.1253364569091787,11.09191730621338,-0.0752129692263715,-0.696011941156154,12.426840938810022,1.4834359476725256,8.056887620035807,11.77069342854818,0.0553131103515625,2.175331115722656,-0.029754638671875,-0.1924096084222559,0.9745155892721036,0.3526268935785062,-3.629956926618304,31.22892833891369,-0.5344209216889881,-1.3650484835380667,-22.59714686355312,-0.7297809829059857,55.78077274516421,-8.561496525281571,-7.8936609686609795,30.009494713511245,34.08293647227963,33.41201665318837,1577396655.0,-27.711666109319875,-51.10608549153071,24.005302
122530,1577396655.72,0.1175553015136718,-0.071466919555664,12.1633225491333,0.9926009712033148,-0.945008913812404,14.03574445443502,3.183319126383463,3.493539255777995,13.937445930989586,0.7877349853515625,2.144813537597656,0.046539306640625,2.432102110327744,9.794095667397103,1.2986718154535062,0.3068106515066966,49.38688732328869,-2.945309593563988,-2.0074242404971567,-24.306174777603356,0.0,33.93308943432301,-4.729207604441249,-73.12022792022795,30.297031778836075,33.84332225117561,33.41201665318837,1577396655.0,-27.711666109319875,-51.10608549153071,24.005302
122531,1577396655.73,0.2755726110839843,0.0015562310791015,10.469424874572752,0.2910998847775342,0.0090804477598611,9.584923568204555,-0.8868236958821614,2.677116489664713,8.756393538411459,0.0858306884765625,2.907752990722656,0.244903564453125,2.920383360327744,-1.4821494497903962,0.4136620498285062,-0.1967293875558033,48.50187755766369,-2.945309593563988,-2.649799997456247,-24.875850748953425,0.0,30.646269821187605,-5.9522785366243305,-100.12485754985757,30.249108934615272,34.03501362805883,33.50786234162997,1577396655.0,-27.711666109319875,-51.10608549153071,24.005302
122532,1577396655.74,1.2811373083496094,0.4732139581298828,8.429565060119629,1.6941020576290962,2.054925766363376,9.118054244474086,-1.5524117574055984,-5.125586720784505,2.672727119954427,0.5435943603515625,2.968788146972656,0.122833251953125,-1.138454530297256,7.596830042397103,-0.4103125595464938,0.7035391671316966,21.06657482328869,-1.694088890438988,-4.0951454506142,-23.9263907967033,0.912226228632484,31.80632380229421,-6.115354660915408,-101.78668091168092,30.34495462305688,34.03501362805883,33.31617096474676,1577396655.0,-27.711666109319875,-51.10608549153071,24.005302
122533,1577396655.75,0.8860940344238282,0.015921441040039,9.562022445373534,-0.6641865776248089,-2.0319764675233416,13.657460592130334,-0.5037514302571608,-3.0641790913899736,3.886587361653645,0.9403228759765624,3.151893615722656,-0.151824951171875,-3.274684999047256,6.650785120522103,0.2000390029535061,2.9923575265066966,-1.4248802548363095,2.669924781436012,-2.81039393669602,-23.16682283490319,0.912226228632484,35.28648574561405,-8.398420400990494,5.400925925925918,30.249108934615272,34.27462784916285,33.31617096474676,1577396655.0,-27.711666109319875,-51.10608549153071,24.005302
122534,1577396655.76,1.001015714111328,0.1224634149169922,9.007764761047362,0.7424068977169869,0.5657323337461891,8.5207009302651,-2.014492677815755,0.0111729410807294,11.37325595296224,1.0318756103515625,3.731727600097656,-0.350189208984375,3.347629454077744,-0.8870566763528963,-0.1203955673589938,1.7869131905691966,-12.27387927827381,2.074832007998512,-2.4892060582164746,-21.45779492085296,2.006897702991459,34.126431764507444,-5.789202412333253,-96.80121082621083,30.22514751250487,33.91520651750682,33.31617096474676,1577396655.0,-27.711666109319875,-51.10608549153071,24.005302
122535,1577396655.77,-0.1074996545410146,-0.4533420843505858,10.086352608947752,-0.1015491874880902,-1.2011884914491229,12.022220858243616,-1.2220119283040358,1.8056270853678376,14.564726765950525,3.2596588134765625,4.036903381347656,0.275421142578125,2.371066954077744,5.369046839272103,-0.9901465439214938,1.8937247140066968,3.4274146670386907,1.632327125186012,-2.16801817973693,-21.647686911302984,3.101569177350434,33.73974710413857,-4.64766954229571,-106.77215099715102,30.392877467277685,34.22670500494204,33.36409380896756,1577396655.0,-27.711666109319875,-51.10608549153071,24.005302
122536,1577396655.78,-0.1194706628417958,-0.2354697332763671,13.239516195373534,1.129070465832221,-0.1716817775819352,12.04376867318502,0.5951871317545568,1.3555171732584628,11.993354182942712,5.3348541259765625,3.579139709472656,0.702667236328125,0.173801329077744,0.9745155892721036,-1.1427344345464938,3.7552969796316966,4.098801385788691,-0.992184593563988,-2.16801817973693,-21.647686911302984,3.101569177350434,31.03295448155648,-5.789202412333252,-8.724572649572671,30.392877467277685,33.891245095396414,33.31617096474676,1577396655.0,-27.711666109319875,-51.10608549153071,24.005302
122537,1577396655.79,-0.2032677209472646,0.044651860961914,13.881162240295408,1.3301834052853465,-0.1405571559999039,10.568940450528771,-0.1637747945149733,0.9676565043131504,9.941523360188803,2.8934478759765625,3.670692443847656,-0.151824951171875,4.812473204077744,7.596830042397103,0.8103905654535062,4.976000104631696,-1.4859154110863095,0.3200712658110119,-1.0438606050585215,-21.078010939952904,1.094671474358975,31.03295448155648,-5.136897915168943,-8.724572649572671,30.249108934615272,34.03501362805883,33.31617096474676,1577396655.0,-27.711666109319875,-51.10608549153071,24.005302
122538,1577396655.8,0.1953668554687499,0.3211821527099608,8.539698336486815,-0.2655520012087938,0.8195177097227511,8.24057933602682,-0.5468470601399739,0.0506772684733074,7.7472375386555985,-0.3871917724609375,3.029823303222656,0.077056884765625,1.943820860327744,4.224637659584603,-0.5171240829839938,3.251756940569196,-13.08259509858631,-1.907711937313988,-3.0512848455556787,-23.831444801478288,0.6385583600427328,33.73974710413857,-7.419963655244028,-88.49209401709405,30.297031778836075,34.058975050169224,33.43597807529876,1577396655.0,-27.711666109319875,-51.10608549153071,24.005302
122539,1577396655.81,0.8310273962402344,0.954448491821289,8.563640353088378,0.0971695503048775,-0.7510785793397478,9.094112227872523,0.0421265482584631,-2.0705854024251296,6.781177168782552,0.1468658447265625,2.724647521972656,-0.182342529296875,3.317111875952744,6.986478479897103,-0.1051367782964938,5.037035260881696,-10.45808337983631,0.5031767345610119,-3.934551511374428,-23.73649880625328,1.4595619658119638,33.93308943432301,-4.4030553558590935,-8.309116809116826,30.249108934615272,34.08293647227963,33.50786234162997,1577396655.0,-27.711666109319875,-51.10608549153071,24.005302
122540,1577396655.82,1.1039663854980468,-0.7717709051513671,5.980296761779784,1.7228324775509711,-0.1764701809022477,3.838839583829554,0.5927929300944006,-0.7825049092610673,6.587246834309896,0.4825592041015625,3.518104553222656,0.000762939453125,0.265354063452744,-2.657076207602896,0.0779686904535061,1.7716544015066966,-12.53327869233631,2.486819312686012,-3.934551511374428,-23.73649880625328,1.4595619658119638,31.419639141925344,-8.724572649572648,7.893660968660963,30.392877467277685,34.03501362805883,33.41201665318837,1577396655.0,-27.711666109319875,-51.10608549153071,24.005302
122541,1577396655.83,1.0931924780273437,1.3901931939697263,8.182962289123534,-1.918748247546684,1.1978015720274386,9.7740654993569,-0.8940063008626296,-0.2031081075032549,6.208962972005208,2.0847320556640625,4.586219787597656,0.046539306640625,-0.1924096084222559,0.5472694955221036,-0.0135840439214938,2.5651114327566966,-23.48908923921131,1.662844703311012,-2.9709878759357924,-22.59714686355311,1.459561965811964,32.96637778340082,-4.64766954229571,-5.400925925925935,30.24910893461527,33.939167939617214,33.22032527630515,1577396655.0,-27.711666109319875,-51.10608549153071,24.005302
122542,1577396655.84,-0.3062183923339834,1.969589995727539,11.056004281311036,0.7424068977169873,-0.1070383327577169,8.54105164437643,-0.5612122701009112,1.3591084757486973,10.61908243001302,2.1610260009765625,3.609657287597656,-0.243377685546875,-1.931911561547256,4.987577112709603,0.1695214248285061,1.2375967843191966,-21.91743396577381,1.891726539248512,-2.007424240497157,-21.83757890175301,1.824452457264953,33.93308943432301,-4.729207604441249,-7.47820512820515,30.05741755773205,34.10689789439003,33.45993949740917,1577396655.0,-27.711666109319875,-51.10608549153071,24.005302
122543,1577396655.85,-0.0811634362792959,0.3678690850830078,12.267470321350096,1.48101810987519,1.34384787329697,12.347832284024864,-0.2284182393391921,-0.7920817159016923,14.239115340169274,-2.721786499023437,3.670692443847656,-0.792694091796875,3.164523985327744,-2.260347691977896,0.2000390029535061,0.5509512765066966,-4.812331426711309,0.7167997814360119,-2.007424240497157,-21.83757890175301,1.824452457264953,33.93308943432301,-6.033816598769869,-8.309116809116826,30.34495462305688,34.17878216072124,32.597328301434686,1577396655.0,-27.711666109319875,-51.10608549153071,24.005302
122544,1577396655.86,0.9291896643066406,-0.4581304876708984,9.825384627990722,-0.3170273369021527,0.2257556980040012,10.303184066251427,0.2456336893717444,2.162363132731119,9.958282771809898,-3.362655639648437,4.189491271972656,-0.487518310546875,-2.816921327172256,7.840970667397103,1.5122948623285062,0.6119864327566966,-6.551833379836309,0.7167997814360119,-2.007424240497157,-21.83757890175301,1.824452457264953,34.12643176450744,-6.115354660915408,-7.8936609686609795,30.201186090394465,34.08293647227963,33.36409380896756,1577396655.0,-27.711666109319875,-51.10608549153071,24.005302
122545,1577396655.87,-0.5324704492187494,-0.7502230902099609,9.735602065734865,-1.109508086413871,-2.374347304925685,10.583305660489708,0.4539292338053381,1.3842475931803375,9.000602107747396,-1.0280609130859375,3.014564514160156,-0.045013427734375,3.286594297827744,6.193021448647103,-0.4103125595464938,-0.9138924734933034,-12.74690173921131,-3.342038109188988,-2.81039393669602,-24.30617477760335,1.0946714743589787,30.646269821187605,-8.724572649572648,-75.19750712250713,30.36891604516728,34.08293647227963,33.41201665318837,1577396655.0,-27.711666109319875,-51.10608549153071,24.005302
122546,1577396655.88,0.2516305944824218,1.5673641168212888,8.333796993713378,0.9195778205685492,1.49109127539658,9.971587136319789,-0.1769429036458331,-0.1695892842610678,8.403248793538411,-0.7991790771484375,2.114295959472656,-0.060272216796875,-1.260524842797256,5.063871058022103,0.5967675185785063,1.2528555733816966,-9.06953357514881,-0.5496797107514881,-2.81039393669602,-22.78703885400314,0.1824452457264983,31.419639141925344,-5.463050163751098,-85.99935897435897,30.34495462305688,34.058975050169224,33.38805523107796,1577396655.0,-27.711666109319875,-51.10608549153071,24.005302
122547,1577396655.89,0.5102043737792968,1.8905813409423824,8.388863631896971,-1.7535483329959027,-0.897124880609279,2.6441329554115853,-0.5013572285970046,-2.6044923726399736,6.055734065755209,-1.1043548583984375,3.609657287597656,-0.518035888671875,2.554172422827744,-7.448335973227897,-0.1966895126714938,0.3678458077566966,-8.23030017671131,0.991457984561012,-2.81039393669602,-22.78703885400314,0.1824452457264983,35.47982807579848,-7.175349468807411,-8.309116809116826,30.392877467277685,34.22670500494204,33.41201665318837,1577396655.0,-27.711666109319875,-51.10608549153071,24.005302
122548,1577396655.9,1.1710040319824218,0.015921441040039,7.354568514709472,1.0740038276486277,1.2648392185118136,7.80603173470846,1.4451287211100257,0.8766768412272129,7.078058174641927,-3.332138061523437,2.572059631347656,-0.579071044921875,-6.204372499047256,6.498197229897103,0.5662499404535062,-3.3247811453683034,-7.436843145461309,3.554934547061012,-2.81039393669602,-22.78703885400314,0.1824452457264983,30.646269821187605,-8.398420400990494,-7.062749287749304,30.392877467277685,34.03501362805883,33.55578518585078,1577396655.0,-27.711666109319875,-51.10608549153071,24.005302
122549,1577396655.91,0.4958391638183594,0.375051690063477,9.114306734924316,-0.1829520439334032,0.3789846042540016,7.917362111905727,-0.1206791646321613,1.84273721110026,9.412404793294272,-2.523422241210937,2.709388732910156,-0.365447998046875,-7.104641053734756,0.5625282845846036,0.0321923232660061,-1.829419817243304,-7.80305408296131,1.281374976748512,-2.81039393669602,-22.78703885400314,0.7297809829059895,33.73974710413857,-8.398420400990494,-5.400925925925935,30.201186090394465,34.15482073861084,33.19636385419474,1577396655.0,-27.711666109319875,-51.10608549153071,24.005302
122550,1577396655.92,0.2492363928222656,0.743758745727539,8.343373800354003,-0.4511026298709027,1.1187929172422826,13.037362362149866,0.6382827616373694,-1.6803305318196609,10.616688228352867,-1.8367767333984373,3.457069396972656,-0.365447998046875,1.821750547827744,-5.342623082602897,1.5428124404535062,-6.498609270368304,-3.3780052548363093,-1.175290062313988,-2.649799997456247,-23.35671482535321,1.094671474358975,31.03295448155648,-5.9522785366243305,-85.1684472934473,30.392877467277685,34.03501362805883,33.31617096474676,1577396655.0,-27.711666109319875,-51.10608549153071,24.005302
