,timestamp,acc_x_dashboard,acc_y_dashboard,acc_z_dashboard,acc_x_above_suspension,acc_y_above_suspension,acc_z_above_suspension,acc_x_below_suspension,acc_y_below_suspension,acc_z_below_suspension,gyro_x_dashboard,gyro_y_dashboard,gyro_z_dashboard,gyro_x_above_suspension,gyro_y_above_suspension,gyro_z_above_suspension,gyro_x_below_suspension,gyro_y_below_suspension,gyro_z_below_suspension,mag_x_dashboard,mag_y_dashboard,mag_z_dashboard,mag_x_above_suspension,mag_y_above_suspension,mag_z_above_suspension,temp_dashboard,temp_above_suspension,temp_below_suspension,timestamp_gps,latitude,longitude,speed
44587,1577395876.29,1.8061623743568975,1.27237219446694,10.9554580307379,0.1169655103729988,3.732677178508479,12.8638703345322,-1.496200852110327,-11.53789138094274,10.53822459508384,9.612851026581556,-3.773014719893293,-3.954073277915396,-1.2971831531059452,-10.112111161394816,-2.3197081030868905,2.811338843368903,19.8153984255907,-6.792021960746951,16.079847110215056,-2.556283386752136,4.782567209576139,-19.80716956654457,0.6097732727043083,-69.37343617920541,32.45355976877228,36.33531015065744,40.21706053254261,1577395876.0,-27.69190946637893,-51.127565092407,6.2345877
44588,1577395876.3,1.0472004480873665,1.9583109701017052,8.470276707495712,2.790091663937452,2.248272149211604,10.073428299620092,-0.1901638464950932,-1.6773718435892244,11.589279123892435,7.186703565644056,-9.159367258955792,-1.985689488852896,-3.601260301543445,5.375559737042683,-3.5251524390243905,4.749205054306403,13.5135185427782,-7.371855945121951,16.16230786462641,-1.5520291990995103,4.871133269012729,-20.09611441798942,-1.9817631362889976,-47.94928677092138,32.7171354119867,36.52700152754066,40.26498337676341,1577395876.0,-27.69190946637893,-51.127565092407,6.2345877
44589,1577395876.31,-0.0134308873618521,1.18857513636147,10.378455430640244,0.2462524000214363,-1.9942531925852705,14.42967822027439,1.6928757592177968,-7.647313683188833,16.39204765416587,-3.112979051543445,-8.594792063643293,-2.458711949790396,-0.3816558093559451,-10.539357255144816,-0.3665831030868902,-5.977723656631097,-11.6787421994093,-21.37942430449695,16.5746116366832,-1.643325034340656,4.605435090702943,-21.020737942612943,0.457329954528231,-26.185071499013805,32.50148261299308,36.52700152754066,40.0732919998802,1577395876.0,-27.69190946637893,-51.127565092407,6.2345877
44590,1577395876.32,2.239512874845179,-3.4585702860018097,10.328177195776965,-0.8502919603301251,0.979345269328791,16.457567026426734,-2.22882656011814,2.9350576547017906,11.646739963736186,-10.162539598418444,-3.895085032393293,-1.848360387290396,-7.980532762480945,1.8202618854801829,-0.1834776343368902,-11.806581078506095,-16.3174140744093,-9.75222703887195,16.5746116366832,-1.643325034340656,4.605435090702943,-19.63380265567766,-1.3719898635846908,-23.46454459002536,32.50148261299308,36.38323299487824,40.408751909425824,1577395876.0,-27.69190946637893,-51.127565092407,6.2345877
44591,1577395876.33,-0.2408800450766959,-2.0651449197908724,13.098268516577743,0.7729767652558114,-5.149810980671208,7.85998886480564,-0.5935868262314208,0.5432501962056971,14.972286069693215,-13.000674364043444,7.610041920731708,0.0437294564596036,2.2428559093940548,1.8507794636051829,-2.1366026343368905,-8.419129906631097,-28.3108222775343,5.231903820503049,17.069376163151365,-1.4607333638583646,5.136831447322516,-19.63380265567766,1.0671032272325378,-23.46454459002536,32.789019678317906,36.28738730643664,40.21706053254261,1577395876.0,-27.69190946637893,-51.127565092407,6.2345877
44592,1577395876.34,-0.0481468114341177,1.547705385384908,14.668864805640244,-1.5386249376250472,2.11060555375262,12.165960550596656,0.6394270287490473,3.3480574410787445,9.739758341421732,-10.742373582793444,-1.7741133527057928,-0.7344687857278963,-6.042666551543444,-9.089772294207316,-0.7022764624618902,-18.2457900628811,-43.2491767697218,1.0509956173780486,17.234297671974083,-1.6433250343406596,4.428302971829751,-19.63380265567766,0.7622165908803844,-12.58243695407157,32.57336687932428,36.359271572767845,40.049330577769794,1577395876.0,-27.69190946637893,-51.127565092407,6.2345877
44593,1577395876.35,0.841299105313929,2.948313356576315,10.359301817358991,0.981272309689405,2.44220248368426,12.095331601622046,1.695269960877953,14.609184949623666,14.119950278677592,9.002499464081556,-15.095036204268292,-2.428194371665396,-2.426333543730945,2.064402510480183,-2.8385069312118905,-3.139588891006097,-50.4055488400343,16.61496046112805,17.3992191807968,-0.3651833409645902,4.074038734083371,-19.86495853683354,-1.981763136288998,1.0201975908706693,32.30979123610986,36.52700152754066,40.26498337676341,1577395876.0,-27.69190946637893,-51.127565092407,6.2345877
44594,1577395876.36,2.419077999356898,-0.9255049295564975,9.061644517554308,2.2406223829315928,-3.782721832721989,5.642958127500952,5.226717409608422,4.151312098061165,11.02424753209556,0.9458588390815548,-13.141911204268292,-2.184053746665396,-0.1069976062309451,2.369578291730183,-2.1671202124618905,-11.318299828506095,-54.0371406369093,31.56857374237805,17.3992191807968,-0.3651833409645902,4.074038734083371,-20.09611441798942,-1.981763136288998,1.0201975908706693,32.64525114565549,36.28738730643664,40.360829065205024,1577395876.0,-27.69190946637893,-51.127565092407,6.2345877
44595,1577395876.37,1.4410466211830697,-2.1776723978182164,8.329018809546493,1.486448859982374,-1.8314474796946452,5.628592917540015,-0.0740450659775145,-12.94807615877477,5.658841611685404,-4.699893114043445,5.580622975419208,-0.1698935904153963,-8.072085496855944,-13.072316239519816,0.5794618187881098,-21.2670302972561,-42.8982246212843,9.96212842987805,17.64660144403087,-1.734620869581807,5.402529625632303,-16.802143111518113,-3.048866363521536,-12.922502817695126,32.57336687932428,36.28738730643664,40.1691376883218,1577395876.0,-27.69190946637893,-51.127565092407,6.2345877
44596,1577395876.38,-0.0828627355063834,0.3290567403653763,8.221279734839463,-0.2876545701934069,-0.3781670719798023,12.80042399053806,-1.9008209326767336,-5.75350017000524,7.28330743810142,3.3262299328315548,2.910334889481707,-0.0478232779153963,-4.242129442168445,-2.223317216082317,-0.9311582983993902,-13.469789086318595,-12.0296943478468,-0.5969536013719514,17.729062198442236,-1.825916704822951,4.074038734083371,-17.206665903540905,-3.506196318049766,-17.343359044801353,32.45355976877228,36.45511726120945,40.0732919998802,1577395876.0,-27.69190946637893,-51.127565092407,6.2345877
44597,1577395876.39,-0.1235641637290396,-0.1330241800447788,13.316140867651962,-0.8838107835723126,0.3807948542897285,11.582972446348608,2.260301552674828,0.2080619637838221,13.313104319204935,-6.561465379668445,-2.399723704268293,-0.4445517935403963,0.1676605968940548,-7.548634598894817,0.1216981469131097,-0.6981826410060974,-7.345246105659299,-22.44753953887195,15.914925601392335,-1.2781416933760694,4.251170852956559,-17.091087962962966,-3.2013096816976128,-26.185071499013805,32.50148261299308,36.52700152754066,40.1691376883218,1577395876.0,-27.69190946637893,-51.127565092407,6.2345877
44598,1577395876.4,1.224371370938929,3.2308291524747523,13.280227842749618,-1.5996770799590314,6.67515101884051,18.8781049048447,3.081512722108422,2.951817066322884,12.59484382115806,0.1524018078315548,-6.061833079268292,-1.4516318716653962,-1.4497710437309452,-7.060353348894817,-0.9158995093368902,-1.4916396722560974,-1.4858711056592988,-18.02249071074695,15.914925601392335,-1.2781416933760694,4.251170852956559,-17.091087962962966,-3.2013096816976128,-26.185071499013805,32.50148261299308,36.52700152754066,40.50459759786743,1577395876.0,-27.69190946637893,-51.127565092407,6.2345877
44599,1577395876.41,1.4326669153725229,-1.0619744241854037,9.038899601782822,5.31956571789253,-3.576820489948552,11.331581272032205,-0.4882419531845458,13.268432019936164,15.89644791051353,1.2205170422065557,-7.404606516768292,-1.970430699790396,1.7850922375190548,9.144480635480184,-5.6461241187118905,2.414610327743903,-13.6929023556593,4.194306164253049,16.82199389991728,-0.2738875057234426,4.162604793519969,-19.98053647741148,-4.420856227106227,-26.185071499013805,32.64525114565549,36.57492437176146,40.26498337676341,1577395876.0,-27.69190946637893,-51.127565092407,6.2345877
44600,1577395876.42,0.0272705408608031,-4.009236667837747,12.300999363745712,-0.7162166673613757,-2.0337575199778493,7.792951218321265,-0.9072272437118905,-3.3162028799661774,12.751664029898295,-8.911318895293444,23.235041920731707,1.813748987709604,-3.494448778105945,-7.716481278582316,-1.2210752905868902,-6.877992211318597,-25.3200996212843,5.781220226753049,17.729062198442236,-1.825916704822951,3.0112460208442324,-20.09611441798942,-4.420856227106227,-24.14467631727247,32.357714080330666,36.50304010543026,40.1930991104322,1577395876.0,-27.69190946637893,-51.127565092407,6.2345877
44601,1577395876.43,2.2155708582436167,2.778325038705221,6.327466221655869,1.5726401197479989,1.3863595515553535,11.053853879454078,2.7319592797256096,2.7076084969869467,6.0107892557283735,2.8379486828315548,4.161555592606708,-1.970430699790396,1.5104340343940548,6.306345869855183,-3.2962706030868905,1.3159775152439026,-10.1833808712843,17.95773389862805,17.3992191807968,-1.825916704822951,5.136831447322516,-20.09611441798942,-1.981763136288998,-22.10428113553113,32.64525114565549,36.33531015065744,40.1691376883218,1577395876.0,-27.69190946637893,-51.127565092407,6.2345877
44602,1577395876.44,2.414289596036585,-0.7962180399080601,10.162977281226182,6.727356294064405,-1.2855695011790202,6.907096604063453,3.134185158631859,-4.199663292563833,6.286122446646342,2.6548432140815548,-9.937565501143292,-3.343721715415396,-3.891177293730945,2.857859541730183,-2.3197081030868905,-4.360292016006097,2.7560722537157014,8.80246046112805,17.3992191807968,-1.825916704822951,5.136831447322516,-20.09611441798942,-4.115969590754073,-24.14467631727247,32.45355976877228,36.57492437176146,40.360829065205024,1577395876.0,-27.69190946637893,-51.127565092407,6.2345877
44603,1577395876.45,1.6242030481850227,2.9854234823087364,10.440704673804309,1.7785414625214364,6.42615404618426,13.110473105528296,-1.2065024512314209,-3.397605736411489,6.3866789163729045,11.047177198456556,-6.229679758955792,-2.6112998404153966,-5.325503465605945,-14.018361161394816,-0.7633116187118902,1.5601181402439026,10.5075370974657,-10.11843797637195,18.22382672491039,-1.8259167048229512,4.251170852956562,-19.17149089336589,-3.5061963180497666,-24.824808044519585,32.54940545721389,36.67077006020308,40.02536915565939,1577395876.0,-27.69190946637893,-51.127565092407,6.2345877
44604,1577395876.46,2.0431883387123664,-5.519977915396341,6.794335545386337,4.199079340939405,-1.945172058552068,7.794148319151343,-0.0740450659775154,-2.9606639334329734,8.637228476919779,-2.929873582793445,-8.381169016768293,-4.625459996665397,1.617245557831555,3.346140791730183,-3.6319639624618905,4.901792944931403,12.7658378787157,-10.92715379668445,17.069376163151365,-0.7303666819291804,3.7197744963369854,-18.1890783984534,-1.9817631362889976,-26.185071499013805,32.64525114565549,36.45511726120945,40.31290622098422,1577395876.0,-27.69190946637893,-51.127565092407,6.2345877
44605,1577395876.47,0.6545513758217415,-1.3349134134432163,7.5748452865972755,3.535885481076124,-0.5864626164133955,17.86296340093845,2.5787303734756093,-1.894047093833364,10.51428257848228,-4.974551317168445,8.342463795731707,-2.611299840415396,-0.9614897937309452,-6.694142411394817,-2.0145323218368905,0.0037216558689026,8.1576835818407,-15.91677782012195,17.3992191807968,-0.7303666819291804,4.428302971829755,-19.17149089336589,0.457329954528231,-25.504939771766697,32.597328301434686,36.38323299487824,40.0732919998802,1577395876.0,-27.69190946637893,-51.127565092407,6.2345877
44606,1577395876.48,0.8365107019936165,3.247588564095846,12.631399192847274,2.5829932203339365,2.830063152629573,17.764801132872044,3.158127175233422,1.8624553109517907,14.25402557164634,4.333310010956555,11.302668873856708,-3.679415074790396,-1.9380522937309448,-2.696339677019817,-6.9583799780868905,-2.376649437881097,7.883025378715701,-12.52932664824695,17.3992191807968,-0.7303666819291804,4.428302971829755,-19.113701923076928,-1.829319818112921,-25.164873908143136,32.45355976877228,36.19154161799503,40.1691376883218,1577395876.0,-27.69190946637893,-51.127565092407,6.2345877
44607,1577395876.49,1.2159916651283822,-0.5556007730623569,10.095939634741804,3.642427454953077,-0.7277205143626148,11.138848038389623,2.432684072206078,2.816544672524057,9.290845530142436,-2.670474168730945,-3.330509837080793,-3.6794150747903966,-1.159854051543445,3.605540205792683,-3.8455870093368905,5.466368140243903,9.5767509646532,-6.212187976371951,16.821993899917288,-1.004254187652625,4.339736912393157,-16.94661553724054,-1.753098159024883,-12.072338158636237,32.54940545721389,36.45511726120945,40.121214844101,1577395876.0,-27.69190946637893,-51.127565092407,6.2345877
44608,1577395876.5,1.444637923673304,-1.016484592642435,9.523725437964464,1.8623385206269047,-2.315076215046208,9.895060275938452,3.3400865014052967,-1.269160460532583,11.79757466832603,3.4483002453315548,-2.369206126143293,-3.923555699790396,-3.158755418730945,-15.147511552019816,-4.3033506812118905,5.618956030868903,18.8388359255907,7.673310070503049,18.05890521608768,-1.825916704822951,3.3655102585906094,-16.628776200651203,0.7622165908803841,-25.504939771766697,32.597328301434686,36.479078683319855,40.02536915565939,1577395876.0,-27.69190946637893,-51.127565092407,6.2345877
44609,1577395876.51,1.1549395227943977,-0.5759514871736852,10.69927845310118,-0.2565299486113751,1.889141900188166,8.990052048399388,-2.8992030249618903,-8.020809142173208,11.333099546255715,-7.324404832793445,-11.677067454268292,-6.395479527915397,-4.104800340605945,-4.527394364519817,-5.4325010718368905,-0.0267959222560973,13.5592949099657,-6.669951648246951,18.553669742555822,-1.2781416933760694,4.251170852956559,-17.322243844118844,0.1524433181760772,-69.03337031558186,32.64525114565549,36.52700152754066,40.0732919998802,1577395876.0,-27.69190946637893,-51.127565092407,6.2345877
44610,1577395876.52,2.802150264981897,0.8031086690763148,10.263533750952744,-2.473560685916062,2.839639959270198,10.613320773985327,6.203551686952172,3.112228577553353,7.725037644400248,-0.3511382312309443,-4.429142649580792,-6.105562535727897,0.8085297375190549,1.1488751667301829,-5.7987120093368905,5.832579077743903,15.8481132693407,-9.44705125762195,18.553669742555822,-1.2781416933760694,4.251170852956559,-17.091087962962966,0.7622165908803841,-82.6360048605241,32.47752119088268,36.479078683319855,40.1691376883218,1577395876.0,-27.69190946637893,-51.127565092407,6.2345877
44611,1577395876.53,2.356828756192835,0.2644132955411576,9.28909367526915,5.168731013302687,-0.7001871952708173,4.595494901182593,0.400006862733422,-5.75948567415563,8.608498056997904,-1.4039946765434452,-10.578434641768292,-5.266329137290397,-0.656314012480945,-2.925221512957317,-5.783453220274391,-3.902528344131096,9.2563163943407,-15.09280321074695,18.718591251378545,-1.825916704822951,4.074038734083371,-16.859932081807084,0.457329954528231,-85.6965976331361,32.357714080330666,36.50304010543026,40.21706053254261,1577395876.0,-27.69190946637893,-51.127565092407,6.2345877
44612,1577395876.54,1.4661857386147104,-1.399556858267435,9.763145603980089,1.4265938184784677,-1.429221600788395,12.133638828184546,3.589083474061547,9.215048609291635,8.261338816275249,3.0210541515815548,22.136409108231707,-5.449434606040397,2.5175141125190548,-0.2854510051448171,-6.6532041968368905,10.013487280868905,8.9206230349657,-10.27102586699695,18.05890521608768,-1.4607333638583646,5.136831447322516,-16.859932081807084,1.6768764999368453,-69.03337031558186,32.6931739898763,36.38323299487824,40.21706053254261,1577395876.0,-27.69190946637893,-51.127565092407,6.2345877
44613,1577395876.55,3.012840011075648,-3.9565642313143097,6.708144285620713,1.5965821363495614,-1.6399113468821451,5.978146359922827,-0.0333436377548583,-2.427954064048208,10.09290308629478,-5.920596239043445,-3.956120188643293,-5.479952184165397,3.0668305187690548,7.099802901105183,-6.3480284155868905,7.083799780868903,13.1930839724657,-2.5805961794969514,17.3992191807968,-1.825916704822951,4.074038734083371,-16.859932081807084,1.6768764999368453,-69.03337031558186,32.45355976877228,36.57492437176146,40.21706053254261,1577395876.0,-27.69190946637893,-51.127565092407,6.2345877
44614,1577395876.56,1.7451102320229133,-0.312589304556498,10.659774125708603,2.3914570875214363,-2.011012604206364,9.6077560767197,2.403953652284203,-5.104671520102896,2.6756663431307173,1.1137055187690548,4.832942311356707,-6.319185582602897,1.2357758312690548,1.3624982136051829,-5.5240538062118905,4.093077124618903,25.1559745974657,-3.4656059451219514,16.5746116366832,-0.9129583524114792,5.313963566195704,-16.859932081807084,1.6768764999368453,-85.35653176951254,32.47752119088268,36.52700152754066,40.26498337676341,1577395876.0,-27.69190946637893,-51.127565092407,6.2345877
44615,1577395876.57,4.35838134408346,0.1854046407560013,1.6372251694097752,1.98683700695503,1.4976899287526195,11.641630387022436,2.5990810875869377,2.6453592538228845,13.411266587271342,12.115292432831556,-2.674381907393293,-4.869600621665397,3.982357862519055,-1.1704607707698171,-7.156744235899391,10.745909155868905,22.2415458865282,-8.85195848418445,16.739533145505927,-1.825916704822951,3.7197744963369854,-18.217972883597888,-3.277531340785651,-76.68485224711188,32.6931739898763,36.52700152754066,39.83367777877617,1577395876.0,-27.69190946637893,-51.127565092407,6.2345877
44616,1577395876.58,-0.6933841588462272,2.3306093282560023,13.194036582983994,-1.0394338914824688,-1.857783697956364,10.658810605528297,-2.077991855528296,-12.35431414705602,16.787090928091654,10.528378370331556,-4.719059641768292,-7.890840856040397,8.041195753144056,2.583201338605183,-6.9888975562118905,0.3394150152439026,-1.1806953244092988,-13.90261766387195,17.564140689619517,-0.5477750114468853,4.959699328449328,-20.905160002035004,1.3719898635846923,-24.824808044519585,32.50148261299308,36.38323299487824,40.360829065205024,1577395876.0,-27.69190946637893,-51.127565092407,6.2345877
44617,1577395876.59,-1.2225027257407584,-2.074721726431497,10.498165513648056,1.175202644162061,-2.164241510456364,10.357141196348609,5.959343117616235,7.311658289467416,6.970864121451029,2.7769135265815548,6.450373951981708,-6.548067418540397,3.1583832531440548,2.766306807355183,-7.1109678687118905,-1.5831924066310974,-10.2749336056593,-14.39089891387195,17.3992191807968,-2.556283386752136,4.074038734083371,-19.51822471509972,1.6768764999368453,-9.18177831783601,32.789019678317906,36.52700152754066,40.360829065205024,1577395876.0,-27.69190946637893,-51.127565092407,6.2345877
44618,1577395876.6,0.6509600733315072,-1.7993885355135286,9.73082388156798,3.303647920040968,-2.6095630192454267,10.838375730040015,0.6585806420302969,5.597409900795541,1.33970181676353,-5.417056199980944,-1.9267012433307924,-7.311006871665397,4.775814893769055,-4.008595536394817,-6.8057920874618905,11.051084937118905,13.4372245974657,1.1730659298780486,19.04843426902399,-1.825916704822951,4.782567209576139,-20.3272702991453,0.7622165908803841,-7.141383136094671,32.54940545721389,36.38323299487824,40.360829065205024,1577395876.0,-27.69190946637893,-51.127565092407,6.2345877
44619,1577395876.61,-0.1235641637290396,2.91958293665444,4.230145567358994,1.6576342786835463,2.810909539348323,8.009626468565406,3.800970320985375,-7.319308055747427,7.893828861441264,7.171444776581555,2.879817311356707,-4.076143590415397,0.2286957531440548,-6.236378739519816,-8.33167099371189,4.611875952743903,16.5957939334032,-1.802397937309451,17.069376163151365,-0.3651833409645902,4.074038734083371,-19.98053647741148,-1.371989863584691,-3.0605927726120026,32.64525114565549,36.550962949651066,40.28894479887381,1577395876.0,-27.69190946637893,-51.127565092407,6.2345877
44620,1577395876.62,0.4079486048256478,6.5396158468106895,5.048962535132431,0.8400144117401863,1.3265045100514472,7.670846933653296,-2.154606308653296,2.678878077065072,2.874385080923686,17.638974073456556,-21.686833079268293,-8.287569371665397,4.409603956269055,0.7521466511051829,-10.37634872808689,0.3088974371189026,19.1745292849657,-23.30203172637195,18.718591251378545,-2.921466727716725,3.7197744963369854,-19.63380265567766,-1.981763136288998,-3.740724499859112,32.50148261299308,36.57492437176146,40.1691376883218,1577395876.0,-27.69190946637893,-51.127565092407,6.2345877
44621,1577395876.63,2.593854720548304,-1.7371392923494662,7.397674363745713,4.7329863111542485,-2.3797196598704264,-0.6322444237685781,9.526703591249047,23.55152815030726,-1.504609755502095,11.169247510956556,-24.921696360518293,-10.149141637290397,3.3109711437690548,-3.947560380144817,-9.70496200933689,26.7981552496189,39.4076835818407,-3.1909477419969514,18.553669742555822,-0.5477750114468853,4.251170852956559,-17.322243844118844,-1.6768764999368446,-3.740724499859112,32.50148261299308,36.38323299487824,40.21706053254261,1577395876.0,-27.69190946637893,-51.127565092407,6.2345877
44622,1577395876.64,2.871582113126429,0.1207611959317836,10.159385978735946,2.6919293958710457,2.4122749629323077,6.41029975958103,-0.1518566199325932,-11.615702934897817,0.0564097269197803,-6.134219285918444,-10.975163157393292,-7.631441441977897,1.8919037609565548,-8.632008622332318,-9.14038681402439,14.881040991806405,80.7437431521532,-11.53750535918445,18.223826724910392,-0.9129583524114792,3.542642377463798,-17.322243844118844,-1.6768764999368446,-3.740724499859112,32.57336687932428,36.52700152754066,40.07329199988018,1577395876.0,-27.69190946637893,-51.127565092407,6.2345877
44623,1577395876.65,5.184380916837367,0.1279438009122513,6.870949998511338,8.467940900997998,1.5419826594655095,1.857725302793921,4.822097329042015,7.53910744718226,11.361829966177591,-7.904238817168445,-8.259098704268293,-8.836885777915397,1.1747406750190548,2.583201338605183,-7.47717880621189,33.9087509527439,88.0832206912157,-25.52981492949695,17.3992191807968,-0.7303666819291804,3.7197744963369854,-17.322243844118844,-4.115969590754073,-4.420856227106225,32.45355976877228,36.57492437176146,40.0732919998802,1577395876.0,-27.69190946637893,-51.127565092407,6.2345877
44624,1577395876.66,4.372746554044398,0.4080653951505326,10.36169601901915,5.784040839962843,1.7646434138600409,7.326081894590796,-2.772310336973609,-4.716810851157583,16.66259244176353,3.3567475109565548,-7.709782298018292,-9.538790074790397,-0.4732085437309451,-6.541554520769817,-8.14856552496189,16.8189072027439,51.9198906130907,-27.45242235137195,17.234297671974083,-0.1825916704822951,3.188378139717421,-17.322243844118844,-4.115969590754073,-4.420856227106225,32.26186839188906,36.479078683319855,40.1691376883218,1577395876.0,-27.69190946637893,-51.127565092407,6.2345877
44625,1577395876.67,2.7949676600014293,1.4112358907560023,10.306629380835556,2.439341120724561,0.5316295588795723,12.794438486387673,-2.9327218482040776,-0.5628709707864893,19.62182569371666,2.2581146984565548,8.922297780106707,-6.212374059165397,-0.5647612781059451,-2.574269364519817,-11.50549911871189,-1.9494033441310967,9.3478691287157,-26.99465867949695,19.213355777846708,-0.1825916704822951,3.8969066152101823,-17.148876933251934,-3.658639636225843,-14.96289799943646,32.64525114565549,36.479078683319855,40.360829065205024,1577395876.0,-27.69190946637893,-51.127565092407,6.2345877
44626,1577395876.68,3.219938454679164,-2.454202689566263,6.927213737525009,4.427725599484327,-3.312261206501286,11.49199278326267,2.6936520531631096,8.396231641518197,14.910036826529154,-7.324404832793444,0.7283280535442076,-8.989473668540397,3.0973480968940548,-4.908864091082316,-8.60632919683689,-10.280702172256095,-41.8301093869093,-1.512480945121951,17.234297671974083,-0.5477750114468853,2.8341139019710444,-18.940335012210014,-3.506196318049766,-14.96289799943646,32.45355976877228,36.550962949651066,40.26498337676341,1577395876.0,-27.69190946637893,-51.127565092407,6.2345877
44627,1577395876.69,-0.4084741612876334,-0.1593603983064976,11.221214415015243,3.6364419508026864,3.6488801204030095,15.083295273497043,1.637809121034203,-4.266700939048208,10.854259214224466,-4.211611864043445,19.359309498856707,-7.066866246665397,-5.874819871855945,7.771189619855183,-13.48914169683689,-24.3493056878811,-68.3804023556593,7.368134289253049,18.05890521608768,-2.556283386752136,4.428302971829755,-18.88254604192104,-4.26841290893015,-4.08079036348267,32.45355976877228,36.57492437176146,40.360829065205024,1577395876.0,-27.69190946637893,-51.127565092407,6.2345877
44628,1577395876.7,2.5052692591225227,1.2005461446622514,9.245998045386338,5.468006220822218,-0.2512743839915204,4.965399057676734,1.5947134911513905,1.0388499398580409,5.163241868033061,-7.751650926543445,-6.946842844893292,-8.318086949790397,-3.830142137480945,9.236033369855184,-9.70496200933689,-22.9454970941311,-75.9792793087843,5.323456554878049,18.223826724910392,-0.5477750114468853,3.8969066152101823,-17.322243844118844,-3.5061963180497666,-12.582436954071568,32.50148261299308,36.52700152754066,40.360829065205024,1577395876.0,-27.69190946637893,-51.127565092407,6.2345877
44629,1577395876.71,1.4578060328041635,0.4846798482755336,7.989042173804306,3.2749175001190927,2.051947613078791,7.09384433355564,0.0863664452529531,3.207996643959603,7.203101682486186,2.6548432140815548,-2.002995188643292,-8.669039098227897,-5.691714403105945,-1.5061541301448171,-8.51477646246189,-24.5324111566311,-70.6692207150343,6.635712414253049,17.64660144403088,-1.5520291990995103,3.808340555773584,-17.322243844118844,-3.5061963180497666,-12.582436954071568,32.597328301434686,36.57492437176146,40.26498337676341,1577395876.0,-27.69190946637893,-51.127565092407,6.2345877
44630,1577395876.72,0.5611775110756478,5.993737868295065,10.5340785385504,0.0355626539276869,2.749857397014338,11.216659592344705,3.871599269959984,-6.026439159263052,5.460122873892436,9.948544385956556,3.398616139481707,-7.372042027915397,-3.311343309355945,0.1265362995426828,-9.04883407964939,-38.8451552972561,-48.0404365353468,-13.79580614043445,17.564140689619517,-2.0085083753052464,4.251170852956559,-17.033298992673995,-2.4390930908172286,-14.96289799943646,32.83694252253871,36.479078683319855,40.07329199988018,1577395876.0,-27.69190946637893,-51.127565092407,6.2345877
44631,1577395876.73,1.1501511194740852,-2.2207680277010287,9.186143003882432,3.8112186719940926,-2.834617975300114,6.04039560308689,7.122925124452172,12.408913623940071,4.684401536001811,-10.864443895293444,-7.374088938643292,-10.790010777915397,-3.616519090605945,3.925974776105183,-10.89514755621189,-4.665467797256097,-18.7283027462843,-7.860137195121951,17.564140689619517,-2.0085083753052464,4.251170852956559,-16.917721052096056,-3.963526272577997,-14.96289799943646,32.50148261299308,36.52700152754066,40.21706053254261,1577395876.0,-27.69190946637893,-51.127565092407,6.2345877
44632,1577395876.74,0.7575020472084603,-3.470541294302591,9.210085020483994,2.271747004513624,0.1581340998951973,14.044211752989233,-3.816182260801734,-3.402394139731802,2.6684837381502486,-11.718936082793444,-2.949040110518293,-7.280489293540397,-9.781069871855944,-14.689747880144816,-5.9207823218368905,-2.956483422256097,18.4726249880907,0.8373725705030487,17.893983707264955,-1.2781416933760694,3.8969066152101823,-18.88254604192104,-3.963526272577997,-21.084083544660466,32.64525114565549,36.19154161799503,40.21706053254261,1577395876.0,-27.69190946637893,-51.127565092407,6.2345877
44633,1577395876.75,0.7431368372475228,0.8821173238614706,9.40401535495665,0.5598928175019051,-0.5170307682688642,10.491216489317358,4.1612976708388905,-1.5109748282083642,5.261404136099467,-15.121646043730944,-0.6907393292682928,-8.134981481040397,-0.6563140124809451,-6.694142411394817,-13.09241318121189,4.917051733993903,31.3205253787157,-2.9773246951219514,17.976444461676316,-1.7346208695818075,3.099812080280827,-18.70917913105413,-1.981763136288998,-21.084083544660466,32.40563692455147,36.38323299487824,40.1691376883218,1577395876.0,-27.69190946637893,-51.127565092407,6.2345877
44634,1577395876.76,2.553153292325648,0.6403029561856889,8.283528978003526,1.861141419796827,1.710773876506526,8.233484323790014,4.564720650575219,0.987374604164682,12.157902018179543,6.927304151581555,-11.829655344893292,-7.768770543540397,-5.768008348418445,-3.138844559832317,-9.01831650152439,4.474546851181404,29.1537773318407,-0.2917778201219509,17.564140689619517,-1.2781416933760694,2.8341139019710444,-18.593601190476196,-1.981763136288998,-18.703622499295577,32.50148261299308,36.479078683319855,40.21706053254261,1577395876.0,-27.69190946637893,-51.127565092407,6.2345877
44635,1577395876.77,1.597866829923304,1.401659084115377,12.044819786108992,1.467295246701124,2.071101226360041,9.586208261778294,1.8820176903701404,5.5327664559713226,12.659487265982278,-8.056826707793444,-6.336491282393292,-9.416719762290397,-6.851382371855945,-6.816212723894817,-10.55945419683689,3.055479468368903,5.960417956840701,-15.03176805449695,17.564140689619517,-1.2781416933760694,2.8341139019710444,-19.17149089336589,-1.981763136288998,-20.0638859537898,32.64525114565549,36.38323299487824,40.360829065205024,1577395876.0,-27.69190946637893,-51.127565092407,6.2345877
44636,1577395876.78,2.754266231778773,-0.4370877908846226,9.030519895972276,2.724251118283155,-2.4635167179758954,4.714007883360328,-0.3876854834579833,0.7515457406392909,11.649134165396342,-10.437197801543444,-12.073795969893292,-8.989473668540397,-4.928774949980945,1.5150861042301829,-7.87390732183689,-6.618592797256097,-2.8591621212842986,-16.19143602324695,17.3992191807968,-2.556283386752136,3.3655102585906094,-16.917721052096056,-1.2195465454086138,-74.8144899971823,32.45355976877228,36.57492437176146,40.0732919998802,1577395876.0,-27.69190946637893,-51.127565092407,6.2345877
44637,1577395876.79,1.8396811975990848,-1.637779923452982,9.21846472629454,0.7346695386933119,1.6700724482838694,10.602546866514624,0.5113372399306876,-3.115089940513052,8.294857639517435,-8.667178270293444,4.1920731707317085,-7.219454137290397,-11.261172410918444,-5.000416825457317,-7.87390732183689,-15.560243187881095,-16.2258613400343,-21.79141160918445,17.64660144403088,-1.18684585813492,3.276944199154016,-18.16018391330892,-0.0762216590880382,-71.92393015638208,32.57336687932428,36.43115583909905,40.28894479887381,1577395876.0,-27.69190946637893,-51.127565092407,6.2345877
44638,1577395876.8,2.624979342130336,1.80867336634194,12.205231297339465,7.582086286740187,2.1165910579030096,5.451421994688452,2.9546200341201407,12.05217757657679,9.750532248892435,-14.343447801543444,-16.071598704268293,-10.057588902915397,-13.107485887480944,12.654002119855184,-11.62756943121189,-21.8468642816311,-24.9538886837843,-14.17727586699695,17.729062198442236,-0.3651833409645902,3.3655102585906094,-18.940335012210014,1.0671032272325378,-69.71350204282896,32.6931739898763,36.479078683319855,40.1691376883218,1577395876.0,-27.69190946637893,-51.127565092407,6.2345877
44639,1577395876.81,2.3592229578529915,1.0521056417325638,8.26676956638243,3.5909521192597174,-2.5856210026438644,4.874419394590796,5.427830349061547,11.61882707608851,5.474488083853373,-0.4884673327934451,0.6520341082317074,-9.721895543540397,-7.492251512480945,-7.457081864519817,-9.52185654058689,-6.313417016006097,-17.6296699337843,5.201386242378049,17.729062198442236,-0.3651833409645902,3.3655102585906094,-18.5936011904762,-4.420856227106227,-68.35323858833475,32.64525114565549,36.67077006020308,40.26498337676341,1577395876.0,-27.69190946637893,-51.127565092407,6.2345877
44640,1577395876.82,2.320915731290492,-4.10979313756431,7.589210496558213,2.992401704220655,1.3312929133717597,13.38820049810642,-1.5680269019150146,-1.508580626548208,5.785734299673686,-14.404482957793444,9.196955983231708,-9.569307652915397,-8.316226121855944,-11.699025223894816,-8.27063583746189,-9.212586937881095,-8.9321601681593,6.116913586128049,16.904454654328646,-1.2781416933760694,2.8341139019710444,-19.17149089336589,1.9817631362889991,-69.71350204282896,32.64525114565549,36.38323299487824,40.26498337676341,1577395876.0,-27.69190946637893,-51.127565092407,6.2345877
44641,1577395876.83,1.3560524622475227,0.3206770345548305,10.185722196997666,2.945714771847608,0.4023426692311352,10.99998434210056,2.661330330751001,-2.4040120474466464,9.839117710318217,-9.491152879668444,12.477595631669208,-7.860323277915397,-7.065005418730944,3.864939619855183,-9.12512802496189,-5.779359398818597,5.395842761528201,2.4395454220655486,16.24476861903777,-1.6433250343406596,2.656981783097852,-19.229279863654867,-4.115969590754073,-73.11416067906453,32.62128972354509,36.407194416988645,40.1691376883218,1577395876.0,-27.69190946637893,-51.127565092407,6.2345877
44642,1577395876.84,-1.0405433995688833,0.1949814473966264,15.612180259741804,-2.198227494998094,0.0719428401295723,12.32278075933689,-5.956598544981421,-5.190862779868521,20.10545442906822,-9.338564989043444,-2.033512766768293,-8.623262731040397,-3.677554246855945,-9.227101395769816,-9.06409286871189,-11.776063500381095,-15.0356757931593,-20.06716844512195,17.564140689619517,-0.5477750114468853,3.542642377463798,-19.7493805962556,-4.420856227106227,-77.87508276979432,32.64525114565549,36.19154161799503,40.0732919998802,1577395876.0,-27.69190946637893,-51.127565092407,6.2345877
44643,1577395876.85,0.247537093595179,-0.4035689676424351,8.53492015231993,-0.5294689378691877,2.983292058879573,16.58685391607517,6.608171767518578,3.533608069740853,19.85166905309166,-1.5565825671684452,7.549006764481708,-8.012911168540397,-6.576724168730945,2.644236494855183,-8.14856552496189,-8.022401391006097,-42.7761543087843,-28.94778367949695,17.564140689619517,-0.5477750114468853,3.542642377463798,-20.905160002035004,0.457329954528231,-73.79429240631164,32.50148261299308,36.71869290442388,40.21706053254261,1577395876.0,-27.69190946637893,-51.127565092407,6.2345877
44644,1577395876.86,1.9474202723061167,-1.7622784097811068,14.79815169528868,4.891003620724561,-1.9894647892649575,11.235813205625952,1.264313662049828,7.184765601479135,8.584556040396341,-7.919497606230944,-13.798039133955792,-9.019991246665397,0.3202484875190549,13.844187666730184,-9.39978622808689,-9.731385766006095,-42.6540839962843,-7.677031726371951,17.15183691756272,-2.099804210546397,3.631208436900392,-19.7493805962556,-1.3719898635846908,-72.43402895181741,32.50148261299308,36.19154161799503,40.408751909425824,1577395876.0,-27.69190946637893,-51.127565092407,6.2345877
44645,1577395876.87,-0.7005667638266959,-1.8257247537752477,11.992147349585556,1.3595561719940932,-1.1239608891184742,9.950126914122048,0.9291254296279532,1.606275733315072,6.222676102652201,-15.411563035918444,17.009455983231707,-7.127901402915397,-5.966372606230945,-3.779713700457317,-7.4619200171493905,-15.743348656631095,-30.7674873165968,-2.0007621951219514,17.893983707264955,-1.2781416933760694,4.251170852956559,-19.576013685388688,-1.6768764999368444,-74.47442413355876,32.50148261299308,36.43115583909905,40.1451762662114,1577395876.0,-27.69190946637893,-51.127565092407,6.2345877
44646,1577395876.88,4.925807137540492,0.6666391744474077,5.693002781714463,5.649965546994093,3.5579004573170727,12.004351938536107,11.779647353456076,14.13992142423304,3.468147092642436,0.9763764172065548,-1.6062666730182926,-6.029268590415397,-6.912417528105945,7.252390791730183,-9.30823349371189,-0.9423232660060974,-9.9087226681593,7.734345226753049,18.05890521608768,-1.4607333638583646,4.428302971829755,-19.51822471509972,-1.981763136288998,-73.79429240631164,32.6931739898763,36.52700152754066,40.21706053254261,1577395876.0,-27.69190946637893,-51.127565092407,6.2345877
44647,1577395876.89,1.195640951017054,0.2069524556974076,8.499007127417588,3.5837695142792487,-0.7803929508860517,8.621344992735327,-7.192006601622047,-10.608941136802114,8.50315318395103,5.523495557831555,-12.317936594893292,-8.531709996665397,-6.210513231230945,2.705271651105183,-7.2025206030868905,-7.534120141006097,11.7587578005907,9.77902296112805,18.05890521608768,-1.4607333638583646,4.428302971829755,-20.09611441798942,-4.420856227106227,-5.100987954353339,32.45355976877228,36.28738730643664,40.408751909425824,1577395876.0,-27.69190946637893,-51.127565092407,6.2345877
44648,1577395876.9,2.8260922815834606,-0.1461922891756386,10.79624362033751,2.767346748165968,1.3073508967701972,7.541560044004859,4.599436574647484,1.261510694252572,3.776999106802592,-6.393618699980945,-3.376286204268292,-7.890840856040397,-8.102603074980944,-1.0483904582698171,-5.5850889624618905,0.6751083746189026,15.9091484255907,-6.456328601371951,17.893983707264958,-1.6433250343406596,3.188378139717421,-20.03832544770045,-1.829319818112921,-5.441053817976894,32.38167550244107,36.33531015065744,40.408751909425824,1577395876.0,-27.69190946637893,-51.127565092407,6.2345877
44649,1577395876.91,1.3464756556068975,-0.1545719949861851,9.473447203101182,2.2190745679901864,0.5268411555592606,12.607690756895485,1.533661348817407,-3.4143651480325827,16.70089966832603,0.8543061047065549,15.117366139481708,-6.151338902915397,-6.088442918730945,1.4998273151676829,-6.4700987280868905,0.9497665777439028,1.0165703005907003,-15.59634324980945,17.564140689619517,-2.37369171626984,3.542642377463798,-17.148876933251934,-4.420856227106227,-17.68342490842491,32.45355976877228,36.43115583909905,40.16913768832181,1577395876.0,-27.69190946637893,-51.127565092407,6.2345877
44650,1577395876.92,-0.6957783605063834,-1.1745019022127474,11.984964744605088,-0.7832543138457502,2.437414080363947,13.859858225157202,-0.1506595191025145,-3.040869689048208,9.17831805211509,-3.997988817168445,14.293391530106708,-5.144258824790397,-5.294985887480945,4.292185713605183,-6.6532041968368905,-13.179872094131095,-11.1294257931593,-19.09060594512195,17.3992191807968,-1.825916704822951,2.3027175453514714,-17.322243844118844,-4.420856227106227,-14.622832135812905,32.64525114565549,36.38323299487824,40.408751909425824,1577395876.0,-27.69190946637893,-51.127565092407,6.2345877
44651,1577395876.93,0.4007659998451791,0.4152480001310014,10.54126114353087,-1.4512365770293438,-1.608786725300114,12.428125632383765,4.690416237733422,13.809521595131478,9.961221994986186,-3.509707567168445,2.574641530106707,-6.303926793540397,4.653744581269055,-2.452199052019817,-5.3409483374618905,-0.9728408441310974,-12.9909980587843,-11.18655321074695,17.3992191807968,-1.825916704822951,2.3027175453514714,-17.206665903540905,-4.115969590754073,-20.74401768103691,32.64525114565549,36.57492437176146,40.1691376883218,1577395876.0,-27.69190946637893,-51.127565092407,6.2345877
44652,1577395876.94,-0.0445555089438834,-3.3101297830721226,10.33535980075743,0.6556608839081556,-4.781103925007145,8.023991678526343,2.1262262597060784,-0.7998969351419586,7.485617478384623,-2.914614793730945,0.0111649676067084,-6.502291051352897,1.952938917206555,0.1875714557926828,-6.576910251524391,1.4227890386814028,10.7059013552782,2.2564399533155486,16.98691540874,-1.9172125400640987,2.922679961407635,-19.113701923076924,2.743979727169384,-23.46454459002536,32.57336687932429,36.38323299487824,39.83367777877618,1577395876.0,-27.69190946637893,-51.127565092407,6.2345877
44653,1577395876.95,1.3536582605873666,2.931553944955221,10.751950889624618,0.5814406324433113,4.422207256633479,12.34193437261814,-2.1641831152939206,0.694084900795541,5.742638669790873,-0.0307036609184451,-4.108708079268292,-6.120821324790397,5.019955518769055,-2.848927567644817,-8.42322372808689,4.825498999618903,16.9467460818407,-1.5124809451219514,16.5746116366832,-2.0085083753052464,2.125585426478283,-20.789582061457065,8.07949586333207,-25.504939771766697,32.30979123610986,36.33531015065744,40.1691376883218,1577395876.0,-27.69190946637893,-51.127565092407,6.2345877
44654,1577395876.96,0.3864007898842415,-0.0659865335604038,9.241209642066028,0.5239797925995614,0.0432124202076973,8.008429367735328,1.6928757592177968,7.938939124428353,12.166281723990092,-2.838320848418445,-10.029118235518292,-7.799288121665397,1.1747406750190548,11.097605635480184,-8.08753036871189,16.9104599371189,14.7799980349657,5.384491711128049,17.3992191807968,-0.7303666819291804,2.3027175453514714,-20.3272702991453,8.07949586333207,-25.504939771766697,32.64525114565549,36.52700152754066,40.26498337676341,1577395876.0,-27.69190946637893,-51.127565092407,6.2345877
44655,1577395876.97,2.076707161954554,-0.2383690530916538,7.977071165503525,1.2542112989472176,-2.372537054889958,4.685277463438452,-1.6230935400986082,-16.615993102134144,11.36901257115806,1.6172455578315548,-6.275456126143292,-7.829805699790397,1.7545746593940548,1.9118146198551829,-6.4700987280868905,-3.566834984756097,8.7375175662157,-9.78274461699695,16.244768619037774,-1.2781416933760694,2.8341139019710444,-20.789582061457065,-4.115969590754073,-24.14467631727247,32.6931739898763,36.52700152754066,40.1691376883218,1577395876.0,-27.69190946637893,-51.127565092407,6.2345877
44656,1577395876.98,0.5085050745522103,-2.806150333609232,12.475776084937118,-1.190268596072313,-0.6822306828196454,11.293274045469705,-2.6753451697372803,4.215955542885385,11.863415213980328,-7.263369676543444,6.190974537919208,-6.410738316977897,3.2804535656440548,-2.4979754192073167,-6.5616514624618905,8.106138648056405,-3.5152900509717986,-20.87588426543445,16.32722937344913,-1.734620869581807,2.9226799614076384,-20.789582061457065,-4.115969590754073,-24.14467631727247,32.62128972354509,36.550962949651066,40.31290622098422,1577395876.0,-27.69190946637893,-51.127565092407,6.2345877
44657,1577395876.99,1.7726435511147105,0.7288884176114702,10.716037864722274,1.3404025587128428,0.6585222468678534,9.00920566168064,-3.2439680640243904,-8.418246617759145,11.957986179556498,-2.716250535918445,-11.921208079268292,-6.090303746665397,5.447201612519055,8.747752119855184,-5.9818174780868905,-2.193543969131097,0.1010429568407012,-12.46829149199695,18.05890521608768,-1.0955500228937742,0.8856605943659495,-17.322243844118844,-3.81108295440192,-25.504939771766697,32.357714080330666,36.33531015065744,40.26498337676341,1577395876.0,-27.69190946637893,-51.127565092407,6.2345877
44658,1577395877.0,0.9131251551186166,2.265965883431784,11.735967771948838,1.46968944836128,-2.506612347858708,9.421008347227511,4.992085646913109,2.796193958412728,6.733838157095561,13.549618604706556,5.260188405106708,-7.494112340415397,5.080990675019055,0.0807599323551829,-6.6532041968368905,-1.4306045160060974,-0.2041328244092987,-16.37454149199695,16.244768619037774,-3.1040583981990206,3.188378139717421,-18.940335012210014,-4.420856227106227,-24.824808044519585,32.50148261299308,36.479078683319855,40.21706053254261,1577395877.0,-27.691888295594563,-51.127629159150686,6.7162695
44659,1577395877.01,2.963758877042445,-4.968114432730325,9.855322367896104,2.994795905880811,-1.4818940373118328,6.923856015684546,7.228269997499047,15.763190149818978,5.462517075552592,-5.645938035918445,3.658015553544208,-6.654878941977897,4.501156690644055,2.278025557355183,-6.4700987280868905,21.1218857183689,5.411101550590701,1.2035835080030486,16.5746116366832,-2.37369171626984,3.542642377463798,-18.940335012210014,-4.420856227106227,-24.824808044519585,32.47752119088268,36.67077006020308,40.360829065205024,1577395877.0,-27.691888295594563,-51.127629159150686,6.7162695
44660,1577395877.02,0.1302212122475218,1.5477053853849083,8.908415611304306,1.3356141553925305,0.2215804438893384,10.0183616614365,-3.2391796607040773,-8.609782750571645,14.13910389195884,10.711483839081556,20.335871998856707,-6.303926793540397,5.172543409394055,2.812083174542683,-5.020513767149391,3.467466773056403,9.9582206912157,4.087494640815549,17.729062198442236,-1.825916704822951,2.3027175453514714,-17.29334935897436,-3.1250880226095745,-14.11273334037757,32.50148261299308,36.52700152754066,40.28894479887381,1577395877.0,-27.691888295594563,-51.127629159150686,6.7162695
44661,1577395877.03,0.5492065027748666,1.791913954720846,11.04404349216368,-5.322660661502,3.5531120539967604,10.103355820372046,8.897028554627953,2.506495557533822,7.729826047720561,2.2275971203315548,2.025325123856707,-5.418917027915397,2.9447602062690548,3.193552901105183,-3.3878233374618905,6.320860327743903,0.6808769412157012,-12.07156297637195,17.3992191807968,-3.286650068681319,3.0112460208442324,-17.091087962962966,-1.981763136288998,-26.185071499013805,32.64525114565549,36.479078683319855,40.360829065205024,1577395877.0,-27.691888295594563,-51.127629159150686,6.7162695
44662,1577395877.04,1.8085565760170537,3.036898818002096,12.001724156226182,1.6851675977753426,2.834851555949885,13.96280889654392,-0.356560861875952,0.8928036385885096,8.766515366568218,1.2510346203315548,-9.571354563643292,-6.792208043540397,1.9376801281440548,6.062205244855183,-4.8221495093368905,6.656553687118903,6.265593738090701,-1.4514457888719514,16.5746116366832,-2.37369171626984,3.8969066152101823,-16.859932081807084,-3.81108295440192,-75.15455586080586,32.6931739898763,36.52700152754066,40.0732919998802,1577395877.0,-27.691888295594563,-51.127629159150686,6.7162695
44663,1577395877.05,-0.9651260472739616,-0.9925425760408724,9.35254001926329,2.271747004513624,-2.465910919636052,7.881536679747046,-3.507330246641578,-10.307271727622426,10.842288205923683,-1.663394090605945,16.124446217606707,-4.366060582602897,3.921322706269055,5.879099776105183,-6.6837217749618905,-3.200624047256097,5.197478503715701,-18.08352586699695,17.069376163151365,-3.6518334096459095,3.0112460208442324,-16.859932081807084,-3.81108295440192,-75.15455586080586,32.64525114565549,36.52700152754066,40.26498337676341,1577395877.0,-27.691888295594563,-51.127629159150686,6.7162695
44664,1577395877.06,0.5683601160561166,-0.0348619119783726,10.136641062964465,-0.7186108690215314,-1.6877953800852703,9.447344565489232,1.9981364708877196,1.5931076241842137,10.847076609244,-6.469912645293445,-4.505436594893292,-5.907198277915397,3.707699659394055,-3.184620927019817,-5.8292295874618905,2.124693335556403,6.6318046755907005,-14.92495653105945,17.069376163151365,-2.921466727716725,3.3655102585906094,-17.784555606430608,-1.371989863584691,-82.29593899690053,32.6931739898763,36.38323299487824,40.121214844101,1577395877.0,-27.691888295594563,-51.127629159150686,6.7162695
44665,1577395877.07,-0.4683292027915396,-1.7012262674471226,10.306629380835556,1.428988020138624,-0.3757728703196454,11.393830515196266,-0.2823406104111083,4.757045118080697,10.282045017447125,-5.981631395293445,-5.085270579268292,-5.937715856040397,1.3578461437690548,-1.2925310832698171,-7.1414854468368905,6.626036108993903,1.5353691287157012,-5.968047351371951,17.069376163151365,-2.191100045787545,1.5941890698587031,-18.24686736874237,0.457329954528231,-85.35653176951254,32.50148261299308,36.28738730643664,40.1691376883218,1577395877.0,-27.691888295594563,-51.127629159150686,6.7162695
44666,1577395877.08,-1.8641487706626332,-0.7076325784822788,7.301906297339462,0.8878984449433113,1.4366377864186346,12.933302182676734,10.81957248773342,6.784933924233041,5.792916904654154,10.070614698456556,5.778987233231708,-4.961153356040397,0.2897309093940549,-2.299611161394817,-4.5780088843368905,9.158995093368905,7.303191394340701,3.1872260861280486,18.05890521608768,-2.921466727716725,2.6569817830978484,-18.940335012210014,0.457329954528231,-85.35653176951254,32.64525114565549,36.52700152754066,40.26498337676341,1577395877.0,-27.691888295594563,-51.127629159150686,6.7162695
44667,1577395877.09,0.0859284815346322,1.1825896322110798,6.627938530005478,0.3360349622772963,1.6868318599049628,6.680844547178687,-0.1530537207626713,-8.952153587973989,3.64412091466392,-0.2595854968559451,-8.304875071455793,-4.915376988852897,1.8613861828315548,-1.307789872332317,-8.33167099371189,3.467466773056403,26.6055595584032,-0.9326469607469514,18.553669742555822,-1.2781416933760694,2.125585426478283,-18.940335012210014,0.457329954528231,-79.23534622428853,32.47752119088268,36.550962949651066,40.21706053254261,1577395877.0,-27.691888295594563,-51.127629159150686,6.7162695
44668,1577395877.1,3.259442782071741,-2.8241068460604035,6.945170249976181,4.237386567501905,-2.0421372257883954,3.686895371153296,-0.4164159033798583,-7.664073094809927,10.693847702994,-10.254092332793444,-16.651432688643293,-8.012911168540397,-0.3816558093559451,-0.8347674113948171,-3.6319639624618905,0.3699325933689026,13.5592949099657,-23.54617235137195,18.223826724910392,-2.37369171626984,2.47984966422466,-18.940335012210014,-1.981763136288998,-77.87508276979432,32.64525114565549,36.33531015065744,40.26498337676341,1577395877.0,-27.691888295594563,-51.127629159150686,6.7162695
44669,1577395877.11,1.954602877286585,-3.199996506704935,8.089598643530868,3.7896708570526862,-2.5760441960032394,5.8057638403915774,4.2546715355849845,4.627758228432259,10.600473838247904,-1.7396880359184452,-10.731022532393292,-6.639620152915397,-3.097720262480945,-1.5061541301448171,-10.10169052496189,0.2783798589939026,-1.5774238400342988,-21.34890672637195,18.553669742555822,-3.1040583981990206,3.188378139717421,-21.020737942612943,-3.2013096816976128,-20.74401768103691,32.50148261299308,36.38323299487824,40.26498337676341,1577395877.0,-27.691888295594563,-51.127629159150686,6.7162695
44670,1577395877.12,3.6712454676186166,-2.7355213846346222,10.991371055640244,4.160772114376905,-2.1690299137766766,10.862317746641578,0.4431024926162344,6.078644434486948,9.796022080435405,-3.112979051543445,-2.125065501143293,-5.724092809165397,-7.980532762480945,-8.189503739519816,-3.2047178687118905,6.931211890243903,1.1386406130907012,-5.723906726371951,19.04843426902399,-2.556283386752136,1.9484533076050947,-19.576013685388688,-0.6097732727043068,-9.521844181459564,32.50148261299308,36.52700152754066,40.21706053254261,1577395877.0,-27.691888295594563,-51.127629159150686,6.7162695
44671,1577395877.13,1.340490151456507,0.9671114827970174,12.177697978247666,-0.0075329759551256,1.0918727473561347,8.551913144590797,-1.007783713438452,-2.1586063772806305,7.780104282583842,-2.884097215605945,-4.596989329268292,-5.785127965415397,-2.304263231230945,0.4164532917301828,-6.2564756812118905,1.7584823980564028,6.341887683403201,3.0804145626905486,18.223826724910392,-2.0085083753052464,2.8341139019710444,-20.15390338827839,-0.6097732727043068,-6.801317272471117,32.45355976877228,36.550962949651066,40.26498337676341,1577395877.0,-27.691888295594563,-51.127629159150686,6.7162695
44672,1577395877.14,2.6752575769936167,-1.3061829935213412,10.091151231421494,4.218232954220655,-3.636675531452458,6.63415761480564,-4.137005283262671,-7.137348729575552,12.30035701695884,-6.988711473418445,-3.498356516768293,-7.372042027915397,-2.029605028105945,0.2028302448551829,-5.5545713843368905,-7.869813500381097,-1.3943183712842988,-4.808379382621951,17.564140689619517,-2.0085083753052464,3.8969066152101823,-19.63380265567766,-4.115969590754073,1.0201975908706693,32.45355976877228,36.479078683319855,40.0732919998802,1577395877.0,-27.691888295594563,-51.127629159150686,6.7162695
44673,1577395877.15,3.1995877405678352,-0.2670994730135289,9.976229551733994,0.8591680250214363,2.063918621379572,9.547901035215794,0.5268995507217031,-1.5732240713724268,13.179029026236185,-1.0377837390434452,-0.9653975323932926,-6.639620152915397,-8.590884324980944,-0.6516619426448171,-4.8831846655868905,-7.503602562881097,-8.8100898556593,-8.65359422637195,16.5746116366832,-2.7388750572344303,2.125585426478283,-19.86495853683354,-3.2013096816976128,-3.740724499859112,32.45355976877228,36.52700152754066,40.360829065205024,1577395877.0,-27.691888295594563,-51.127629159150686,6.7162695
44674,1577395877.16,2.470553335050257,-0.0468329202791543,8.149453685034775,-1.2788540574980938,0.6130324153248847,8.384319028379858,-1.5776037085556396,-7.867580235923208,12.508652561392436,0.472836378144055,11.790950123856708,-5.373140660727897,-2.700991746855945,2.857859541730183,-5.5545713843368905,-8.968446312881097,-21.5969550900343,-8.65359422637195,16.986915408740003,-2.6475792219932828,2.037019367041689,-17.322243844118844,-3.2013096816976128,-3.740724499859112,32.6931739898763,36.52700152754066,40.21706053254261,1577395877.0,-27.691888295594563,-51.127629159150686,6.7162695
44675,1577395877.17,1.233948177579554,1.195757741341939,7.7759582260504,1.287730122189405,-1.0724855534251143,8.605782681944312,-0.8964533362411864,8.87387487271937,8.626454569449077,7.659726026581555,3.551204030106707,-5.327364293540397,-1.098818895293445,6.260569502667683,-5.7376768530868905,0.1105331793064028,-35.7113349728468,-1.451445788871951,16.904454654328646,-2.7388750572344303,2.125585426478283,-17.11998244810745,-4.039747931666035,-9.691877113271344,32.597328301434686,36.50304010543026,40.1930991104322,1577395877.0,-27.691888295594563,-51.127629159150686,6.7162695
44676,1577395877.18,1.233948177579554,-2.962970542349466,10.632240806616808,0.5287681959198739,-4.168188300007145,10.63726279058689,-1.3166357275986085,-9.878709630454455,7.203101682486186,0.3355072765815549,11.638362233231708,-5.205293981040397,-1.4192534656059452,-1.2009783488948171,-4.4559385718368905,-8.022401391006097,-11.5261543087843,13.04440382050305,16.904454654328646,-2.7388750572344303,2.125585426478283,-17.322243844118844,-4.420856227106227,-11.222173499577346,32.357714080330666,36.28738730643664,40.408751909425824,1577395877.0,-27.691888295594563,-51.127629159150686,6.7162695
44677,1577395877.19,1.990515902188929,-0.6669311502596226,12.904338182105088,-1.9564131273223129,-0.5577321964915204,15.854228208067358,-0.739633127500952,-3.416759349692739,16.624285215201027,-8.880801317168444,1.872737233231708,-5.785127965415397,3.768734815644055,3.010447432355183,-3.5709288062118905,-10.555360375381095,-13.2351386837843,-0.5664360232469513,17.069376163151365,-4.0170167506105,3.3655102585906094,-17.206665903540905,-4.420856227106227,-19.38375422654269,32.597328301434686,36.52700152754066,40.360829065205024,1577395877.0,-27.691888295594563,-51.127629159150686,6.7162695
44678,1577395877.2,0.8221454920326791,-2.077115928091654,11.967008232153916,3.260552290158155,-2.5137949528391768,8.949350620176732,7.697533522889672,14.590031336342417,11.850247104849467,-2.151675340605945,4.802424733231708,-5.464693395102897,0.6254242687690549,10.273631026105184,-7.29407333746189,-2.559754906631097,-14.7915351681593,-1.5429985232469514,19.378277286669423,-2.373691716269838,3.5426423774638014,-20.905160002035004,-4.420856227106227,-20.74401768103691,32.74109683409711,36.52700152754066,40.1691376883218,1577395877.0,-27.691888295594563,-51.127629159150686,6.7162695
44679,1577395877.21,0.1062791956459593,6.36723332727944,14.927438584937118,-1.5649611558867655,2.2805938716237137,14.944431577207984,0.2084707299209223,-8.126154015220083,19.649359012808453,10.650448682831556,3.215510670731707,-6.242891637290397,-0.3358794421684452,-2.314869950457317,-4.7305967749618905,-23.8152480706936,-38.7478339962843,-14.43667528105945,17.3992191807968,-1.825916704822951,3.0112460208442324,-20.731793091168093,8.384382499684223,-23.46454459002536,32.50148261299308,36.43115583909905,40.16913768832181,1577395877.0,-27.691888295594563,-51.127629159150686,6.7162695
44680,1577395877.22,-0.6862015538657584,-0.1713314066072788,11.795822813452745,3.7609404371308113,-1.6901895817454269,11.45368555670017,11.058992653749046,18.638626343666637,13.186211631216654,-1.9533110827934448,-2.399723704268293,-7.158418981040397,1.9071625500190548,16.529734541730182,-8.33167099371189,-12.874696312881095,-73.4768379025343,-4.320098132621951,17.3992191807968,-1.825916704822951,3.0112460208442324,-20.558426180301183,5.335516136162689,-18.703622499295577,32.50148261299308,36.38323299487824,40.1691376883218,1577395877.0,-27.691888295594563,-51.127629159150686,6.7162695
44681,1577395877.23,3.4198542933022105,-5.900655979361185,5.314718919409775,2.4561005323456557,-6.215230719440739,6.6126097998642335,3.996097756288109,3.253486475502572,7.092968406118998,-5.768008348418445,-10.425846751143292,-5.632540074790397,-3.982730028105945,7.466013838605183,-5.2188780249618905,-15.560243187881095,-73.7209785275343,12.86129835175305,17.893983707264955,-2.37369171626984,2.47984966422466,-19.17149089336589,-4.420856227106227,-22.10428113553113,32.50148261299308,36.19154161799503,40.1691376883218,1577395877.0,-27.691888295594563,-51.127629159150686,6.7162695
44682,1577395877.24,-0.6969754613364615,-1.0476092142244662,14.95856320651915,0.4341972303437025,2.184825805217463,15.526222580625952,0.2443837548232661,-2.726032170737662,1.4929307230135298,-9.796328660918444,10.387141530106708,-4.472872106040397,-1.236147996855945,2.125437666730184,-4.776373142149391,-8.876893578506099,-26.1288154415968,16.73703077362805,18.05890521608768,-3.286650068681319,2.3027175453514714,-17.322243844118844,-4.115969590754073,-25.504939771766697,32.597328301434686,36.550962949651066,40.24102195465301,1577395877.0,-27.691888295594563,-51.127629159150686,6.7162695
44683,1577395877.25,1.5044929651772103,-0.87283249303306,18.652816368140243,4.795235554318311,-1.551325885456364,11.559030429747049,1.9179307152724845,-7.4701427603372705,9.72180182897056,-16.937441942168444,0.9266923113567074,-6.395479527915397,3.2194184093940548,9.663279463605184,-4.6085264624618905,-1.8273330316310967,8.8901054568407,4.407929211128049,18.223826724910392,-2.0085083753052464,1.4170569509855149,-16.39762031949532,-4.420856227106227,-18.023490772048465,32.45355976877228,36.33531015065744,40.408751909425824,1577395877.0,-27.691888295594563,-51.127629159150686,6.7162695
44684,1577395877.26,-1.4260098668540395,-1.0476092142244662,11.522883824194931,0.8902926466034675,-0.0717092594798017,11.688317319395484,-4.429097885801734,-5.83011462313024,18.29783217565025,-5.829043504668445,17.863948170731707,-3.404756871665396,3.768734815644055,-4.405324052019817,-4.0592100562118905,2.200987280868903,1.5353691287157012,-15.06228563262195,18.223826724910392,-2.0085083753052464,1.4170569509855149,-19.34485780423281,-3.963526272577997,-23.1244787264018,32.45355976877228,36.33531015065744,40.50459759786743,1577395877.0,-27.691888295594563,-51.127629159150686,6.7162695
44685,1577395877.27,-0.2169380284751334,-0.2910414896150913,10.17734249118712,-1.1615381761504375,1.7598550105397284,15.914083249571265,1.781461220643578,0.9550528817525722,14.735260105337748,2.7769135265815548,7.915217701981708,-4.167696324790397,0.7474945812690549,1.2099103229801829,-4.6085264624618905,7.144834937118903,-2.1877754025342986,-9.26394578887195,19.213355777846708,-3.834425080128205,3.188378139717421,-19.17149089336589,-4.420856227106227,-12.582436954071568,32.45355976877228,36.57492437176146,40.1691376883218,1577395877.0,-27.691888295594563,-51.127629159150686,6.7162695
44686,1577395877.28,0.8843947351967415,0.3458161519864711,14.088270903052353,1.9317703687714365,-0.1938135441477709,13.187087558653296,2.633797011659204,0.5839516244283538,10.32873194982017,10.513119581269056,-2.5523115948932933,-4.274507848227897,3.9060639172065543,8.595164229230184,-2.6706602515243905,4.215147437118903,0.3451835818407012,-12.91079637480945,18.306287479321757,-3.743129244887057,2.21415148591487,-19.113701923076924,-4.420856227106227,-13.602634544942235,32.57336687932428,36.479078683319855,40.38479048731543,1577395877.0,-27.691888295594563,-51.127629159150686,6.7162695
44687,1577395877.29,0.9250961634193978,0.4966508565763138,8.838983763159776,0.1265423170136238,0.1126442683522285,12.689093613340797,2.3225507958388905,3.3253125253072597,12.59484382115806,-2.166934129668445,-4.627506907393292,-4.747530309165397,0.0455902843940548,-0.9873553020198172,-3.6929991187118905,2.811338843368903,-10.2138984494093,-6.059600085746951,17.564140689619517,-4.564791762057388,2.47984966422466,-18.70917913105413,-4.420856227106227,-12.582436954071568,32.50148261299308,36.38323299487824,40.1691376883218,1577395877.0,-27.691888295594563,-51.127629159150686,6.7162695
44688,1577395877.3,2.5579416956459604,-1.866426181997904,8.70251426853087,-0.4744022996855939,-0.8953146305735517,10.773732285215797,-3.3110057105087654,2.441852112709604,9.714619223990091,1.8919037609565548,-0.9653975323932926,-4.381319371665397,2.3649262218940548,8.595164229230184,-4.7916319312118905,0.7971786871189026,-8.4133613400343,-1.3598930544969514,17.564140689619517,-4.564791762057388,2.47984966422466,-18.70917913105413,-4.420856227106227,-12.582436954071568,32.45355976877228,36.19154161799503,40.21706053254261,1577395877.0,-27.691888295594563,-51.127629159150686,6.7162695
44689,1577395877.31,0.8077802820717416,-3.19041970006431,11.598301176489851,1.697138606076124,-1.9798879826243327,6.895125595762671,1.063200722596703,2.985335889565072,10.021077036490093,2.731137159394055,6.084163014481707,-4.045626012290397,5.203060987519055,8.503611494855184,-0.7327940405868902,8.151915015243903,-6.673859386909299,8.52780225800305,18.22382672491039,-2.9214667277167257,1.9484533076050876,-16.859932081807084,-0.7622165908803841,-96.91877113271345,32.62128972354509,36.38323299487824,40.21706053254261,1577395877.0,-27.691888295594563,-51.127629159150686,6.7162695
44690,1577395877.32,-0.6718363439048208,0.1973756490567826,11.178118785132432,0.4174378187226089,-1.516609961384099,12.60409945440525,-0.8126562781357182,-11.264952391684927,15.248816361441264,12.298397901581556,2.574641530106707,-3.221651402915396,1.9376801281440548,-0.3617449504573169,-3.1284239233993905,-5.123231469131096,-5.6667793087843,-4.8846733279344505,17.893983707264955,-2.7388750572344303,2.8341139019710444,-19.720486111111114,-2.515314749905267,-80.42557674697098,32.50148261299308,36.38323299487824,40.26498337676341,1577395877.0,-27.691888295594563,-51.127629159150686,6.7162695
44691,1577395877.33,-0.1331409703696646,0.9467607686856888,11.611469285620712,-0.8550803636504376,4.582618767863948,15.928448459532202,-0.5911926245712645,21.46857270597132,17.71125276891197,1.4341400890815548,0.4384110613567073,-2.275606481040396,3.1278656750190548,8.381541182355184,-1.9840147437118905,5.405332983993903,-31.4541328244093,-14.45193407012195,18.38874823373311,-4.38220009157509,3.0112460208442324,-19.98053647741148,-1.981763136288998,-91.47771731473654,32.64525114565549,36.52700152754066,40.1691376883218,1577395877.0,-27.691888295594563,-51.127629159150686,6.7162695
44692,1577395877.34,0.228383480313929,1.1454795064786576,11.929898106421494,1.735445832638624,-2.669418060749333,13.232577390196264,-3.3133999121689213,-0.6442738272318018,15.874900095572125,16.967587354706556,-5.665104563643292,-2.458711949790396,8.376889112519056,10.792429854230184,-2.6248838843368905,-2.132508812881097,-36.8252265744093,0.8678901486280487,18.38874823373311,-4.38220009157509,3.0112460208442324,-20.558426180301183,1.0671032272325378,-85.35653176951254,32.45355976877228,36.479078683319855,40.21706053254261,1577395877.0,-27.691888295594563,-51.127629159150686,6.7162695
44693,1577395877.35,-0.5329726476157584,-2.32850710240806,14.035598466528915,2.458494734005811,-4.635057623737614,11.803238999082984,5.178833376405297,1.2830585091939783,12.360212058462748,6.881527784394057,-0.1566817120807928,-2.901216832602896,6.423764112519055,0.0197247761051829,-1.2821104468368902,-5.245301781631097,-35.9096992306593,2.4548042111280486,18.306287479321757,-3.7431292448870552,2.745547842534446,-19.63380265567766,0.457329954528231,-86.03666349675964,32.54940545721388,36.33531015065744,40.1691376883218,1577395877.0,-27.691888295594563,-51.127629159150686,6.7162695
44694,1577395877.36,0.7958092737709603,1.3082852193692835,7.040938316382431,-1.0537991014434065,1.7718260188405095,16.237300473692358,5.978496730897485,1.715211908852181,4.89509128209556,14.159970167206556,7.396418873856708,-1.3295615591653962,5.569271925019055,0.7521466511051829,-1.8314268530868905,7.297422827743904,-11.6329658322218,6.8951118283155495,17.069376163151365,-4.0170167506105,1.9484533076050947,-20.471742724867724,-2.82020138625742,-88.24709161031276,32.64525114565549,36.50304010543026,40.1691376883218,1577395877.0,-27.691888295594563,-51.127629159150686,6.7162695
44695,1577395877.37,0.170922640470179,1.4064474874356898,7.797506040991807,1.2350576856659676,0.7159830867116035,6.2175665259384525,-5.305375693418921,-4.295431358970083,7.66039419957603,23.71197212033156,-3.010075266768293,-2.519747106040396,7.339291456269055,15.309031416730184,-3.9676573218368905,15.811827124618905,20.9445488162157,10.38937452362805,18.718591251378545,-3.286650068681319,2.6569817830978484,-20.96294897232397,-1.2195465454086138,-82.29593899690053,32.45355976877228,36.479078683319855,40.1691376883218,1577395877.0,-27.691888295594563,-51.127629159150686,6.7162695
44696,1577395877.38,1.4901277552162728,-1.46659450475181,6.360985044898056,0.9860607130097176,-2.803493353718083,6.286998374082984,3.512469020936547,-3.024110277427114,7.325205967154154,9.887509229706556,-7.221501048018292,-3.526827184165396,10.330014112519056,-9.288136552019816,1.2203309594131098,10.990049780868905,26.0104667849657,-2.3364555544969514,18.718591251378545,-3.286650068681319,2.6569817830978484,-20.61621515059015,-0.6097732727043068,-9.521844181459564,32.45355976877228,36.52700152754066,40.21706053254261,1577395877.0,-27.691888295594563,-51.127629159150686,6.7162695
44697,1577395877.39,0.5288557886635384,-0.7351658975740757,12.24593272556212,-0.2277995286895001,0.7902033381764472,15.327503842832984,3.502892214295922,-3.0193218741068018,15.556471274771342,7.568173292206556,1.1097977801067076,-2.931734410727896,10.024838331269056,-3.764454911394817,-2.4417784155868905,17.0325302496189,16.9467460818407,-16.64919969512195,17.976444461676316,-3.743129244887057,2.391283604788065,-20.61621515059015,-0.6097732727043068,-9.521844181459564,32.40563692455147,36.38323299487824,40.26498337676341,1577395877.0,-27.691888295594563,-51.127629159150686,6.7162695
44698,1577395877.4,-0.5114248326743521,-0.9542353494783724,12.396767430151964,1.0614780653046394,-1.3801404667551922,11.872670847227514,0.7088588768935786,2.202431946693979,11.274441605581888,13.244442823456556,10.173518483231708,-1.2685264029153962,8.926205518769056,6.977732588605184,-1.3431456030868902,14.331724585556405,22.4856865115282,-9.01980516387195,17.893983707264955,-3.1040583981990206,1.4170569509855149,-20.41395375457876,-2.515314749905267,-9.011745386024232,32.45355976877228,36.52700152754066,40.1930991104322,1577395877.0,-27.691888295594563,-51.127629159150686,6.7162695
44699,1577395877.41,0.0847313807045531,-0.1210531717439976,11.163753575171494,-2.1766796800566874,1.0822959407155095,12.72500663824314,1.1350267724013907,-11.427758104575553,13.217336252798685,6.927304151581555,4.771907155106708,-0.1088584341653963,7.613949659394055,-1.6892595988948171,-0.4581358374618902,6.534483374618903,20.9445488162157,-19.21267625762195,18.223826724910392,-4.929975103021979,2.125585426478283,-20.09611441798942,-3.2013096816976128,-3.0605927726120044,32.64525114565549,36.479078683319855,40.1691376883218,1577395877.0,-27.691888295594563,-51.127629159150686,6.7162695
44700,1577395877.42,0.0943081873451781,-0.3628675394197789,9.880461485327745,1.4936314649628426,-2.5999862126048017,10.357141196348609,5.767806984803734,20.453431202065072,9.257326706900248,10.558895948456556,-4.139225657393292,-3.221651402915396,12.588314893769056,5.482371260480183,-3.2352354468368905,24.6314072027439,13.1015312380907,-7.310820788871951,18.38874823373311,-4.38220009157509,0.8856605943659495,-17.322243844118844,-3.2013096816976128,-20.74401768103691,32.597328301434686,36.57492437176146,40.360829065205024,1577395877.0,-27.691888295594563,-51.127629159150686,6.7162695
44701,1577395877.43,0.1302212122475228,-1.096690348257669,8.155439189185167,0.213930677609327,0.5567686763112137,6.357627323057593,0.5137314415908438,-3.8010287161478176,6.207113791861186,14.144711378144056,-0.0803877667682926,-1.970430699790396,9.918026807831556,-0.1938982707698169,-1.2210752905868902,21.8390488043064,30.6186210818407,5.109833508003049,18.306287479321757,-3.7431292448870552,1.5056230104221162,-16.859932081807084,8.689269136036378,-18.36355663567202,32.669212567765896,36.35927157276784,40.31290622098422,1577395877.0,-27.691888295594563,-51.127629159150686,6.7162695
44702,1577395877.44,1.5954726282631475,1.5189749654630336,10.46464669040587,2.7074917066620614,0.0001167903248857,5.856042075254859,-2.303046811582983,-0.5030159292825831,3.1018342386385296,19.86675727658156,-5.024235423018292,-3.557344762290396,14.083676221894056,6.245310713605183,-3.3878233374618905,24.0210556402439,47.7389824099657,6.757782726753049,17.729062198442236,-2.921466727716725,4.074038734083371,-20.26948132885633,8.23193918150815,-25.164873908143136,32.64525114565549,36.52700152754066,40.21706053254261,1577395877.0,-27.691888295594563,-51.127629159150686,6.7162695
44703,1577395877.45,1.954602877286585,-3.2047849100252472,2.372245079077744,4.89818622570503,-1.6901895817454269,1.3788849707626707,2.301002980897484,-6.215581090415395,9.439286033072122,9.826474073456556,-12.989323313643292,-3.252168981040396,10.635189893769056,3.102000166730183,-1.9229795874618905,23.5327743902439,65.7443535037157,-5.968047351371951,17.893983707264955,-3.4692417391636146,1.7713211887318916,-20.03832544770045,5.792846090690919,-24.484742180896028,32.30979123610986,36.479078683319855,40.0732919998802,1577395877.0,-27.691888295594563,-51.127629159150686,6.7162695
44704,1577395877.46,2.038399935392054,2.100765968881002,7.148677391089462,0.2821654249237801,2.530787945110041,8.712324655821265,-1.304664719297827,-12.428534398520863,9.199865867056497,27.03838813595656,3.062922780106707,-2.550264684165396,5.782894971894055,-4.435841630144817,0.2742860375381097,25.1807236089939,58.0539238162157,-21.92874071074695,17.564140689619517,-2.7388750572344303,2.8341139019710444,-20.09611441798942,5.945289408866995,-24.824808044519585,32.45355976877228,36.52700152754066,40.360829065205024,1577395877.0,-27.691888295594563,-51.127629159150686,6.7162695
44705,1577395877.47,0.4594239405190072,1.3920822774747523,13.146152549780869,-0.6731210374785629,1.4881131221119948,8.35199730596775,0.1569953942275626,3.4342487008443694,11.48393425084556,-0.2290679187309451,4.817683522294208,-2.901216832602896,10.696225050019056,9.831126143292684,-2.1060850562118905,29.6668075933689,43.8479911990282,-25.19412157012195,17.3992191807968,-3.4692417391636123,2.6569817830978524,-20.3272702991453,7.012392636099532,-15.302963863060016,32.50148261299308,36.50304010543026,40.360829065205024,1577395877.0,-27.691888295594563,-51.127629159150686,6.7162695
44706,1577395877.48,0.1350096155678343,1.3657460592130335,14.4797228744879,2.642848261837843,-1.4220389958079265,9.72986036138767,-0.5816158179306395,-1.8174326407083643,13.028194321646344,8.605770948456556,7.640559498856708,-2.489229527915396,8.132748487519056,6.703074385480183,0.5794618187881098,12.699034155868905,15.8481132693407,-13.56692430449695,18.38874823373311,-3.6518334096459095,4.074038734083371,-17.322243844118844,8.994155772388531,-13.942700408565791,32.45355976877228,36.52700152754066,40.1691376883218,1577395877.0,-27.691888295594563,-51.127629159150686,6.7162695
44707,1577395877.49,3.3049326136147106,-3.298158774771341,10.17015988620665,0.9860607130097176,-0.7803929508860517,10.546283127500953,5.171650771424828,8.963657434975229,9.748138047232278,3.9060639172065534,-6.183903391768292,-3.160616246665396,6.942562940644055,0.0197247761051829,-0.1224424780868902,11.386778296493905,10.4159843630907,-5.235625476371951,19.70812030431486,-3.6518334096459095,1.9484533076050947,-17.322243844118844,8.994155772388531,-13.942700408565791,32.45355976877228,36.479078683319855,40.408751909425824,1577395877.0,-27.691888295594563,-51.127629159150686,6.7162695
44708,1577395877.5,1.2722554041420542,0.5984044271329555,8.562453471411729,3.373079768185499,-1.0102363102610517,5.815340647032203,2.882793984315453,5.293346289955697,4.016419272818217,12.267880323456556,15.422541920731708,-0.9328330435403962,11.672787550019056,8.991892744855184,-0.7938291968368902,18.3753036871189,27.9635917849657,10.60299757050305,19.70812030431486,-4.0170167506105,1.9484533076050947,-17.322243844118844,8.994155772388531,-13.942700408565791,32.45355976877228,36.52700152754066,40.21706053254261,1577395877.0,-27.691888295594563,-51.127629159150686,6.7162695
44709,1577395877.51,1.4997045618568978,2.931553944955221,7.227686045874619,0.1169655103729993,2.7366892878834785,4.032857511045874,-0.5672506079697025,-9.9529298819193,1.629400217642436,5.859188917206555,7.518489186356708,-2.489229527915396,6.210141065644056,0.3554181354801828,-0.7022764624618902,17.0325302496189,60.0680839724657,-4.045439929496951,18.05890521608768,-2.921466727716725,2.6569817830978484,-17.264454873829877,-3.81108295440192,-15.302963863060016,32.45355976877228,36.62284721598228,39.88160062299698,1577395877.0,-27.691888295594563,-51.127629159150686,6.7162695
44710,1577395877.52,3.599419417813929,4.7008689718106895,4.505478758276962,-3.1870327806426246,3.2275006282155103,4.156158896543921,7.218693190858421,6.5287543465963225,2.309353489126811,20.01934516720656,-16.193669016768293,-4.686495152915397,7.766537550019055,10.639841963605184,-1.6178038062118902,34.6411728277439,71.6037285037157,-12.86502000762195,19.04843426902399,-3.6518334096459095,3.0112460208442324,-17.206665903540905,-4.420856227106227,-15.302963863060016,32.64525114565549,36.57492437176146,40.408751909425824,1577395877.0,-27.691888295594563,-51.127629159150686,6.7162695
44711,1577395877.53,0.5851195276772103,-4.085851120962747,5.542168077124619,5.264499079708937,-5.803428033893864,0.9527170752548584,-7.05553710699314,-8.992855016196646,10.53822459508384,10.131649854706556,5.382258717606708,-2.702852574790396,1.9987152843940548,12.074168135480184,-0.5802061499618902,26.7371200933689,62.2958671755907,-17.32058641387195,18.883512760201263,-3.4692417391636146,3.188378139717421,-16.917721052096056,-3.963526272577997,-14.96289799943646,32.50148261299308,36.479078683319855,40.26498337676341,1577395877.0,-27.691888295594563,-51.127629159150686,6.7162695
44712,1577395877.54,1.1896554468666634,0.3458161519864711,8.74680699924376,-1.8965580858184063,-2.0277720158274577,4.816958554747046,-1.093974973204077,-3.340144896567739,11.51027046910728,-0.244326707793445,14.156062428544208,-1.0091269888528962,5.264096143769055,-6.266896317644817,1.6170594750381098,13.614561499618905,41.2997734255907,-19.76199266387195,19.378277286669423,-4.747383432539684,3.7197744963369854,-17.322243844118844,-2.896423045345459,-15.302963863060016,32.64525114565549,36.52700152754066,40.21706053254261,1577395877.0,-27.691888295594563,-51.127629159150686,6.7162695
44713,1577395877.55,-0.7125377721274772,-2.170489792837748,11.283463658179306,2.0419036451386243,-0.4356279118235519,11.21785669317478,0.4993662316299067,3.271442987953744,14.29352989903892,-9.308047410918444,17.833430592606707,-1.3295615591653962,2.7616547375190548,6.138499190167683,-2.0755674780868905,8.518125952743905,15.2530204959032,-0.0018608279344514,19.378277286669423,-4.747383432539684,3.7197744963369854,-16.59988171550672,-4.344634568018188,-26.015038567202023,32.64525114565549,36.50304010543026,40.16913768832181,1577395877.0,-27.691888295594563,-51.127629159150686,6.7162695
44714,1577395877.56,-0.8897086949790396,1.945142860970846,8.264375364722275,-3.5868644578887183,2.530787945110041,14.26926670904392,-0.4403579199814208,-2.849333556235708,12.29556861363853,6.683163526581555,16.612727467606707,1.3559853158346038,-0.4426909656059451,-4.100148270769817,1.5255067406631098,-4.726502953506097,-1.4858711056592988,-1.7261039919969514,19.213355777846708,-4.929975103021979,4.251170852956559,-16.802143111518113,-4.26841290893015,-79.57541208791208,32.45355976877228,36.479078683319855,40.55252044208824,1577395877.0,-27.691888295594563,-51.127629159150686,6.7162695
44715,1577395877.57,-2.175394986482946,4.794242836556784,15.547536814917589,-1.661926323123094,3.244260039836604,15.535799387266575,3.3352980980849845,5.58543889249476,6.520754209341654,-0.9767485827934452,2.788264576981707,-2.916475621665396,5.538754346894055,5.543406416730183,-3.3267881812118905,3.391172827743903,5.166960925590701,2.6684272580030486,19.70812030431486,-3.6518334096459095,1.2399248321123264,-18.70917913105413,-4.420856227106227,-79.91547795153564,32.50148261299308,36.38323299487824,40.1691376883218,1577395877.0,-27.691888295594563,-51.127629159150686,6.7162695
44716,1577395877.58,-0.1714481969321646,0.3745465719083456,5.046568333472275,3.514337666134717,-0.5792800114329266,2.848924790098609,-0.2344565772079842,-4.567173247397818,6.553075931753764,-1.556582567168445,-3.681461985518293,-1.0549033560403962,1.7087982922065548,3.071482588605183,-2.1823790015243905,1.3770126714939028,9.5309745974657,-0.1544487185594514,18.883512760201263,-3.1040583981990206,3.8969066152101823,-18.940335012210014,-3.81108295440192,-77.53501690617074,32.62128972354509,36.311348728547046,40.36082906520502,1577395877.0,-27.691888295594563,-51.127629159150686,6.7162695
44717,1577395877.59,2.610614132169398,0.4846798482755326,5.240498667944932,0.5096145826386238,1.7981622371022283,5.5040944312118905,2.3704348290420154,11.295609851967416,-1.734453114877095,3.2041596203315548,-0.7517744855182926,-1.970430699790396,2.3344086437690548,-4.832570145769817,-3.1742002905868905,12.546446265243905,13.3761894412157,1.9360053830030488,18.883512760201263,-3.1040583981990206,3.8969066152101823,-19.17149089336589,-4.420856227106227,-73.79429240631164,32.597328301434686,36.28738730643664,40.55252044208824,1577395877.0,-27.691888295594563,-51.127629159150686,6.7162695
44718,1577395877.6,3.1828283289467416,-0.9278991312166538,3.8015834701910247,4.852696394162061,-0.2081787541087079,6.4234678687118905,0.6585806420302969,-4.376834215415395,5.948540012564311,-1.3429595202934452,0.7130692644817074,-1.939913121665396,2.7616547375190548,-1.7808123332698171,-1.4652159155868902,2.292540015243903,20.5173027224657,9.16867139862805,17.893983707264955,-3.834425080128205,2.47984966422466,-19.17149089336589,-4.420856227106227,-73.79429240631164,32.64525114565549,36.19154161799503,40.360829065205024,1577395877.0,-27.691888295594563,-51.127629159150686,6.7162695
44719,1577395877.61,0.9514323816811164,3.6953042745450646,8.283528978003526,4.177531525997999,1.4821276179616034,4.989341074278296,-5.930262326719703,-11.954482469809928,9.64518737584556,6.469540479706555,4.497248951981708,-2.275606481040396,-3.799624559355945,2.155955244855183,-2.1671202124618905,-10.402772484756095,11.0873710818407,-16.00833055449695,17.729062198442236,-3.6518334096459095,1.9484533076050947,-19.17149089336589,-4.420856227106227,-73.79429240631164,32.64525114565549,36.38323299487824,40.1691376883218,1577395877.0,-27.691888295594563,-51.127629159150686,6.7162695
44720,1577395877.62,0.629412258390101,0.1135785909513149,9.165792289771105,0.7298811353729994,0.0851109492604321,8.232287222959936,-0.9706735877060312,0.230806879555307,9.475199057974466,-9.720034715605944,-1.9267012433307915,-3.3589805044778966,-4.181094285918445,-1.5824480754573171,-3.0673887671493905,0.0342392339939024,12.2317802615282,-3.389311999809451,19.048434269023986,-3.6518334096459095,3.011246020844229,-18.651390160765164,-3.506196318049766,-43.1883646801916,32.57336687932429,36.57492437176146,40.28894479887381,1577395877.0,-27.691888295594563,-51.127629159150686,6.7162695
44721,1577395877.63,-1.849783560701696,-1.6317944193025913,8.36972023776915,-1.999508757205125,-3.232055450886052,9.341999692442355,-0.337407248594702,-3.5244984243997703,8.826370408072123,-17.578311082793444,22.777278248856707,-1.4516318716653962,-7.797427293730945,3.315623213605183,-3.7235166968368905,-1.2780166253810974,8.4018242068407,-4.411650866996951,18.38874823373311,-4.0170167506105,2.6569817830978484,-19.113701923076928,-4.26841290893015,-4.08079036348267,32.597328301434686,36.28738730643664,40.1691376883218,1577395877.0,-27.691888295594563,-51.127629159150686,6.7162695
44722,1577395877.64,1.3536582605873666,-0.3125893045564976,7.091216551245712,-0.4791907030059064,1.8268926570241035,10.026741367247046,2.8564577660537345,4.771410328041634,8.179935959829935,-14.312930223418444,6.694514576981708,-2.733370152915396,-5.020327684355945,-0.6516619426448171,-1.8314268530868905,-0.2099013910060974,2.5119316287157014,-2.7942192263719514,17.3992191807968,-4.747383432539684,1.9484533076050947,-18.88254604192104,-3.963526272577997,-1.3602634544942211,32.50148261299308,36.38323299487824,40.408751909425824,1577395877.0,-27.691888295594563,-51.127629159150686,6.7162695
44723,1577395877.65,0.4271022181068978,2.4419397054532674,12.178895079077744,1.8000892774628428,2.705564666301448,6.184047702696265,1.6713279442763904,1.931887159096322,9.688283005728373,-6.485171434355944,4.4209550066692085,-4.015108434165397,-4.043765184355945,6.001170088605183,-6.8363096655868905,-6.343934594131097,8.7375175662157,-2.6111137576219514,17.56414068961952,-3.1040583981990224,2.1255854264782794,-17.091087962962966,-4.115969590754073,-4.420856227106225,32.62128972354509,36.479078683319855,40.1691376883218,1577395877.0,-27.691888295594563,-51.127629159150686,6.7162695
44724,1577395877.66,1.7750377527748664,-1.9693768533846223,6.37774445651915,3.156404517941358,-0.6523031620676928,5.137781577207984,-3.275092685606421,-8.496058171714223,6.713487442984233,-13.122744676543444,-8.838932688643293,-4.808565465415397,-11.047549364043444,0.1112775104801828,-3.6472227515243913,-8.785340844131095,10.3244316287157,-4.243804187309451,18.553669742555822,-4.564791762057388,1.7713211887318916,-16.94661553724054,3.734861295313881,-4.250823295294447,32.357714080330666,36.550962949651066,40.31290622098422,1577395877.0,-27.691888295594563,-51.127629159150686,6.7162695
44725,1577395877.67,0.4917456629311165,1.4256011007169398,5.910875132788681,-1.5254568284941876,3.371152727824885,8.717113059141578,1.024893496034203,0.5767690194478846,4.085851120962748,-4.425234910918445,-0.8738447980182926,-3.709932652915396,-9.689517137480944,-0.010792802019817,-4.4864561499618905,-8.510682641006097,3.0002128787157014,-11.85793992949695,18.553669742555822,-4.564791762057388,1.7713211887318916,-17.322243844118844,-4.115969590754073,-15.302963863060016,32.45355976877228,36.52700152754066,40.26498337676341,1577395877.0,-27.691888295594563,-51.127629159150686,6.7162695
44726,1577395877.68,1.6672986780678352,2.2180818502286583,7.208532432593369,6.176689912228468,-0.936016058796208,7.716336765196265,2.2076291161513906,3.502483448158822,10.569349216665874,-1.4955474109184452,4.161555592606708,-5.693575231040397,-10.330386278105944,7.588084151105183,-4.7611143530868905,-6.099793969131097,0.4062187380907012,0.8068549923780487,20.53272784842845,-2.7388750572344303,3.542642377463798,-17.206665903540905,-4.420856227106227,-15.302963863060016,32.64525114565549,36.57492437176146,40.60044328630904,1577395877.0,-27.691888295594563,-51.127629159150686,6.7162695
44727,1577395877.69,-1.1351143651450553,1.3394098409513142,8.994606871069932,0.5694696241425301,-0.0741034611399579,7.522406430723609,-5.214396030332984,-8.171643846763052,16.133473874868997,-11.245913621855944,4.9702714129192085,-4.167696324790397,-11.398501512480944,-4.435841630144817,-6.3480284155868905,-19.0697646722561,-10.7937324337843,-5.998564929496951,19.790581058726215,-3.560537574404762,2.568415723661258,-17.206665903540905,-4.420856227106227,-15.302963863060016,32.54940545721389,36.479078683319855,40.0732919998802,1577395877.0,-27.691888295594563,-51.127629159150686,6.7162695
44728,1577395877.7,-0.1283525670493521,0.0704829610685014,10.141429466284777,-2.7548793809844225,1.939420135051448,13.048223862364232,1.9741944542861565,3.422277692543588,10.371827579702982,-27.923770067168444,3.093440358231707,-4.655977574790397,-9.948916551543444,-5.442921708269816,-5.1578428687118905,-16.7046523675686,-18.8045966915968,-6.7462455935594505,18.223826724910392,-4.199608421092795,3.188378139717421,-16.975510022385023,8.07949586333207,-20.74401768103691,32.357714080330666,36.33531015065744,40.26498337676341,1577395877.0,-27.691888295594563,-51.127629159150686,6.7162695
44729,1577395877.71,1.2746496058022103,-0.6118645120760289,6.806306553687119,0.7849477735565926,-0.5170307682688642,7.709154160215796,0.9913746727920156,2.250315979897103,5.831224131216654,-23.010439989043444,-7.648747141768292,-3.984590856040396,-9.872622606230944,2.949412276105183,-6.7142393530868905,-16.4452529535061,-13.5097968869093,4.468964367378049,18.223826724910392,-4.199608421092795,3.188378139717421,-16.975510022385023,7.164835954275611,-24.824808044519585,32.789019678317906,36.38323299487824,40.21706053254261,1577395877.0,-27.691888295594563,-51.127629159150686,6.7162695
44730,1577395877.72,1.6768754847084602,-1.0954932474275914,10.675336436499618,2.6260888502167488,-2.9902410832102704,7.237496433165015,-4.057996628477516,-4.786242699302114,11.742508030142435,-7.751650926543445,-2.430241282393293,-3.862520543540396,-12.619204637480944,-3.154103348894817,-3.2962706030868905,-20.5040908441311,-11.3735664181593,9.22970655487805,18.38874823373311,-4.747383432539684,1.9484533076050947,-16.975510022385023,7.164835954275611,-24.824808044519585,32.50148261299308,36.479078683319855,40.26498337676341,1577395877.0,-27.691888295594563,-51.127629159150686,6.7162695
44731,1577395877.73,0.357670369962366,-0.91113971959556,9.330992204321886,-0.379831334109422,1.005681487590511,9.16243456793064,-3.20566083746189,-1.107551848472037,15.399651066031106,-10.360903856230944,4.481990162919208,-3.7404502310403966,-11.520571824980944,-5.244557450457317,-4.3338682593368905,-21.1907363519436,-32.1102607540968,1.6003120236280486,18.553669742555822,-3.2866500686813174,2.1255854264782754,-16.975510022385023,7.7746092269799165,-18.023490772048465,32.669212567765896,36.43115583909905,40.26498337676341,1577395877.0,-27.691888295594563,-51.127629159150686,6.7162695
44732,1577395877.74,-0.2001786168540396,3.369692848763815,10.517319126929308,0.3444146680878426,-0.1770541325266766,12.346722775938453,3.569929860780297,3.837671680580697,15.989821775259625,-9.491152879668444,-1.9114424542682928,-3.374239293540396,-10.452456590605944,1.6371564167301829,-7.53821396246189,-29.1710830316311,-73.7209785275343,3.2787788205030486,19.213355777846708,-4.929975103021979,2.125585426478283,-17.322243844118844,-4.115969590754073,-19.38375422654269,32.357714080330666,36.57492437176146,40.26498337676341,1577395877.0,-27.691888295594563,-51.127629159150686,6.7162695
44733,1577395877.75,0.1110675989662718,-0.1521777933260288,10.414368455542588,-0.2900487718535626,-0.9886884953196452,6.301363584043921,2.3704348290420154,-3.241982628501333,12.712159702505716,-15.014834520293444,-9.113590891768292,-5.724092809165397,-12.558169481230944,3.773386885480183,-6.7142393530868905,-39.6996474847561,-99.8440254025343,10.48092725800305,19.213355777846708,-4.929975103021979,2.125585426478283,-16.859932081807084,-3.81108295440192,-12.582436954071568,32.597328301434686,36.67077006020308,40.1691376883218,1577395877.0,-27.691888295594563,-51.127629159150686,6.7162695
44734,1577395877.76,0.5492065027748666,-3.19041970006431,9.86370207370665,0.0786582838104988,0.6896468684498847,9.46170977545017,-5.250309055235328,1.5224786752096031,13.765608432974467,-22.308535692168444,7.518489186356708,-5.388399449790397,-14.846987840605944,-11.760060380144816,0.1522157250381097,-29.5372939691311,-112.9665839962843,1.2951362423780486,19.213355777846708,-4.929975103021979,2.125585426478283,-17.322243844118844,-4.420856227106227,-15.302963863060016,32.64525114565549,36.52700152754066,40.0732919998802,1577395877.0,-27.691888295594563,-51.127629159150686,6.7162695
44735,1577395877.77,-0.5521262608970083,0.6857927877286586,10.378455430640244,0.04633656139839,1.4845218196217604,14.066956668760715,5.273404341981468,8.53509533780726,1.6724958475252492,-16.281314012480944,-2.0335127667682924,-4.305025426352897,-14.557070848418444,1.3624982136051829,-6.149664157774391,-40.3557754144436,-80.9689033322218,19.55990675019055,19.213355777846708,-3.834425080128205,2.8341139019710404,-18.91144052706553,-4.039747931666035,-23.29451165821358,32.62128972354509,36.52700152754066,40.28894479887381,1577395877.0,-27.691888295594563,-51.127629159150686,6.7162695
44736,1577395877.78,-1.1195520543540396,-0.2431574564119663,14.970534214819931,-0.9221180101348126,2.2027823176686345,12.691487815000952,-0.3134652319931396,-5.660126305259146,-4.3656807393888135,-12.298770067168444,-2.094547923018293,-2.885958043540396,-11.215396043730944,-6.633107255144817,-1.7398741187118902,-27.8893447503811,-7.497833996284299,13.38009717987805,17.729062198442236,-4.38220009157509,0.8856605943659495,-16.68656517094017,-3.048866363521536,-9.521844181459564,32.50148261299308,36.57492437176146,40.21706053254261,1577395877.0,-27.691888295594563,-51.127629159150686,6.7162695
44737,1577395877.79,0.2235950769936165,1.7871255514005335,11.90116768649962,-2.6555200120879374,2.9282254206959792,8.05870760259861,-4.189677719786109,1.1370122079244471,-7.576305165658344,-5.615420457793445,0.3163407488567073,-3.069063512290396,-8.346743699980944,0.2333478229801829,-6.8668272437118905,-8.632752953506097,49.3869316287157,8.55831983612805,17.729062198442236,-4.38220009157509,0.8856605943659495,-15.819730616605618,-3.2013096816976128,-26.185071499013805,32.45355976877228,36.479078683319855,40.1691376883218,1577395877.0,-27.691888295594563,-51.127629159150686,6.7162695
44738,1577395877.8,2.677651778653773,-3.835657047476419,8.812647544898056,5.254922273068312,-4.915179217975895,-1.5252816430068592,-3.009336301329078,-9.529156188071646,7.988399827017436,-15.686221239043444,-5.878727610518292,-3.5115683951028966,-14.877505418730944,0.1112775104801829,-0.7022764624618902,8.396055640243903,75.4489433474657,-2.1533500857469514,18.38874823373311,-4.38220009157509,1.771321188731899,-15.819730616605618,-3.2013096816976128,-77.87508276979432,32.52544403510348,36.52700152754066,40.26498337676341,1577395877.0,-27.691888295594563,-51.127629159150686,6.7162695
44739,1577395877.81,4.130932186368617,4.928318129525533,12.368037010230088,-0.1164691514922349,5.879078966838556,12.582551639463842,2.115452352235375,-2.8864436819681303,12.14233970738853,-12.878604051543444,-2.857487376143293,-3.404756871665396,-10.330386278105944,-2.9709978801448167,-0.8396055640243903,15.979673804306405,63.4402763552782,-26.20120164824695,18.223826724910392,-3.834425080128205,2.8341139019710444,-15.93530855718356,-3.81108295440192,-80.59560967878276,32.6931739898763,36.38323299487824,40.19309911043221,1577395877.0,-27.691888295594563,-51.127629159150686,6.7162695
44740,1577395877.82,3.455767318204554,3.889234609017721,11.55640264743712,6.114440669064406,-2.880107806843083,8.027582981016577,-1.5991515234970457,9.035483484779917,23.11496591588463,4.119686964081555,-4.505436594893292,-3.740450231040396,-9.536929246855944,12.043650557355184,-0.7938291968368902,0.0342392339939026,-6.338166027534299,-18.90750047637195,17.564140689619517,-3.1040583981990206,2.47984966422466,-15.93530855718356,-2.591536408993305,-80.59560967878276,32.597328301434686,36.479078683319855,40.26498337676341,1577395877.0,-27.691888295594563,-51.127629159150686,6.7162695
44741,1577395877.83,0.3576703699623665,-3.9829004495760287,11.992147349585556,-9.227603569216845,-0.8522190006907391,5.401143759825171,-5.125810568907203,-0.8118679434427393,21.61858987828697,-15.869326707793444,11.699397389481708,-3.679415074790396,-16.739077684355944,12.898142744855184,-0.5802061499618902,-19.3444228753811,-42.2573554806593,-11.55276414824695,18.38874823373311,-4.38220009157509,3.0112460208442324,-20.09611441798942,-3.2013096816976128,-85.35653176951254,32.64525114565549,36.57492437176146,40.21706053254261,1577395877.0,-27.691888295594563,-51.127629159150686,6.7162695
44742,1577395877.84,1.0938873804604134,-2.134576767935404,10.723220469702744,-1.1519613695098123,-2.200154535358708,8.889495578672827,0.6083024071670157,1.4793830453267909,19.648161911978377,-20.340151903105944,20.503718678544207,-0.8565390982278962,-12.710757371855944,-2.696339677019817,1.0372254906631098,-36.3732314691311,-78.2986152462843,-5.784941882621951,18.47120898814447,-3.925720915369352,2.214151485914874,-19.17149089336589,-4.420856227106227,-80.59560967878276,32.6931739898763,36.71869290442388,40.21706053254261,1577395877.0,-27.691888295594563,-51.127629159150686,6.7162695
44743,1577395877.85,0.6689165857826791,-5.94854001256431,11.058408702124618,-1.12801935290825,-4.216072333210271,8.949350620176734,3.437051668641625,6.626916614662728,11.315143033804544,-21.545596239043444,9.227473561356708,-3.587862340415396,-4.654116746855944,5.314524580792684,-0.9311582983993908,-35.9307265863186,-90.3377998165968,18.91903760956555,17.893983707264955,-5.295158443986569,2.47984966422466,-19.113701923076928,-1.5244331817607677,-77.87508276979432,32.64525114565549,36.52700152754066,40.21706053254261,1577395877.0,-27.691888295594563,-51.127629159150686,6.7162695
44744,1577395877.86,1.0783250696693978,2.395252773080221,11.247550633276962,-3.756852775759812,5.62170228837176,21.004155979063448,5.700769338319359,-1.3122560904153957,-4.377651747689595,0.9763764172065548,12.309748951981708,0.0742470345846036,-7.309146043730945,-1.0178728801448171,-1.8009092749618902,-39.2724013910061,-66.1831367306593,16.40133741425305,18.223826724910392,-4.199608421092795,2.125585426478283,-20.50063721001221,-2.4390930908172286,-85.6965976331361,32.50148261299308,36.52700152754066,40.1691376883218,1577395877.0,-27.691888295594563,-51.127629159150686,6.7162695
44745,1577395877.87,-1.6175459996665396,3.1733683126310024,13.80934640964415,-0.0099271776152813,0.0288472102467598,11.827181015684546,-1.3022705176376708,-15.564938573325552,3.1592950784822795,-2.289004442168445,6.084163014481708,-2.153536168540396,-0.2901030749809451,14.149363447980184,-3.5404112280868905,-16.5368056878811,-12.8384101681593,10.23678663300305,17.893983707264955,-4.199608421092795,-0.3542642377463842,-21.020737942612943,-2.896423045345459,-75.15455586080586,32.64525114565549,36.52700152754066,40.26498337676341,1577395877.0,-27.691888295594563,-51.127629159150686,6.7162695
44746,1577395877.88,-0.0780743321860714,-3.962549735464701,11.381625926245713,0.5718638258026864,-5.315010895221989,9.318057675840794,4.439025063417016,-0.2468363516458643,3.8751613748689984,-8.346743699980944,8.815486256669208,-1.1311973013528962,-5.172915574980945,10.395701338605184,-0.2445127905868902,-1.5526748285060974,10.3549492068407,-5.083037585746951,18.553669742555837,-4.564791762057388,1.2399248321123302,-19.86495853683354,-4.420856227106227,-15.302963863060016,32.669212567765896,36.57492437176146,40.26498337676341,1577395877.0,-27.691888295594563,-51.127629159150686,6.7162695
44747,1577395877.89,1.2171887659584602,-0.0707749368807163,13.222767002905869,2.2394252821015144,1.1289828730885565,17.86894890508884,0.6142879113174063,-3.4335187613138336,15.975456565298686,9.094052198456556,10.478694264481708,-0.6886924185403963,-6.347842332793445,7.099802901105184,0.2285096703506098,-1.3848281488185974,4.0530693240282005,-15.68789598418445,18.38874823373311,-4.0170167506105,1.5941890698587031,-20.47174272486773,-4.039747931666035,-15.13293093124824,32.45355976877228,36.43115583909905,40.24102195465301,1577395877.0,-27.691888295594563,-51.127629159150686,6.7162695
44748,1577395877.9,-0.0876511388266959,-3.891920786490091,15.925820677222276,-1.2525178392363752,-3.821029059284489,14.278843515684546,8.238623098084984,25.91939359220179,14.653857248892436,-18.158145067168444,1.4454911394817074,-3.038545934165396,1.9376801281440548,15.034373213605184,-0.2445127905868902,14.713194312118905,-15.8901679806593,-8.53152391387195,19.87304181313758,-6.02552512591575,1.062792713239138,-20.09611441798942,-3.2013096816976128,-18.023490772048465,32.45355976877228,36.38323299487824,40.0732919998802,1577395877.0,-27.691888295594563,-51.127629159150686,6.7162695
44749,1577395877.91,-0.5329726476157584,0.5636885030606889,14.61379816745665,1.1680200391815925,-0.3661960636790204,16.749659628965794,-4.994129477598609,10.436091455971322,16.669775046743997,14.404110792206556,15.483577076981708,1.2644325814596038,0.8085297375190549,1.9728497761051829,3.8143251000381095,13.950254858993905,-7.680939465034299,17.16427686737805,19.04843426902399,-4.0170167506105,0.8856605943659495,-19.63380265567766,-3.2013096816976128,-4.420856227106225,32.6931739898763,36.52700152754066,40.21706053254261,1577395877.0,-27.691888295594563,-51.127629159150686,6.7162695
44750,1577395877.92,-1.3458041112388053,-0.0516213235994668,10.513727824439073,-2.144357957644578,-0.9144682438548016,15.478338547422826,1.3552933251357655,1.1549687203756194,10.41133190709556,7.476620557831556,12.294490162919208,0.9592568002096038,5.752377393769055,10.975535322980182,0.3963563500381094,4.566099585556404,4.175139636528201,5.735443859565549,18.883512760201267,-4.564791762057388,1.5941890698587105,-20.09611441798942,-3.81108295440192,-3.0605927726120044,32.54940545721389,36.43115583909905,40.31290622098422,1577395877.0,-27.691888295594563,-51.127629159150686,6.7162695
44751,1577395877.93,1.1118438929115853,-4.081062717642435,6.123959080542588,5.1256353834198745,-0.0932570744212079,6.370795432188452,-2.0851744605087643,-3.062417503989614,12.14233970738853,-4.944033739043445,5.321223561356708,0.0742470345846036,3.829769971894055,19.947703291730186,-0.9158995093368902,2.689268530868903,-1.8825996212842988,8.03952100800305,19.70812030431486,-5.842933455433458,0.8856605943659495,-17.091087962962966,7.7746092269799165,-26.185071499013805,32.45355976877228,36.38323299487824,40.408751909425824,1577395877.0,-27.691888295594563,-51.127629159150686,6.7162695
44752,1577395877.94,1.90671884408346,1.8158559713224085,7.038544114722275,0.3875102979706551,0.5005049372975411,10.895836569883764,2.107072646424828,-10.264176097739616,11.785603660025249,20.38555610470656,2.391536061356707,-0.5666221060403963,1.3578461437690548,-2.269093583269817,3.8448426781631095,0.3088974371189026,-4.842804699409299,-11.70535203887195,18.05890521608768,-4.38220009157509,1.2399248321123264,-17.091087962962966,7.7746092269799165,-26.185071499013805,32.45355976877228,36.52700152754066,40.21706053254261,1577395877.0,-27.691888295594563,-51.127629159150686,6.7162695
44753,1577395877.95,-1.1937723058188834,0.0848481710294389,10.155794676245712,-0.9604252366973126,-1.522595465534489,14.362640573790015,-0.5840100195907958,6.622128211342416,13.159875412954936,19.34795844845656,6.206233326981708,0.7151161752096037,6.027035596894055,2.003367354230183,3.539666896913109,-0.2404189691310974,-11.2209785275343,-5.388213366996951,18.223826724910392,-2.7388750572344303,1.4170569509855149,-17.033298992673995,7.927052545155993,-91.137651451113,32.45355976877228,36.52700152754066,40.50459759786743,1577395877.0,-27.691888295594563,-51.127629159150686,6.7162695
44754,1577395877.96,-2.6099425878013047,-1.7838262247225132,11.666535923804306,-1.9097261949492657,-1.9739024784739423,14.25609859991306,1.8353307579970943,4.068712140785776,9.184303556265483,-0.8241606921684451,9.166438405106708,1.4933144173971038,5.523495557831555,8.701975752667684,1.6323182641006095,4.474546851181403,5.2585136599657005,-4.518462390434451,18.223826724910392,-2.7388750572344303,1.4170569509855149,-20.87626551689052,4.039747931666035,-55.26070283882784,32.52544403510348,36.407194416988645,40.24102195465301,1577395877.0,-27.691888295594563,-51.127629159150686,6.7162695
44755,1577395877.97,-1.210531717439977,-2.034020298208841,11.424721556128524,1.1943562574433113,0.6130324153248847,14.942037375547828,3.897935488221703,10.54622473233851,7.128881431021342,-4.486270067168445,9.471614186356708,1.844266565834604,4.012875440644055,2.339060713605183,3.295526271913109,25.4248642339939,29.8251640505907,15.33322217987805,18.883512760201263,-4.564791762057388,2.47984966422466,-17.322243844118844,6.25017604521915,-26.185071499013805,32.789019678317906,36.52700152754066,40.21706053254261,1577395877.0,-27.691888295594563,-51.127629159150686,6.7162695
44756,1577395877.98,0.170922640470179,-0.5855282938143102,11.24276222995665,1.103376594357374,-1.6423055485423017,13.577342429258763,-1.1107343848251707,-10.89863953768102,12.185435337271342,5.615048292206555,-0.5991865948932926,1.0202919564596038,4.989437940644055,6.275828291730183,1.1898133812881098,17.0325302496189,27.0785820193407,19.20895460175305,18.718591251378545,-3.6518334096459095,2.3027175453514714,-17.322243844118844,6.25017604521915,-26.185071499013805,32.45355976877228,36.33531015065744,40.21706053254261,1577395877.0,-27.691888295594563,-51.127629159150686,6.7162695
44757,1577395877.99,-0.3701669347251334,0.0453438436368613,10.62386110080626,0.5790464307831551,0.7806265315358222,11.348340683653296,-1.3022705176376708,-2.9211596060403955,9.084944187368995,15.670590284394056,-2.537052805830793,1.2949501595846038,8.956723096894056,10.365183760480184,3.539666896913109,17.4597763433689,30.3744804568407,-2.8247368044969514,19.2133557778467,-4.199608421092795,2.8341139019710404,-17.091087962962966,8.994155772388531,-17.343359044801353,32.50148261299308,36.38323299487824,40.26498337676341,1577395877.0,-27.691888295594563,-51.127629159150686,6.7162695
44758,1577395878.0,0.7287716272865853,1.5548879903653774,13.141364146460557,2.820019184689405,-0.2045874516184742,8.579446463682594,-0.2607927954697029,-1.3242270987161773,4.164859775747905,24.29180610470656,3.947932545731707,0.9287392220846036,8.376889112519056,7.160838057355183,2.303704982850609,15.964415015243905,43.4054863162157,0.4101264767530486,18.718591251378545,-4.0170167506105,3.0112460208442324,-18.24686736874237,10.06125899962107,-26.185071499013805,32.50148261299308,36.50304010543026,40.26498337676341,1577395878.0,-27.69186031778919,-51.12769540276883,7.262937
44759,1577395878.01,-0.6359233190024771,0.7288884176114702,6.8182775619879,-0.6036891893340314,1.7598550105397284,6.033212998106421,-1.1394648047470457,-3.392817333091177,6.061067490591655,3.9670990734565534,9.929377858231708,1.2339150033346038,9.261898878144056,6.947215010480183,3.112420803163109,21.4575790777439,60.1596367068407,-17.93093797637195,18.718591251378545,-5.477750114468864,1.9484533076050947,-19.17149089336589,-3.81108295440192,-14.622832135812905,32.64525114565549,36.33531015065744,40.21706053254261,1577395878.0,-27.69186031778919,-51.12769540276883,7.262937
44760,1577395878.02,2.234724471524866,-2.148941977896341,7.038544114722275,0.2438581983612801,-0.2919758122141767,7.541560044004859,0.5292937523818594,5.71951418546351,9.499141074576029,10.497860792206556,6.328303639481708,-0.0478232779153963,6.881527784394055,8.259470869855184,1.830682521913109,31.2537216558689,58.5116874880907,-12.95657274199695,18.38874823373311,-4.747383432539684,1.5941890698587031,-19.17149089336589,-3.81108295440192,-14.622832135812905,32.45355976877228,36.52700152754066,40.50459759786743,1577395878.0,-27.69186031778919,-51.12769540276883,7.262937
44761,1577395878.03,0.1960617579018197,-0.4670153116365756,9.823000645483994,-0.0673880174590313,-1.5082302555735516,8.302916171934546,1.609078701112328,1.3884033822408532,11.052977952017436,7.308773878144055,9.212214772294208,1.6153847298971038,10.330014112519056,10.060007979230184,2.746209865663109,28.7207626714939,47.0065605349657,-6.914092273246951,19.955502567548937,-4.838679267780831,0.9742266538025436,-18.01571148758649,-4.420856227106227,-14.622832135812905,32.47752119088268,36.57492437176146,40.26498337676341,1577395878.0,-27.69186031778919,-51.12769540276883,7.262937
44762,1577395878.04,-0.4108683629477896,1.4734851339200647,12.693648436011337,0.8400144117401869,1.5922608943287908,11.56262173223728,-3.255939072325171,-2.515342424643911,17.076789328970563,7.232479932831555,6.267268483231708,0.8066689095846037,4.974179151581555,10.380442549542684,3.387079006288109,12.668516577743905,17.4350273318407,-10.37783739043445,19.378277286669423,-4.747383432539684,0.8856605943659495,-17.87123906186406,-3.887304613489958,-50.159714884474496,32.50148261299308,36.50304010543026,40.16913768832181,1577395878.0,-27.69186031778919,-51.12769540276883,7.262937
44763,1577395878.05,-0.3246771031821646,-3.721932468618997,7.560480076636337,-0.2900487718535626,-4.831382159870427,10.709088840391578,4.022433974549828,0.4019922982564783,10.128816111197125,7.995419385956555,4.497248951981708,0.9592568002096036,7.400326612519055,13.691599776105184,2.288446193788109,4.794981421493903,-4.873322277534299,3.1872260861280486,18.38874823373311,-5.112566773504274,2.3027175453514714,-17.206665903540905,-1.981763136288998,-90.11745386024232,32.50148261299308,36.52700152754066,40.360829065205024,1577395878.0,-27.69186031778919,-51.12769540276883,7.262937
44764,1577395878.06,-0.3677727330649771,-2.606234494986185,12.9857410385504,1.1105591993378423,-0.7684219425852704,12.894994956114234,4.965749428651391,-1.728847179282583,7.313234958853373,4.211239698456555,8.189875905106707,1.874784143959604,7.186703565644055,0.9047345417301828,5.4012391625381095,9.158995093368905,1.4132988162157012,5.415009289253049,18.718591251378545,-4.747383432539684,2.3027175453514714,-17.206665903540905,-1.981763136288998,-90.11745386024232,32.45355976877228,36.38323299487824,40.21706053254261,1577395878.0,-27.69186031778919,-51.12769540276883,7.262937
44765,1577395878.07,-1.0166013829673208,1.77635164392983,11.021298576392196,2.543488892941358,0.5292353572194168,12.104908408262672,-0.8701171179794682,0.8497080087056976,9.95763069249595,13.976864698456556,6.236750905106708,1.3254677377096038,7.430844190644056,14.073069502667684,0.5489442406631098,10.639097632431405,8.4170829959032,8.23788526581555,19.70812030431486,-4.929975103021977,1.9484533076050876,-18.998123982498985,-3.506196318049766,-82.29593899690053,32.54940545721388,36.45511726120945,40.21706053254261,1577395878.0,-27.69186031778919,-51.12769540276883,7.262937
44766,1577395878.08,-1.679795242830602,-2.07951012975181,8.90602140964415,0.8424086134003426,-1.407673785846989,6.205595517637671,-2.3964206763290767,-7.778994774497427,11.172688035025248,5.737118604706555,9.563166920731708,3.034452112709604,9.322934034394056,0.4164532917301829,3.417596584413109,11.783506812118905,10.0192558474657,2.4548042111280486,20.03796332196029,-5.477750114468864,2.3027175453514714,-19.17149089336589,-1.981763136288998,-77.1949510425472,32.50148261299308,36.28738730643664,40.21706053254261,1577395878.0,-27.69186031778919,-51.12769540276883,7.262937
44767,1577395878.09,-1.8928791905845084,0.6738217794278765,5.223739256323838,-4.783965287966844,3.9553379329030105,10.814433713438453,-0.8042765723251708,-1.8102500357278957,3.4154746561189984,8.514218214081556,9.624202076981708,2.057889612709604,6.942562940644055,-3.337208817644817,3.326043850038109,12.821104468368905,22.9281913943407,0.3490913205030487,18.718591251378545,-5.112566773504274,1.5941890698587031,-20.03832544770045,-1.2195465454086138,-83.99626831501831,32.45355976877228,36.28738730643664,40.408751909425824,1577395878.0,-27.69186031778919,-51.12769540276883,7.262937
44768,1577395878.1,1.2124003626381477,1.7296647115567836,4.895733628882431,3.375473969845655,-0.6032220280344892,6.504870725157202,4.659291616151391,9.660370118080698,6.355554294790873,15.594296339081556,-7.526676829268292,-0.0478232779153963,9.658627393769056,14.515574385480184,-0.1224424780868902,19.3823837652439,13.8339531130907,3.6755073361280486,19.378277286669423,-4.38220009157509,0.8856605943659495,-20.03832544770045,-1.2195465454086138,-85.01646590588899,32.64525114565549,36.57492437176146,40.360829065205024,1577395878.0,-27.69186031778919,-51.12769540276883,7.262937
44769,1577395878.11,0.3947804956947879,2.224067354379049,10.675336436499618,0.1217539136933118,2.061524419719416,7.710351261045874,-1.7380152197861083,-4.854477446616568,10.604065140738138,12.420468214081556,-6.290714915205792,-0.3987754263528963,5.904965284394056,3.239329268292683,1.937494045350609,6.732847632431403,9.1037285037157,-14.00942918730945,19.955502567548937,-3.5605375744047603,1.6827551292952974,-20.991843457468452,-1.600654840848806,-42.33820002113272,32.7171354119867,36.52700152754066,40.21706053254261,1577395878.0,-27.69186031778919,-51.12769540276883,7.262937
44770,1577395878.12,2.553153292325648,-1.4354698831697787,8.367326036108993,0.8831100416229988,0.0743370417897285,9.94773271246189,2.372829030702172,16.11274359220179,4.049938096060405,2.7158783703315548,-12.440006907393292,-0.8107627310403963,8.224301221894056,12.348826338605184,1.1898133812881098,19.5349716558689,17.9538261599657,3.6449897580030486,19.87304181313758,-2.7388750572344303,1.7713211887318916,-20.3272702991453,-3.5061963180497666,-8.5016465905889,32.50148261299308,36.57492437176146,40.21706053254261,1577395878.0,-27.69186031778919,-51.12769540276883,7.262937
44771,1577395878.13,0.9729801966225228,-0.5903166971346226,8.15184788669493,2.990007502560499,-3.782721832721989,0.3421956519150145,1.2020644188857657,-5.614636473716177,4.916639097036967,6.988339307831555,3.368098561356707,1.6916786752096038,6.606869581269055,6.428416182355183,3.6312196312881095,12.058165015243905,29.0927421755907,12.55612257050305,19.87304181313758,-3.4692417391636146,1.062792713239138,-20.3272702991453,-3.5061963180497666,-8.5016465905889,32.597328301434686,36.33531015065744,40.21706053254261,1577395878.0,-27.69186031778919,-51.12769540276883,7.262937
44772,1577395878.14,-0.6945812596763052,-0.8297368631502475,7.3162715073004,2.041903645138624,-0.7803929508860517,11.539876816465796,-3.761115622618141,-5.894758067954458,5.4313924539705605,4.699520948456556,23.06719524104421,2.378324183022104,-1.8464995593559448,-0.071827958269817,0.3048036156631097,12.180235327743905,38.8278495974657,-4.167510241996951,19.295816532258065,-3.925720915369352,2.568415723661258,-20.789582061457065,-4.115969590754073,-13.942700408565791,32.47752119088268,36.52700152754066,40.360829065205024,1577395878.0,-27.69186031778919,-51.12769540276883,7.262937
44773,1577395878.15,-0.3677727330649771,3.7431883077481896,7.989042173804306,-1.8893754808379373,1.644933330852229,10.290103549864234,0.6047111046767818,-2.085583226645865,4.781366703238139,19.43951118283156,-2.430241282393293,1.5085732064596038,4.302792432831555,8.839304854230184,3.112420803163109,17.2614120855564,67.1634208865282,4.987763195503049,20.03796332196029,-3.286650068681319,1.9484533076050947,-19.17149089336589,8.689269136036376,-19.04368836291913,32.64525114565549,36.33531015065744,40.33686764309461,1577395878.0,-27.69186031778919,-51.12769540276883,7.262937
44774,1577395878.16,-1.5959981847251332,0.1063959859708451,6.717721092261337,0.4952493726776864,-0.6606828678782392,-0.6992820702529532,0.8549051781631094,2.32932463468226,3.307735581411967,5.523495557831555,4.070002858231708,1.0202919564596038,2.1207855968940548,3.071482588605183,0.9456727562881098,30.4602646246189,75.3268730349657,-16.31350633574695,20.03796332196029,-3.286650068681319,1.9484533076050947,-17.264454873829877,9.45148572691676,-25.84500563539025,32.50148261299308,36.28738730643664,40.21706053254261,1577395878.0,-27.69186031778919,-51.12769540276883,7.262937
44775,1577395878.17,1.2124003626381477,2.124707985482565,4.601246824683212,0.5287681959198739,6.244194720012385,7.618174497129859,10.326366945741237,7.51995383390101,2.548773655142436,6.683163526581555,-8.747379954268293,1.3254677377096038,-2.609439012480945,-9.349171708269816,1.922235256288109,34.7022079839939,84.1464531130907,-11.12551805449695,20.03796332196029,-3.286650068681319,1.9484533076050947,-17.264454873829877,9.45148572691676,-25.164873908143136,32.64525114565549,36.479078683319855,40.360829065205024,1577395878.0,-27.69186031778919,-51.12769540276883,7.262937
44776,1577395878.18,0.6533542749916629,1.7129052999356895,6.383729960669541,0.8232550001190926,1.8412578669850408,6.53838954839939,-10.373900607969702,-11.296077013266958,9.446468638052592,3.5551117687690548,-1.6062666730182926,0.5930458627096038,0.5949066906440549,5.573923994855183,-0.0614073218368902,17.4597763433689,79.1110527224657,-5.601836413871951,18.14136597049903,-3.0127625629578727,2.214151485914877,-20.09611441798942,7.164835954275611,-20.0638859537898,32.62128972354509,36.52700152754066,40.408751909425824,1577395878.0,-27.69186031778919,-51.12769540276883,7.262937
44777,1577395878.19,0.419919613126429,-0.0635923319002476,7.651459739722275,-0.6934717515898907,-0.719340808552068,4.069967636778296,-2.9458899573349364,-2.550058348716177,19.694848844351423,-2.899356004668445,-0.1414229230182926,-0.1393760122903963,-3.097720262480945,2.552683760480183,2.914056545350609,2.704527319931404,10.9653007693407,-21.98977586699695,18.38874823373311,-4.38220009157509,2.3027175453514714,-20.03832544770045,5.945289408866996,-23.46454459002536,32.597328301434686,36.43115583909905,40.21706053254261,1577395878.0,-27.69186031778919,-51.12769540276883,7.262937
44778,1577395878.2,0.362458773282679,1.643473451791159,8.506189732398056,-2.150343461794969,0.7973859431569159,9.387489523985328,3.5340168358779533,9.985981543861946,4.7155261575838425,-0.4579497546684451,13.499934498856708,0.8066689095846037,-9.079165574980944,5.360300947980183,2.227411037538109,-6.008241234756097,-22.6040351681593,10.90817335175305,18.38874823373311,-4.747383432539684,1.2399248321123264,-19.05591295278796,8.07949586333207,-18.703622499295577,32.50148261299308,36.479078683319855,40.26498337676341,1577395878.0,-27.69186031778919,-51.12769540276883,7.262937
44779,1577395878.21,-1.0429376012290397,0.1399148092130326,6.653077647437119,-2.3011781663848123,-5.032495099323552,6.133769467832984,-0.1506595191025145,-3.5723824576028957,7.9069969705721235,-6.042666551543445,12.798030201981708,1.6916786752096038,-1.2971831531059452,-1.7197771770198171,1.0372254906631098,-17.5744033441311,-10.9463203244093,14.50924757050305,18.38874823373311,-4.747383432539684,1.2399248321123264,-17.264454873829877,7.927052545155993,-23.80461045364892,32.789019678317906,36.52700152754066,40.21706053254261,1577395878.0,-27.69186031778919,-51.12769540276883,7.262937
44780,1577395878.22,-1.372140329500524,1.3860967733243617,9.469855900610948,-1.7361465745879376,-0.3853496769602704,2.6047162207626715,-0.0668624609970458,11.149563550697884,9.027483347525248,-12.664981004668444,1.0640214129192074,0.3946816048971037,-2.121157762480945,-6.175343583269817,2.166375881288109,-4.299256859756097,1.1081230349657012,21.68087842987805,18.801052005789906,-5.386454279227715,2.0370193670416814,-16.802143111518113,8.23193918150815,-25.84500563539025,32.57336687932428,36.52700152754066,40.1691376883218,1577395878.0,-27.69186031778919,-51.12769540276883,7.262937
44781,1577395878.23,-1.0237839879477897,6.249917445931783,9.169383592261338,-4.402090123171922,3.6416975154225417,8.818866629698219,-2.5616205908798584,-3.965031529868521,10.86503312169517,4.638485792206555,-4.413883860518292,0.4404579720846037,-5.691714403105945,-7.624928544207316,-0.4886534155868902,-8.388612328506097,1.0013115115282003,5.4913032345655495,17.729062198442236,-4.0170167506105,1.5941890698587031,-17.06219347781848,8.003274204244033,-15.13293093124824,32.64525114565549,36.694731482313486,40.31290622098422,1577395878.0,-27.69186031778919,-51.12769540276883,7.262937
44782,1577395878.24,0.0703661707436156,-2.6421475198885287,12.11664583591368,-0.4025762498809064,-0.6415292545969892,6.0667318213486086,-1.0341199317001708,5.353201331459603,14.732865903677592,-26.062197801543444,-10.242741282393292,-1.3905967154153962,-14.053530809355944,11.677439619855184,0.1216981469131097,-12.142274437881095,-37.8628242306593,-7.951689929496951,19.70812030431486,-4.0170167506105,1.2399248321123264,-17.322243844118844,8.07949586333207,-15.302963863060016,32.50148261299308,36.57492437176146,40.21706053254261,1577395878.0,-27.69186031778919,-51.12769540276883,7.262937
44783,1577395878.25,-1.4978359166587272,-1.4785655130525912,10.002565769995712,1.8431849073456552,-0.4380221134837079,7.110603745176734,1.7551250023818592,4.338059827553353,13.181423227896342,-10.742373582793444,21.526057545731707,2.637723597084604,-14.328189012480944,0.4774884479801829,0.3048036156631097,-19.6801162347561,-53.3657539181593,-0.4748832888719513,19.70812030431486,-4.0170167506105,1.2399248321123264,-17.322243844118844,8.07949586333207,-15.302963863060016,32.64525114565549,36.479078683319855,40.02536915565939,1577395878.0,-27.69186031778919,-51.12769540276883,7.262937
44784,1577395878.26,-0.5377610509360709,-0.5603891763826699,9.917571611060165,1.4625068433808115,-0.9946739994700368,10.021952963926733,4.649714809510766,2.7231708077779637,4.15528296910728,-17.105288621855944,-0.8891035870807926,-0.3682578482278963,-11.062808153105944,-6.007496903582316,-0.2902891577743902,-17.2844863519436,-48.1319892697218,6.3763130001905495,19.378277286669427,-5.477750114468864,1.062792713239138,-17.23556038868539,-4.344634568018188,-13.432601613130458,32.62128972354509,36.43115583909905,40.28894479887381,1577395878.0,-27.69186031778919,-51.12769540276883,7.262937
44785,1577395878.27,-1.2225027257407584,-0.8177658548494663,8.75279250339415,0.7969187818573739,1.968150554973322,11.003575644590796,6.830832521913109,8.585373572670541,2.0435971048494674,-6.744570848418445,-1.6673018292682926,-0.9938681997903964,-11.306948778105944,0.8131818073551829,-0.6107237280868902,-7.717225609756097,-7.131623058784299,1.0509956173780486,18.883512760201263,-5.295158443986569,2.47984966422466,-17.148876933251934,-4.26841290893015,-24.484742180896028,32.50148261299308,36.33531015065744,40.360829065205024,1577395878.0,-27.69186031778919,-51.12769540276883,7.262937
44786,1577395878.28,0.3576703699623665,2.366522353158346,11.920321299780868,0.0188032423065926,0.5412063655201973,9.064272299864232,0.3449402245498282,-3.5723824576028957,-2.598759914193501,-8.697695848418444,-1.2400557355182926,-0.8717978872903963,-9.750552293730944,-2.391163895769817,-1.0379698218368902,-10.402772484756095,29.8861992068407,10.84713819550305,19.543198795492145,-5.295158443986569,2.47984966422466,-17.148876933251934,-4.26841290893015,-78.21514863341787,32.45355976877228,36.33531015065744,40.21706053254261,1577395878.0,-27.69186031778919,-51.12769540276883,7.262937
44787,1577395878.29,0.3540790674721322,1.3430011434415492,7.602378605689072,2.3531498609589363,3.486074407512385,3.1027101660751715,-4.151370493223609,-6.031227562583364,1.7371392923494673,-9.521670457793444,-3.5136153058307924,-1.909395543540396,-12.252993699980944,1.8507794636051829,-2.2586729468368905,-5.062196312881097,38.1564628787157,-2.0312797732469514,19.543198795492145,-5.112566773504274,1.771321188731899,-17.091087962962966,-3.81108295440192,-69.71350204282896,32.57336687932428,36.57492437176146,40.21706053254261,1577395878.0,-27.69186031778919,-51.12769540276883,7.262937
44788,1577395878.3,2.342463546231898,-2.7450981912752472,4.1415601059332126,1.385892390255812,-1.6830069767649578,5.626198715879859,-4.619436917784156,2.8907649239889004,9.42851212560142,4.852108839081555,5.595881764481708,0.0132118783346036,-14.190859910918444,-1.7197771770198171,-1.2515928687118902,2.368833960556404,27.7957451052782,-1.3446342654344514,19.543198795492145,-6.02552512591575,0.3542642377463768,-18.940335012210014,-3.81108295440192,-74.47442413355876,32.64525114565549,36.45511726120945,40.14517626621141,1577395878.0,-27.69186031778919,-51.12769540276883,7.262937
44789,1577395878.31,-1.9958298619712271,0.1806162374356889,7.421616380347275,-0.0937242357207501,0.864423589641291,8.221513315489233,1.0201050927138906,-14.667112950766958,10.210218967642437,-13.946719285918444,15.208918873856708,0.1963173470846037,-12.497134324980944,0.6300763386051829,-3.5404112280868905,-10.463807641006095,13.9865410037157,-13.44485399199695,18.223826724910392,-3.4692417391636146,2.125585426478283,-19.05591295278796,-2.896423045345459,-69.03337031558186,32.50148261299308,36.67077006020308,40.408751909425824,1577395878.0,-27.69186031778919,-51.12769540276883,7.262937
