,timestamp,acc_x_dashboard,acc_y_dashboard,acc_z_dashboard,acc_x_above_suspension,acc_y_above_suspension,acc_z_above_suspension,acc_x_below_suspension,acc_y_below_suspension,acc_z_below_suspension,gyro_x_dashboard,gyro_y_dashboard,gyro_z_dashboard,gyro_x_above_suspension,gyro_y_above_suspension,gyro_z_above_suspension,gyro_x_below_suspension,gyro_y_below_suspension,gyro_z_below_suspension,mag_x_dashboard,mag_y_dashboard,mag_z_dashboard,mag_x_above_suspension,mag_y_above_suspension,mag_z_above_suspension,temp_dashboard,temp_above_suspension,temp_below_suspension,timestamp_gps,latitude,longitude,speed
44584,1577399451.24,2.59274521246189,0.6097038910656432,5.899780051924542,3.334363775485899,1.804352124321169,8.086795675733612,-6.121272903070217,-5.444706551007526,9.41639512939453,23.607765756002287,-9.212959103467988,-0.4495760289634145,2.097339164919969,4.664723466082317,-2.5850621665396343,11.126820634051068,19.98305902248476,3.259798375571646,3.085169604700852,-8.077855502136753,-0.0751469595219649,-3.2725932921245406,-3.299349088411588,-4.032537774725275,27.70919819091263,33.17240243208434,37.0062299697487,1577399451.0,-27.68901916345629,-51.12804343277291,7.465745
44585,1577399451.25,0.1279146033310302,-0.2438290007800594,10.202160435225323,0.4182261534155866,-1.2219187741163295,7.787520468214081,-1.3376579860780289,-7.764687959698932,6.169857678222656,8.287941537252287,-8.068549923780488,-3.7607332555259134,1.3954348680449695,-3.147776533917683,-1.5779820884146345,6.884877274676067,24.62173089748476,-11.937955530678352,2.908874198717946,-8.895866185897436,-0.2254408785658823,-0.8072509421668069,-0.3665943431568428,-32.3515360841082,27.685236768802227,33.41201665318837,37.10207565819032,1577399451.0,-27.68901916345629,-51.12804343277291,7.465745
44586,1577399451.26,-0.8237805565810782,-3.292844814989043,11.69853647282298,0.5187826231421491,-1.0591130612257045,13.591065292432834,-5.132467617425687,-2.523780525616901,12.952630981445312,-4.682029165872714,10.745536990282012,1.3509610804115857,1.8837161180449693,0.3007097942073171,-1.8221227134146345,3.985707352801067,14.062648866234756,-8.977750452553353,2.556283386752135,-8.691363514957265,-1.1272043928293995,-2.0399221171456747,-3.299349088411588,-38.25132739856297,27.70919819091263,33.41201665318837,37.05415281396951,1577399451.0,-27.68901916345629,-51.12804343277291,7.465745
44587,1577399451.27,0.3326188452743895,-0.7166838286609182,16.29540366032298,0.4266058592261333,-2.028764733588986,10.00455120551877,-0.3356845913026388,5.478838523455364,15.031995123291017,-12.219870962747711,-2.621162228467988,-4.111685403963414,3.272265922732469,5.854909012957316,-1.5932408774771345,5.191151688738567,-0.9672583603277438,-6.9788490853658525,3.085169604700852,-7.66885016025641,-0.0751469595219649,-2.348089910890392,-3.024403331043956,-38.32507478999366,27.90088956779585,33.31617096474676,37.269805612963125,1577399451.0,-27.68901916345629,-51.12804343277291,7.465745
44588,1577399451.28,0.8952562354111083,-0.5634549224109183,12.435950584151104,-2.2967985292016,1.0453901980516382,13.990896969678928,4.726854819097751,3.045132535906536,7.977479931640625,7.006203256002286,5.069267459032012,0.5575040491615855,3.8063235399199695,-2.751048018292683,2.2367151772103657,8.532826493426068,-1.5623511337652438,1.9475425161966464,3.085169604700852,-8.486860844017095,-0.0751469595219649,-2.2453673129754868,-3.1160519168331664,-38.39882218142434,27.70919819091263,33.31617096474676,37.341689879294336,1577399451.0,-27.68901916345629,-51.12804343277291,7.465745
44589,1577399451.29,-0.2012881249404536,-2.162781631395294,12.062455125166728,-1.4971351747094124,-2.2083298581007043,12.370022445753149,-0.427861355218654,-6.986572420148151,20.798429821777344,-5.231345572122712,4.260551638719512,-1.2735506383384143,8.658618461794969,2.589528153582317,-1.3948766196646345,-10.021861006573932,-25.640720274390244,-0.9516274056783536,1.4985109508547012,-8.691363514957265,0.6763226356976285,-2.2453673129754868,-3.1160519168331664,-38.39882218142434,27.541468236139814,33.41201665318837,37.10207565819032,1577399451.0,-27.68901916345629,-51.12804343277291,7.465745
44590,1577399451.3,1.0245431250595458,-2.019129531785918,11.542913364912822,1.332811187595274,-3.686749383247189,8.800267770460175,0.8183206088926737,2.985277494402629,16.312893011474607,15.825783334127289,5.618583865282012,-0.7242342320884145,4.554004203982468,-1.8355206745426829,-0.4640904868521344,-7.305796553448932,-46.62155523532775,-2.2028481088033534,4.495532852564104,-7.259844818376068,-0.3757347976097998,-3.169870694209636,3.3909976742008,-37.58760087568682,27.565429658250217,33.29220954263636,37.22188276874233,1577399451.0,-27.68901916345629,-51.12804343277291,7.465745
44591,1577399451.31,-1.2858614769912342,0.0446722992687682,13.62586880924876,-3.6471282655297257,0.8490656619188257,17.14406055610471,7.504128744879001,1.0794929729182536,6.047753393554687,-1.813376822122713,-0.3323438690929878,-1.4566561070884143,7.712573539919969,-5.711253096417683,-0.3877965415396341,-8.831675459698932,-47.94906988376525,19.373079625571645,3.790351228632481,-9.304871527777776,0.526028716653711,-14.161188671104536,-0.916485857892108,-39.28379087859256,27.75712103513344,33.31617096474676,37.10207565819032,1577399451.0,-27.68901916345629,-51.12804343277291,7.465745
44592,1577399451.32,0.7683635474228271,-2.325587344285918,8.744091624190167,-1.1332165223656625,-0.9609507931592982,11.998921188428929,-3.645668386468655,-16.90814409983565,0.55545478515625,3.740822396627287,6.564628787157012,1.0152677210365857,6.247729789919969,6.984059403582317,1.5958460365853655,2.093617509051067,-17.980808165015244,18.152376500571645,2.7325787927350405,-8.486860844017095,-0.0751469595219649,-15.393859846083402,-3.849240603146853,-39.28379087859256,27.70919819091263,33.41201665318837,37.24584419085272,1577399451.0,-27.68901916345629,-51.12804343277291,7.465745
44593,1577399451.33,-0.9686297570205312,0.8910225861340025,9.072097251631574,-0.0797677918969124,-0.4485916378858606,7.145874423292206,-1.938602602777248,2.166460526629191,10.536881506347656,10.042702279439789,-1.3546827362804876,0.0997403772865856,8.231372368044969,1.9486590129573167,-1.7305699790396345,3.466908524676067,7.165676209984756,1.0930503286966462,2.908874198717946,-7.873352831196582,-0.5260287166537173,-15.599305041913214,-1.832971715784216,-1.6726212489433638,27.58939108036062,33.41201665318837,37.24584419085272,1577399451.0,-27.68901916345629,-51.12804343277291,7.465745
44594,1577399451.34,0.720479514219702,-2.667958181688262,6.522272483565167,0.2973189695776964,-1.0878434811475794,9.245589279249238,0.5609439304258761,-7.8173603962223694,9.17458076171875,15.429054818502289,-7.961738400342988,1.1983731897865857,7.575244438357469,-0.2791241901676828,1.2296350990853655,8.303944657488568,26.37649163967226,-13.494352015053355,3.2614650106837644,-8.691363514957265,0.9769104737854758,-7.792387600380388,-3.299349088411588,-2.410095163250211,27.70919819091263,33.29220954263636,37.269805612963125,1577399451.0,-27.68901916345629,-51.12804343277291,7.465745
44595,1577399451.35,1.821812277891577,-1.154822732469512,12.701706968428448,1.2633793394507429,-0.1181918087842981,11.002933297803928,0.4795410739805637,16.804609476824503,14.834473486328124,-2.7899393221227133,-12.081611447217988,-1.9754549352134143,8.994311821169969,-4.124339033917683,0.5887659584603658,30.597035477801068,27.73452386623476,-0.4328285775533537,2.7325787927350405,-8.895866185897434,-0.0751469595219649,-2.861702900464919,-2.5661604020979016,-4.032537774725275,27.565429658250217,33.31617096474676,37.341689879294336,1577399451.0,-27.68901916345629,-51.12804343277291,7.465745
44596,1577399451.36,-1.0943253441787344,0.3223996918468932,13.458274693037822,0.4685043882788678,3.2791803469774194,12.84646857612424,0.7931814914610325,-6.1462076374333074,12.222399475097657,10.729347787252289,3.604423709032013,1.5645841272865857,3.7147708055449695,9.822194169207316,-1.4253941977896345,15.521351884051068,32.89199456935975,-1.7145668588033538,2.7325787927350405,-9.304871527777776,-0.3757347976097998,-2.861702900464919,-2.5661604020979016,-4.032537774725275,27.421661125587804,33.17240243208434,37.341689879294336,1577399451.0,-27.68901916345629,-51.12804343277291,7.465745
44597,1577399451.37,0.6594273718857177,-2.74576973564334,10.993444083906963,-0.473613964992616,-3.763363836372189,8.175381137159393,3.676997391119235,-0.6563032306950265,11.3389390625,3.298317513814786,-2.834785275342988,-0.1291414586509143,8.139819633669969,-1.2556866901676833,2.0536097084603657,18.954579423113568,29.56557855373476,0.6963218130716462,2.7325787927350405,-8.077855502136753,-0.0751469595219649,1.041755820301493,0.549891514735265,-2.2626003803888417,27.661275346691824,33.48390091951957,37.24584419085272,1577399451.0,-27.68901916345629,-51.12804343277291,7.465745
44598,1577399451.38,-0.3880358544326407,-0.1037682036609183,11.964292857100324,-2.4572100404320696,4.047719079887576,11.797808248975803,-7.722993813714749,-5.878057051495808,11.264718811035156,10.180031381002289,6.534111209032012,3.5787442835365857,3.7147708055449695,2.223317216082317,2.9081018959603657,17.413441727801068,36.30996331935975,-7.512906702553353,1.8511017628205124,-8.691363514957265,1.2774983118733108,-1.2181413338264289,-3.299349088411588,-3.147569077557058,27.565429658250217,33.22032527630515,37.341689879294336,1577399451.0,-27.68901916345629,-51.12804343277291,7.465745
44599,1577399451.39,1.7021021948837645,2.0031292572765804,6.515089878584698,2.721448150485899,-2.9457439694288303,7.447543832471894,-1.098237820062404,3.1025933757502857,16.907852124023435,10.210548959127289,-1.430976681592988,-0.1444002477134145,12.900561821169967,11.470143387957316,0.7108362709603658,12.774769852801068,10.278469178734756,-1.8976723275533536,3.085169604700852,-8.486860844017095,0.8266165547415459,-2.450812508805297,2.566160402097902,-4.032537774725275,27.70919819091263,33.17240243208434,37.24584419085272,1577399451.0,-27.68901916345629,-51.12804343277291,7.465745
44600,1577399451.4,0.9766590918564207,-1.1284865142077931,9.922038840987042,1.7015182432593363,-2.2083298581007043,0.8060284271984556,-1.174852273187404,-8.566745515851276,7.41244833984375,12.621437631002289,-10.647285275342988,0.1607755335365854,8.170337211794969,1.9791765910823167,1.1991175209603655,7.190053055926067,8.813625428734756,-3.423551233803354,3.614055822649576,-8.691363514957265,-0.2254408785658824,-2.450812508805297,2.566160402097902,-4.032537774725275,27.75712103513344,33.22032527630515,37.10207565819032,1577399451.0,-27.68901916345629,-51.12804343277291,7.465745
44601,1577399451.41,1.5752095068954832,-0.9537097930163868,4.469244559981183,1.544698034519102,-0.1110092038038299,7.159042532423065,2.7253022312071264,1.1405451152522392,2.89219560546875,14.879738412252289,2.5057908965320124,0.0387052210365856,3.394336235232469,3.8712664348323167,0.8329065834603657,9.738270829363568,10.995632264672256,0.7726157583841464,1.8511017628205124,-9.918379540598291,0.3757347976097936,-1.6290317254860518,-0.7331886863136863,-3.442558643279797,27.58939108036062,33.07655674364273,37.29376703507353,1577399451.0,-27.68901916345629,-51.12804343277291,7.465745
44602,1577399451.42,0.097987082579077,-0.5850027373523246,6.005124924971417,0.1524697691382428,-0.4390148312452356,7.29670912788205,-5.2114762722108425,-7.659343086652057,10.819397302246092,15.703713021627289,4.580986209032012,-0.2664705602134145,2.066821586794969,8.967701981707316,-0.4183141196646341,7.220570634051067,12.475734803734756,-6.933072718178353,4.495532852564104,-8.077855502136753,1.127204392829393,-3.2725932921245406,-2.1995660589410586,-4.032537774725275,27.852966723575044,33.36409380896756,37.341689879294336,1577399451.0,-27.68901916345629,-51.12804343277291,7.465745
44603,1577399451.43,-0.7758965233779531,-1.099756094285918,12.78310982487376,1.294503961032774,-0.5204176876905482,10.327768429639866,2.1387228244688448,2.930210856219036,8.590395556640624,-2.9120096346227133,4.977714724657012,-0.2664705602134145,3.348559868044969,3.382985184832317,1.5042933022103655,17.657582352801068,15.252834413109756,-10.076383265053352,3.43776041666667,-9.304871527777776,0.526028716653711,-1.629031725486053,2.1995660589410586,-0.1976734203296699,27.75712103513344,33.17240243208434,37.05415281396951,1577399451.0,-27.68901916345629,-51.12804343277291,7.465745
44604,1577399451.44,0.58161581793064,0.1176954499035343,13.186532804610088,0.0160002745093366,1.387761035453982,13.157714791944551,1.6814303073790011,11.96113951832841,7.627926489257812,1.6656270841272864,13.965141482469512,2.5106290491615857,2.799243461794969,6.160084794207317,0.4972132240853658,22.204701493426068,33.47182855373475,8.600374547446647,4.495532852564104,-9.100368856837608,0.0751469595219556,-1.629031725486053,2.1995660589410586,-0.1976734203296699,27.66127534669183,33.50786234162997,37.43753556773595,1577399451.0,-27.68901916345629,-51.12804343277291,7.465745
44605,1577399451.45,0.595981027891577,-1.655210879442168,10.448763206221416,1.845170342868712,-2.081437170112423,10.101516372755098,-3.068665786370998,-10.925034151105182,14.216769458007812,1.9708028653772869,9.891044802782012,0.7406095179115855,5.072803032107469,8.296315262957316,1.5500696693978655,12.622181962176068,32.22060785060975,-2.035001429115852,3.790351228632481,-8.486860844017095,-0.0751469595219649,-1.4235865296562409,-3.849240603146853,-2.5575899461115807,27.61335250247102,33.12447958786354,37.31772845718393,1577399451.0,-27.68901916345629,-51.12804343277291,7.465745
44606,1577399451.46,1.4363458106064209,-1.9449092803210744,7.149553318526104,-1.6551524842797247,-0.3097279415967982,12.38678185737424,6.8912131198790005,13.342593876238569,11.473014355468749,15.551125131002289,4.672538943407012,0.3743985804115854,6.980151664919969,-0.0960187214176829,2.3282679115853657,16.833607743426068,9.301906678734756,-5.864957483803353,3.790351228632481,-8.486860844017095,-0.0751469595219649,-3.2725932921245406,-4.032537774725275,-4.032537774725275,27.61335250247102,33.31617096474676,37.24584419085272,1577399451.0,-27.68901916345629,-51.12804343277291,7.465745
44607,1577399451.47,1.0317257300400144,1.3159933808117368,10.058508335615947,2.6999003355444926,-1.7390663327100797,7.248825094678924,3.14428752173447,-13.60175160715987,8.568847741699217,5.510841927877286,-2.834785275342988,-1.7313143102134143,6.705493461794969,7.136647294207317,0.9549768959603658,6.671254227801067,7.806545350609756,-2.294400843178354,2.379987980769229,-9.71387686965812,-0.0751469595219649,-3.2725932921245406,-4.032537774725275,-4.032537774725275,27.565429658250217,33.41201665318837,37.341689879294336,1577399451.0,-27.68901916345629,-51.12804343277291,7.465745
44608,1577399451.48,0.4798622473739994,2.644775302198456,9.2349029645222,0.3033044737280865,4.500223193657107,10.634226242139864,-3.2290772976014672,1.1058291911799725,10.888829150390624,11.629616341939789,3.2382127715320124,-0.1138826695884143,-1.3816647413300305,6.923024247332317,1.1685999428353655,-0.8055524128239329,-8.367771055640244,-8.367398890053353,3.4377604166666664,-9.100368856837605,0.8266165547415522,3.712543366089037,-4.032537774725275,-0.4926629860524088,27.565429658250217,33.12447958786354,37.341689879294336,1577399451.0,-27.68901916345629,-51.12804343277291,7.465745
44609,1577399451.49,-0.0935490502334219,-6.465162014696075,7.448828526045635,3.13564503769293,-2.5507006955030485,7.331425051954315,2.482290762701267,4.8515576884944265,6.524199523925781,-3.949607290872713,5.374443240282012,-0.8768221227134145,0.8156008836699693,12.477223466082316,-1.4559117759146345,8.822743485613568,-6.582492735327744,2.451082555259146,2.7325787927350405,-9.304871527777776,0.2254408785658761,5.150659736897716,0.549891514735265,-13.767193443575657,27.421661125587804,33.41201665318837,37.22188276874233,1577399451.0,-27.68901916345629,-51.12804343277291,7.465745
44610,1577399451.5,-1.273890468690453,-4.006316909715606,4.805629893233136,-0.1827184632836311,-1.3966954953077355,10.08834826362424,3.71889592017197,4.773746134539349,5.154716174316406,-7.459128775247714,17.215263552782012,2.6632169397865857,-0.4966549757050305,-4.551585127667683,4.037252286585366,11.035267899676068,-0.1585425400152439,10.980745641196648,2.7325787927350405,-9.304871527777776,0.2254408785658761,-3.067148096294731,-3.849240603146853,-32.20404130124683,27.517506814029414,33.31617096474676,37.10207565819032,1577399451.0,-27.68901916345629,-51.12804343277291,7.465745
44611,1577399451.51,-1.2619194603896715,0.8227878388195494,10.113574973799542,0.0207886778296491,1.97673464385242,12.81534395454221,-3.4086424221131857,-3.874110261945026,9.414000927734374,-0.4400858064977134,7.419120974657012,0.0692227991615854,4.325122368044969,8.570973466082316,-3.4090367759146343,7.342640946551067,16.107326600609756,12.537142125571648,3.43776041666667,-8.486860844017095,1.4277922309172282,-3.067148096294731,-3.849240603146853,-32.20404130124683,27.517506814029414,33.41201665318837,37.341689879294336,1577399451.0,-27.68901916345629,-51.12804343277291,7.465745
44612,1577399451.52,-0.0360882103896724,1.2465615326672057,12.644246128584696,1.7960892088355085,0.1739007937547637,10.973005777051972,0.4891178806211891,-6.61068275950362,14.265850592041014,3.572975716939786,-5.978095822217988,-0.5869051305259145,1.2275881883574693,-0.7979230182926829,0.6650599037728656,1.8037005168635671,12.765651795922256,-3.652433069740853,3.173317307692308,-8.998117521367522,-0.7514695952196028,-2.964425498379825,-3.757592017357642,-31.68780956123204,27.565429658250217,33.17240243208434,37.38961272351514,1577399451.0,-27.68901916345629,-51.12804343277291,7.465745
44613,1577399451.53,-0.7782907250381094,2.151569760206268,12.316240501143293,-3.082096673732851,2.364595312797732,14.749858895948458,-3.2003468776795923,0.4378469279963787,15.780183142089845,4.412209115377286,-4.269111447217988,-1.7923494664634143,0.0526614305449695,5.030934403582317,-2.0967809165396343,4.504506180926067,0.5433617568597561,-10.290006311928352,3.966646634615387,-9.918379540598291,0.3757347976097936,-3.067148096294731,-2.3828632305194803,-32.20404130124683,27.852966723575044,33.31617096474676,37.0062299697487,1577399451.0,-27.68901916345629,-51.12804343277291,7.465745
44614,1577399451.54,0.3924738867782958,-1.0087764311999807,8.104839780928447,0.8491824522437116,-0.8771537350538294,8.843363400342987,0.1251992282774387,-3.9914261432926814,11.769895361328125,2.0623555997522867,9.738456912157012,0.7406095179115855,1.5480227586699695,9.272877762957316,0.3446253334603658,-1.9957379596989329,-6.780856993140244,-11.693814905678352,3.966646634615387,-9.918379540598291,0.3757347976097936,-3.2725932921245406,-3.299349088411588,-27.631703032544383,27.852966723575044,33.36409380896756,37.24584419085272,1577399451.0,-27.68901916345629,-51.12804343277291,7.465745
44615,1577399451.55,0.4020506934189208,-3.094126077196074,9.187018931319074,2.8794654600562115,-5.538664367378049,3.090096810987518,6.802627658453219,8.776851310320598,5.889736083984375,5.053078256002286,8.212578005907012,0.2218106897865854,6.613940727419969,2.772633622332317,-1.0897008384146345,5.847279618426067,5.395656678734756,-0.9516274056783536,3.2614650106837644,-9.100368856837608,0.9769104737854758,-9.8468395586785,-2.5661604020979016,-32.3515360841082,27.75712103513344,33.12447958786354,37.24584419085272,1577399451.0,-27.68901916345629,-51.12804343277291,7.465745
44616,1577399451.56,1.4782443396591551,0.7557501923351749,6.630011558272198,0.4649130857886339,2.4579691775438257,6.346211068800018,-1.4908868923280292,-2.1047952350895573,6.391321331787109,5.892311654439788,-7.091987423780488,-1.2277742711509143,-1.9004635694550307,-2.369578291730183,-0.5861607993521344,3.024403641863567,11.361843202172256,2.664705602134146,3.614055822649572,-8.895866185897436,-0.0751469595219618,-13.133962691955478,-4.032537774725275,-32.05654651838546,27.661275346691824,33.17240243208434,37.22188276874233,1577399451.0,-27.68901916345629,-51.12804343277291,7.465745
44617,1577399451.57,3.0356725195907965,3.154740255811737,5.6986671124714166,2.84834083847418,-0.1205860104444544,4.64632789008908,3.2855454196836886,0.6772670940120037,6.433219860839843,18.267189584127287,-13.821113400342988,-4.111685403963414,-0.4661373975800305,10.402028153582316,-0.0521031821646341,-1.2633160846989329,1.6419945693597562,1.6423667349466462,3.2614650106837644,-7.873352831196582,0.0751469595219524,-11.901291516976611,-3.665943431568431,-3.737548209002536,27.565429658250217,33.22032527630515,37.24584419085272,1577399451.0,-27.68901916345629,-51.12804343277291,7.465745
44618,1577399451.58,0.8401895972275145,-4.382206570360137,7.805564573408917,1.2873213560523051,-5.483597729194455,4.136362936475799,-6.928118862542874,-6.036074361066119,9.255983618164064,3.0389180997522867,1.712333865282012,-1.0904451695884143,-0.3745846632050305,1.5824480754573171,-4.233011385289634,2.429310868426067,6.433254334984756,-2.538541468178354,3.2614650106837644,-7.873352831196582,0.0751469595219524,-14.98296945442378,-2.0162688873626373,-3.8850429918639056,27.75712103513344,33.31617096474676,37.341689879294336,1577399451.0,-27.68901916345629,-51.12804343277291,7.465745
44619,1577399451.59,-0.2479750573135005,-1.6240862578601374,10.70853408634837,2.0582542906226178,-3.335998840034299,10.193693136671117,-0.3488527004334977,0.4665773479182537,10.060435375976562,-8.679831900247713,14.59075183403201,-0.4037996617759145,-3.0601315382050305,-4.093821455792683,2.7860315834603657,0.2320452434260671,14.642482850609756,2.008577672446646,3.525908119658123,-8.79361485042735,0.4508817571317491,-3.067148096294731,-0.5498915147352641,-2.70508472897295,27.75712103513344,33.17240243208434,37.341689879294336,1577399451.0,-27.68901916345629,-51.12804343277291,7.465745
44620,1577399451.6,-1.1230557641006094,-0.0965855986804495,11.107168662764384,-1.7138104249535528,0.0853153323289825,11.79182274482541,-3.5475061184022483,-4.489420088605183,12.114660400390624,-10.816062368997711,8.731376834032012,-0.9073397008384144,1.2581057664824695,4.649464677019817,-2.0967809165396343,0.7203264934260671,1.825100038109756,-4.7968422494283525,2.203692574786324,-6.646336805555555,0.0751469595219524,-1.629031725486052,2.1995660589410586,-2.5575899461115803,27.75712103513344,33.17240243208434,37.14999850241112,1577399451.0,-27.68901916345629,-51.12804343277291,7.465745
44621,1577399451.61,-2.5811245751357657,0.8682776703625181,13.774309312178447,1.074237408298399,2.709360351860232,14.737887887647677,2.564890719976657,4.481653532000286,16.105794567871094,-9.534324087747711,7.846367068407012,-2.0670076695884143,-3.853588569455032,-1.3777570026676829,0.1310022865853658,0.5982561809260671,0.6654320693597561,-4.644254358803353,4.319237446581198,-7.873352831196582,0.0751469595219524,-1.629031725486053,0.7331886863136862,3.0472118026204567,27.852966723575044,33.41201665318837,37.24584419085272,1577399451.0,-27.68901916345629,-51.12804343277291,7.465745
44622,1577399451.62,0.3254362402939208,3.8179341156750177,10.31229371159251,1.7709500914038676,0.0063066775438258,15.520791830518773,-4.1795753566834986,-9.033614839581745,9.586383447265623,1.5435567716272869,5.130302615282012,-1.1209627477134143,-2.1446041944550305,5.244557450457317,-2.4629918540396343,-8.465464522198932,-10.717624571265244,-1.5314613900533538,4.319237446581198,-7.873352831196582,0.0751469595219524,-1.629031725486053,1.832971715784216,0.6872952768385466,27.75712103513344,33.17240243208434,37.341689879294336,1577399451.0,-27.68901916345629,-51.12804343277291,7.465745
44623,1577399451.63,-0.8321602623916254,-3.983571993944121,7.214196763350323,-1.4133381166039436,-6.003139489448361,7.198546859815643,4.875295322027439,10.529406925554971,7.790732202148437,-8.878196158060213,7.113945193407012,-0.4800936070884144,0.3273196336699695,4.695241044207317,-1.5474645102896345,-9.258921553448932,-23.504489805640244,-3.087857874428354,4.759975961538462,-8.18010683760684,-0.3005878380878412,-1.629031725486053,1.832971715784216,0.6872952768385466,27.565429658250217,33.36409380896756,37.24584419085272,1577399451.0,-27.68901916345629,-51.12804343277291,7.465745
44624,1577399451.64,-0.8261747582412344,6.506622580030487,10.087238755537824,-0.9189354737816792,3.87892786284656,11.199257833936738,-1.832060628900296,-0.2648512592594795,12.81855568847656,-0.1959451814977134,-11.684882931592988,-3.0130525914634143,-7.851391303830031,-7.496531416730184,-0.7997838462271344,-5.139048506573932,-12.426608946265244,9.821077672446648,4.848123664529915,-7.66885016025641,1.4277922309172282,-2.861702900464919,1.832971715784216,1.1297796254226542,27.61335250247102,33.26824812052595,37.22188276874232,1577399451.0,-27.68901916345629,-51.12804343277291,7.465745
44625,1577399451.65,-1.6785105492568593,3.1499518524914243,7.556567600752666,2.54188302597418,-3.575419006049924,8.702105502393769,-6.10690769310928,-7.372038887433307,11.281478222656247,8.867775521627287,-6.039130978467988,-1.1514803258384143,1.7311282274199695,12.843434403582316,-3.2869664634146343,-8.373911787823932,-8.672946836890244,0.4826987661966463,3.614055822649576,-8.691363514957265,0.6763226356976285,-1.629031725486053,1.832971715784216,0.6872952768385466,27.94881241201665,33.36409380896756,37.0062299697487,1577399451.0,-27.68901916345629,-51.12804343277291,7.465745
44626,1577399451.66,0.8784968237900145,-2.5003640654773243,5.562197617842511,-5.220118756252382,-3.833992785346799,4.962362509229706,2.502641476812595,-3.00980346262862,9.648632690429688,3.2830587247522867,0.0338670684070121,-0.3275057164634145,-3.884106147580032,-1.4998273151676829,-0.3572789634146341,-17.864878584698932,-17.584079649390244,-7.604459436928353,3.614055822649576,-8.691363514957265,0.6763226356976285,-13.133962691955478,-2.5661604020979016,-4.032537774725275,27.565429658250217,33.12447958786354,37.19792134663192,1577399451.0,-27.68901916345629,-51.12804343277291,7.465745
44627,1577399451.67,-0.3209982079482661,-2.3255873442859185,10.634313834883526,1.703912444919493,-0.0559425656202357,14.278201168897676,0.3981382175352512,-0.3881526447575265,11.365275280761718,-7.886374868997713,1.2698289824695124,-1.6092439977134143,-2.9685788038300305,-9.403880049542684,-0.2962438071646341,-5.444224287823933,-11.724704649390244,-4.888394983803353,3.525908119658123,-8.58911217948718,0.1502939190439143,-3.067148096294731,-3.48264625999001,0.8347900596999165,27.68523676880223,33.22032527630515,37.53338125617755,1577399451.0,-27.68901916345629,-51.12804343277291,7.465745
44628,1577399451.68,-2.1118610497451407,-1.116515505907012,11.310675803877666,-1.5821293336449602,-2.034750237739377,9.872870114210176,-0.649325008783108,-2.599197877911823,9.598354455566406,-16.919577993997713,1.376640505907012,0.4354337366615854,-2.4192623975800305,0.7889910442073171,-2.4477330649771343,-5.398447920636432,3.579860780297256,4.236360875571647,1.6748063568376068,-8.486860844017095,-0.3757347976097998,-3.2725932921245406,-2.1995660589410586,0.6872952768385466,27.61335250247102,33.29220954263636,37.269805612963125,1577399451.0,-27.68901916345629,-51.12804343277291,7.465745
44629,1577399451.69,0.3014942236923583,1.5290773285656432,13.144634275557356,0.9545273252905866,-1.1069970944288294,9.245589279249238,-1.9194489894959976,-1.5206100300114325,15.528791967773437,-17.590964712747713,-7.046211056592988,-3.9285799352134143,1.3038821336699695,-4.002268721417683,-1.6695348227896345,-11.913950850323932,-5.224460508765244,-16.607144983803355,4.671828258547009,-7.464347489316239,0.6763226356976285,-2.0399221171456747,-4.032537774725275,1.867253539729502,27.61335250247102,33.17240243208434,37.0062299697487,1577399451.0,-27.68901916345629,-51.12804343277291,7.465745
44630,1577399451.7,0.730056320860327,-1.645634072801543,9.883731614424542,0.8060868223608991,-2.739842626655393,9.882446920850803,6.812204465093844,17.486956949969034,12.923900561523435,8.532082162252287,4.153740115282012,0.4659513147865854,0.3578372117949695,-0.7979230182926829,-1.9747106040396345,-1.9957379596989329,-9.893649961890244,-1.6230141244283538,4.495532852564104,-8.486860844017095,-0.0751469595219649,-2.0399221171456747,-4.032537774725275,-3.737548209002536,27.373738281367,33.36409380896756,37.19792134663192,1577399451.0,-27.68901916345629,-51.12804343277291,7.465745
44631,1577399451.71,1.5955602210068114,-2.4620568389148243,12.529324448897198,2.577796050876524,-1.51520847748547,10.647394351270725,-3.293720742425686,-6.65497549021651,14.775815545654297,-9.122336783060211,-3.811347775342988,-1.9296785680259143,-6.294994819455031,5.473439286394817,-1.5016881431021345,-14.20276920969893,-30.737155821265247,0.4369223990091464,3.878498931623934,-7.566598824786325,-0.1502939190439236,-5.224322652507748,-3.940889188936064,-0.123926028898985,27.733159613023037,33.148441009973936,37.269805612963125,1577399451.0,-27.68901916345629,-51.12804343277291,7.465745
44632,1577399451.72,0.6989316992782958,0.0757969208507994,6.831124497725323,0.9162200987280866,0.535425244438357,9.44670221870236,-0.2243542141053727,4.352366642351848,10.424354028320312,4.473244271627286,8.090507693407012,0.5575040491615855,-5.013256538205031,-2.995188643292683,0.8023890053353658,-17.803843428448932,-44.43954839939025,4.236360875571647,3.790351228632481,-8.077855502136753,0.2254408785658761,3.3016529744294165,-4.032537774725275,1.2772744082840235,27.70919819091263,33.22032527630515,37.58130410039836,1577399451.0,-27.68901916345629,-51.12804343277291,7.465745
44633,1577399451.73,-2.346492812440453,0.2386026337414244,10.31947631657298,0.6001854795874616,-2.4238080075147668,12.319744210889866,0.9871118259336888,-0.450401887921589,12.41154140625,-3.2171854158727133,5.893242068407012,-1.3956209508384143,4.508227836794969,-3.849680830792683,-3.0123082602896343,-18.29212467844893,-51.45859136814025,3.656526891196646,2.7325787927350405,-8.486860844017095,0.526028716653711,3.3016529744294165,-4.032537774725275,1.2772744082840235,27.75712103513344,33.17240243208434,37.24584419085272,1577399451.0,-27.68901916345629,-51.12804343277291,7.465745
44634,1577399451.74,-3.5723240624404533,-0.8555475249499807,7.676277683760479,-1.5354424012719123,1.3326943972703884,16.629307199171116,3.563272812261814,4.280540592547161,11.314997045898435,0.3228536466272865,10.074150271532012,0.5575040491615855,-5.287914741330031,-8.335764815167684,-0.3572789634146341,-14.263804365948932,-48.55942144626525,4.205843297446647,2.7325787927350405,-9.71387686965812,0.2254408785658761,3.3016529744294165,-4.032537774725275,-34.71145260989011,27.61335250247102,33.41201665318837,37.43753556773595,1577399451.0,-27.68901916345629,-51.12804343277291,7.465745
44635,1577399451.75,-0.4730300133681878,-2.168767135545684,10.443974802901105,0.6157477903784776,-2.1377009091260954,11.547614175489471,3.6973481052305632,-1.2799927631657295,3.2597055603027343,-5.841697134622714,-6.878364376905488,-1.5482088414634143,-2.2819332960175305,4.329030106707317,-2.8902379477896343,-8.251841475323932,-13.296359922827744,4.327913609946647,2.9970219017094024,-8.998117521367522,0.3005878380878348,4.123433757748661,-4.032537774725275,-34.12147347844463,27.68523676880223,33.31617096474676,37.38961272351514,1577399451.0,-27.68901916345629,-51.12804343277291,7.465745
44636,1577399451.76,0.0333436377548583,-2.4452974272937307,12.03611890690501,0.2506320372046491,-0.7430784420850794,2.8746186615734555,-0.7486843776795915,-3.428788753155964,5.774814404296874,2.7337423185022867,-4.971015744092988,-0.2054354039634145,-3.670483100705032,-7.969553877667683,2.5418909584603657,9.143178055926068,26.20864495998476,15.253206578696648,2.379987980769229,-8.077855502136753,1.4277922309172282,-11.490401125316987,-2.5661604020979016,-32.3515360841082,27.61335250247102,33.31617096474676,37.10207565819032,1577399451.0,-27.68901916345629,-51.12804343277291,7.465745
44637,1577399451.77,0.2105145606064208,1.6583642182140803,9.71374329655345,-2.234549286037537,3.3390353884813258,14.359604025342987,-3.5690539333436546,-4.546880928448933,12.310984936523436,8.074318490377287,-6.191718869092988,-0.9073397008384144,0.2052493211699695,-12.242014815167684,-1.4253941977896345,6.488148759051067,21.11220941310976,1.3371909536966462,4.495532852564104,-8.895866185897434,-0.0751469595219649,-11.490401125316987,-2.5661604020979016,-41.79120218723584,27.565429658250217,33.31617096474676,37.341689879294336,1577399451.0,-27.68901916345629,-51.12804343277291,7.465745
44638,1577399451.78,0.8964533362411864,0.5582285553722843,8.211381754805402,-1.715007525783631,-0.8891247433546107,9.559229696729703,1.6407288791563448,1.7331100261409098,13.819331982421874,5.999123177877286,-8.129585080030488,-1.2430330602134143,2.616137993044969,1.1552019817073171,-0.6624547446646342,2.093617509051067,8.630519959984756,-10.381559046303352,3.43776041666667,-7.66885016025641,0.526028716653711,-12.517627104466046,-3.849240603146853,-32.20404130124683,27.66127534669183,33.17240243208434,37.24584419085272,1577399451.0,-27.68901916345629,-51.12804343277291,7.465745
44639,1577399451.79,0.184178342344702,-4.159545815965606,11.84458277409251,2.816019116062071,-2.500422460639767,7.312271438673065,-0.6996032436463893,-6.250355409650104,9.6151138671875,-9.778464712747711,-1.003730587842988,0.2218106897865854,-1.0764889600800305,-0.8284405964176829,-0.6166783774771344,-2.834971358136433,3.015285584984756,-8.001187952553352,3.614055822649576,-8.282358173076922,-0.2254408785658824,-6.354271229571708,1.832971715784216,-32.3515360841082,27.517506814029414,33.31617096474676,37.05415281396951,1577399451.0,-27.68901916345629,-51.12804343277291,7.465745
44640,1577399451.8,-1.0392587059951406,-1.0494778594226368,6.634799961592511,-3.1251923036156635,1.0406017947313255,16.610153585889865,-2.3863183132264663,1.3069421306330975,9.885658654785155,2.8863302091272867,19.25994128715701,3.1209806116615857,-2.6634030225800305,-4.978831221417683,-0.1131383384146341,-3.460581709698933,6.494289491234756,-2.233365686928354,1.8511017628205124,-9.100368856837608,0.0751469595219524,-16.421085825232456,-4.032537774725275,-32.3515360841082,27.70919819091263,33.12447958786354,37.341689879294336,1577399451.0,-27.68901916345629,-51.12804343277291,7.465745
44641,1577399451.81,0.6845664893173583,-2.378259780809356,8.260462888838605,0.6265216978491803,-2.7135064083936737,5.927225778272675,3.1945657565977514,3.684384379168255,4.905719201660156,-17.987693228372713,-8.236396603467988,-2.8909822789634143,0.7545657274199695,-0.5537823932926829,-1.5474645102896345,5.175892899676067,6.311184022484756,6.006380406821647,2.203692574786324,-9.100368856837608,0.3757347976097936,-16.421085825232456,-4.032537774725275,-32.3515360841082,27.61335250247102,33.17240243208434,37.24584419085272,1577399451.0,-27.68901916345629,-51.12804343277291,7.465745
44642,1577399451.82,-0.42035757684475,1.8139873261242367,10.629525431563213,-0.2401793031273811,0.9448337283250756,9.379664572217989,0.48193527564072,-1.9898735554020572,11.18571015625,4.335915170064786,-7.488715939405488,0.0081876429115856,-1.4732174757050305,-7.023508955792683,-1.1507359946646345,4.351918290301067,12.079006288109756,9.576937047446648,3.2614650106837644,-8.282358173076922,0.3757347976097936,-16.010195433572836,-4.032537774725275,-33.53149434699915,27.61335250247102,33.50786234162997,37.38961272351514,1577399451.0,-27.68901916345629,-51.12804343277291,7.465745
44643,1577399451.83,0.8856794287704833,-1.837170205614043,9.780780943037824,0.8958693846167584,0.4504310855028101,8.600351931837128,-3.476877169427639,-4.412805635480183,6.734889270019531,1.2078634122522869,-10.342109494092988,-1.4261385289634143,0.8156008836699693,-1.1488751667301829,-1.5932408774771345,2.169911454363567,16.68716058498476,4.007479039634148,2.908874198717946,-8.282358173076922,0.3757347976097936,-13.031240094040571,-3.5742948457792205,1.3510217997147087,27.61335250247102,33.22032527630515,37.24584419085272,1577399451.0,-27.68901916345629,-51.12804343277291,7.465745
44644,1577399451.84,0.3613492651962646,-2.3471351592273244,9.950769260908915,1.314256124729063,-0.0553440152051974,8.164607229688691,-2.8902977626893582,-4.425973744611042,7.550114935302734,-4.346335806497714,3.0856248809070124,1.7476895960365857,1.2352175828887195,0.1099749309260671,-1.1278478110708845,4.916493485613568,22.95089349514101,2.535005895102897,2.7325787927350405,-8.077855502136753,0.2254408785658761,-7.84374889933784,-0.504067221840659,0.2079372325390958,27.565429658250217,33.24428669841555,37.269805612963125,1577399451.0,-27.68901916345629,-51.12804343277291,7.465745
44645,1577399451.85,1.706890598204077,-1.1859473540515433,8.872181413008526,1.7326428648413676,-0.561119115913205,7.728862527540254,-2.303718355951077,-4.439141853741902,8.365340600585936,-2.515281118997714,-2.682197384717988,-0.8463045445884144,1.6548342821074695,1.3688250285823171,-0.6624547446646342,7.663075516863568,29.21462640529726,1.0625327505716464,3.085169604700852,-8.486860844017095,0.2254408785658761,-2.656257704635108,2.5661604020979025,-0.9351473346365172,27.68523676880223,33.26824812052595,37.29376703507353,1577399451.0,-27.68901916345629,-51.12804343277291,7.465745
44646,1577399451.86,1.4076153906845457,1.0262949799328307,9.991470689131573,-2.70620701308832,-1.976092297065548,7.710906015089081,-0.8468466457459977,1.9629533855159096,13.697227697753906,10.454689584127289,7.052910037157012,1.1983731897865857,6.064624321169969,-7.633860518292683,2.1146448647103657,-2.484019209698933,10.461574647484756,-25.884488733803355,3.085169604700852,-8.486860844017095,0.2254408785658761,0.4254202328120589,3.2993490884115886,1.867253539729502,27.75712103513344,33.17240243208434,37.0062299697487,1577399451.0,-27.68901916345629,-51.12804343277291,7.465745
44647,1577399451.87,0.9958127051376708,-0.7932982817859182,9.524601365401104,0.3583711119116803,0.4348687747117945,12.274254379346896,-0.1860469875428727,16.98417460133622,16.74504641113281,-7.581199087747714,6.778251834032012,-1.1514803258384143,0.5714602586699695,2.772633622332317,-0.6929723227896342,7.708851884051067,-3.423923399390244,-10.442594202553352,3.085169604700852,-8.486860844017095,0.526028716653711,0.4254202328120589,3.2993490884115886,1.867253539729502,27.61335250247102,33.17240243208434,37.341689879294336,1577399451.0,-27.68901916345629,-51.12804343277291,7.465745
44648,1577399451.88,-0.3126185021377188,0.5127387238293155,9.679027372481183,-2.394960797268006,1.129187256157107,9.64542095649533,2.452363241949314,3.0499209392268485,13.63019005126953,2.871071420064786,9.021293826219512,-0.4953523961509145,-0.4966549757050305,5.793873856707317,0.0394495522103658,-0.6529645221989329,-17.523044493140244,3.259798375571646,2.9970219017094024,-8.79361485042735,-0.300587838087841,0.4254202328120589,2.1995660589410586,0.9822848425612848,27.661275346691824,33.36409380896756,37.24584419085272,1577399451.0,-27.68901916345629,-51.12804343277291,7.465745
44649,1577399451.89,-1.089536940858422,-6.343057730028106,10.381725559737042,-1.6515611817894915,-4.304453411567502,9.943499063184785,-2.12894163475967,-1.794746120099323,10.82897410888672,-22.16860143149772,7.174980349657012,0.1912931116615854,0.8766360399199694,-0.4927472370426828,0.6650599037728657,-7.824595381573932,-24.404758360327744,1.1235679068216464,3.2614650106837644,-9.509374198717948,-0.2254408785658824,-2.245367312975486,0.0,-20.99443780378276,27.75712103513344,33.31617096474676,37.341689879294336,1577399451.0,-27.68901916345629,-51.12804343277291,7.465745
44650,1577399451.9,-1.5348584496474842,-3.465227334520293,9.366584055830792,-4.600020526271913,-0.920249364936642,12.65493244331174,-3.3990656154725607,4.527143363543255,10.1131078125,-4.071677603372714,11.874687380907012,1.9918302210365848,1.8531985399199693,-4.978831221417683,3.4574183022103657,-7.763560225323933,-28.234714415015244,7.837435094321647,3.2614650106837644,-9.509374198717948,-0.2254408785658824,-13.5448530836151,-2.1995660589410586,-35.89141087278106,27.565429658250217,33.36409380896756,37.341689879294336,1577399451.0,-27.68901916345629,-51.12804343277291,7.465745
44651,1577399451.91,-0.5316879540420156,1.1603702729015806,11.30828160221751,-1.475587359768006,-1.6911822995069543,10.009339608839085,5.354135654058688,-2.349003804425495,6.849810949707031,-5.383933462747714,-0.912177853467988,-2.4332186070884143,3.318042289919969,9.578053544207316,-1.6390172446646345,-3.491099287823933,-17.584079649390244,8.630892125571647,3.966646634615387,-7.873352831196582,0.0751469595219524,-12.106736712806422,-16.31344827047952,-2.70508472897295,27.565429658250217,33.31617096474676,37.43753556773595,1577399451.0,-27.68901916345629,-51.12804343277291,7.465745
44652,1577399451.92,-0.2024852257705318,-0.1624261443347468,7.616422642256573,-0.6950776185570686,-1.0423536496046106,7.512187277296112,3.20174836157822,-0.0362050007145577,5.219359619140625,6.807838998189788,-3.460395626905488,0.6032804163490856,-2.2666745069550305,3.566090653582317,-1.7305699790396345,-1.1412457721989329,-4.522556211890244,9.546419469321648,2.9088741987179496,-8.691363514957265,0.225440878565873,-9.8468395586785,-16.496745442057943,-3.147569077557058,27.733159613023037,33.17240243208434,37.341689879294336,1577399451.0,-27.68901916345629,-51.12804343277291,7.465745
44653,1577399451.93,-1.041652907655297,1.0095355683117369,10.412850181319072,-2.958795288234804,1.5709174624559352,11.204046237257051,-2.3587849941346697,-1.3051318805973702,8.889670764160156,8.989845834127287,2.2006151152820124,-0.2054354039634145,-1.4732174757050305,-1.2404279011051829,0.0089319740853655,-0.0883893268864328,7.257228944359756,-5.5597817025533525,4.142942040598292,-8.077855502136753,0.526028716653711,-1.4235865296562409,-0.3665943431568428,0.9822848425612852,27.565429658250217,33.340132386857164,37.29376703507353,1577399451.0,-27.68901916345629,-51.12804343277291,7.465745
44654,1577399451.94,-0.2635373681045156,-4.166728420946074,9.419256492354233,0.7103187559546491,-3.963279674995236,8.788296762159392,1.5042593845274386,2.1042112834651285,15.263035583496093,-7.214988150247714,0.0949022246570121,1.7782071741615857,3.134936821169969,-7.054026533917683,2.2061975990853657,-4.437144209698933,-2.844089415015244,-10.686734827553352,4.142942040598292,-8.077855502136753,0.526028716653711,-3.2725932921245406,1.0997830294705304,-2.5575899461115803,27.61335250247102,33.41201665318837,37.24584419085272,1577399451.0,-27.68901916345629,-51.12804343277291,7.465745
44655,1577399451.95,0.232062375547827,-1.8132281890124808,10.661847153975325,3.317604363864805,-3.805262365424924,11.010115902784396,-0.1429513576600602,-5.260353023175495,13.623007446289062,2.8252950528772867,-1.522529415967988,0.4354337366615854,2.371997368044969,-5.802805830792683,1.1991175209603655,-0.1952008503239328,-8.093112852515244,-3.057340296303354,2.203692574786324,-9.509374198717948,0.6763226356976285,-3.067148096294731,2.016268887362638,-35.44892652419696,27.75712103513344,33.41201665318837,37.341689879294336,1577399451.0,-27.68901916345629,-51.12804343277291,7.465745
44656,1577399451.96,0.1889667456650145,-1.2086922698230276,11.797895841719464,-1.2313787904320683,0.5378194460985133,17.06026349799924,1.374972494879001,1.570304313250285,13.951013073730469,3.0846944669397867,-3.841865353467988,0.4964688929115854,2.005786430544969,-9.434397627667684,0.7413538490853658,-1.5684918659489329,-17.736667540015244,1.1846030630716462,3.614055822649576,-10.12288221153846,0.3757347976097936,-2.2453673129754868,-3.849240603146853,-35.44892652419696,27.61335250247102,33.22032527630515,37.24584419085272,1577399451.0,-27.68901916345629,-51.12804343277291,7.465745
44657,1577399451.97,0.0357378394150145,1.0502369965343932,10.420032786299542,0.7426404783667588,-1.9282082638624232,10.819776870801972,-1.6237650844667015,3.556294590349895,10.244788903808594,11.065041146627289,-0.2713087128429878,-0.0528475133384145,3.409595024294969,1.3993426067073171,0.5429895912728658,-0.6224469440739329,-24.877780821265244,9.241243688071648,3.2614650106837644,-9.100368856837608,0.6763226356976285,-5.737935642082276,-3.48264625999001,0.2448109282544386,27.565429658250217,33.34013238685716,37.341689879294336,1577399451.0,-27.68901916345629,-51.12804343277291,7.465745
44658,1577399451.98,-3.1413677636123283,-1.5043761748523243,11.564461179854227,-0.0773735902367561,0.0015182742235133,12.164121102979708,0.7237496433165013,3.2893411052424733,9.332598071289064,-5.261863150247714,6.412040896532012,1.6561368616615857,4.050464164919969,-5.161936690167683,-2.5850621665396343,7.617299149676067,-12.701267149390244,6.372591344321647,3.2614650106837644,-9.100368856837608,0.6763226356976285,-3.2725932921245406,-2.9327547452547447,3.637190934065935,27.94881241201665,33.65163087429239,37.24584419085272,1577399451.0,-27.68901916345629,-51.12804343277291,7.465745
44659,1577399451.99,1.4722588355087645,-1.7844977690906056,6.890979539229229,-1.1427933290062873,-0.8651827267530482,10.054829440382052,2.806705087652438,-4.238028914288776,0.928950244140625,2.3064962247522867,-5.917060665967988,0.2828458460365854,6.095141899294969,0.5143328410823171,1.8705042397103653,5.847279618426067,3.228908631859756,8.783480016196647,3.614055822649576,-8.282358173076922,-0.5260287166537173,1.6580914077909268,-3.299349088411588,3.637190934065935,27.565429658250217,33.31617096474676,37.38961272351514,1577399451.0,-27.68901916345629,-51.12804343277291,7.465745
44660,1577399452.0,-0.7723052208877187,-2.101729489061309,6.138003117110089,-0.4269270326195686,-2.1700226315382047,5.410078219678924,-4.027543551263577,-0.8969204975407294,7.773972790527344,7.448708138814787,-0.8053663300304876,1.0305265100990852,2.310962211794969,-3.0104474323551838,0.6498011147103656,5.664174149676068,22.45498285060976,-1.5314613900533538,4.319237446581198,-8.077855502136753,-0.3757347976097999,-3.06714809629473,-3.48264625999001,-22.616880415257818,27.661275346691824,33.36409380896757,37.43753556773594,1577399452.0,-27.68895700534492,-51.12806831981262,7.3626556
44661,1577399452.01,0.4547231299423583,4.047777475050018,10.171035813643291,-1.444462738185975,5.465086462700076,11.96540236518674,0.3622251926329075,-12.5219666584294,10.493785876464845,12.957130990377289,-15.987861447217988,0.0692227991615854,1.4259524461699695,2.345387528582317,-0.9065953696646342,7.129017899676067,26.23916253810976,-11.297086390053352,3.085169604700852,-6.850839476495726,0.526028716653711,-2.861702900464919,-3.299349088411588,-41.79120218723584,27.75712103513344,33.17240243208434,37.341689879294336,1577399452.0,-27.68895700534492,-51.12806831981262,7.3626556
44662,1577399452.02,0.2176971655868895,1.3231759857922056,12.39285495426829,1.3304169859351176,-2.397471789253048,8.888853231885955,6.137039596929782,4.733044706316692,8.719682446289061,3.1609884122522867,-7.290351681592988,-1.6092439977134143,2.066821586794969,7.594410966082317,-0.4183141196646341,3.985707352801067,16.809230897484756,-13.036588343178352,3.085169604700852,-6.850839476495726,0.526028716653711,-9.641394362848688,-3.1160519168331664,-41.64370740437448,27.565429658250217,33.22032527630515,37.341689879294336,1577399452.0,-27.68895700534492,-51.12806831981262,7.3626556
44663,1577399452.03,0.6785809851669682,-4.2780587981433404,9.26602758610423,-0.5849443421898811,-7.501909728706174,2.2425494232922056,0.2760339328672825,11.472722379656537,12.631807958984377,-5.048240103372712,5.313408084032012,1.3204435022865857,0.4493899461699695,-3.575022627667683,-0.7234899009146342,18.328969071551068,20.86806878810976,7.623812047446647,4.231089743589745,-8.180106837606838,-0.4508817571317586,-9.435949167018876,-1.099783029470529,-30.876588255494507,27.445622547698207,33.22032527630515,37.38961272351514,1577399452.0,-27.68895700534492,-51.12806831981262,7.3626556
44664,1577399452.04,0.9838416968368896,3.1236156342297057,12.019359495283917,1.8870688719214457,1.8821636782762483,12.091097952344944,-2.807697805413968,-5.07240819285323,8.595183959960938,9.050880990377289,-2.804267697217988,0.2523282679115854,-0.8628659132050305,2.452199052019816,1.7331751381478655,10.394398759051068,28.63479242092226,-0.1123940072408536,3.966646634615387,-8.691363514957265,0.3757347976097936,-10.976788135742463,-1.0081344436813184,-31.54031477837067,27.61335250247102,33.41201665318837,37.24584419085273,1577399452.0,-27.68895700534492,-51.12806831981262,7.3626556
44665,1577399452.05,1.5369022803329833,1.538654135206268,10.230890855147198,0.2554204405249616,0.2816398684617945,3.118827230909393,-0.8061452175233415,-6.218033687237995,11.44667813720703,11.889015756002289,-9.487617306592988,1.2594083460365857,0.0221438524199695,-0.1265362995426829,2.0841272865853657,5.542103837176067,27.33779535060976,3.717562047446646,2.908874198717946,-8.691363514957265,0.9769104737854758,-10.668620341997745,-3.299349088411588,-31.761556952662723,27.61335250247102,33.22032527630515,37.341689879294336,1577399452.0,-27.68895700534492,-51.12806831981262,7.3626556
44666,1577399452.06,1.448316818907202,-0.2474203032702933,9.002665403487043,-0.3096111512719124,0.2409384402391383,8.489021554639862,0.4843294773008762,-1.26682465403487,10.27830772705078,1.3299337247522869,-7.473457150342988,-1.4261385289634143,2.616137993044969,-8.946116377667684,4.067769864710366,-4.315073897198933,6.402736756859756,-14.745572718178352,2.908874198717946,-8.691363514957265,0.9769104737854758,-12.312181908636234,-2.5661604020979016,-31.761556952662723,27.517506814029414,33.41201665318837,37.10207565819032,1577399452.0,-27.68895700534492,-51.12806831981262,7.3626556
44667,1577399452.07,-0.7244211876845938,-1.7294311309070125,6.043432151533917,0.8803070738257428,-1.7055475094678918,13.52402764594846,-0.408707741937404,19.809332560320595,14.137760803222656,0.0481954435022862,14.132988162157012,1.2441495569740857,-0.4966549757050305,6.648366044207317,-1.9747106040396345,13.720814774676068,-7.055515196265244,0.0859702505716463,2.7325787927350405,-8.282358173076924,0.5260287166537141,-16.010195433572836,-4.032537774725275,3.0472118026204567,27.661275346691824,33.22032527630515,37.43753556773595,1577399452.0,-27.68895700534492,-51.12806831981262,7.3626556
44668,1577399452.08,0.6462592627548583,-0.4102260161609183,6.606069541670635,-1.0925150941430062,-1.3583882687452358,4.998275534132049,-0.466168581781155,-8.652936775616901,5.067327813720703,3.832375131002287,1.559745974657012,0.5575040491615855,-1.580028999142531,5.351368973894816,2.5876673256478657,-3.933604170636433,5.655056092797256,-2.0807777963033525,3.966646634615387,-9.100368856837608,0.6763226356976285,-12.004014114891518,-3.940889188936064,1.351021799714709,27.61335250247102,33.36409380896757,37.341689879294336,1577399452.0,-27.68895700534492,-51.12806831981262,7.3626556
44669,1577399452.09,-1.3193803002334217,3.482745883253143,12.30426949284251,-4.674240777736757,3.267209338676638,12.51367454536252,4.341388351812595,18.56434769703935,13.776236352539062,-3.4613260408727133,0.4611131621570121,0.3743985804115854,2.310962211794969,-5.192454268292683,-1.5169469321646345,6.610219071551067,-5.346530821265244,5.243440953696647,2.908874198717946,-7.464347489316239,0.0751469595219524,-3.067148096294731,-3.849240603146853,-2.70508472897295,27.565429658250217,33.31617096474676,37.38961272351514,1577399452.0,-27.68895700534492,-51.12806831981262,7.3626556
44670,1577399452.1,-0.5340821557021719,-0.1564406401843558,11.425597483565166,1.3471763975562114,2.6447169070360133,10.56000599067502,-4.928960476312405,-8.214797871808306,10.663774194335938,-3.5223611971227133,-12.691963009717988,-1.3345857945884143,-4.189281928830031,8.815114091082316,-1.3643590415396345,-1.8126324909489329,4.846340272484756,-1.4704262338033538,2.908874198717946,-7.464347489316239,0.0751469595219524,-3.067148096294731,-3.849240603146853,-2.70508472897295,27.565429658250217,33.36409380896756,37.43753556773595,1577399452.0,-27.68895700534492,-51.12806831981262,7.3626556
44671,1577399452.11,-0.7830791283584219,-1.7222485259265432,9.66825346501048,0.1883827940405865,-3.810050768745236,12.283831185987522,-0.8660002590272478,-2.945160017804401,10.36210478515625,-8.023703970560213,9.280693240282012,1.3814786585365857,-0.5882077100800305,1.1552019817073171,0.6498011147103658,-9.533579756573932,-4.125827696265244,-5.132535608803353,2.644431089743588,-7.362096153846154,0.3005878380878317,-3.2725932921245406,-2.5661604020979016,-2.852579511834319,27.68523676880223,33.17240243208434,37.341689879294336,1577399452.0,-27.68895700534492,-51.12806831981262,7.3626556
44672,1577399452.12,-0.8429341698623282,-3.4221317046374806,11.076044041182357,-1.0577991700707416,-3.655624761665158,8.906809744337128,-0.4099048427674825,-3.095994722394245,12.157756030273436,-13.623679556497711,7.480156130907012,1.8392423304115848,1.5937991258574693,-1.4235333698551829,0.6498011147103658,-7.321055342511432,-13.723606016577744,0.0554526724466466,3.614055822649576,-8.282358173076922,1.2774983118733108,0.0145298411524369,1.832971715784216,0.6872952768385466,27.517506814029414,33.38805523107796,37.36565130140474,1577399452.0,-27.68895700534492,-51.12806831981262,7.3626556
44673,1577399452.13,-0.9650384545302968,0.8156052338390806,10.470311021162823,-0.8387297181664436,3.77717429228992,17.191944589307834,-1.050353786859279,15.533288395281534,14.156914416503906,3.5577169278772867,0.3390428496570121,1.1373380335365857,-4.280834663205031,-6.016428877667683,2.6639612709603657,4.962269852801067,-14.837497618140244,11.804720250571648,4.319237446581198,-8.282358173076922,0.3757347976097936,0.0145298411524369,1.832971715784216,-1.6726212489433638,27.517506814029414,33.17240243208434,37.341689879294336,1577399452.0,-27.68895700534492,-51.12806831981262,7.3626556
44674,1577399452.14,-0.7998385399795157,1.8762365692882996,10.623539927412825,0.4469565733374616,-1.2243129757764857,11.553599679639865,-1.82846932641006,-19.03658937571456,10.87925234375,2.7337423185022867,-4.360664181592988,1.2899259241615857,1.8837161180449693,7.624928544207317,-3.3174840415396343,-11.852915694073932,-16.332858946265244,9.821077672446648,4.671828258547009,-7.464347489316239,0.9769104737854758,-1.2181413338264289,1.832971715784216,-4.032537774725275,27.75712103513344,33.50786234162997,37.05415281396951,1577399452.0,-27.68895700534492,-51.12806831981262,7.3626556
44675,1577399452.15,-1.4893686181045165,-2.459662637254668,7.038222941328839,-1.2756715211449603,-2.01320242279797,5.839837417676971,-0.658901815423732,7.280475272722942,17.84997047729492,-12.158835806497711,-3.078925900342988,0.6795743616615856,0.1289553758574695,-5.085642744855183,1.9620569740853655,-17.23926823313643,-59.05746832126525,-1.5467201791158525,4.142942040598292,-7.464347489316239,0.2254408785658792,-10.155007352423215,-2.6578089878871127,-22.100648675243026,27.637313924581424,33.29220954263636,37.29376703507353,1577399452.0,-27.68895700534492,-51.12806831981262,7.3626556
44676,1577399452.16,0.7085085059189208,-0.3719187895984183,7.405732896162823,-0.7070486268578499,1.141158264457888,11.091518759229707,1.0685146823790013,-9.531608784894244,10.110713610839843,25.133644662252287,-9.884345822217988,0.9847501429115856,-2.4497799757050305,-0.3096417682926829,-0.0826207602896341,-30.77381413157393,-77.42905035251525,6.738802281821647,3.614055822649576,-7.464347489316239,0.9769104737854758,-14.777524258593967,-4.032537774725275,-1.3776316832206257,27.852966723575044,33.31617096474676,37.24584419085272,1577399452.0,-27.68895700534492,-51.12806831981262,7.3626556
44677,1577399452.17,-1.8437104638076405,-2.1436280181140432,12.48383461735423,0.1069799375952741,-3.982433288276486,12.018074801710178,6.125068588629,6.253362760515911,11.269507214355468,-6.879294790872714,-3.414619259717988,0.6185392054115855,1.1207766649199695,-5.314524580792683,1.0160120522103655,-25.06702702219893,-71.38656988376525,-0.0971352181783536,2.7325787927350405,-9.71387686965812,1.127204392829393,-3.2725932921245406,-15.39696241258741,-2.852579511834319,27.852966723575044,33.55578518585078,37.24584419085272,1577399452.0,-27.68895700534492,-51.12806831981262,7.3626556
44678,1577399452.18,0.5073955664657958,-3.529870779344512,10.726490598799542,-0.9560455995140998,1.4859233035203885,11.790625643995334,3.2280845798399387,15.08317848317216,11.410765112304686,-6.696189322122714,1.071464724657012,3.4566739710365857,-2.3887448194550305,-2.842600752667683,1.6873987709603655,-3.521616865948933,-59.82040777439025,20.197054234946645,3.43776041666667,-7.66885016025641,-0.3757347976097998,-2.861702900464919,-4.032537774725275,-0.4926629860524088,27.70919819091263,33.31617096474676,37.38961272351514,1577399452.0,-27.68895700534492,-51.12806831981262,7.3626556
44679,1577399452.19,-2.505707222840844,1.302825271680878,14.521300230147196,-3.936826666408632,-2.7889237606885957,11.867240097120334,0.4855265781309545,-12.380708760480182,3.807977740478516,-0.5621561189977133,-0.912177853467988,1.7934659632240857,4.599780571169968,-4.276926924542683,0.8786829506478657,-8.877451826886432,-6.994480040015244,9.287020055259145,2.9970219017094024,-7.975604166666666,0.1502939190439143,-3.2725932921245406,0.5498915147352645,-17.602057797971256,27.733159613023037,33.31617096474676,37.245844190852736,1577399452.0,-27.68895700534492,-51.12806831981262,7.3626556
44680,1577399452.2,1.6542181616806395,-5.131591689989044,10.482282029463605,4.2130357847632425,1.215378515922732,9.604719528272676,5.524123971929781,9.935644913836224,8.901641772460938,-5.414451040872714,-4.757392697217988,2.2054532679115857,-4.952221381955031,-1.5303448932926829,2.3587854897103657,15.460316727801068,17.968898866234756,11.713167516196648,3.790351228632481,-8.077855502136753,0.8266165547415459,-0.8072509421668069,-3.665943431568431,-36.77637956994928,27.565429658250217,33.36409380896756,37.43753556773595,1577399452.0,-27.68895700534492,-51.12806831981262,7.3626556
44681,1577399452.21,1.1059459815048582,1.2800803559093932,10.915632529951884,2.589767059177305,-0.3193047482374231,13.13377277534299,-10.725322695550686,-18.450009968976275,12.421118212890624,9.874855599752289,-15.957343869092988,0.7711270960365855,3.104419243044969,-6.840403487042683,1.2906702553353655,1.2086077434260671,38.20205316310975,6.250521031821647,2.908874198717946,-9.509374198717948,-0.5260287166537173,-0.8072509421668069,-3.665943431568431,-36.77637956994928,27.517506814029414,33.22032527630515,37.43753556773595,1577399452.0,-27.68895700534492,-51.12806831981262,7.3626556
44682,1577399452.22,0.9790532935165775,-1.4612805449695123,8.145541209151105,-2.459604242092226,-2.7374484249952364,7.07883677680783,2.198577865972751,-3.52695102122237,7.606378674316406,4.152809701314787,-6.496894650342988,1.7934659632240857,3.379077446169969,-0.0655011432926829,1.3517054115853655,-1.1412457721989329,17.694240663109756,-16.424039515053355,3.790351228632481,-8.077855502136753,-0.3757347976097998,-2.450812508805297,-3.299349088411588,-36.77637956994928,27.733159613023037,33.22032527630515,37.341689879294336,1577399452.0,-27.68895700534492,-51.12806831981262,7.3626556
44683,1577399452.23,0.7037201025986083,-0.1420754302234183,8.100051377608136,2.8052452085913675,-1.506828771674924,6.541338504102753,3.410043906011814,4.628896934099895,6.4834980957031245,4.381691537252286,-1.430976681592988,1.0152677210365857,1.3038821336699693,1.3993426067073171,1.0007532631478655,19.656483719988568,40.12466058498475,2.145906774009146,3.790351228632481,-8.077855502136753,-0.3757347976097998,1.041755820301494,-3.48264625999001,-32.05654651838546,27.94881241201665,33.38805523107796,37.29376703507353,1577399452.0,-27.68895700534492,-51.12806831981262,7.3626556
44684,1577399452.24,-0.4311314843154532,2.364653707960174,11.382501853682356,-3.2736328065453506,2.6542937136766382,10.124261288526585,-4.416601321038967,-9.806941975812212,11.906364855957031,4.931007943502286,7.724296755907012,1.6866544397865857,-1.9004635694550305,-9.464915205792684,3.6710413490853657,10.089222977801068,39.48379144435975,-13.189176233803352,3.43776041666667,-6.850839476495726,1.127204392829393,4.123433757748661,-3.665943431568431,-32.3515360841082,27.565429658250217,33.41201665318837,37.341689879294336,1577399452.0,-27.68895700534492,-51.12806831981262,7.3626556
44685,1577399452.25,0.1817841406845458,-0.101374002000762,9.266027586104231,-2.8474649110375383,0.7413265872117945,11.067576742628146,0.4723584690000949,3.459329423113567,14.286201306152345,-5.139792837747714,-6.466377072217988,0.6185392054115855,0.4493899461699695,3.382985184832317,1.9925745522103653,15.826527665301068,26.26968011623476,-10.564664515053352,4.142942040598292,-9.304871527777776,1.4277922309172282,4.123433757748661,-3.665943431568431,-32.3515360841082,27.61335250247102,33.36409380896756,37.19792134663192,1577399452.0,-27.68895700534492,-51.12806831981262,7.3626556
44686,1577399452.26,-1.0177108910537345,-3.244960781785918,10.047734428145246,0.5882144712866804,-5.97201486786633,6.458738546827362,0.48193527564072,8.18787770192216,18.11213555908203,-8.435691275247713,8.273613162157012,1.7629483850990857,5.210132133669969,7.228200028582317,-0.9981481040396342,3.558461259051067,3.167873475609756,5.121370641196647,1.4985109508547012,-9.509374198717948,0.9769104737854758,-2.450812508805297,-3.665943431568431,-40.61124392434488,27.900889567795847,33.31617096474676,37.341689879294336,1577399452.0,-27.68895700534492,-51.12806831981262,7.3626556
44687,1577399452.27,1.936733957579077,0.9089790985851744,9.0050596051472,0.0878263243140246,0.5988715884324982,12.305379000928928,-0.5547540432069357,-5.721236842755573,8.447940557861328,8.928810677877287,7.907402224657012,2.9073575647865857,-0.0236325147675307,-1.4387921589176829,1.8552454506478655,7.357899735613568,5.349880311547256,1.3677085318216462,1.4985109508547012,-9.509374198717948,0.9769104737854758,-6.251548631656805,-1.0081344436813184,-35.81766348135038,27.517506814029414,33.31617096474676,37.341689879294336,1577399452.0,-27.68895700534492,-51.12806831981262,7.3626556
44688,1577399452.28,-0.572389382264672,-0.6544345854968557,10.470311021162823,3.686311419528868,1.0118713748094508,10.004551205518773,2.74206164282822,-0.2732309650700265,6.110002636718749,6.823097787252286,-1.583564572217988,1.0763028772865857,-3.0296139600800305,5.519215653582317,0.5582483803353658,-4.345591475323933,0.940090272484756,7.898470250571647,3.2614650106837644,-9.509374198717948,0.3757347976097936,-9.8468395586785,-1.099783029470529,-32.3515360841082,27.75712103513344,33.17240243208434,37.341689879294336,1577399452.0,-27.68895700534492,-51.12806831981262,7.3626556
44689,1577399452.29,0.3972622900986083,0.4445039765148619,13.005770579268292,2.6879293272437117,-1.073478271186642,10.143414901807834,-4.830798208245998,-15.943280830792682,14.317325927734377,3.4661641935022867,-8.327949337842988,0.3133634241615854,1.0292239305449695,1.2772722942073171,0.8634241615853658,-8.495982100323932,6.280666444359756,-6.597379358803353,3.966646634615387,-8.282358173076922,-0.2254408785658824,-8.614168383699631,-2.1995660589410586,-32.3515360841082,27.75712103513344,33.55578518585078,37.341689879294336,1577399452.0,-27.68895700534492,-51.12806831981262,7.3626556
44690,1577399452.3,-1.398388955018578,-1.1284865142077938,8.938021958662823,-0.6974718202172254,-1.5319678891065638,8.28072601020627,-0.3907512294862321,1.7355042278010673,8.70771143798828,-6.513083853372714,5.191337771532012,1.7324308069740857,1.9294924852324693,0.3770037395198171,-0.0215856040396345,-4.131968428448932,-6.521457579077744,0.6810630240091466,2.468135683760682,-7.771101495726494,1.0520574333074284,-9.33322656910397,2.841106159465535,-30.95033564692519,27.733159613023037,33.12447958786354,37.461496989846346,1577399452.0,-27.68895700534492,-51.12806831981262,7.3626556
44691,1577399452.31,-0.2108649315810782,-1.2649560088366991,9.493476743819071,-2.299192730861756,-1.6409040646436732,9.959061373975803,1.0206306491758763,-2.5357515339176824,7.503428002929687,1.2383809903772869,-5.062568478467988,-0.5716463414634145,2.249927055544969,-11.387522627667684,4.189840177210366,-10.296519209698932,0.3907738662347561,-6.078580530678353,2.556283386752135,-6.237331463675212,1.2774983118733108,-14.161188671104536,-0.916485857892108,-3.8850429918639056,27.70919819091263,33.22032527630515,37.341689879294336,1577399452.0,-27.68895700534492,-51.12806831981262,7.3626556
44692,1577399452.32,-1.3481107201552966,2.8650418549328305,13.56122536442454,-2.995905413967226,3.08764421416492,14.96533704536252,-1.014440761956935,10.668270621844036,12.23915888671875,2.9473653653772867,-2.865302853467988,1.0457852991615857,3.073901664919969,-7.145579268292683,0.7108362709603658,5.114857743426067,0.177150819359756,0.6963218130716463,2.7325787927350405,-8.486860844017095,0.8266165547415459,-14.161188671104536,-0.916485857892108,-3.8850429918639056,27.70919819091263,33.17240243208434,37.24584419085272,1577399452.0,-27.68895700534492,-51.12806831981262,7.3626556
44693,1577399452.33,-0.8596935814834219,0.0542491059093932,10.795922446944072,-0.5011472840844123,-1.3535998654249233,9.030111129835175,-1.8571997463319352,2.065904056902629,12.16254443359375,-7.642234243997714,-6.985175900342988,1.3814786585365857,-1.1680416944550305,5.275075028582317,0.1310022865853658,9.784047196551068,-3.027194883765244,14.398714391196648,3.614055822649576,-7.055342147435899,1.2774983118733108,-14.98296945442378,-0.916485857892108,-3.5900534261411665,27.61335250247102,33.50786234162997,37.43753556773595,1577399452.0,-27.68895700534492,-51.12806831981262,7.3626556
44694,1577399452.34,-1.3469136193252187,-1.559442813035918,11.651849540449932,-2.355456469875429,-1.850396709907346,11.840903878858615,1.5353840061094706,-2.6961630451481517,11.524489691162108,-8.389914908060213,5.527031130907012,1.8545011194740852,3.684253227419969,-8.000071455792684,1.3822229897103655,0.5067034465510671,1.977687928734756,0.7268393911966462,3.5259081196581192,-7.362096153846154,1.0520574333074315,-14.880246856508872,-2.4745118163086914,-3.811295600433221,27.61335250247102,33.22032527630515,37.29376703507353,1577399452.0,-27.68895700534492,-51.12806831981262,7.3626556
44695,1577399452.35,1.0006011084579831,-4.298409512254668,6.8622491193073545,2.692717730564024,-2.0551009518507044,8.53451138618283,-1.6321447902772477,-7.233175191144245,8.80347950439453,-1.7218240877477131,-4.543769650342988,-0.2664705602134145,1.6700930711699695,7.472340653582317,-1.0286656821646345,-9.228403975323932,-1.0740698837652438,1.3982261099466462,2.379987980769229,-7.259844818376068,1.7283800690050692,0.4254202328120589,3.665943431568432,-3.737548209002536,27.61335250247102,33.41201665318837,37.58130410039836,1577399452.0,-27.68895700534492,-51.12806831981262,7.3626556
44696,1577399452.36,-0.5580241723037345,-1.2218603789538869,8.056955747725324,-1.6455756776390995,-1.5930200314405485,8.86012281196408,-2.836428225335842,-11.305712215070026,11.085153686523435,7.830177865377286,-3.902900509717988,3.1209806116615857,1.7311282274199695,-7.908518721417683,3.1522425209603657,-3.399546553448933,8.111721131859756,-13.189176233803352,3.790351228632481,-7.66885016025641,0.2254408785658761,0.4254202328120589,3.665943431568432,-3.737548209002536,27.70919819091263,33.22032527630515,37.43753556773595,1577399452.0,-27.68895700534492,-51.12806831981262,7.3626556
44697,1577399452.37,0.4559202307724369,1.4704193878918157,9.725714304854227,-1.2505324037133183,3.520994714653201,10.507333554151584,2.564890719976657,18.72715340992997,3.0933085449218747,10.836159310689789,-10.418403439405488,1.0915616663490852,4.325122368044969,-4.063303877667683,-0.6319371665396342,14.117543290301068,8.447414491234756,0.9099448599466464,3.5259081196581192,-7.975604166666667,0.9017635142635108,1.6580914077909268,2.1995660589410586,3.3422013683431966,27.661275346691824,33.22032527630515,37.24584419085272,1577399452.0,-27.68895700534492,-51.12806831981262,7.3626556
44698,1577399452.38,1.2879053076767333,-1.2218603789538869,6.311582737471417,-0.2808807313500379,-2.507605065620236,1.632027999952362,0.1778716648008767,-2.5944094745915107,4.3993455505371095,11.065041146627289,7.876884646532012,3.3346036585365857,1.9600100633574693,-1.3777570026676829,1.9773157631478655,11.554066727801068,30.67947015529726,7.410189000571646,3.085169604700852,-8.486860844017095,1.127204392829393,0.1172524390673429,1.374728786838162,-1.0088947260672017,27.90088956779585,33.26824812052595,37.413574145625546,1577399452.0,-27.68895700534492,-51.12806831981262,7.3626556
44699,1577399452.39,1.5177486670517333,-0.254602908250762,11.004217991377669,-2.289615924221131,1.2369263308641385,10.49057414253049,-4.225065188226467,-1.3865347370426826,8.48505068359375,-8.099997915872713,0.8578416777820121,-0.9378572789634144,2.158374321169969,-6.596262862042683,2.6029261147103657,6.671254227801067,30.90835199123476,-1.2262856088033538,3.085169604700852,-8.486860844017095,1.127204392829393,-2.656257704635109,0.549891514735265,-3.8850429918639056,27.61335250247102,33.31617096474676,37.43753556773595,1577399452.0,-27.68895700534492,-51.12806831981262,7.3626556
44700,1577399452.4,1.381279172422827,-4.863441104051543,4.451288047530011,2.575401849216368,-3.228259765327268,5.824275106885956,-9.027833718499906,-10.072698360089555,16.227898852539063,1.2078634122522869,3.757011599657013,4.128060689786586,0.1442141649199695,6.831471512957317,0.4972132240853658,2.520863602801067,21.29531488185976,-3.118375452553354,2.379987980769229,-8.486860844017095,0.2254408785658761,-13.133962691955478,-1.099783029470529,-4.032537774725275,27.565429658250217,33.22032527630515,37.341689879294336,1577399452.0,-27.68895700534492,-51.12806831981262,7.3626556
44701,1577399452.41,-0.9662355553603748,2.301207363966033,12.92436772282298,-1.4157323182640995,1.318329187309451,10.277490194776584,3.453139535894626,-2.849391951398151,16.70673918457031,0.0481954435022865,1.407158084032012,0.7558683069740856,0.9071536180449696,-11.387522627667684,5.929342130335366,-15.026743819073932,-10.656589415015244,-21.001676233803355,4.05479433760684,-8.18010683760684,0.7514695952195933,-13.133962691955478,-1.099783029470529,-4.032537774725275,27.565429658250217,33.31617096474676,37.53338125617755,1577399452.0,-27.68895700534492,-51.12806831981262,7.3626556
44702,1577399452.42,0.8425837988876708,-1.4086081084460744,10.60678051579173,-1.4480540406762104,-1.012426128852658,12.101871859815644,2.130343118658298,6.2569540630061455,14.215572357177734,-3.4002908846227133,7.846367068407012,4.891000142911586,0.9681887742949696,3.581349442644817,1.2906702553353655,-3.903086592511432,-16.683811094702744,5.853792516196648,2.7325787927350405,-6.850839476495726,0.2254408785658761,-8.20327799204001,-3.299349088411588,2.16224310545224,27.565429658250217,33.148441009973936,37.36565130140474,1577399452.0,-27.68895700534492,-51.12806831981262,7.3626556
44703,1577399452.43,-2.784631716249047,0.4971764130382994,11.255609165694072,-5.014217413478945,0.0589791140672633,10.071588852003146,-1.012046560296779,-6.431117634991901,17.987637072753905,-0.3485330721227134,20.38909167778201,3.5482267054115857,4.111499321169969,-10.838206221417684,4.037252286585366,-25.73841374094893,-28.265231993140244,-2.385953577553354,2.7325787927350405,-6.850839476495726,0.2254408785658761,-3.2725932921245406,-2.5661604020979016,1.867253539729502,27.61335250247102,33.17240243208434,37.38961272351514,1577399452.0,-27.68895700534492,-51.12806831981262,7.3626556
44704,1577399452.44,-2.930678017518578,-1.5402891997546682,11.43038588688548,-3.2113835633812884,-3.9417318600538302,11.383611361768772,0.7237496433165013,4.8503605876643485,10.153809240722657,-14.325583853372711,6.778251834032012,2.6937345179115857,6.278247368044969,0.026051591082317,1.9620569740853653,-5.535777022198933,-32.20199957126525,6.433626500571647,2.7325787927350405,-6.850839476495726,0.2254408785658761,-3.2725932921245406,-4.032537774725275,1.867253539729502,27.75712103513344,33.41201665318837,37.341689879294336,1577399452.0,-27.68895700534492,-51.12806831981262,7.3626556
44705,1577399452.45,-0.4622561058974848,-2.439311923143341,4.612896659590558,-0.8937963563500374,-3.4916219479444552,4.222554196241425,1.1547059421446262,1.491295658465129,6.418854650878906,-0.6842264314977131,-2.590644650342988,2.0070890100990857,2.860278618044969,-6.931956221417683,2.4503382240853657,-6.786997725323933,-33.91098394626525,13.757845250571648,3.614055822649572,-7.259844818376068,0.9769104737854696,-2.656257704635109,-2.3828632305194803,2.0147483225908704,27.66127534669183,33.17240243208434,37.341689879294336,1577399452.0,-27.68895700534492,-51.12806831981262,7.3626556
44706,1577399452.46,-0.6537922387099844,2.1204451386242367,10.410455979658916,-0.0402634645043347,-0.0224237423780487,12.210808035352755,-1.417863741693264,-4.81024311106612,4.853046765136718,11.766945443502289,-11.471259884717988,1.8087247522865848,-1.1222653272675305,-8.915598799542684,2.2672327553353657,-7.137949873761432,-5.026096250952744,19.15945657869665,2.7325787927350405,-7.66885016025641,0.526028716653711,-3.067148096294731,-3.849240603146853,-3.8850429918639056,27.75712103513344,33.24428669841555,37.36565130140474,1577399452.0,-27.68895700534492,-51.12806831981262,7.3626556
44707,1577399452.47,-1.4797918114638904,1.9384858124523616,6.606069541670635,-2.2177898744164435,2.340653296196169,9.183340036085175,-0.5356004299256852,-4.50378529856612,11.413159313964844,8.562599740377287,-8.358466915967988,4.860482564786586,-1.1680416944550305,-2.262766768292683,-1.3033238852896345,1.3917132121760671,5.761867616234756,-12.761930140053352,3.790351228632481,-8.077855502136753,0.8266165547415459,-3.067148096294731,-3.1160519168331664,-3.8850429918639056,27.565429658250217,33.31617096474676,37.58130410039836,1577399452.0,-27.68895700534492,-51.12806831981262,7.3626556
44708,1577399452.48,-0.9075776146865469,-0.9680750029773244,7.999494907881573,1.3471763975562114,-1.475704150092892,10.844915988233614,-0.7151655544374039,10.04577819020341,9.888052856445311,-2.0880350252477133,-3.200996212842988,1.4425138147865857,-1.7478756788300305,-0.0349835651676829,2.9386194740853657,5.267445634051067,9.851223084984756,-2.660611780678354,3.790351228632481,-8.077855502136753,0.8266165547415459,3.3016529744294165,-4.032537774725275,-0.4926629860524088,27.90088956779585,33.31617096474676,37.43753556773595,1577399452.0,-27.68895700534492,-51.12806831981262,7.3626556
44709,1577399452.49,-0.3904300560927973,-3.3455172515124807,10.576852995039776,0.0914176268042589,-2.6428774594190645,10.072785952833222,0.7213554416563455,-9.348452357892292,10.32978306274414,-3.4765848299352125,-5.108344845655488,2.7395108850990857,-1.2138180616425307,-8.183176924542684,1.7331751381478655,-6.481821944073932,7.013088319359756,-6.688932093178354,3.702203525641029,-7.771101495726496,0.9017635142635108,3.5070981702592268,-4.032537774725275,-17.897047363694,27.66127534669183,33.31617096474676,37.46149698984635,1577399452.0,-27.68895700534492,-51.12806831981262,7.3626556
44710,1577399452.5,0.7683635474228271,-0.2522087065906058,14.894795689131572,4.272890826267148,-1.4038781002882044,10.193693136671117,4.722066415777439,17.972979886980752,2.832340563964844,-9.717429556497711,-5.459296994092988,0.5575040491615855,-0.0388913038300304,5.915944169207317,-0.4793492759146341,16.436879227801068,7.409816834984756,5.945345250571647,3.790351228632481,-9.304871527777776,-0.6763226356976347,-1.629031725486053,-4.032537774725275,-41.201223055790365,27.61335250247102,33.17240243208434,37.341689879294336,1577399452.0,-27.68895700534492,-51.12806831981262,7.3626556
44711,1577399452.51,2.599927817442359,1.5362599335461118,8.909291538740948,1.6512400083960552,-0.6257625607374232,4.962362509229706,-2.3767415065858413,-4.920376387433308,8.693346228027343,8.074318490377287,-8.083808712842988,2.3580411585365857,-7.118969428830031,-3.330882002667683,0.9549768959603658,6.060902665301067,36.30996331935975,19.434114781821645,1.8511017628205124,-7.873352831196582,0.6763226356976285,-1.629031725486053,-2.5661604020979016,-41.201223055790365,27.90088956779585,33.31617096474676,37.341689879294336,1577399452.0,-27.68895700534492,-51.12806831981262,7.3626556
44712,1577399452.52,-1.4007831566787343,4.648722091749237,12.24680865299876,-0.9536513978539436,1.347059607231326,9.6526035614758,-4.1987289699647485,-16.821952840070026,12.349292163085936,1.7571798185022869,-8.999336056592988,-0.3885408727134145,1.2733645555449695,-10.044749190167684,1.2601526772103655,-3.826792647198933,20.22719964748476,-6.383756311928353,1.8511017628205124,-7.873352831196582,0.6763226356976285,-7.792387600380388,-3.665943431568431,-31.761556952662723,27.75712103513344,33.17240243208434,37.341689879294336,1577399452.0,-27.68895700534492,-51.12806831981262,7.3626556
44713,1577399452.53,1.8505426978134525,-2.140036715623809,6.432489921309307,0.7414433775366808,-0.720333526313595,4.129180331495331,1.888528750982517,6.210267130633098,11.322179650878905,-3.3087381502477133,-1.018989376905488,0.4812101038490856,-4.708080756955031,8.601491044207318,-0.5861607993521344,2.291981766863567,6.768947694359756,-3.759244593178353,3.5259081196581192,-7.362096153846154,0.9017635142635108,-10.668620341997745,-3.849240603146853,-31.466567386939985,27.805043879354244,33.26824812052595,37.413574145625546,1577399452.0,-27.68895700534492,-51.12806831981262,7.3626556
44714,1577399452.54,-0.9410964379287344,1.5625961518078306,11.66022924626048,-0.5873385438500374,3.08764421416492,10.787455148389864,-7.5194866726014675,-16.903355696515337,15.899893225097657,0.2313009122522865,-0.0882032440929878,1.9613126429115848,-4.036694038205031,-12.119944502667684,4.281392911585366,-10.723765303448932,-7.574314024390244,-10.015348108803352,1.3222155448717956,-7.66885016025641,2.329555745180739,-11.28495592948718,-0.5498915147352641,-31.90905173552409,27.75712103513344,33.22032527630515,37.341689879294336,1577399452.0,-27.68895700534492,-51.12806831981262,7.3626556
44715,1577399452.55,1.5081718604111083,0.3918315399914244,10.673818162276104,1.773344293064024,-0.5323886959913294,11.369246151807834,2.1339344211485325,-0.4192772663395577,9.763554370117188,-0.9588846346227134,1.315605349657012,1.4730313929115857,-5.440502631955031,7.014576981707317,-0.3267613852896341,-17.132456709698932,-26.037448790015244,-13.769010218178352,2.379987980769229,-8.077855502136753,2.028967907092904,-11.079510733657369,7.698481206293707,-31.171577821217245,27.565429658250217,33.41201665318837,37.24584419085272,1577399452.0,-27.68895700534492,-51.12806831981262,7.3626556
44716,1577399452.56,-0.2575518639541255,-3.055818850633574,11.115548368574933,4.1005083067358985,-3.3240278317335177,8.826603988721892,4.951909775152438,20.472526420183875,12.48097325439453,-16.629661001810213,5.969536013719512,1.2136319788490857,-1.7783932569550305,6.556813309832317,0.3446253334603658,5.633656571551067,-25.396579649390244,8.051058141196647,2.9970219017094024,-8.384609508547008,1.6532331094831074,-8.614168383699631,7.698481206293707,-29.99161955832629,27.733159613023037,33.31617096474676,37.43753556773595,1577399452.0,-27.68895700534492,-51.12806831981262,7.3626556
44717,1577399452.57,-0.0887606469131094,0.6958951508312681,9.759233128096415,-0.607689257961366,-0.3420496640089084,16.010406070020725,-0.4027222377870138,-5.421961635236042,7.799111907958984,-4.041160025247714,9.830009646532012,2.0223477991615857,-6.066112983517531,-3.025706221417683,1.4432581459603655,-2.056773115948933,-11.373752500952744,16.53494485994665,3.43776041666667,-8.077855502136753,0.8266165547415459,-10.668620341997745,8.06507554945055,-30.28660912404903,27.75712103513344,33.36409380896757,37.38961272351514,1577399452.0,-27.68895700534492,-51.12806831981262,7.3626556
44718,1577399452.58,-0.0935490502334219,-1.106938699266387,12.31145209782298,0.1237393492163678,-1.774979357612423,8.991803903272675,-3.063877383050686,-2.193380696515338,10.97502041015625,-10.846579947122711,-5.184638790967988,-0.5411287633384145,2.555102836794969,8.937184403582316,-1.1812535727896345,-7.397349287823933,-0.5857886337652439,6.982942906821647,3.966646634615387,-7.873352831196582,0.0751469595219524,-16.421085825232456,-1.832971715784216,5.997107459847844,27.852966723575044,33.17240243208434,37.341689879294336,1577399452.0,-27.68895700534492,-51.12806831981262,7.3626556
44719,1577399452.59,-0.2395953515029532,-3.022300027391387,11.099986057783916,0.0375480894507428,-3.307268420112424,5.445991244581268,2.2153372775938447,-6.833343513898151,10.89122335205078,1.2688985685022869,-0.4238966034679878,2.0223477991615857,1.9447512742949693,-0.8894757526676829,2.0536097084603657,-3.674204756573933,1.3673363662347562,-3.270963343178354,2.908874198717946,-5.41932077991453,0.3757347976097936,-12.723072300295856,-2.9327547452547447,5.407128328402368,27.565429658250217,33.41201665318837,37.341689879294336,1577399452.0,-27.68895700534492,-51.12806831981262,7.3626556
44720,1577399452.6,0.3733202734970463,0.1871272980480655,8.702193095137432,-1.1092745057640998,2.845829846489138,9.161792221143768,-0.4996874050233414,-3.2061279987614326,8.542511523437499,6.365334115377288,-2.026069455030488,2.2512296350990857,-0.9544186475800304,-3.422434737042683,4.037252286585366,-3.399546553448933,-5.529636290015244,-15.996793421303352,2.997021901709399,-6.54408547008547,1.0520574333074315,-3.2725932921245406,-4.032537774725275,5.407128328402368,27.733159613023037,33.17240243208434,37.341689879294336,1577399452.0,-27.68895700534492,-51.12806831981262,7.3626556
44721,1577399452.61,0.9958127051376708,-3.036665237352324,10.187795225264386,0.542724639743712,-1.7211098202589077,10.792243551710175,-0.5272207241151389,-0.2385150409977607,11.675324395751952,-9.259665884622711,-6.313789181592988,1.6256192835365857,1.1970706102324695,0.5753679973323171,1.2143763100228655,-3.155405928448933,-1.2419165634527438,5.029817906821647,2.379987980769229,-8.077855502136753,-0.0751469595219649,0.939033222386588,-0.2749457573676321,-4.032537774725275,27.75712103513344,33.29220954263636,37.36565130140474,1577399452.0,-27.68895700534492,-51.12806831981262,7.3626556
44722,1577399452.62,-1.079960134217797,1.919332199171112,11.246032359053448,-1.944850885158631,3.765203283989138,12.312561605909396,1.4252507297422825,1.761840446062785,13.77144794921875,3.984963021627287,8.487236209032012,4.036507955411586,-4.006176460080031,-4.124339033917683,3.5489710365853657,-10.510142256573932,-13.036960508765244,-10.106900843178352,2.556283386752135,-7.873352831196582,0.6763226356976285,0.0145298411524369,2.1995660589410586,3.0472118026204567,27.565429658250217,33.31617096474676,37.24584419085272,1577399452.0,-27.68895700534492,-51.12806831981262,7.3626556
44723,1577399452.63,-1.4055715599990468,-1.442126931688262,12.670582346846416,2.230636810153868,-4.243401269233518,12.135390683057834,2.8330413059141577,9.64355231129716,8.66940421142578,-13.715232290872711,-0.973213009717988,-0.6021639195884145,3.9589114305449695,9.486500809832316,-1.4253941977896345,4.412953446551067,-4.583591368140244,13.879915563071648,3.790351228632481,-7.259844818376068,1.4277922309172282,0.8363106244716829,1.832971715784216,-1.6726212489433638,27.61335250247102,33.41201665318837,37.341689879294336,1577399452.0,-27.68895700534492,-51.12806831981262,7.3626556
44724,1577399452.64,0.2236826697372806,-1.0339155486316218,9.650296952559309,-1.0386455567894906,1.320723388969607,13.237920547559783,0.4831323764707977,-7.467806953839557,11.818976495361328,-0.1806863924352132,0.5221483184070121,3.2430509241615857,-1.473217475705031,-4.597361494855183,3.6557825600228657,-7.122691084698932,-2.645725157202744,6.754061070884148,3.790351228632481,-7.259844818376068,1.4277922309172282,-7.997832796210198,0.916485857892108,-20.40445867233728,27.68523676880223,33.26824812052595,37.60526552250876,1577399452.0,-27.68895700534492,-51.12806831981262,7.3626556
44725,1577399452.65,-0.1605866967177969,1.1388224579601745,13.99697006657298,5.752507452243711,-2.19157044647961,12.37481084907346,-4.280131826410061,-1.2189406208317453,14.74109962158203,-11.273826040872711,-6.130683712842988,0.0081876429115854,-1.5037350538300305,19.13005549733232,-2.7681676352896343,-2.880747725323933,-5.804294493140244,1.3371909536966462,3.2614650106837644,-7.055342147435899,1.2774983118733108,-12.723072300295856,2.566160402097902,-37.07136913567202,27.70919819091263,33.41201665318837,37.38961272351514,1577399452.0,-27.68895700534492,-51.12806831981262,7.3626556
44726,1577399452.66,0.2871290137314208,-1.6312688628406056,5.562197617842511,-0.5442429139672249,1.186648096000857,11.04602892768674,0.9583814060118138,-8.17409644358565,14.200010046386716,9.783302865377289,0.3085252715320121,4.799447408536586,-12.429028022580033,2.681080887957317,2.9081018959603657,-8.557017256573932,-16.027683165015244,-6.963590296303353,2.556283386752135,-7.464347489316239,0.6763226356976285,-13.133962691955478,-4.032537774725275,-35.89141087278106,27.61335250247102,33.22032527630515,37.341689879294336,1577399452.0,-27.68895700534492,-51.12806831981262,7.3626556
44727,1577399452.67,-1.4989454247451406,0.961651535108612,11.969081260420635,0.7031361509741804,2.9248385012742943,16.63888400581174,0.5130598972227512,3.4521468181330985,10.275913525390624,-12.433494009622711,-3.048408322217988,0.0692227991615854,-1.2595944288300305,0.4838152629573171,2.7860315834603657,-12.982066084698932,-35.77255621189025,-1.1957680306783538,3.790351228632481,-8.895866185897434,1.4277922309172282,-13.133962691955478,-1.099783029470529,-38.25132739856297,27.565429658250217,33.17240243208434,37.53338125617755,1577399452.0,-27.68895700534492,-51.12806831981262,7.3626556
44728,1577399452.68,-0.7435748009658438,-4.232568966600372,8.975132084395245,1.395060430759337,-5.639220837104611,4.7863886872082215,-1.1233769374940454,4.479259330340129,7.806294512939453,-9.015525259622716,-2.560127072217988,2.7395108850990857,-4.814892280392531,9.059254716082316,-0.2046910727896344,-4.589732100323933,-24.008029844702744,13.681551305259148,2.908874198717946,-8.691363514957265,0.3757347976097936,-11.490401125316987,-1.099783029470529,-37.661348267117496,27.733159613023037,33.340132386857164,37.43753556773594,1577399452.0,-27.68895700534492,-51.12806831981262,7.3626556
44729,1577399452.69,-2.945043227479516,1.1148804413586118,17.358429197432354,-4.554530694728944,0.8011816287157008,15.611771493604708,3.1658353366758765,-1.5469462482731513,3.418919970703125,0.8416524747522866,-0.0271680878429878,2.2664884241615857,5.118579399294969,-12.364085127667684,6.356588224085366,3.009144852801067,5.487209413109756,28.619905797446645,3.43776041666667,-7.66885016025641,0.526028716653711,-9.8468395586785,-1.099783029470529,-37.07136913567202,27.70919819091263,33.31617096474676,37.43753556773595,1577399452.0,-27.68895700534492,-51.12806831981262,7.3626556
44730,1577399452.7,0.0764392676376708,-0.0487015654773245,13.41517906315501,-1.7389495423851935,-0.7718088620069544,5.742872250440644,1.607210055914157,-12.435775398663775,9.39724151611328,-6.360495962747714,-2.956855587842988,2.7852872522865857,-1.1070065382050305,16.230885575457318,-0.3267613852896341,-3.643687178448933,15.771633241234756,8.417269078696647,2.908874198717946,-9.100368856837608,0.6763226356976285,-1.629031725486053,-1.099783029470529,-2.2626003803888417,27.75712103513344,33.17240243208434,37.341689879294336,1577399452.0,-27.68895700534492,-51.12806831981262,7.3626556
44731,1577399452.71,0.3194507361435306,-0.2713623198718563,8.953584269453838,2.3024628599585557,1.5745087649461695,5.388530404737518,-3.806079897699124,5.2813168864924736,13.589488623046874,3.237282357564787,0.0033494902820123,3.3193448694740857,-5.928783881955031,4.664723466082317,2.5724085365853657,-2.667124678448933,7.257228944359756,-7.848600061928353,3.702203525641029,-7.975604166666666,0.7514695952195933,-1.629031725486053,-0.3665943431568428,-34.41646304416737,27.733159613023037,33.36409380896756,37.341689879294336,1577399452.0,-27.68895700534492,-51.12806831981262,7.3626556
44732,1577399452.72,1.6446413550400143,0.9855935517101744,9.63712884342845,1.1688083738745707,0.2193906252977325,11.29502590034299,-3.074651290521389,-5.178950166730182,8.742427362060546,6.945168099752286,-1.736152462842988,2.3885587366615857,-0.4051022413300304,0.6974383098323162,2.5418909584603657,-1.6600446003239329,-1.7301978134527438,-10.900357874428355,3.966646634615387,-8.282358173076922,0.3757347976097936,-6.046103435826993,-3.757592017357642,1.793506148298817,27.70919819091263,33.17240243208434,37.413574145625546,1577399452.0,-27.68895700534492,-51.12806831981262,7.3626556
44733,1577399452.73,-0.7136472802138907,-4.547406484910918,8.983511790205792,1.85235294784918,-4.26734328583508,5.764420065382049,3.3094874362852518,11.563702042742474,10.182539660644531,1.5740743497522869,-0.0271680878429878,2.4801114710365857,1.9142336961699693,3.810231278582317,4.006734708460366,7.861439774676067,-0.3111304306402439,-1.1652504525533538,3.43776041666667,-8.895866185897434,0.8266165547415459,-2.450812508805297,-3.665943431568431,4.81714919695689,27.852966723575044,33.41201665318837,37.43753556773595,1577399452.0,-27.68895700534492,-51.12806831981262,7.3626556
44734,1577399452.74,0.8593432105087645,-4.238554470750762,6.00273072331126,4.033470660251524,-1.784556164253048,8.079613070753144,0.0054891452696262,-7.372038887433307,12.696451403808592,-1.5387186189977131,7.571708865282012,3.8839200647865857,-1.1070065382050305,-5.284007002667683,5.441060880335366,4.290883134051067,-0.3721655868902439,3.900667516196646,2.7325787927350405,-7.66885016025641,0.8266165547415459,4.123433757748661,-3.299349088411588,-4.032537774725275,27.70919819091263,33.31617096474676,37.341689879294336,1577399452.0,-27.68895700534492,-51.12806831981262,7.3626556
44735,1577399452.75,-1.5971076928115466,1.76730039375119,10.572064591719464,-4.128362799221132,1.7564680911180446,18.1185006317883,1.377366696539157,1.958164982195597,12.121843005371092,3.618752084127286,-3.643501095655488,2.9226163538490857,-0.4966549757050305,-10.349924971417684,3.4879358803353657,-3.155405928448933,-0.7688941025152439,1.2761557974466462,2.997021901709399,-7.975604166666667,0.4508817571317522,4.945214541067904,-3.299349088411588,-32.3515360841082,27.58939108036062,33.41201665318837,37.53338125617755,1577399452.0,-27.68895700534492,-51.12806831981262,7.3626556
44736,1577399452.76,-3.5388052391982656,0.9041906952648618,8.552555491377667,-1.6982481141625378,-0.4964756710889862,8.946314071729708,0.6172076694395481,0.9130959575373954,9.16739815673828,11.858498177877289,5.984794802782012,5.837045064786586,3.272265922732469,1.658742020769817,1.1685999428353655,5.206410477801068,7.776027772484758,13.940950719321648,2.908874198717946,-8.691363514957265,0.3757347976097936,-1.629031725486052,-2.5661604020979016,-41.79120218723584,27.565429658250217,33.19636385419474,37.413574145625546,1577399452.0,-27.68895700534492,-51.12806831981262,7.3626556
44737,1577399452.77,-1.4989454247451406,-0.6831650054187307,10.21652564518626,1.8834775694312116,-2.079042968452267,7.787520468214081,-2.479692177972561,-4.084800008038776,8.295908752441406,-15.973533072122711,-6.344306759717988,-0.8768221227134145,-1.7173581007050305,-12.028391768292684,3.1522425209603657,9.051625321551068,27.09365472560976,7.776399938071647,2.908874198717946,-8.691363514957265,0.3757347976097936,-12.312181908636234,-1.466377372627372,-41.79120218723584,27.565429658250217,33.31617096474676,37.53338125617755,1577399452.0,-27.68895700534492,-51.12806831981262,7.3626556
44738,1577399452.78,0.4978187598251708,-2.9720217925281056,8.739303220869854,-3.426861712795351,-0.6568871823194544,10.253548178175022,1.8202940036680637,-5.995372932843464,4.65432802734375,3.0694356778772867,-5.062568478467988,4.768929830411586,2.371997368044969,-3.391917158917683,2.7249964272103657,11.035267899676068,37.04238519435975,6.830355016196647,3.614055822649576,-8.691363514957265,0.0751469595219524,-12.312181908636234,-1.832971715784216,-40.61124392434488,27.61335250247102,33.17240243208434,37.43753556773595,1577399452.0,-27.68895700534492,-51.12806831981262,7.3626556
44739,1577399452.79,0.594783927061499,-0.8184373992175593,7.804367472578838,0.1381045591773053,-1.0782666745069545,6.111579306104706,-8.283237002191312,-14.19551361887862,9.196128576660156,4.366432748189786,-10.952461056592988,2.4495938929115857,-0.9239010694550304,1.4908953410823171,2.7249964272103657,11.065785477801068,39.30068597560975,-11.754850061928352,3.261465010683761,-8.282358173076924,0.6763226356976284,-13.133962691955478,-3.299349088411588,-41.79120218723584,27.565429658250217,33.31617096474676,37.38961272351514,1577399452.0,-27.68895700534492,-51.12806831981262,7.3626556
44740,1577399452.8,1.8361774878525143,2.762091183546112,10.534954465987042,2.32520777573004,0.1750978945848419,6.203756070020721,-1.2275247097108422,2.294550315447552,10.344148272705077,12.224709115377289,-13.332832150342988,1.3204435022865857,0.3425784227324693,-2.766306807355183,0.8329065834603656,17.627064774676068,37.68325433498475,-10.000089319740852,3.085169604700852,-8.895866185897434,0.2254408785658761,-9.8468395586785,-1.832971715784216,-37.071369135672015,27.70919819091263,33.148441009973936,37.31772845718393,1577399452.0,-27.68895700534492,-51.12806831981262,7.3626556
44741,1577399452.81,1.486624045469702,-3.2880564116687307,8.9667523785847,1.4812516905249613,-3.2545959835889864,8.556059201124237,1.8586012302305637,-3.6011712726872136,15.071499450683593,0.2618184903772865,-1.125800900342988,0.8626798304115855,1.2428469774199695,7.106129716082317,0.6192835365853658,-0.9276227253239328,-4.797214415015244,-9.557584436928352,3.085169604700852,-8.895866185897434,0.2254408785658761,-16.421085825232456,-4.032537774725275,-31.761556952662723,27.61335250247102,33.41201665318837,37.38961272351514,1577399452.0,-27.68895700534492,-51.12806831981262,7.3626556
44742,1577399452.82,1.7978702612900144,-4.681481777879668,9.5413607770222,0.7965100157202741,-1.284168017280392,7.892865341260956,-3.217106289300686,6.825576957293254,13.120225097656247,-15.149558462747711,15.811454959032012,3.0294278772865857,0.7545657274199695,1.9486590129573167,3.5184534584603657,0.9949846965510672,-19.109958555640244,-0.7074867806783537,2.908874198717946,-7.873352831196582,-0.2254408785658824,-15.18841465025359,-4.032537774725275,-31.761556952662723,27.90088956779585,33.50786234162997,37.341689879294336,1577399452.0,-27.68895700534492,-51.12806831981262,7.3626556
44743,1577399452.83,-0.3856416527724844,-1.0698285735339657,11.43038588688548,0.8563650572241803,-2.8643411129835177,10.67013926704221,2.653476181402439,2.0060490153987223,11.6837041015625,-4.254783072122714,8.349907107469512,2.1901944788490857,-0.0083737257050304,3.444020341082317,3.2132776772103657,-9.960825850323932,-22.680515196265244,11.530062047446648,2.644431089743588,-8.384609508547008,0.1502939190439143,-11.079510733657369,-1.099783029470529,-3.737548209002536,27.46958396980861,33.17240243208434,37.341689879294336,1577399452.0,-27.68895700534492,-51.12806831981262,7.3626556
44744,1577399452.84,-1.0488355126357656,1.9624278290539243,11.305887400557356,-0.2018720765648816,2.43642136260242,11.558388082960176,0.6615004001524393,-2.7177108600895576,11.015721838378903,6.945168099752286,2.7499315215320124,2.0528653772865857,-4.219799506955031,-1.9881085651676829,1.6263636147103655,-6.863291670636432,-32.26303472751525,11.469026891196648,2.908874198717946,-9.100368856837608,0.9769104737854758,-13.750298279444912,-1.099783029470529,5.407128328402368,27.421661125587804,33.340132386857164,37.43753556773595,1577399452.0,-27.68895700534492,-51.12806831981262,7.3626556
44745,1577399452.85,-0.7351950951552969,3.396554623487518,7.683460288740948,-0.6926834168969124,1.6199985964891384,13.691621762159397,-3.236259902581936,-6.919534773663776,10.500968481445312,12.590920052877289,-5.337226681592988,1.4730313929115857,0.9376711961699696,10.310475419207316,-0.2657262290396341,-8.831675459698932,-24.328464415015244,-1.6840492806783538,2.908874198717946,-9.100368856837608,0.9769104737854758,-2.450812508805297,2.566160402097902,-2.852579511834319,27.70919819091263,33.41201665318837,37.43753556773595,1577399452.0,-27.68895700534492,-51.12806831981262,7.3626556
44746,1577399452.86,-1.8437104638076405,-2.301645327684356,10.827047068526104,0.3152754820288678,-3.0319352291944552,6.485074765089081,0.7859988864805637,-0.3689990314762764,8.334215979003906,-3.644431509622713,5.893242068407012,1.6561368616615857,2.799243461794969,4.359547684832317,2.5724085365853657,-11.517222334698932,-24.603122618140244,-10.290006311928352,3.966646634615387,-7.055342147435899,1.5780861499611456,-2.861702900464919,-3.299349088411588,-3.737548209002536,27.61335250247102,33.36409380896756,37.53338125617755,1577399452.0,-27.68895700534492,-51.12806831981262,7.3626556
44747,1577399452.87,-0.0277085045791255,-5.1208177825183405,9.359401450850322,-1.1176542115746475,-3.1600250180128144,9.492192050245333,1.2528682102110331,5.053867728777629,8.238447912597655,-7.443869986185212,4.382621951219512,3.5940030725990857,3.897876274294969,-8.305247237042684,3.7473352943978657,8.456532548113568,-4.995578672827744,16.90115579744665,2.8207264957264933,-7.975604166666667,1.3526452713952692,-1.5263091275711458,-1.741323129995005,0.0235687539623845,27.685236768802227,33.41201665318837,37.43753556773594,1577399452.0,-27.68895700534492,-51.12806831981262,7.3626556
44748,1577399452.88,-0.5484473656631095,1.8666597626476744,10.068085142256573,-0.1587764466820686,1.809140527641482,12.441848495557831,2.3350473606016573,-14.006371687726276,11.956643090820313,4.015480599752286,-2.651679806592988,3.1209806116615857,4.142016899294969,3.321950028582317,1.8094690834603653,-0.9581403034489328,5.548244569359756,1.6118491568216462,3.2614650106837644,-6.237331463675212,1.5780861499611456,-2.656257704635109,2.016268887362638,-3.5900534261411665,27.75712103513344,33.22032527630515,37.38961272351514,1577399452.0,-27.68895700534492,-51.12806831981262,7.3626556
44749,1577399452.89,1.0413025366806394,3.367824203565643,14.71044216129954,0.3559769102515241,0.2600920535203883,9.228829867628145,-1.289773952874904,4.258992777605755,16.08185255126953,15.764748177877289,-15.408027462842988,1.6561368616615857,2.066821586794969,1.1552019817073171,3.2132776772103657,-4.193003584698933,-6.231540586890244,0.5742515005716463,3.2614650106837644,-6.237331463675212,1.5780861499611456,-2.656257704635109,2.016268887362638,-3.5900534261411665,27.565429658250217,33.17240243208434,37.43753556773595,1577399452.0,-27.68895700534492,-51.12806831981262,7.3626556
44750,1577399452.9,-1.0177108910537342,-1.9281498686999807,11.108365763594463,-1.6240278626976936,-1.3727534787061733,11.943854550245334,-3.978462417230373,-10.726315413312212,10.587159741210938,-5.582297720560212,1.5444871855945124,3.3956388147865857,4.691333305544969,-4.856760908917683,2.5724085365853657,-2.422984053448933,-1.0435523056402438,-4.247525843178353,3.173317307692308,-7.566598824786324,0.9017635142635108,-1.0126961379966188,2.382863230519481,-1.2301369003592555,27.613352502471024,33.36409380896756,37.58130410039836,1577399452.0,-27.68895700534492,-51.12806831981262,7.3626556
44751,1577399452.91,-1.2140354271865468,-0.101374002000762,11.013794798018292,-1.3846076966820695,-3.385079974067501,8.55965050361447,1.9340185825254856,5.162803904314739,8.353369592285155,3.0694356778772867,11.538994021532012,5.684457174161586,4.615039360232469,0.2549334270198171,2.3893030678353657,5.542103837176068,0.4212914443597561,-0.5548988900533525,2.379987980769229,-8.077855502136753,1.7283800690050692,-3.067148096294731,2.016268887362638,-3.8850429918639056,27.61335250247102,33.29220954263636,37.413574145625546,1577399452.0,-27.68895700534492,-51.12806831981262,7.3626556
44752,1577399452.92,1.3262125342392332,-5.493116140672638,9.500659348799545,2.477239581149961,-0.3288815548780481,7.284738119581268,-0.092673122796779,-5.605118062237995,6.289567761230469,-7.703269400247714,-11.532295040967988,1.2594083460365857,-2.5108151319550305,0.6974383098323171,6.173482755335366,0.7813616496760671,2.801662538109756,15.863558141196648,3.2614650106837644,-7.055342147435899,1.2774983118733108,-9.8468395586785,-17.596528471528472,-2.2626003803888417,27.61335250247102,33.31617096474676,37.341689879294336,1577399452.0,-27.68895700534492,-51.12806831981262,7.3626556
44753,1577399452.93,-0.5005633324599844,0.7653269989757994,12.510170835615948,-2.191453656154725,4.904843274223513,14.045963607862522,2.847406515875095,3.411445389910442,7.359775903320312,12.468849740377289,-3.689277462842988,4.646859517911586,2.921313774294969,-7.115061690167683,4.220357755335366,3.680531571551067,-0.3111304306402439,-1.3483559213033538,3.2614650106837644,-7.055342147435899,1.2774983118733108,-3.2725932921245406,-3.665943431568431,0.9822848425612848,27.565429658250217,33.22032527630515,37.341689879294336,1577399452.0,-27.68895700534492,-51.12806831981262,7.3626556
44754,1577399452.94,0.1865725440048583,0.1967041046886905,9.592836112715558,4.311198052829648,0.7868164187547633,8.654221469190643,6.879242111578219,5.709878983660442,11.286266625976562,3.771339974752287,-2.163398556592988,3.6702970179115857,5.027026664919969,9.761159012957316,1.9010218178353653,-0.1036481159489328,-2.874606993140244,2.130647984946646,3.790351228632481,-7.668850160256411,0.6763226356976346,-3.2725932921245406,-3.665943431568431,0.9822848425612848,27.733159613023037,33.31617096474676,37.53338125617755,1577399452.0,-27.68895700534492,-51.12806831981262,7.3626556
44755,1577399452.95,-3.136579360292016,-0.4772636626452933,7.949216673018292,-0.0534315736351947,-2.047918346870236,10.063209146192598,-3.723479940423733,-7.299015736798542,9.93952819213867,3.771339974752287,10.043632693407012,5.043588033536586,2.356738578982469,-10.88398258860518,5.578389981897866,-1.5837506550114329,-1.6996802353277438,0.8946860708841466,2.7325787927350405,-8.895866185897434,0.8266165547415459,-2.861702900464919,-3.665943431568431,-0.6401577689137781,27.61335250247102,33.24428669841555,37.36565130140474,1577399452.0,-27.68895700534492,-51.12806831981262,7.3626556
44756,1577399452.96,-1.850893068788109,-1.2218603789538869,10.93239194157298,-1.3415120667992562,-2.347193554389767,10.016522213819552,1.0709088840391574,0.12420651051591,8.858546142578124,-9.412253775247711,5.069267459032012,1.2288907679115857,5.789966118044969,9.547535966082316,-0.1131383384146341,0.3541155559260671,-12.457126524390244,1.3066733755716462,4.142942040598292,-9.304871527777776,1.4277922309172282,-2.0399221171456747,-4.032537774725275,-4.032537774725275,27.61335250247102,33.41201665318837,37.341689879294336,1577399452.0,-27.68895700534492,-51.12806831981262,7.3626556
44757,1577399452.97,1.0293315283798583,-4.525858669969511,6.7497216412800105,0.5523014463843366,-3.280932201850705,3.5833023529797057,0.0078833469297825,-3.10557152903487,11.9135474609375,1.6961446622522869,-8.999336056592988,4.280648580411586,-0.7407956007050305,-2.812083174542683,4.983297208460366,2.124135087176067,-5.193942930640244,-0.4023109994283537,4.142942040598292,-9.304871527777776,1.4277922309172282,-8.614168383699631,-4.032537774725275,-1.6726212489433638,27.75712103513344,33.22032527630515,37.725072633060776,1577399452.0,-27.68895700534492,-51.12806831981262,7.3626556
44758,1577399452.98,-1.0272876976943597,2.15755526435666,13.085976334883526,-1.8706306336937872,3.102009424125857,17.816831222608613,2.76121525610947,3.389897574969036,8.95670841064453,0.978981576314788,-7.305610470655488,2.8463224085365857,4.142016899294969,-16.209299971417682,4.708639005335366,1.1170550090510671,-10.809177305640244,5.426546422446647,3.966646634615387,-8.691363514957263,0.8266165547415522,-8.819613579529443,-2.3828632305194803,-0.9351473346365172,27.61335250247102,33.36409380896756,37.38961272351514,1577399452.0,-27.68895700534492,-51.12806831981262,7.3626556
44759,1577399452.99,0.9455344702743896,-2.641621963426543,6.890979539229229,0.7198955625952741,-1.937785070503048,6.914833963087128,-1.1640783657167018,2.535167582293254,6.179434484863281,11.156593881002289,-5.642402462842988,6.111703267911586,0.8156008836699691,5.320851395769816,1.2754114662728655,7.785145829363567,12.429958436547256,19.510408727134145,3.614055822649576,-8.691363514957265,1.2774983118733108,2.479872191110171,-2.932754745254745,-3.885042991863905,27.852966723575044,33.26824812052595,37.341689879294336,1577399452.0,-27.68895700534492,-51.12806831981262,7.3626556
44760,1577399453.0,-0.6298502221084219,-0.1995362700671683,9.493476743819071,1.593779168552305,-0.6401277706983607,11.37164035346799,-0.7247423610780289,-2.1167662433903387,6.60799658203125,-2.8509744783727133,-6.771552853467988,1.9002774866615848,1.7616458055449695,-9.617503096417684,5.074849942835366,8.410756180926068,18.97597894435976,10.675569859946648,2.379987980769229,-8.077855502136753,1.127204392829393,3.712543366089037,-2.5661604020979016,-32.3515360841082,27.94881241201665,33.17240243208434,37.24584419085272,1577399453.0,-27.68889714263901,-51.12809275397109,7.1030025
44761,1577399453.01,0.6989316992782958,-0.7502026519031058,8.248491880537824,0.3990725401343366,-1.6672402829053918,8.939131466749236,1.346242074957126,-9.70638550608565,8.927977990722656,6.426369271627286,0.3695604277820121,4.463754049161586,-2.3887448194550305,0.7889910442073171,0.8023890053353658,4.931752274676067,18.54873285060976,-1.2568031869283538,1.4985109508547012,-7.873352831196582,0.6763226356976285,3.3016529744294165,-1.832971715784216,-31.761556952662723,27.517506814029414,33.41201665318837,37.53338125617755,1577399453.0,-27.68889714263901,-51.12809275397109,7.1030025
44762,1577399453.02,0.8509635046982185,0.8934167877941588,10.591218205000713,-0.8794311463891009,-0.522811889350705,8.279528909376191,-4.189152163324124,-6.365277089337604,13.915100048828124,7.433449349752287,-7.915962033155488,2.1901944788490857,3.913135063357469,-4.536326338605183,4.205098966272866,1.0712786418635671,1.0621605849847562,-12.060025843178355,2.203692574786324,-7.873352831196582,0.9769104737854696,0.2199750369822488,-1.832971715784216,-31.761556952662723,27.661275346691824,33.17240243208434,37.29376703507353,1577399453.0,-27.68889714263901,-51.12809275397109,7.1030025
44763,1577399453.03,0.3421956519150145,0.1571997772961119,10.245256065108135,-0.6328283753930062,0.123622558891482,7.878500131300018,1.1451291355040012,2.214344559832316,9.33978067626953,-2.6373514314977133,3.1466600371570124,2.4801114710365857,1.9447512742949693,3.810231278582317,1.0160120522103655,-6.512339522198933,-8.886569883765244,-15.264371546303352,4.495532852564104,-9.71387686965812,0.526028716653711,-10.05228475450831,-2.3828632305194803,-39.87377001003804,27.852966723575044,33.22032527630515,37.62922694461916,1577399453.0,-27.68889714263901,-51.12809275397109,7.1030025
44764,1577399453.04,0.710902707579077,-1.078208279344512,13.35771822331126,3.027905962985898,-4.164392614448361,7.102778793409393,3.903249448004001,13.050501273699505,7.9295958984374995,-8.008445181497713,9.952079959032012,3.4261563929115857,1.8226809617949693,3.108326981707317,4.037252286585366,9.814564774676068,3.778225038109756,0.2995932974466463,4.848123664529915,-7.66885016025641,1.7283800690050692,-5.7379356420822765,-1.099783029470529,-29.99161955832629,27.61335250247102,33.22032527630515,37.341689879294336,1577399453.0,-27.68889714263901,-51.12809275397109,7.1030025
44765,1577399453.05,0.1195348975204833,-1.480434158250762,13.592349986006573,-0.9033731629906624,-0.8388465084913295,7.931172567823456,-1.6273563869569352,-5.650607893780964,5.7891796142578125,-12.708152212747711,5.618583865282012,1.4119962366615857,1.7311282274199695,-4.704173018292683,2.9386194740853657,3.558461259051067,9.240871522484756,14.398714391196648,3.43776041666667,-6.850839476495726,0.2254408785658761,-5.7379356420822765,-2.9327547452547447,-32.05654651838546,27.565429658250217,33.31617096474676,37.341689879294336,1577399453.0,-27.68889714263901,-51.12809275397109,7.1030025
44766,1577399453.06,0.0908044775986088,-0.0630667754382625,9.357007249190168,-0.1276518251000379,0.2840340701219513,10.47860313422971,2.107598202886814,2.6045994304377857,10.48301196899414,0.9637227872522862,-1.171577267530488,1.5951017054115857,0.3425784227324696,2.284352372332317,2.1604212318978657,2.749745438738567,8.111721131859756,5.869051305259147,3.261465010683761,-7.66885016025641,0.2254408785658761,-2.7589803025500137,2.474511816308692,-30.360356515479715,27.49354539191901,33.41201665318837,37.413574145625546,1577399453.0,-27.68889714263901,-51.12809275397109,7.1030025
44767,1577399453.07,-1.791038027284203,-3.3479114531726366,9.83345337956126,-1.1571585389672248,-3.702311694038205,9.726823812940642,1.4013087131407198,0.7993713786799724,10.359710583496094,-7.153952993997714,4.062187380907012,3.9754727991615857,0.8766360399199695,-4.887278487042683,1.5958460365853655,6.640736649676067,9.423976991234756,16.534944859946645,2.908874198717946,-7.873352831196582,1.2774983118733108,-16.010195433572836,-2.1995660589410586,-28.811661295435336,27.70919819091263,33.31617096474676,37.38961272351514,1577399453.0,-27.68889714263901,-51.12809275397109,7.1030025
44768,1577399453.08,-0.7447719017959219,0.1835359955578307,10.115969175459698,-2.1124450013695686,5.852947131645388,11.560782284620334,-5.510751479730374,-13.680760261945023,13.01248602294922,2.2454610685022867,1.956474490282012,2.8463224085365857,0.9987063524199696,-8.122141768292684,3.4879358803353657,-5.261118819073933,7.318264100609756,-7.604459436928353,1.3222155448717956,-7.259844818376068,-0.3757347976097998,-12.723072300295856,-3.299349088411588,-4.032537774725275,27.75712103513344,33.41201665318837,37.38961272351514,1577399453.0,-27.68889714263901,-51.12809275397109,7.1030025
44769,1577399453.09,-0.1809374108291254,-1.2685473113269343,6.741341935469464,1.6775762266577738,-0.9992580197217982,10.952655062940648,4.365330368414157,3.648471354265911,3.9312791259765625,0.9332052091272862,-1.2631300019054876,2.0833829554115857,2.066821586794969,11.714284012957316,1.4127405678353655,0.4456682903010671,8.600002381859756,-12.426236780678352,4.142942040598292,-8.077855502136753,1.4277922309172282,-16.421085825232456,-3.299349088411588,-3.4425586432797965,27.58939108036062,33.55578518585078,37.341689879294336,1577399453.0,-27.68889714263901,-51.12809275397109,7.1030025
44770,1577399453.1,0.959899680235327,0.3463417084484557,9.627552036787824,1.2119040037573838,-0.1672729428175021,7.752804544141816,2.1830155551817363,1.6050202373225515,10.71884083251953,6.762062631002286,-5.794990353467988,2.6937345179115857,-0.9849362257050304,-7.176096846417682,3.7778528725228657,10.775868485613568,17.053371522484756,-1.5772377572408538,3.085169604700852,-6.441834134615385,0.8266165547415459,-12.106736712806422,-3.849240603146853,6.144602242709213,27.61335250247102,33.29220954263636,37.36565130140474,1577399453.0,-27.68889714263901,-51.12809275397109,7.1030025
44771,1577399453.11,0.3996564917587645,3.384583615186737,11.875707395674542,-0.5514255189476936,-0.2211424801710169,13.512056637647678,-2.2929444484803727,-7.350491072491901,14.520833068847656,12.072121224752289,3.2687303496570124,1.9918302210365848,-0.9849362257050304,10.249440262957316,-0.4183141196646341,-7.580454756573933,3.473049256859756,-7.360318811928353,3.790351228632481,-6.441834134615385,2.028967907092904,-3.2725932921245406,-2.5661604020979016,-2.852579511834319,27.852966723575044,33.31617096474676,37.38961272351514,1577399453.0,-27.68889714263901,-51.12809275397109,7.1030025
44772,1577399453.12,1.4531052222275145,-4.415725393602324,7.721767515303448,1.744613873142149,-2.952926574409299,6.604784848096894,3.405255502691501,6.792058134051067,12.531251489257812,-0.1959451814977134,-4.452216915967988,3.4261563929115857,-2.8159909132050305,3.932301591082317,3.3963831459603657,5.816762040301067,-11.419528868140244,-1.5009438119283538,3.085169604700852,-7.259844818376068,0.8266165547415459,-3.2725932921245406,-4.032537774725275,-2.852579511834319,27.517506814029414,33.22032527630515,37.38961272351514,1577399453.0,-27.68889714263901,-51.12809275397109,7.1030025
44773,1577399453.13,1.900820932676733,-2.1687671355456843,10.947954252363994,3.949673602146055,-2.1891762448194543,10.196087338331273,-0.2578730373475602,3.059497745867473,13.120225097656247,0.185524545064788,9.784233279344512,2.1291593225990857,5.728930961794969,-8.640940596417684,5.776754239710366,-2.545054365948933,-18.194431211890244,11.133333531821648,2.908874198717946,-7.873352831196582,2.179261826136821,-3.2725932921245406,-4.032537774725275,-4.032537774725275,27.70919819091263,33.36409380896756,37.58130410039836,1577399453.0,-27.68889714263901,-51.12809275397109,7.1030025
44774,1577399453.14,-0.977009462831078,-1.5690196196765431,8.102445579268291,-0.6376167787133197,-1.296139025581174,12.748306308057831,-0.4853221950624048,-1.187815999249714,9.514557397460935,-1.4166483064977131,4.916679568407012,4.067025533536586,1.2123293992949693,-1.8355206745426829,1.8399866615853655,-3.002818037823933,-20.452731993140244,9.073397008384148,2.908874198717946,-7.873352831196582,2.179261826136821,-3.067148096294731,3.48264625999001,-3.8850429918639056,27.61335250247102,33.36409380896757,37.50941983406716,1577399453.0,-27.68889714263901,-51.12809275397109,7.1030025
44775,1577399453.15,-1.082354335877953,1.921726400831268,13.094356040694072,-2.191453656154725,0.171506592094607,11.599089511182834,4.925573556890719,10.974728434344035,4.927267016601562,4.045998177877286,-3.475654415967988,2.2359708460365857,2.707690727419969,-5.802805830792683,5.410543302210366,7.739369462176067,11.804348084984756,9.332796422446648,3.614055822649576,-8.282358173076922,0.9769104737854758,-3.2725932921245406,-1.099783029470529,-4.032537774725275,27.565429658250217,33.17240243208434,37.341689879294336,1577399453.0,-27.68889714263901,-51.12809275397109,7.1030025
44776,1577399453.16,1.1586184180282957,2.357471102979705,10.877325303389386,1.1771880796851175,-0.7670204586866419,9.501768856885956,-1.902689577874904,-5.624271675519245,8.0062103515625,3.4661641935022867,-9.670722775342988,1.0763028772865857,-1.8394284132050305,9.242360184832316,-0.4793492759146341,4.840199540301067,13.543850038109756,14.703890172446648,4.319237446581198,-5.41932077991453,1.8786739880489869,-1.834476921315863,0.549891514735265,-3.000074294695689,27.61335250247102,33.31617096474676,37.38961272351514,1577399453.0,-27.68889714263901,-51.12809275397109,7.1030025
44777,1577399453.17,1.315438626768531,-1.9903991118640432,6.261304502608136,1.1364866514624616,-0.6449161740186732,2.297616061475799,-1.9098721828553729,-12.770963631085651,7.151480358886718,3.527199349752287,4.580986209032012,2.8005460413490857,-3.0906491163300305,-0.4011945026676829,2.3893030678353657,1.6968889934260671,17.022853944359756,-10.991910608803352,3.173317307692308,-7.157593482905982,-6.251943407420413e-15,-9.025058775359255,-0.3665943431568428,-34.71145260989011,27.58939108036062,33.50786234162997,37.341689879294336,1577399453.0,-27.68889714263901,-51.12809275397109,7.1030025
44778,1577399453.18,1.709284799864233,-0.513176687547637,9.558120188643294,1.065857702487852,0.7604802004930445,12.429877487257052,1.56770572852158,3.691566984148723,9.652223992919922,5.785500131002286,-4.421699337842988,2.1444181116615857,-2.6481442335175305,0.3464861613948171,4.571309903772866,6.335560868426068,20.97488031154726,-2.9200111947408525,2.556283386752135,-7.464347489316239,0.0751469595219524,-9.025058775359255,-1.099783029470529,-1.0826421174978862,27.565429658250217,33.17240243208434,37.48545841195676,1577399453.0,-27.68889714263901,-51.12809275397109,7.1030025
44779,1577399453.19,-1.0392587059951406,0.8395472504406432,12.41919117253001,0.7605969908179303,-1.2530433956983609,8.493809957960174,-0.0016934597108415,-6.268311922101276,13.251906188964844,-1.813376822122713,0.2169725371570121,2.8158048304115857,0.8156008836699695,2.833668778582317,1.0770472084603655,-5.779917647198933,-1.1351050400152438,-8.214810999428353,3.085169604700852,-8.486860844017095,0.526028716653711,-2.0399221171456747,-4.032537774725275,3.637190934065935,27.70919819091263,33.22032527630515,37.341689879294336,1577399453.0,-27.68889714263901,-51.12809275397109,7.1030025
44780,1577399453.2,-0.5843603905654532,0.4564749848156432,12.251597056319072,0.8348172422827741,-3.517958166206174,11.572753292921115,1.5617202243711883,10.606021378679973,14.784195251464842,-5.017722525247714,5.649101443407012,2.6021817835365857,0.0221438524199695,-0.0044659870426829,4.433980802210366,0.4151507121760671,-11.694187071265244,-0.4633461556783537,2.556283386752135,-8.282358173076922,0.3757347976097936,-3.2725932921245406,-0.7331886863136862,1.867253539729502,27.565429658250217,33.31617096474676,37.341689879294336,1577399453.0,-27.68889714263901,-51.12809275397109,7.1030025
44781,1577399453.21,-0.4131749718642817,-1.1248952117175592,8.40411498844798,0.7641882933081651,-0.9944696164014856,11.31298241279416,-0.4637743801209977,-6.88481884959151,12.230779180908202,-1.8744119783727136,0.6289598418445121,2.2359708460365857,0.2815432664824696,-4.215891768292684,2.3587854897103657,-4.788096358136433,-11.450046446265244,-2.1570717416158534,2.556283386752135,-6.6463368055555545,0.5260287166537172,-1.2181413338264298,-3.665943431568431,-0.3451682031910392,27.61335250247102,33.38805523107796,37.55734267828796,1577399453.0,-27.68889714263901,-51.12809275397109,7.1030025
44782,1577399453.22,-0.2515663598037344,2.2593088349132997,10.86774849674876,0.5116000181616803,0.1164399539110133,14.09145343940549,-0.5188410183045915,15.571595621844034,6.945579016113281,-1.2945779939977131,-2.377021603467988,1.3814786585365857,1.2123293992949695,2.223317216082317,2.4503382240853657,1.8799944621760671,-1.2876929306402438,7.867952672446647,2.7325787927350405,-6.0328287927350415,1.7283800690050692,-0.6018057463369949,-3.849240603146853,-1.525126466081995,27.565429658250217,33.36409380896756,37.341689879294336,1577399453.0,-27.68889714263901,-51.12809275397109,7.1030025
44783,1577399453.23,1.199319846250952,-2.438114822313262,10.67621236393626,0.6121564878882428,-2.81166867646008,6.889694845655487,3.56566701392197,-2.504626912335651,3.5697546752929687,0.7195821622522866,-13.760078244092988,1.2899259241615857,0.3578372117949695,2.925221512957317,-1.3338414634146345,8.258168290301068,19.37270745998476,30.542513219321645,3.43776041666667,-8.895866185897434,1.7283800690050692,-3.2725932921245406,-4.032537774725275,-1.3776316832206257,27.61335250247102,33.12447958786354,37.62922694461916,1577399453.0,-27.68889714263901,-51.12809275397109,7.1030025
44784,1577399453.24,0.5026071631454838,-0.5107824858874808,8.932036454512433,1.9553036192358988,0.5952802859422632,4.998275534132049,-10.385346059808498,-16.951239729718463,6.414066247558593,-2.881492056497714,5.633842654344512,2.0833829554115857,0.4799075242949695,-5.131419112042683,2.2061975990853657,-6.542857100323933,30.29800042873476,15.283724156821648,3.790351228632481,-7.055342147435899,0.3757347976097904,-3.2725932921245406,-3.665943431568431,-3.737548209002536,27.733159613023037,33.41201665318837,37.38961272351514,1577399453.0,-27.68889714263901,-51.12809275397109,7.1030025
44785,1577399453.25,1.9151861426376704,-3.819569180223418,4.839148716475323,-0.5418487123070691,-1.1836115475538294,5.168263852003143,-1.8560026455018583,-1.4643462909977607,11.863269226074218,4.015480599752286,-1.064765744092988,2.2054532679115857,-2.053051460080031,1.9486590129573167,1.6111048256478655,5.435292313738567,29.87075433498476,3.732820836509146,2.7325787927350405,-6.850839476495726,0.2254408785658761,-3.2725932921245406,-2.1995660589410586,-4.032537774725275,27.565429658250217,33.148441009973936,37.48545841195675,1577399453.0,-27.68889714263901,-51.12809275397109,7.1030025
