,timestamp,acc_x_dashboard,acc_y_dashboard,acc_z_dashboard,acc_x_above_suspension,acc_y_above_suspension,acc_z_above_suspension,acc_x_below_suspension,acc_y_below_suspension,acc_z_below_suspension,gyro_x_dashboard,gyro_y_dashboard,gyro_z_dashboard,gyro_x_above_suspension,gyro_y_above_suspension,gyro_z_above_suspension,gyro_x_below_suspension,gyro_y_below_suspension,gyro_z_below_suspension,mag_x_dashboard,mag_y_dashboard,mag_z_dashboard,mag_x_above_suspension,mag_y_above_suspension,mag_z_above_suspension,temp_dashboard,temp_above_suspension,temp_below_suspension,timestamp_gps,latitude,longitude,speed
40856,1577397466.29,0.2860779008074496,2.089028541229992,11.650010092832984,-2.8141212732826792,-3.1176009324980933,9.23005616603944,0.4072423014322912,3.552197196451823,4.472596720377603,2.7998017101753048,-1.475264386432927,-1.7134503620426829,3.785854432641006,-2.248624475990854,-1.7828592439977131,8.096785772414435,-26.64584205264137,-22.03532627650669,-0.3457364686167981,13.743486149267396,2.593136870845201,-6.559145744302,24.152884750280595,-44.78111639870406,31.20756581903136,38.0605325426064,36.86246143708629,1577397465.999,-27.71811426607,-51.11568054566485,5.5412674
40857,1577397466.3,3.1256010697527628,1.5072375378120229,2.7124552954697028,4.21525480093607,6.775240327267531,10.197313636742567,7.673644340006509,-11.904768721516923,-0.6581774373372389,-0.3129912585746951,-4.038740948932927,-1.3472394245426829,5.922084901391006,3.397127477134146,-2.9120096346227133,7.486434209914434,-41.35531470889137,-13.063158307756696,-0.3457364686167981,13.743486149267396,2.593136870845201,-9.693700425731672,24.152884750280595,-43.60568036229241,31.20756581903136,37.772995477281576,37.0062299697487,1577397465.999,-27.71811426607,-51.11568054566485,5.5412674
40858,1577397466.31,2.827522963063309,-0.5888860156547733,6.079899930479468,2.4052383458579456,-4.053733781619187,3.527067811547255,5.054387723795573,-5.646325581868489,7.338456107584635,4.630856397675305,-1.048018292682927,-1.2099103229801829,7.112270448266006,1.9933188833841464,1.2383809903772869,8.615584600539435,-60.52035377139137,-1.9547598702566964,0.1975636963524572,13.583678170787543,3.002579534662865,-10.08551976091039,-49.96191927285677,-2.318489583333339,31.15964297481056,37.725072633060776,37.0062299697487,1577397465.999,-27.71811426607,-51.11568054566485,5.5412674
40859,1577397466.32,2.6850679642840127,2.440976185272961,3.560002683165015,1.9551284337485704,2.7122801099823746,2.7764855910882704,1.3577403605143226,-3.94763950398763,6.699204264322916,5.637936475800305,-4.191328839557927,-1.4387921589176829,3.816372010766008,-9.496549280678352,-5.490744986185213,3.610701788039434,-46.08553931826637,9.748731340680804,0.2469546204405714,13.743486149267396,3.684983974358964,-10.216126205969957,-50.327016829621,-2.4654190878847912,31.39925719591458,37.91676400994399,36.93434570341749,1577397465.999,-27.71811426607,-51.11568054566485,5.5412674
40860,1577397466.33,0.6092951249285434,2.3140834972846798,8.36995381841892,-0.5994847376381478,5.860655293087843,15.043177796898815,4.1086780680338535,10.686918143717447,12.938493790690105,7.957272413300305,-6.052901105182927,-1.6218976276676829,5.800014588891006,-4.873136194740853,-4.987204947122713,6.906600225539434,-23.50253150576637,11.595044817243304,-0.2469546204405695,17.25926167582417,1.774251543209873,-9.171274645493394,-50.327016829621,-7.167163233531377,31.30341150747297,37.86884116572318,36.910384281307095,1577397465.999,-27.71811426607,-51.11568054566485,5.5412674
40861,1577397466.34,1.3395266312761995,6.415350941132336,10.931749594786108,0.2552452550376334,2.7122801099823737,4.3602499892816295,1.829398087565104,14.615803068033854,14.46599444986979,11.588864210175306,-13.132979230182928,-2.384837080792683,1.1918602920160062,-0.1123940072408536,-4.346335806497713,2.3594810849144343,-6.473722912016369,-0.4899161202566964,-0.2469546204405695,17.25926167582417,1.774251543209873,-5.514294183825433,25.61327497733748,-6.579445215325552,31.20756581903136,37.91676400994399,37.0062299697487,1577397465.999,-27.71811426607,-51.11568054566485,5.5412674
40862,1577397466.35,3.171090901295732,-2.617971922637195,8.22390751714939,1.6941604527915393,-3.2444936204863755,15.091061830101944,0.4180162089029949,-5.43563583577474,9.76737369181315,2.876095655487805,-5.732466534870428,-1.4998273151676829,4.564052674828506,-2.0197426400533534,-1.0809549471227131,3.2139732724144343,-7.068815685453869,-11.476244245256696,0.1481727722643429,15.021949977106225,2.866098646723642,-6.62444896683178,-10.713931920702755,-2.832742849263427,31.23152724114176,37.94072543205439,36.958307125527895,1577397465.999,-27.71811426607,-51.11568054566485,5.5412674
40863,1577397466.36,4.3610091263933874,-6.163784581328601,4.625422421934546,3.966257828279821,-1.3530743089629376,8.442363819848037,1.7791198527018224,1.5075489786783849,9.826031632486975,-3.1816436023246952,0.8745891291920732,-0.7674054401676829,2.778774354516006,1.7186606802591464,-3.919089712747713,7.486434209914434,-25.24203345889137,-9.492601667131696,-0.3457364686167981,13.743486149267396,0.9553662155745456,-7.865210194897692,21.2321042961668,-6.873304224428462,31.111720130589752,37.91676400994399,37.10207565819032,1577397465.999,-27.71811426607,-51.11568054566485,5.5412674
40864,1577397466.37,4.207780220143388,3.6093465954292094,7.103421140196265,5.544036722322789,6.9643822584198745,9.53651397853944,-1.0053366780598951,-14.550361555989582,6.3783812418619785,10.459713819550306,-1.688887433307927,-1.9881085651676829,-0.9748877548589938,-1.6993080697408536,-3.5833963533727133,3.5191490536644343,-6.656828380766369,5.461011614118304,0.1481727722643429,15.341565934065931,2.866098646723648,-8.126423085016839,-50.327016829621,-6.285586206222642,30.92002875370653,37.725072633060776,36.910384281307095,1577397465.999,-27.71811426607,-51.11568054566485,5.5412674
40865,1577397466.38,1.344315034596512,5.100934229706555,9.456921372129855,3.0851916173423204,2.3938512891815926,12.593909498558974,-2.353272212727864,3.94963467203776,8.456548282877604,20.835690382050306,-1.017500714557927,-0.8894757526676829,6.685024354516006,-2.706388147865854,-4.834617056497713,3.4275963192894343,-6.504240490141369,16.477857317243302,0.1481727722643429,13.42387019230769,5.595716405508078,-10.477339096089098,-48.8666266025641,-5.697868188016817,31.20756581903136,37.62922694461916,37.0062299697487,1577397465.999,-27.71811426607,-51.11568054566485,5.5412674
40866,1577397466.39,1.1623557084246372,4.114523145722179,10.677964218809546,-2.124591195157679,1.0626751661347176,6.6107995498285055,4.874822599283854,12.729172159830728,12.500354886881508,15.678219678925306,-26.74381907393293,-0.9810284870426828,6.562954042016006,6.754061070884147,-1.1725076814977131,4.221053350539434,3.719148181733631,5.705152239118304,0.3457364686167981,14.063102106227102,3.412022198480529,-10.477339096089098,-48.8666266025641,-5.697868188016817,31.25548866325217,37.725072633060776,36.910384281307095,1577397465.999,-27.71811426607,-51.11568054566485,5.5412674
40867,1577397466.4,1.3024165055437775,-3.2668005725395384,11.191520474913062,4.502559000154821,-6.718480229373093,7.6427004653558495,7.678432743326822,-0.2833138631184893,10.070240201822916,-1.0759307116996952,5.345414324504572,-1.1488751667301829,1.4665184951410062,12.613436070884148,-0.8978494783727133,2.6036217099144343,8.205232166108631,-2.0768301827566966,0.3457364686167981,14.382718063186813,2.047213319088314,-10.73855198620824,-50.327016829621,-5.991727197119726,31.375295773804176,37.86884116572318,37.0062299697487,1577397465.999,-27.71811426607,-51.11568054566485,5.5412674
40868,1577397466.41,0.4369126053972934,-2.7616240222465693,9.765773386290014,2.578817966219274,1.1955533582733897,5.818318800316787,4.976576169840494,5.800352555338541,7.196001108805338,4.478268507050305,-5.381514386432927,0.1176043254573171,5.021816346703506,-6.963590296303354,-4.163230337747713,5.365462530226934,7.457551502046131,-15.657152448381694,-1.2347731022028483,15.341565934065931,3.9579457502374105,-7.473390859718984,-50.327016829621,-1.2899830514731432,31.20756581903136,37.79695689939198,37.0062299697487,1577397465.999,-27.71811426607,-51.11568054566485,5.5412674
40869,1577397466.42,3.424876277272294,2.3380255138862416,5.6166219092392335,2.6925425450766958,-2.9931024461699685,13.446245289574598,-7.235049397786458,-14.617399202473957,1.7479952311197913,5.760006788300305,-1.933028058307927,-3.452952315167683,3.389125917016006,0.4369223990091463,-3.766501822122713,6.937117803664434,-8.121672130766369,-5.769457135881696,-0.0493909240881123,14.70233402014652,2.3201750949667663,-10.216126205969957,-49.59682171609254,-7.167163233531377,31.063797286368946,37.725072633060776,37.0062299697487,1577397465.999,-27.71811426607,-51.11568054566485,5.5412674
40870,1577397466.43,2.706615779225419,4.176772388886241,7.831258444883763,-1.3129568323647105,5.104087568478468,4.939646791039443,0.5221639811197912,-1.0494583943684892,3.974602775065103,13.908200147675306,-9.440352277057928,-1.9270734089176829,3.907924745141006,-10.061124475990852,-4.834617056497713,7.303328741164434,-27.56136939639137,8.299146379743304,-0.1481727722643409,13.104254235347984,3.139060422602083,-10.216126205969957,-49.59682171609254,-7.167163233531377,31.20756581903136,37.91676400994399,36.86246143708629,1577397465.999,-27.71811426607,-51.11568054566485,5.5412674
40871,1577397466.44,2.3474855302019813,0.3352758251655391,3.82456196661228,3.5161479161704454,-2.332302787966844,7.123158705101943,-1.577550874837239,7.464322709147135,6.519639139811198,-1.3048125476371948,-0.2393024723704269,-0.7979230182926829,4.213100526391006,3.275057164634146,-2.3626932283727133,2.5731041317894343,-30.15536353701637,2.4702889578683034,-0.0493909240881133,13.104254235347984,2.5931368708452016,-10.216126205969957,-49.59682171609254,-7.167163233531377,31.27945008536257,37.725072633060776,37.0062299697487,1577397465.999,-27.71811426607,-51.11568054566485,5.5412674
40872,1577397466.45,5.325872395436356,1.385133253144054,6.878366184141577,1.4020678502524768,-2.288010057253954,8.582424616967177,2.2423978739420565,-6.637525069173176,13.057006772867837,4.539303663300305,-0.9259479801829268,0.1176043254573171,0.8256493545160062,2.3290122427591475,-0.5774149080602132,2.2984459286644343,-11.82955787295387,6.758008684430804,-0.0493909240881123,14.70233402014652,2.3201750949667663,-10.216126205969957,-49.961919272856775,-7.167163233531377,31.20756581903136,37.84487974361278,36.910384281307095,1577397465.999,-27.71811426607,-51.11568054566485,5.5412674
40873,1577397466.46,3.175879304616044,1.5718809826362417,14.987527207090796,5.235184708162633,3.53827968273628,16.84840584865663,1.8748879191080725,9.633469413248696,16.448393424479164,7.407956007050305,-24.60758860518293,-2.567942549542683,-2.622836973608994,-1.7908608041158536,0.6280294278772867,2.3289635067894343,20.22915794735863,-1.7106192452566964,0.2469546204405714,15.021949977106228,2.04721331908832,-10.477339096089098,-50.327016829621,-4.816291160708081,31.25548866325217,37.725072633060776,36.910384281307095,1577397465.999,-27.71811426607,-51.11568054566485,5.5412674
40874,1577397466.47,2.536627461354325,-0.0585703479301635,9.217501206114232,4.550443033357945,1.3811039869354989,12.919520924340224,3.4646378214518223,5.826688773600259,11.50436699625651,-0.8928252429496951,3.4075481135670733,-2.171214033917683,4.213100526391006,-0.5091225228658537,-4.254783072122713,0.9556724911644344,28.28579857235863,-8.485521589006696,-0.3457364686167981,13.104254235347984,1.5012897673314385,-10.216126205969957,-49.59682171609254,-37.14078216202836,31.20756581903136,37.725072633060776,37.0062299697487,1577397465.999,-27.71811426607,-51.11568054566485,5.5412674
40875,1577397466.48,0.3531155472918252,-0.824714879180164,13.679095999815406,2.603957083650914,-2.712980851931688,8.758398438988662,1.4822388468424474,0.877873942057291,10.218680704752602,3.1965302258003048,16.926835222942074,-0.7368878620426829,5.891567323266006,11.148592320884148,-3.5528787752477133,2.2374107724144343,23.49453880673363,-11.598314557756696,0.2469546204405705,13.423870192307689,1.5012897673314385,-5.775507073944574,-50.327016829621,-37.72850018023418,31.25548866325217,37.86884116572318,36.86246143708629,1577397465.999,-27.71811426607,-51.11568054566485,5.5412674
40876,1577397466.49,1.6818974686785433,0.3316845226753042,13.33073965826267,0.7328884862388052,0.6891797071503432,11.220834846459365,2.6530034586588536,-6.831455403645832,6.92066791788737,-0.4960967273246951,1.607011004192073,-1.1336163776676829,-5.125278379858994,2.390047399009146,-2.1490701814977133,1.9322349911644343,-1.8045334588913688,-4.014696393694196,0.4445183167930267,12.46502232142857,2.04721331908832,-6.559145744302,20.501909182638357,-36.55306414382253,31.20756581903136,37.772995477281576,36.910384281307095,1577397465.999,-27.71811426607,-51.11568054566485,5.5412674
40877,1577397466.5,0.4608546219988559,2.388303748749523,11.808027402403296,2.4028441441977897,2.149642719845655,10.594751112328504,1.867705314127604,-5.924052974446615,4.652161844889322,3.2575653820503048,-0.3461139958079268,-1.3472394245426829,6.562954042016006,1.0472739615091464,1.0552755216272869,0.6199791317894345,-22.43441627139137,8.817945207868304,-0.0493909240881123,15.341565934065931,3.412022198480529,-6.428539299242429,20.86700673940258,-7.020233728979919,31.25548866325217,37.91676400994399,36.910384281307095,1577397465.999,-27.71811426607,-51.11568054566485,5.5412674
40878,1577397466.51,0.0179273148699496,0.683632166718273,8.755420285704078,-0.745531038907679,-4.635524785037156,0.1057536391839737,3.6705391642252594,7.765992118326822,11.671961112467446,-3.1206084460746952,-3.0011432926829267,-1.6829327839176829,3.541713807641006,-2.401212366615854,-1.7828592439977131,2.6341392880394343,-22.19027564639137,0.6087166922433036,0.1481727722643429,13.42387019230769,0.1364808879392175,-10.607945541148668,25.97837253410171,3.264831589621988,31.111720130589752,37.91676400994399,37.0062299697487,1577397465.999,-27.71811426607,-51.11568054566485,5.5412674
40879,1577397466.52,2.1870740189715123,2.911436811493664,6.963360343077125,2.2160964147056017,3.5789811109589365,8.067671260033583,1.4128069986979166,-3.357468794759115,8.512812021891275,-5.073733446074695,-6.022383527057928,-1.6524152057926829,-9.107822325171494,0.1927817740091463,-1.965964712747713,-1.7451331728980657,8.327302478608631,-0.6577627999441962,0.0493909240881152,14.70233402014652,1.5012897673314327,-9.367184313082747,-8.888444136881626,-4.155108390226532,31.32737292958337,37.91676400994399,36.910384281307095,1577397465.999,-27.71811426607,-51.11568054566485,5.5412674
40880,1577397466.53,3.2022155228777627,1.634130225800304,7.03638349371189,1.4260098668540395,-2.3394853929473127,5.760857960473037,4.922706632486979,6.849012882486979,11.70069153238932,5.241207960175305,-12.095381573932928,-1.5608624714176829,-2.744907286108994,0.0096763052591463,2.2149434903772867,-6.215958368210566,34.69448997860863,4.484449114118304,0.5433001649692554,16.620029761904764,1.774251543209873,-10.477339096089098,25.61327497733748,-3.934714133399346,31.30341150747297,37.58130410039836,36.86246143708629,1577397465.999,-27.71811426607,-51.11568054566485,5.5412674
40881,1577397466.54,4.751263996998857,-0.6307845447075072,3.4355041968368902,0.4874828160727896,-2.847056144900437,11.602710011254286,5.08790654703776,3.542620389811198,10.491619694010415,-6.477542039824695,-15.086104230182928,-1.0420636432926829,-5.705112364233994,-2.431729944740854,2.9778829435022867,-6.734757196335566,44.30752708798363,-10.102953229631696,-0.3457364686167981,13.743486149267396,2.04721331908832,-6.297932854182853,16.850933614996126,-4.816291160708081,31.20756581903136,37.91676400994399,37.0062299697487,1577397465.999,-27.71811426607,-51.11568054566485,5.5412674
40882,1577397466.55,2.256505867116043,-3.283559984160632,12.43051983404392,4.871266055818883,1.697138606076124,12.704042774926162,-0.5767745808919265,-5.596047347005208,6.787789725748698,-0.4045439929496951,9.297440691692072,-1.8660382526676829,-5.766147520483994,12.033602086509148,-0.7147440096227133,-6.002335321335566,34.72500755673363,-9.889330182756696,-0.3457364686167981,14.382718063186816,2.04721331908832,-5.514294183825433,13.930153160882334,3.705620103276356,31.30341150747297,37.91676400994399,37.05415281396951,1577397465.999,-27.71811426607,-51.11568054566485,5.5412674
40883,1577397466.56,-1.1001648604230183,3.460906092499523,13.744936545469702,1.4367837743247425,2.272944105343702,12.572361683617569,0.2731670084635418,2.5574064066569004,8.597806180826822,0.3889130383003048,19.41401784012957,-3.315623213605183,-4.743808653296494,-4.110196741615853,-2.9730447908727133,-5.376724969773066,12.66079857235863,-5.403246198381696,-0.2963455445286838,15.181757955586082,2.456655982905984,-6.493842521772208,14.842897052792896,2.456719314588979,31.423218618024983,37.91676400994399,36.958307125527895,1577397465.999,-27.71811426607,-51.11568054566485,5.5412674
40884,1577397466.57,1.195874531666825,5.105722633026867,15.55974140386814,0.5688856725181022,7.565326875119092,10.712066993676162,-0.4067862630208327,-2.699063338216145,10.472466080729165,-3.2121611804496952,-3.0621784489329267,-3.575022627667683,-5.644077207983994,-4.384854944740853,-2.7289041658727133,-6.215958368210566,-10.746183849516369,8.726392473493304,0.0493909240881142,14.382718063186816,4.230907526115857,-10.216126205969957,19.77171406910991,-7.167163233531377,31.20756581903136,37.772995477281576,36.86246143708629,1577397465.999,-27.71811426607,-51.11568054566485,5.5412674
40885,1577397466.58,-0.8344084761456744,6.760115980194835,15.83986299810642,2.8768960729087265,0.2103393751190926,13.941845033226942,0.7352479288736975,9.240820340983072,13.620841263834633,-10.994143602324694,-4.740645245807927,-3.422434737042683,-7.108920957983994,3.000398961509146,3.740822396627287,-5.453018915085566,-7.419767833891369,7.292066301618304,-0.642082013145482,14.70233402014652,4.503869301994293,-10.216126205969957,15.390543387939228,-7.167163233531377,31.20756581903136,37.772995477281576,37.05415281396951,1577397465.999,-27.71811426607,-51.11568054566485,5.5412674
40886,1577397466.59,4.5190264359637,-5.723251475859851,8.678805832579078,0.6694421422446646,-7.71686232165825,11.138234889183972,5.403941166178385,5.7644395304361975,9.785330204264325,-21.26330864138719,-8.219649152057928,-2.796824385480183,5.037075135766006,1.9322837271341464,-0.1959451814977133,-5.636124383835566,-5.069914318266369,-10.621752057756696,-0.5433001649692534,16.939645718864472,2.04721331908832,-10.216126205969957,18.31132384205301,-7.167163233531377,31.11172013058975,37.772995477281576,37.10207565819032,1577397465.999,-27.71811426607,-51.11568054566485,5.5412674
40887,1577397466.6,4.016244087330888,-1.3083436145317258,12.899783359434544,5.764303275057164,3.150419013790968,12.69326886745546,0.5485001993815103,-0.564632558186849,11.15840485636393,-2.6323271960746952,11.311600847942072,-2.964671065167683,-11.060947325171494,1.1846030630716462,-2.0575174471227133,-1.6078040713355657,-4.703703380766369,-9.614671979631696,-0.3457364686167981,15.66118189102564,3.684983974358964,-9.889610093321032,-17.28568794245877,-5.918262444844,31.20756581903136,37.772995477281576,37.0062299697487,1577397465.999,-27.71811426607,-51.11568054566485,5.5412674
40888,1577397466.61,1.4520541093035433,5.412180445526867,11.83675782232517,3.001394559236852,1.27815331554878,6.289976527367568,4.228388151041666,-10.501766548665364,10.544292130533853,12.565426710175306,5.238602801067073,-5.253489424542683,5.098110292016006,10.568758336509148,-1.2030252596227131,-5.300431024460566,2.345857166108631,-1.9852774483816964,-0.2469546204405695,11.506174450549446,2.3201750949667663,-9.040668200433824,15.755640944703456,-7.020233728979919,31.30341150747297,37.86884116572318,36.71869290442388,1577397465.999,-27.71811426607,-51.11568054566485,5.5412674
40889,1577397466.62,1.957230659596512,-1.246094371367663,9.406643137266576,1.6558532262290395,-7.5827870286895,-1.0243095444097752,3.349716141764322,-9.38128017171224,11.564222037760414,3.3491181164253048,-5.320479230182927,-3.727610518292683,2.168422792016006,0.2538169302591463,-0.9894022127477132,-7.589249383835566,11.745271228608631,7.505689348493304,-0.5433001649692534,12.46502232142857,2.04721331908832,-7.081571524540277,27.073665204394377,-42.13638531677784,31.01587444214814,37.91676400994399,37.05415281396951,1577397465.999,-27.71811426607,-51.11568054566485,5.5412674
40890,1577397466.63,-1.4413385969952834,-0.5840976123344608,10.69352652960056,-1.2674670008217417,-2.595664970584031,7.120764503441786,6.186845109049479,7.332641617838541,6.818914347330729,-8.812136766387194,1.469681902629573,-4.215891768292683,-14.555210020483994,-5.391935022865853,-2.1490701814977133,-4.934220086960566,9.090241931733631,5.552564348493304,-0.4445183167930248,13.42387019230769,2.866098646723648,-10.607945541148668,23.057592079987923,-39.93244274850602,31.15964297481056,37.58130410039836,37.10207565819032,1577397465.999,-27.71811426607,-51.11568054566485,5.5412674
40891,1577397466.64,-1.3060662031964554,2.6516659313667104,7.740278781797827,0.6502885289634145,3.901001234249952,12.11866046901796,-1.21961772664388,6.5353724650065095,6.714766575113932,-9.712405321074694,-10.233809308307928,-3.452952315167683,-6.666416075171494,-6.307462366615853,-3.537619986185213,-4.323868524460566,-3.5287766229538686,-13.704027448381696,-0.4445183167930248,15.341565934065931,2.3201750949667663,-10.216126205969957,-50.327016829621,-23.18247922964005,31.20756581903136,37.82091832150238,36.910384281307095,1577397465.999,-27.71811426607,-51.11568054566485,5.5412674
40892,1577397466.65,-1.3467676314191117,7.701037232636242,13.21581797857517,-2.019246322110804,5.659542353634718,4.728957044945693,-1.1442003743489575,-7.872933125813802,6.854827372233072,-6.080813524199695,-5.350996808307927,-3.727610518292683,-9.092563536108994,-3.499845179115854,-6.207908072122713,-5.239395868210566,-25.11996314639137,-3.2059805733816966,-1.3335549503790771,13.743486149267396,3.139060422602083,-6.559145744302,-50.327016829621,-6.579445215325552,31.20756581903136,37.58130410039836,36.910384281307095,1577397465.999,-27.71811426607,-51.11568054566485,5.5412674
40893,1577397466.66,4.598035090748857,1.4354114880073354,12.159975046446265,-1.952208675626429,-0.6156601976348126,16.96332752834413,1.39125918375651,-0.8267976399739579,8.083052823893228,-7.698245164824695,-16.642500714557926,-2.812083174542683,-9.001010801733994,-5.178311975990853,2.7642598966272867,-7.100968133835566,-31.34554908389137,2.2871834891183034,0.0493909240881142,15.021949977106228,4.230907526115857,-6.559145744302,-50.327016829621,-6.579445215325552,31.30341150747297,37.91676400994399,36.71869290442388,1577397465.999,-27.71811426607,-51.11568054566485,5.5412674
40894,1577397466.67,5.503043318287919,-5.706492064238757,5.353259726622047,3.9806230382407577,0.4066639112519057,8.588410121117567,3.877637607828776,1.8499198160807284,12.800827195231118,-14.473147508574694,-15.330244855182928,-1.2556866901676829,-1.8904150986089936,4.556795445884147,2.764259896627287,-5.590348016648066,-21.45785377139137,0.6697518484933036,0.2469546204405714,12.46502232142857,2.04721331908832,-9.43248753561254,-11.991773369377537,-6.873304224428464,31.30341150747297,37.67714978883997,36.958307125527895,1577397465.999,-27.71811426607,-51.11568054566485,5.5412674
40895,1577397466.68,1.8925872147722933,-2.422844487334461,8.002443863584936,7.583896536775914,-0.8574745653105939,13.664117640648817,2.7487715250651035,-0.1492385701497392,16.774004850260415,-4.844851610137194,11.571000262004576,-2.613718916730183,-4.362338926733994,-6.185392054115853,-3.4613260408727133,-3.0116126650855657,-8.884611583891369,-1.4359610421316964,0.0493909240881142,11.18655849358974,2.593136870845201,-6.428539299242429,28.16895787468705,1.207818525901602,31.183604396920963,37.725072633060776,37.10207565819032,1577397465.999,-27.71811426607,-51.11568054566485,5.5412674
40896,1577397466.69,2.146372590748856,1.6293418224799916,11.26214942388767,-0.6784933924233041,3.1576016187714364,10.980217579613662,1.668986576334635,-6.582458430989584,13.877020841471351,3.1049774914253048,-1.322676495807927,-4.643137862042683,-0.5781592392339938,-11.770108850990852,-6.604636587747713,-4.995255243210566,6.221589587983631,2.2566659109933034,0.0493909240881142,11.18655849358974,2.593136870845201,-5.775507073944574,-50.327016829621,-7.167163233531377,31.20756581903136,37.91676400994399,36.86246143708629,1577397465.999,-27.71811426607,-51.11568054566485,5.5412674
40897,1577397466.7,-0.7170925947980181,0.2215512463081167,11.429743540098608,-0.8173570887123666,0.3468088697479988,8.586015919457411,0.1127554972330725,9.602344791666663,8.322472989908853,-0.7097197741996951,-2.1466511051829267,-3.575022627667683,-4.362338926733994,2.939363805259146,-4.315818228372713,-2.3707435244605657,7.869538806733631,0.4866463797433036,-0.642082013145482,14.70233402014652,1.2283279914529803,-10.73855198620824,-50.327016829621,-7.167163233531377,31.39925719591458,37.725072633060776,36.910384281307095,1577397465.999,-27.71811426607,-51.11568054566485,5.5412674
40898,1577397466.71,-0.276559489329268,1.9549532482612415,7.675635336973609,-2.9841095911537727,-1.5338365343047342,7.780367060814833,1.5839924173990885,-1.3882379292805993,6.69681006266276,-2.5407744616996952,6.001542254192073,-4.063303877667683,-1.4173926376714938,-5.163053186928353,-0.5316385408727132,-3.8966224307105657,-2.4301438104538686,-7.951463971819196,0.4445183167930267,14.382718063186816,3.684983974358964,-10.673248763678457,-48.68407782418198,-6.359050958498365,31.25548866325217,37.9646868541648,37.0062299697487,1577397465.999,-27.71811426607,-51.11568054566485,5.5412674
40899,1577397466.72,1.611268519703934,-2.899290617705554,7.542757144834937,-0.1972588587318978,-9.09592247790825,13.771856715355849,-0.4331224812825514,-10.449094112141928,5.868416288248698,-12.382693407012193,-12.293745831745428,-1.2099103229801829,-3.721469786108994,0.1317466177591463,-2.5763162752477133,-4.445938836960566,-12.516203380766369,-3.9994376046316966,0.5433001649692554,11.506174450549446,2.3201750949667663,-10.607945541148668,-48.50152904579988,-7.020233728979919,31.135681552700152,37.772995477281576,36.910384281307095,1577397465.999,-27.71811426607,-51.11568054566485,5.5412674
40900,1577397466.73,3.997090474049638,3.192755506562023,10.450515061094702,-0.3169689417397103,0.6987565137909676,10.3433599380121,-0.4810065144856764,-0.6687803304036455,8.025591984049479,-2.0524932116996952,-1.933028058307927,-2.262766768292683,-3.324741270483994,-14.028409632240852,-2.8204569002477133,-3.1642005557105657,-19.84042213076637,3.629956926618304,0.5433001649692554,11.506174450549446,2.3201750949667663,-10.607945541148668,-48.50152904579988,-7.020233728979919,31.20756581903136,37.9646868541648,37.0062299697487,1577397465.999,-27.71811426607,-51.11568054566485,5.5412674
40901,1577397466.74,4.100041145436356,2.354784925507335,10.136874643614233,2.204125406404821,4.924522443966749,8.705726002465225,3.423936393229166,6.849012882486979,12.157984049479165,6.156735303925305,-11.607100323932928,-2.079661299542683,-3.843540098608994,-2.309659632240854,-0.1349100252477133,-2.1266028994605657,-13.950529552641369,4.057203020368304,0.3457364686167981,15.341565934065931,2.3201750949667663,-8.779455310314688,-48.50152904579988,-7.020233728979919,31.111720130589752,37.91676400994399,36.81453859286549,1577397465.999,-27.71811426607,-51.11568054566485,5.5412674
40902,1577397466.75,1.459236714284012,2.4625240002143665,9.734648764707982,0.9100594090903676,-1.8091697252227037,14.472160700951552,0.7316566263834637,4.672683573404948,9.481266593424476,3.9289521008003048,-2.8180378239329267,-2.262766768292683,1.1613427138910062,-2.416471155678354,-1.0199197908727131,-3.1794593447730657,-4.459562755766369,-0.3373282296316965,0.3457364686167981,12.145406364468858,-0.409442663817664,-9.040668200433826,16.85093361499612,-7.020233728979919,31.20756581903136,37.84487974361279,36.88642285919669,1577397465.999,-27.71811426607,-51.11568054566485,5.5412674
40903,1577397466.76,0.5829589066668246,-2.843026878691882,11.336369675352516,1.142296970125524,-1.5499973955107895,11.843925828515028,1.0093840189615884,2.7399642832438147,9.425601404825844,-3.2731963366996952,0.6609660823170732,-2.384837080792683,-1.1045874618902438,-2.202848108803354,-2.065146841653963,-2.1266028994605657,-13.46224830264137,-4.289354596819196,-0.642082013145482,13.42387019230769,1.774251543209873,-9.33453270181786,1.2430130633255674,-6.910036600566327,31.25548866325217,37.86884116572319,37.05415281396951,1577397465.999,-27.71811426607,-51.11568054566485,5.5412674
40904,1577397466.77,0.3710720597429965,0.0862788525092891,9.365941709043922,1.3745345311606805,-1.2908250657988751,9.215690956078506,1.287111411539713,0.8072449930826818,9.369936216227211,-7.240481492949694,-4.267622784870427,-2.491648604230183,-3.370517637671494,-1.9892250619283536,-3.110373892435213,-1.0737464541480657,-22.46493384951637,-8.241380964006696,-0.7902547854098239,13.264062213827836,2.1836942070275374,-9.628397203201892,-14.364907488344985,-6.799839472152735,31.15964297481056,37.89280258783359,37.221882768742326,1577397465.999,-27.71811426607,-51.11568054566485,5.5412674
40905,1577397466.78,0.4632488236590121,3.403445252655773,9.456921372129855,0.7460565953696646,6.459205708126905,7.374549879418349,-3.1457529622395826,-6.673438094075521,7.63533711344401,0.8771942883003049,-4.862715558307927,-2.140696455792683,-3.080600645483994,-5.788663538490853,-1.3250955721227131,-2.5233314150855657,-26.67635963076637,3.4773690359933034,-0.642082013145482,14.063102106227102,1.774251543209873,-10.607945541148668,27.438762761158607,-7.020233728979919,31.30341150747297,37.91676400994399,36.86246143708629,1577397465.999,-27.71811426607,-51.11568054566485,5.5412674
40906,1577397466.79,-0.0251683150128618,1.3157014049995228,9.356364902403294,0.9375927281821648,-2.155131865115281,10.460675819359755,-3.8233120320638014,4.895344327799479,9.847579447428384,1.7622040539253048,-4.649092511432927,-0.9199933307926828,0.8561669326410062,2.176424352134146,-1.5692361971227131,-0.8143470400855655,-20.26766822451637,8.482251848493304,-0.642082013145482,14.063102106227102,1.774251543209873,-6.428539299242429,21.597201852931025,-4.669361656156629,31.111720130589752,37.772995477281576,37.05415281396951,1577397465.999,-27.71811426607,-51.11568054566485,5.5412674
40907,1577397466.8,0.7601298295183871,-2.019421507598132,9.332422885801732,-0.3923862940346322,-2.3418795946074686,6.5186227859124894,4.67251255900065,1.654792380777995,7.286980771891274,-3.3037139148246952,-7.121016339557927,-0.7979230182926829,0.2763329482660062,-7.543424280678352,0.7958761075647868,-1.0127112978980657,-10.608854747953869,-0.1542227608816961,-0.1481727722643409,12.46502232142857,1.5012897673314385,-7.342784414659413,-50.327016829621,-4.081643637950804,31.25548866325217,37.74903405517118,37.0062299697487,1577397465.999,-27.71811426607,-51.11568054566485,5.5412674
40908,1577397466.81,0.6559820573015902,-3.2081426318657105,9.483257590391576,3.626281192537633,-1.4967264085723126,12.435892188988662,-0.9023860066731764,0.6432421793619785,15.88336183268229,-3.578372117949695,-6.510664777057927,-1.1030987995426829,-6.925815489233994,-7.314542444740853,-3.2171854158727133,1.8711998349144343,-9.525480724516369,-10.804857526506696,0.0493909240881143,14.063102106227106,2.320175094966761,-10.73855198620824,28.534055431451264,-38.90393621664583,31.20756581903136,37.86884116572318,37.0062299697487,1577397465.999,-27.71811426607,-51.11568054566485,5.5412674
40909,1577397466.82,0.3291735306902622,4.545479444550304,14.336304355528297,1.354183817049352,4.366673457150343,14.035218897973037,1.5396996866861976,-2.5147098103841143,17.14031770426432,7.499508741425305,-6.480147198932927,-3.697092940167683,-2.958530332983994,-11.861661585365852,-3.5223611971227133,1.3829185849144343,-9.983244396391369,-5.769457135881696,0.4445183167930267,13.743486149267396,1.5012897673314385,-6.559145744302,-50.327016829621,-35.377628107410885,31.30341150747297,37.725072633060776,37.0062299697487,1577397465.999,-27.71811426607,-51.11568054566485,5.5412674
40910,1577397466.83,1.1192600785418243,2.0579039196479605,10.852740940000952,-0.496534066251429,3.0642277540253424,12.234779249535537,-0.0500502156575514,4.646347355143229,13.54662101236979,3.5932587414253048,-6.541182355182927,-2.506907393292683,7.661586854516006,-2.614835413490854,-1.3861307283727131,-0.9974525088355656,-10.807219005766369,4.637037004743304,0.4445183167930267,13.743486149267396,1.5012897673314385,-6.559145744302,-50.327016829621,-35.377628107410885,31.20756581903136,37.725072633060776,36.86246143708629,1577397465.999,-27.71811426607,-51.11568054566485,5.5412674
40911,1577397466.84,0.2405880692644809,-1.0258278186332883,10.072231198790014,2.594380277010289,-1.2453352342559063,12.976981764183972,0.3617524698893225,0.983218815104166,11.68872052408854,-3.3647490710746952,-5.228926495807927,-1.9270734089176829,-0.5171240829839938,-4.506925257240853,-4.376853384622713,-1.2415931338355657,-6.046476818266369,3.5994393484933034,0.2469546204405714,16.300413804945048,0.4094426638176527,-6.559145744302,-50.327016829621,-35.377628107410885,31.30341150747297,37.91676400994399,36.57492437176146,1577397465.999,-27.71811426607,-51.11568054566485,5.5412674
40912,1577397466.85,0.2262228593035439,-3.369751243926257,10.31045426397556,1.105186844393102,-6.366532585330125,11.260339173851944,2.3537282511393225,-1.8179971272786453,12.20586808268229,-1.0911895007621952,-6.739546612995427,-0.2486066120426828,2.626186463891006,1.0472739615091464,-0.8062967439977133,1.3218834286644343,10.310945056733631,-3.9078848702566966,0.1481727722643428,14.702334020146523,0.4094426638176583,-10.73855198620824,22.692494523223694,2.2363250577617952,31.159642974810552,37.86884116572318,36.910384281307095,1577397465.999,-27.71811426607,-51.11568054566485,5.5412674
40913,1577397466.86,0.4967676469011996,5.598928175019054,12.7872558814072,0.9998419713462272,-0.7090340623809064,14.28182166896913,3.028893119303385,-0.386264534505208,10.771741288248696,14.030270460175306,-6.541182355182927,-1.8660382526676829,1.9242821670160064,-10.763028772865852,-3.3392557283727133,3.4275963192894343,-2.720060802641369,-9.217943464006696,0.4445183167930267,13.104254235347984,0.4094426638176527,-10.477339096089098,28.534055431451264,-4.816291160708081,31.25548866325217,37.91676400994399,37.05415281396951,1577397465.999,-27.71811426607,-51.11568054566485,5.5412674
40914,1577397466.87,0.6428139481707309,6.092133717011242,12.394606809141576,0.6718363439048208,8.697784260372998,7.953946681176162,-0.2679225667317702,-3.565764339192708,10.671184818522134,12.809567335175306,2.2173625666920733,-2.110178877667683,2.412563417016006,-13.082364710365852,-0.9283670564977132,3.3360435849144343,-9.922209240141369,-1.0392325265066964,-0.5433001649692534,14.382718063186816,2.593136870845201,-4.469442623348871,27.073665204394377,-3.640855124296436,31.447180040135382,37.91676400994399,36.86246143708629,1577397465.999,-27.71811426607,-51.11568054566485,5.5412674
40915,1577397466.88,2.175103010670731,-1.9595664660942256,9.358759104063452,1.7659865025962271,1.0315505445526862,7.956340882836318,1.6067373331705723,1.1508129313151034,5.12621377360026,-12.550540086699694,-24.42448313643293,-1.4693097370426829,4.609829042016006,-2.553800257240854,-2.3932108064977133,1.7491295224144343,-14.591398693266369,1.0969979422433036,0.5433001649692554,14.063102106227102,0.1364808879392175,-4.469442623348871,27.073665204394377,-3.640855124296436,31.30341150747297,37.725072633060776,36.910384281307095,1577397465.999,-27.71811426607,-51.11568054566485,5.5412674
40916,1577397466.89,5.019414582936356,-2.651490745879382,2.070809250547827,2.8254207372153672,-1.6355901048613752,11.304631904564832,1.0393115397135413,3.8538666056315103,9.03355088297526,-8.186526414824694,-10.203291730182928,-1.9575909870426829,1.0240136123285062,-9.557584436928352,-0.9741434236852132,3.1529381161644343,-11.356535412016369,0.5934579031808036,-0.3457364686167981,17.57887763278388,1.5012897673314385,-8.583545642725333,-11.444127034231194,-0.188011767337227,31.20756581903136,37.820918321502376,36.910384281307095,1577397465.999,-27.71811426607,-51.11568054566485,5.5412674
40917,1577397466.9,3.029833003346513,-0.7265526111137572,7.182429794981421,1.3422128087485707,3.839949091915968,11.430327491723036,2.466255729166666,-0.2306414265950517,13.48197756754557,5.637936475800305,-20.02995188643293,-0.7063702839176829,4.640346620141006,-7.528165491615853,-1.4166483064977131,5.350203741164434,1.827058337983631,-7.478441510881696,0.4445183167930267,15.66118189102564,3.139060422602083,-9.432487535612536,15.390543387939228,2.2363250577617952,31.01587444214814,37.725072633060776,37.0062299697487,1577397465.999,-27.71811426607,-51.11568054566485,5.5412674
40918,1577397466.91,0.4393068070574496,2.36436173214796,12.28447353277439,-1.482945150235804,-1.4225061571074689,6.9316225722894425,-0.9239338216145826,0.772529069010416,10.613723978678385,14.213375928925306,11.647294207317072,-1.4998273151676829,6.257778260766006,0.1012290396341463,-3.5223611971227133,2.2679283505394343,6.618318103608631,-2.9008047921316966,0.2469546204405714,13.104254235347984,2.593136870845201,-10.73855198620824,-50.327016829621,-5.110150169810997,31.30341150747297,37.86884116572318,36.86246143708629,1577397465.999,-27.71811426607,-51.11568054566485,5.5412674
40919,1577397466.92,-0.1448783980206743,-1.3179204211723508,10.048289182188451,3.2767277501548207,-0.6611500291777814,15.383154432641003,1.71687060953776,0.3535437784830723,7.580270475260416,13.572506788300306,10.518143816692072,-0.8589581745426829,-0.0288428329839938,-3.011563929115854,-3.0951151033727133,3.3055260067894343,-4.429045177641369,-0.2457754952566964,0.3457364686167981,14.70233402014652,2.866098646723648,-10.73855198620824,19.77171406910991,-4.2285731425022615,31.25548866325217,37.772995477281576,36.910384281307095,1577397465.999,-27.71811426607,-51.11568054566485,5.5412674
40920,1577397466.93,3.894139802662919,1.3204898083198355,10.32362237310642,5.103503616854039,-1.5063032152129376,6.261246107445693,5.830109061686198,-2.9696081258138016,4.656950248209634,-0.7707549304496951,-10.172774152057928,-0.9199933307926828,10.164028260766006,-4.964688929115853,0.8721700528772867,4.312606084914434,-19.32162330264137,-1.9242422921316964,0.642082013145482,14.382718063186816,1.5012897673314385,-10.73855198620824,-50.327016829621,-5.991727197119726,31.30341150747297,37.772995477281576,37.0062299697487,1577397465.999,-27.71811426607,-51.11568054566485,5.5412674
40921,1577397466.94,3.6140182084246377,-2.649096544219226,4.096303855040016,1.564873563143102,0.9285998731659676,2.0211149673089737,2.3920354777018225,3.3846030802408853,7.178044596354166,-7.393069383574695,-6.571699933307927,-1.7439679401676829,3.602748963891006,-7.650235804115853,-4.163230337747713,5.930037725539434,-30.73519752139137,-1.2833731515066964,0.2469546204405714,15.021949977106228,3.139060422602083,-10.73855198620824,-50.327016829621,-5.991727197119726,31.30341150747297,37.91676400994399,37.0062299697487,1577397465.999,-27.71811426607,-51.11568054566485,5.5412674
40922,1577397466.95,1.315584614674637,1.9238286266792104,8.482481296446265,3.959075223299352,3.420963801388624,8.375326173363662,0.2276771769205725,0.571416129557291,6.119807462565103,-1.1369658679496952,-6.571699933307927,-2.201731612042683,-5.247348692358994,-9.481290491615852,-5.689109243997713,4.678817022414434,-33.42074439639137,-2.2904532296316966,0.2469546204405714,15.021949977106228,3.139060422602083,-10.73855198620824,-50.327016829621,-5.991727197119726,31.20756581903136,38.0605325426064,37.0062299697487,1577397465.999,-27.71811426607,-51.11568054566485,5.5412674
40923,1577397466.96,0.6404197465105752,4.456893983124523,9.435373557188452,-3.118184884122523,1.8360023023651864,4.259693519555068,1.8102444742838537,-3.6184367757161455,7.896305094401042,11.237912061737806,-12.843062237995428,-2.339060713605183,2.778774354516006,-9.450772913490852,-3.0035623689977133,2.0237877255394343,-30.03329322451637,1.829419817243304,-0.1481727722643409,15.661181891025642,3.412022198480529,-10.73855198620824,-50.327016829621,-7.167163233531377,31.25548866325217,37.9646868541648,36.910384281307095,1577397465.999,-27.71811426607,-51.11568054566485,5.5412674
40924,1577397466.97,2.428888386647293,-0.0777239612114135,9.919002292540014,1.5421286473716174,0.2582234083222181,10.12668468776796,2.627864341227213,3.428895810953776,9.508799912516274,-3.7309600085746952,-0.4376667301829268,-1.9881085651676829,-1.1122168564214938,-3.3777748666158534,-1.7370828768102131,1.2608482724144343,-25.45565650576637,-1.6801016671316966,-0.0493909240881123,14.063102106227102,3.9579457502374105,-8.322332752606194,-49.779370494474655,-38.24275344616427,31.111720130589752,37.94072543205439,36.64680863809267,1577397465.999,-27.71811426607,-51.11568054566485,5.5412674
40925,1577397466.98,4.906887104909012,-0.6212077380668822,8.305310373594702,2.8768960729087265,-2.270053544802781,6.996266017113662,1.6426503580729162,0.0087787394205722,11.616894474283852,-2.3576689929496952,-8.738447980182928,-1.7744855182926829,5.006557557641006,-5.025724085365853,1.4214864591272869,1.3524010067894343,-16.84969947451637,-4.701341901506696,0.5433001649692554,14.70233402014652,2.866098646723648,-10.477339096089098,-48.8666266025641,0.1793119940414146,31.20756581903136,37.91676400994399,37.10207565819032,1577397465.999,-27.71811426607,-51.11568054566485,5.5412674
40926,1577397466.99,3.4081168656512,-1.4807261340629758,5.551978464415015,3.406014639803258,0.4760957593964363,9.701713893090222,-0.5767745808919265,-2.634419893391927,9.912222892252602,-2.1135283679496952,-8.158613995807928,-1.2556866901676829,1.4054833388910062,-5.056241663490853,-4.315818228372713,0.9556724911644344,-9.098234630766369,-1.3444083077566964,0.5433001649692554,14.70233402014652,2.866098646723648,-9.693700425731672,21.2321042961668,-6.873304224428462,31.20756581903136,37.86884116572318,37.05415281396951,1577397465.999,-27.71811426607,-51.11568054566485,5.5412674
40927,1577397467.0,2.758091114918778,2.9401672314155385,11.628462277891575,3.3365827916587265,4.17034892101753,10.92275673976991,1.2930969156901038,-2.253741829427083,12.526691105143229,4.966549757050305,-1.1853473942454271,-1.5913800495426829,-1.2800635361089938,-2.584317835365854,-2.4542459627477133,0.9861900692894344,2.132234119233631,-0.1237051827566964,0.0493909240881142,13.423870192307692,1.774251543209879,-9.693700425731672,21.2321042961668,-5.697868188016817,31.23152724114176,37.725072633060776,37.0062299697487,1577397466.999,-27.718118826898213,-51.11573543387505,5.3174205
40928,1577397467.01,1.8542799882097931,2.994036768769054,9.025965073301732,0.069694626375524,0.8495912183808119,9.655026960717176,2.243594974772135,4.94562256266276,11.60612056681315,3.6542938976753048,8.076737566692072,-1.3472394245426829,-0.8833350204839938,-3.026822718178354,-3.201926626810213,-0.2650306338355654,4.085359119233631,1.4784676688058034,0.3457364686167981,12.784638278388275,3.9579457502374105,-7.995816639957265,-49.23172415932832,-5.697868188016814,31.20756581903136,37.820918321502376,36.74265432653428,1577397466.999,-27.718118826898213,-51.11573543387505,5.3174205
40929,1577397467.02,2.0937001542254183,2.215921229218273,9.509593808653294,1.114763651033727,3.804036067013624,11.720025892601942,1.21887666422526,0.6767610026041659,8.530768534342448,-3.3647490710746952,-3.764082745807927,-2.476389815167683,0.7035790420160062,-1.8518959603658536,0.7195821622522867,-1.3331458682105657,8.815583728608631,-8.241380964006696,0.3457364686167981,15.980797847985349,1.2283279914529803,-6.559145744302,-50.327016829621,-5.697868188016817,31.111720130589752,37.91676400994399,36.81453859286549,1577397466.999,-27.718118826898213,-51.11573543387505,5.3174205
40930,1577397467.03,2.524656453053544,0.6429307384956168,9.456921372129855,3.1402582555259144,-4.956347807498094,3.6755083144769434,2.27232539469401,-1.4061944417317702,5.49013242594401,-5.653567430449695,-9.959151105182928,-1.9270734089176829,4.853969667016006,4.526277867759147,0.7500997403772867,-0.8143470400855655,9.792146228608631,-3.6332266671316966,0.3457364686167981,15.980797847985349,1.2283279914529803,-6.559145744302,-50.327016829621,-5.697868188016817,31.25548866325217,37.91676400994399,36.81453859286549,1577397466.999,-27.718118826898213,-51.11573543387505,5.3174205
40931,1577397467.04,3.707392073170732,-2.4551662097465696,7.70675995855564,2.418406454988805,-0.1631560838652817,8.866137513695692,1.2248621683756509,-2.099315822347005,9.0586900004069,-6.416506883574694,-0.0867145817454266,-0.6300763386051829,-4.377597715796494,-4.1407143197408525,-3.0188211580602133,-0.5549476260230656,1.994905017671131,-3.999437604631696,0.1975636963524562,15.181757955586075,2.7296177587844244,-8.518242420195548,-14.182358709962871,-6.726374719877007,31.447180040135382,37.74903405517118,36.9343457034175,1577397466.999,-27.718118826898213,-51.11573543387505,5.3174205
40932,1577397467.05,2.2876304886980745,4.533508436249523,9.753802377989231,-0.8724237268959603,5.18549042492378,13.314564198266003,0.347387259928385,-4.616818868001301,6.92665342203776,6.492428663300305,3.804276629192073,-1.4998273151676829,-1.4326514267339938,-6.276944788490853,-1.3250955721227131,-2.4317786807105657,2.345857166108631,5.705152239118304,-0.1481727722643409,13.743486149267396,0.9553662155745456,-6.559145744302,21.2321042961668,-6.579445215325552,31.39925719591458,37.91676400994399,36.86246143708629,1577397466.999,-27.718118826898213,-51.11573543387505,5.3174205
40933,1577397467.06,1.2365759598894808,4.880667676972179,12.32278075933689,1.0022361730063831,-1.6762915330840311,3.531856214867568,4.927495035807292,10.773109403483073,10.247411124674477,11.619381788300306,-9.013106183307928,-0.6453351276676829,3.053432557641006,3.885408727134146,1.2383809903772869,-3.2252357119605657,6.526765369233631,4.179273332868304,-0.0493909240881123,12.145406364468858,1.2283279914529803,-10.607945541148668,-48.50152904579988,-7.020233728979919,31.111720130589752,37.86884116572318,36.81453859286549,1577397466.999,-27.718118826898213,-51.11573543387505,5.3174205
40934,1577397467.07,3.5828935868426064,-1.7081752917778197,8.554307346250953,2.7476091832602894,-1.6762915330840311,10.4965888442621,5.43267158610026,1.2178505777994784,12.6320359781901,-2.9375029773246952,-1.536299542682927,-0.5232648151676829,-4.667514707983994,-2.431729944740854,0.4449239591272866,-4.049210321335566,11.440095447358631,-4.701341901506696,-0.0493909240881123,12.145406364468858,1.2283279914529803,-10.607945541148668,-48.50152904579988,-7.020233728979919,31.30341150747297,37.91676400994399,36.81453859286549,1577397466.999,-27.718118826898213,-51.11573543387505,5.3174205
40935,1577397467.08,1.6639409562273717,0.6357481335151485,10.730636655332985,4.313417069002477,4.31759232311714,11.51771585231874,1.1506419169108069,0.7007030192057291,11.744984263102213,-5.287356492949695,-0.3613727848704268,-1.7134503620426829,-3.629917051733994,2.573152867759146,-0.3943094393102132,-3.4998939150855657,20.44278099423363,-2.3057120186941966,0.3951273927049133,13.903294127747252,3.8214648622981926,-10.216126205969957,-16.372944050548213,-3.640855124296436,31.15964297481056,37.84487974361278,37.05415281396951,1577397466.999,-27.718118826898213,-51.11573543387505,5.3174205
40936,1577397467.09,0.0083505082293246,4.442528773163585,12.543047312071264,0.2504568517173209,2.4656773389862803,10.156612208519912,5.157338395182292,3.035049637858073,13.235374796549475,0.2973603039253049,-2.6959675114329267,-1.7439679401676829,-2.592319395483994,-2.248624475990854,-3.0645975252477133,-3.3778236025855657,30.51358177548363,-0.8561270577566964,-0.2469546204405695,12.145406364468858,2.3201750949667663,-10.607945541148668,20.13681162587413,-2.318489583333339,31.20756581903136,37.86884116572318,37.24584419085272,1577397466.999,-27.718118826898213,-51.11573543387505,5.3174205
40937,1577397467.1,2.6443665360613564,2.1536719860542104,14.75528964605564,3.118710440584508,-3.2420994188262187,10.673759767113662,3.538858072916666,-4.655126094563801,11.77251758219401,2.0978974133003048,-1.810957745807927,-0.9199933307926828,-3.782504942358994,-0.5091225228658537,-0.5316385408727133,-3.4388587588355657,33.74844505673363,0.8833748953683036,-0.0493909240881123,13.42387019230769,2.866098646723648,-8.387635975135975,-47.406236375507206,-6.873304224428462,31.30341150747297,37.91676400994399,36.81453859286549,1577397466.999,-27.718118826898213,-51.11573543387505,5.3174205
40938,1577397467.11,2.863435987965653,-2.6179719226371945,8.259820542051735,-0.0368473475014281,-0.0841474290801251,7.362578871117567,3.866863700358072,-4.269659627278646,8.729487272135415,-5.623049852324694,-1.810957745807927,-0.2333478229801829,-5.033725645483994,-0.4175697884908537,-0.8978494783727133,-2.5233314150855657,37.89883568173363,1.4326913016183036,-0.0493909240881123,13.42387019230769,2.866098646723648,-8.387635975135975,-47.406236375507206,-6.873304224428462,31.39925719591458,37.772995477281576,37.0062299697487,1577397466.999,-27.718118826898213,-51.11573543387505,5.3174205
40939,1577397467.12,0.7721008378191684,-1.9452012561332883,9.95970372076267,0.9675202489341176,-0.6168572984648913,8.802691169701552,1.7336300211588536,7.891687705485026,10.07981700846354,-0.7097197741996951,-2.4213093083079267,-0.1875714557926828,3.602748963891006,-5.2851234994283525,-0.4400858064977133,0.2690269833519345,36.09829857235863,-5.861009870256696,-0.642082013145482,12.145406364468858,2.3201750949667663,-10.73855198620824,-50.327016829621,-6.873304224428462,31.20756581903136,37.91676400994399,36.88642285919669,1577397466.999,-27.718118826898213,-51.11573543387505,5.3174205
40940,1577397467.13,0.5302864701433871,3.946929029511242,12.593325546934546,2.4291803624595083,0.4760957593964363,11.157388502465224,1.3050679239908851,-6.455565743001302,13.25931681315104,4.966549757050305,-1.688887433307927,-0.5232648151676829,-3.324741270483994,5.289217320884147,-4.285300650247713,-1.5772864932105657,35.33535911923363,-3.1449454171316966,-0.4445183167930248,13.42387019230769,-0.409442663817664,-10.216126205969957,20.50190918263836,-4.816291160708081,31.25548866325217,37.725072633060776,37.0062299697487,1577397466.999,-27.718118826898213,-51.11573543387505,5.3174205
40941,1577397467.14,2.1344015824480747,1.6365244274604605,13.10807890386814,6.271874027010289,2.322025239376905,12.20604882961366,-2.736344478352864,-2.203463594563801,7.98010215250651,6.339840772675305,-0.6512897770579268,-2.110178877667683,-7.780307676733994,-1.5467201791158536,-0.3180154939977133,-3.1947181338355657,35.51846458798363,2.7144295828683034,0.5433001649692554,15.341565934065931,3.9579457502374105,-9.432487535612536,-50.327016829621,-37.72850018023418,31.25548866325217,37.772995477281576,37.05415281396951,1577397466.999,-27.718118826898213,-51.11573543387505,5.3174205
40942,1577397467.15,2.6180303177996374,1.1959913219917109,9.362350406553686,-0.5851195276772103,3.140842207150343,10.91078573146913,2.2962674112955725,3.940057865397135,7.415070560709635,-3.074832078887195,-1.780440167682927,-1.0420636432926829,2.961879823266006,-6.032804163490853,0.2923360685022866,-1.7298743838355657,21.99917747860863,-0.6119864327566964,0.5433001649692554,15.341565934065931,3.9579457502374105,-9.432487535612536,-50.327016829621,-37.72850018023418,31.23152724114176,37.725072633060776,36.81453859286549,1577397466.999,-27.718118826898213,-51.11573543387505,5.3174205
40943,1577397467.16,3.137572078053544,-3.5373453601371945,6.698801059629859,3.020548172518102,-3.0529574876738748,13.123028065453504,0.2312684794108072,-1.0877656209309898,9.471689786783852,-4.371829149199695,-1.597334698932927,0.2701922160823171,-0.2882422470464938,3.091951695884146,-0.0280985018102133,0.1316978817894345,6.969270252046131,0.7307870047433038,0.0493909240881142,15.021949977106228,0.9553662155745456,-7.538694082248773,29.0817017665976,-38.53661245526718,31.111720130589752,37.725072633060776,36.862461437086296,1577397466.999,-27.718118826898213,-51.11573543387505,5.3174205
40944,1577397467.17,2.108065364186356,0.7961596447456167,10.067442795469702,0.3869263463462271,5.891779914669875,9.977047084008191,-0.7204266805013014,1.2681288126627597,8.973695841471354,1.2739228039253048,1.179764910442073,-0.5842999714176829,2.717739198266006,-3.225186975990854,-2.2711404939977133,2.1153404599144343,-4.245939708891369,-4.548754010881696,0.0493909240881142,15.021949977106228,3.139060422602083,-8.387635975135975,27.803860317922823,-34.20219207099924,31.111720130589752,37.725072633060776,37.0062299697487,1577397466.999,-27.718118826898213,-51.11573543387505,5.3174205
40945,1577397467.18,0.7170341996355746,3.413022059296398,14.69064620123142,4.220043204256383,3.964447578244093,7.882120631371474,2.200499344889322,-0.6592035237630205,9.337614493815105,9.086422803925306,1.271317644817073,-0.6148175495426829,-0.8528174423589938,3.030916539634146,-1.1725076814977131,0.9251549130394344,-10.410490490141369,-0.8256094796316964,-0.642082013145482,14.70233402014652,3.412022198480529,-8.910061755374258,27.803860317922823,-34.20219207099924,31.39925719591458,37.725072633060776,37.772995477281576,1577397466.999,-27.718118826898213,-51.11573543387505,5.3174205
40946,1577397467.19,1.823155366627762,1.1995826244819454,9.052301291563452,-0.9155193567787728,0.0954176954315931,9.730444313012098,0.5113900736490886,2.7094382120768223,12.100523209635416,3.2270478039253048,3.4991008479420733,-0.9352521198551828,2.183681581078506,-1.5924965463033538,-0.1043924471227133,1.0930015927269343,-3.986540294828869,2.6533944266183034,-0.642082013145482,14.70233402014652,3.412022198480529,-4.861261958527583,25.97837253410171,3.9994791123792655,31.20756581903136,37.84487974361278,36.93434570341749,1577397466.999,-27.718118826898213,-51.11573543387505,5.3174205
40947,1577397467.2,1.4113526810808872,1.1121942638862417,10.376294809629858,5.374048404451695,0.8304376050995613,12.313787904320693,5.420700577799479,-1.4205596516927077,15.682248893229165,-0.5266143054496951,-0.2850788395579268,-0.3096417682926828,-0.5781592392339938,8.035799352134147,-0.3485330721227133,0.1622154599144345,16.68911888485863,0.5171639578683036,0.1481727722643429,14.70233402014652,2.3201750949667663,-10.73855198620824,31.454835885565064,-5.110150169810997,31.111720130589752,37.86884116572318,36.86246143708629,1577397466.999,-27.718118826898213,-51.11573543387505,5.3174205
40948,1577397467.21,2.108065364186356,-1.193421934844226,11.61409706793064,2.134693558260289,-3.483913786502,11.63862303615663,-0.5671977742513015,1.9504762858072908,11.99517833658854,-2.1745635241996952,0.4168254573170732,-0.7063702839176829,8.607631776391006,-6.185392054115853,-1.1725076814977131,-0.0514075869605654,24.01333763485863,4.911695207868304,-0.1481727722643409,14.382718063186816,2.04721331908832,-5.514294183825433,19.77171406910991,-2.4654190878847912,31.111720130589752,37.58130410039836,37.05415281396951,1577397466.999,-27.718118826898213,-51.11573543387505,5.3174205
40949,1577397467.22,0.7792834427996371,-0.3362977405082889,10.762958377745091,-3.640120846036585,-0.3355386033965314,8.492642054711318,0.5245581827799475,3.7604927408854167,6.718357877604166,3.1049774914253048,-0.9564655583079268,0.0413103801448171,-0.7002295517339938,-0.2344643197408536,-1.0809549471227131,2.7562096005394343,13.454255603608631,-0.4899161202566964,0.1481727722643429,16.30041380494505,2.866098646723648,-4.861261958527584,20.13681162587413,-7.020233728979919,31.25548866325217,37.86884116572318,37.0062299697487,1577397466.999,-27.718118826898213,-51.11573543387505,5.3174205
40950,1577397467.23,0.961242768971512,1.7394750988471792,10.601349765684546,2.323835489412633,1.9054341505097177,10.388849769555067,1.1159259928385412,1.545856205240885,6.051572715250651,5.027584913300305,-1.536299542682927,0.2091570598323171,-0.2882422470464938,-2.5232826791158534,-0.0128397127477133,3.1834556942894343,-2.842131115141369,-9.599413190569196,0.3457364686167981,15.341565934065931,2.3201750949667663,-10.412035873559311,14.112701939264443,-1.2165182991974142,31.20756581903136,37.84487974361278,36.71869290442388,1577397466.999,-27.718118826898213,-51.11573543387505,5.3174205
40951,1577397467.24,1.792030745045731,0.6237771252143667,8.54951894293064,-0.0033285242592406,1.6372835645722177,5.693820313988661,0.0864192789713537,-7.231287080891927,6.98411426188151,0.5109833508003049,-1.231123761432927,-0.0349835651676828,5.311733338891006,2.329012242759146,-0.8673319002477133,1.7186119442894343,-18.22299049014137,3.813062395368304,-0.0493909240881123,15.341565934065931,2.3201750949667663,-10.477339096089098,13.930153160882334,-7.167163233531377,31.25548866325217,37.86884116572318,36.910384281307095,1577397466.999,-27.718118826898213,-51.11573543387505,5.3174205
40952,1577397467.25,1.131231086842606,0.5950467052924917,9.7992922095322,3.645434805818883,-0.8143789354277814,11.12147547756288,1.6522271647135411,-5.236917097981771,11.116506327311196,-0.4655791491996951,-2.3602741520579267,-0.0960187214176828,2.534633729516006,3.397127477134146,-1.4776834627477131,0.1011803036644345,-21.51888892764137,6.071363176618304,0.5433001649692554,14.70233402014652,1.774251543209873,-10.73855198620824,15.390543387939228,-7.167163233531377,31.25548866325217,37.725072633060776,37.0062299697487,1577397466.999,-27.718118826898213,-51.11573543387505,5.3174205
40953,1577397467.26,1.373045454518387,-0.1423674060356322,10.167999265196263,0.8011232335532583,0.9405708814667488,11.918744630394912,0.1893699503580725,2.3263659464518223,10.35993860270182,0.9077118664253048,-2.3907917301829267,-0.6453351276676829,-2.439731504858994,-6.856778772865853,-0.9283670564977132,1.5355064755394343,-14.042082287016369,5.644117082868304,0.2469546204405714,14.382718063186816,3.139060422602083,-9.95491331585082,20.50190918263836,-6.873304224428462,31.39925719591458,37.772995477281576,37.05415281396951,1577397466.999,-27.718118826898213,-51.11573543387505,5.3174205
40954,1577397467.27,0.0909504655047157,0.5184322521674922,12.605296555235329,0.0062482823813834,1.7210806226776865,7.810294581566787,3.6920869791666657,5.977523478190103,15.004689823404943,3.0592011242378048,-4.176070050495427,-0.4774884479801828,-1.9819678329839936,-3.072599085365854,-2.5152811189977133,2.5731041317894343,-9.525480724516369,0.2730233328683036,0.4939092408811411,14.542526041666669,2.1836942070275374,-9.824306870791244,17.21603117176034,-7.020233728979919,31.23152724114176,37.725072633060776,36.86246143708629,1577397466.999,-27.718118826898213,-51.11573543387505,5.3174205
40955,1577397467.28,1.4640251176043246,2.3069008923042102,12.365876389219702,0.6227552098716178,2.10175868664253,11.706857783471085,0.2959119242350261,3.3690407694498696,11.4720452738444,1.9758271008003048,-3.642012433307927,-0.3096417682926828,-0.7612647079839937,-5.941251429115853,-2.0727762361852133,1.5660240536644343,2.391633533296132,-3.114427839006696,0.5433001649692554,14.70233402014652,1.774251543209873,-10.477339096089098,-16.372944050548217,-22.30090220233132,31.30341150747297,37.84487974361279,36.910384281307095,1577397466.999,-27.718118826898213,-51.11573543387505,5.3174205
40956,1577397467.29,1.4233236893816683,1.2438753551948354,11.073007492735329,2.0293486852134146,-0.4217298631621564,11.573979591332412,3.155785807291666,1.1675723429361973,9.97686633707682,0.6635712414253049,-2.5738971989329267,0.0260515910823171,3.816372010766006,6.296297399009147,-0.3790506502477133,2.1458580380394343,-6.717863537016369,-7.020677839006696,0.1481727722643429,13.42387019230769,0.6824044396960991,-10.216126205969957,22.692494523223694,-39.78551324395456,31.111720130589752,37.91676400994399,37.0062299697487,1577397466.999,-27.718118826898213,-51.11573543387505,5.3174205
40957,1577397467.3,1.6507728470965122,-0.3626339587700072,8.76739129400486,2.477064395662633,-2.255688334841844,10.247591871605849,-0.4043920613606764,-5.0621403767903645,8.619353995768229,-3.5173369616996952,-3.5199421208079267,-1.4082745807926829,3.358608338891006,-8.352140100990853,0.8721700528772867,1.4744713192894343,-13.462248302641369,-1.7106192452566964,0.8396457094979392,16.300413804945048,3.684983974358964,-10.216126205969957,-49.59682171609254,-40.07937225305747,31.447180040135382,37.725072633060776,36.81453859286549,1577397466.999,-27.718118826898213,-51.11573543387505,5.3174205
40958,1577397467.31,2.522262251393388,0.0228325085151479,6.425862070372046,2.1370877599204454,1.458915540890577,10.461872920189832,1.0033985148111977,0.9508970926920572,10.225863309733072,-0.4960967273246951,-2.1466511051829267,-0.4927472370426828,1.0392724013910062,2.969881383384146,-1.9354471346227131,1.3829185849144343,-12.607756115141369,4.026685442243304,-0.3457364686167981,15.66118189102564,2.593136870845201,-10.73855198620824,-50.327016829621,-21.27239567047113,31.20756581903136,37.820918321502376,37.05415281396951,1577397466.999,-27.718118826898213,-51.11573543387505,5.3174205
40959,1577397467.32,0.3854372697039345,2.667228242157726,11.83077231817478,0.3534075231040396,2.71467431164253,7.221320973168349,1.5492764933268226,4.021460721842448,9.351979703776042,5.302243116425305,-1.078535870807927,-0.4469708698551828,-3.721469786108994,-8.840421350990853,-0.6231912752477133,0.2842857724144345,-9.128752208891369,-1.4664786202566964,-0.1481727722643409,16.939645718864472,2.04721331908832,-6.559145744302,19.77171406910991,-7.167163233531377,31.27945008536257,37.91676400994399,37.0062299697487,1577397466.999,-27.718118826898213,-51.11573543387505,5.3174205
40960,1577397467.33,0.8415326859636996,-1.0090684070121947,10.42657304449314,0.4755118077720084,2.75298153820503,8.303500123558974,0.7855261637369788,1.4117809122721348,9.59618827311198,0.2973603039253049,-2.2992389958079267,-0.9199933307926828,-1.4936865829839938,0.8641684927591463,-1.6913065096227131,1.4439537411644343,-7.969084240141369,-6.715502057756696,0.7408638613217106,14.063102106227102,3.412022198480529,-6.559145744302,19.77171406910991,-7.167163233531377,31.30341150747297,37.772995477281576,36.86246143708629,1577397466.999,-27.718118826898213,-51.11573543387505,5.3174205
40961,1577397467.34,1.8949814164324497,0.2957714977729604,10.577407749082983,1.8737255773032584,-2.6483374071074683,10.843748084984757,3.5029450480143223,-3.127625435384114,16.182637040201822,0.7246063976753049,-3.3368366520579267,-0.1265362995426828,0.0932274795160061,3.305574742759146,1.6045919278772869,0.7420494442894345,5.122956775483631,-6.837572370256696,-0.2469546204405695,15.341565934065931,3.9579457502374105,-4.7306555134680135,26.34347009086593,-7.167163233531377,31.063797286368946,37.91676400994399,37.05415281396951,1577397466.999,-27.718118826898213,-51.11573543387505,5.3174205
40962,1577397467.35,1.7956220475359654,0.4741395214546016,10.942523502256812,1.767183603426305,0.52517689342964,9.015775117455458,0.1773989420572918,-2.5159069112141927,8.346415006510416,-1.1674834460746952,-4.465987042682927,0.193898270769817,3.236538026391006,-3.3930336556783534,-0.1806863924352132,-0.4481361025855656,9.822663806733631,8.604322160993304,0.1975636963524571,14.862141998626374,2.729617758784425,-5.644900628885006,-11.991773369377537,-7.167163233531377,31.13568155270016,37.653188366729566,36.93434570341749,1577397466.999,-27.718118826898213,-51.11573543387505,5.3174205
40963,1577397467.36,1.1575673051043247,2.869538282440929,7.982093149473608,2.096386331697789,0.3563856763886238,12.316182105980849,-1.0484323079427076,11.089144022623698,8.195580301920572,1.3654755383003048,-1.933028058307927,0.1786394817073171,-2.165073301733994,-4.323819788490853,-0.9894022127477132,2.7562096005394343,-2.964201427641369,-0.0931876046316964,0.2469546204405714,14.382718063186816,2.593136870845201,-5.514294183825433,-50.327016829621,-6.579445215325552,31.111720130589752,37.9646868541648,37.0062299697487,1577397466.999,-27.718118826898213,-51.11573543387505,5.3174205
40964,1577397467.37,3.3602328324480752,2.5367442516792105,8.781756503965797,-2.217965059903773,-0.0434460008574688,7.281176014672256,3.1414205973307285,6.434815995279947,11.090170109049478,1.3654755383003048,-0.9564655583079268,1.3077898723323171,6.776577088891006,-7.009366663490853,0.4144063810022866,1.5355064755394343,-12.516203380766369,-11.811937604631696,0.2469546204405714,14.382718063186816,2.593136870845201,-5.514294183825433,31.454835885565064,-6.579445215325552,31.20756581903136,37.772995477281576,36.86246143708629,1577397466.999,-27.718118826898213,-51.11573543387505,5.3174205
40965,1577397467.38,3.5637399735613564,2.2398632458198358,10.728242453672827,2.7045135533774767,0.3539914747284676,10.204496241723035,-0.571986177571614,-12.146583089192706,7.23311123453776,2.0978974133003048,-0.9259479801829268,1.5519304973323171,-1.3716162704839938,6.754061070884147,2.2759786466272867,0.4368736630394345,-15.720549083891369,-3.5721915108816966,0.2469546204405714,15.021949977106228,3.684983974358964,-5.514294183825433,22.692494523223694,-6.873304224428462,31.01587444214814,37.772995477281576,37.0062299697487,1577397466.999,-27.718118826898213,-51.11573543387505,5.3174205
40966,1577397467.39,1.628027931325028,-1.3909435718071164,8.077861215879858,3.332991489168492,1.1740055433319834,9.821423976098036,1.8030618693033853,-0.4904123067220052,7.01523888346354,-2.1440459460746952,-1.673628644245427,0.5448504192073171,0.2915917373285062,0.6047690786966463,2.1081319669397867,0.7267906552269344,-19.65731666201637,5.689893450055804,0.1481727722643429,13.743486149267394,3.6849839743589694,-10.73855198620824,21.597201852931025,-2.1715600787818783,31.25548866325217,37.79695689939198,36.910384281307095,1577397466.999,-27.718118826898213,-51.11573543387505,5.3174205
40967,1577397467.4,0.9085703324480746,-0.0178689197075072,8.573460959532202,1.392491043611852,-0.8550803636504376,7.183013746605849,1.917983548990885,3.513889969889323,12.459653458658853,2.2504853039253048,-0.4987018864329268,1.4603777629573171,3.022914979516006,-2.706388147865854,-2.1185526033727133,1.3524010067894343,-11.417570568266369,4.820142473493304,-0.0493909240881123,12.145406364468858,3.9579457502374105,-10.73855198620824,-50.327016829621,-6.579445215325552,31.063797286368946,37.91676400994399,37.0062299697487,1577397466.999,-27.718118826898213,-51.11573543387505,5.3174205
40968,1577397467.41,0.7960428544207309,0.6429307384956168,9.7609849829697,-1.368023470548304,-3.459971769900437,6.4623590468988175,4.079947648111978,-5.694209615071615,6.871586783854166,3.4406708508003048,-3.611494855182927,2.192799637957317,1.6191063857660062,-5.880216272865853,-0.0128397127477133,1.0777428036644343,-12.546720958891369,4.362378801618304,-0.0493909240881123,12.145406364468858,3.9579457502374105,-9.693700425731672,16.850933614996126,-6.579445215325552,31.20756581903136,37.9646868541648,36.910384281307095,1577397466.999,-27.718118826898213,-51.11573543387505,5.3174205
40969,1577397467.42,0.7074573929949496,1.940588038300304,9.899848679258763,1.2751751622641956,2.067042762570265,8.742836128197645,1.6163141398111975,7.313488004557291,9.414228946940105,3.9594696789253048,-5.503584698932927,2.436940262957317,2.687221620141006,-8.458951624428353,2.2759786466272867,3.778548467726933,-18.32980201357887,-0.8866446358816965,0.5433001649692554,15.980797847985349,3.412022198480529,-9.171274645493394,-16.372944050548206,-4.375502647053714,31.39925719591458,37.82091832150238,37.03019139185911,1577397466.999,-27.718118826898213,-51.11573543387505,5.3174205
40970,1577397467.43,1.4340975968523724,1.527588251923351,9.260596835997044,-0.3768239832436165,-1.2525178392363752,6.129565016137099,-0.811406343587239,-2.031081075032552,8.315290384928385,-1.2895537585746952,-5.991865948932927,2.162282059832317,6.501918885766006,-8.687833460365853,3.893410287252287,3.6412193661644334,-20.42025611514137,5.674634660993304,-0.49390924088114,14.862141998626374,3.275541310541306,-9.301881090552966,23.787787193516365,-7.020233728979919,31.27945008536257,37.91676400994399,36.81453859286549,1577397466.999,-27.718118826898213,-51.11573543387505,5.3174205
40971,1577397467.44,1.8063959550066684,0.6572959484565543,7.24707323980564,-0.9155193567787728,4.144012702755811,5.62438846584413,-1.4554465901692704,7.744444303385416,11.18354397379557,0.3278778820503049,-3.825117902057927,3.230397294207317,2.534633729516006,-0.5701576791158537,-0.3790506502477133,3.6107017880394334,-22.89217994326637,10.099683489118304,-0.3457364686167981,14.382718063186816,4.776831077872739,-10.216126205969957,28.534055431451264,-6.873304224428462,31.25548866325217,37.725072633060776,36.86246143708629,1577397466.999,-27.718118826898213,-51.11573543387505,5.3174205
40972,1577397467.45,1.610071418873856,1.4713245129096792,8.216724912168921,5.347712186189977,1.5941879346894052,9.740021119652722,1.9395313639322915,-0.7765194051106767,9.038339286295573,2.0368622570503048,-3.1842487614329267,2.528492997332317,-4.698032286108994,5.106111852134147,1.3299337247522869,1.5049888974144343,-15.812101818266369,4.118238176618304,-0.3457364686167981,14.382718063186816,4.776831077872739,-10.216126205969957,28.534055431451264,-6.873304224428462,31.111720130589752,37.91676400994399,37.0062299697487,1577397466.999,-27.718118826898213,-51.11573543387505,5.3174205
40973,1577397467.46,3.970754255787919,0.817707459687023,8.824852133848609,1.610363394686071,-3.333079081912156,7.9060626479730365,2.5021687540690096,-3.4723904744466143,7.50126182047526,3.8068817883003048,-2.0245807926829267,2.864186356707317,5.616909120141006,-6.704190882240853,3.984963021627287,1.0472252255394343,-13.675871349516369,5.308423723493304,0.1481727722643429,13.42387019230769,1.2283279914529803,-10.346732651029528,-49.96191927285677,-4.669361656156629,31.39925719591458,37.9646868541648,36.81453859286549,1577397466.999,-27.718118826898213,-51.11573543387505,5.3174205
40974,1577397467.47,2.662323048512528,-1.0581495410453978,6.72992568121189,1.0812448277915394,1.5463039014862807,9.06605335231874,1.42956641031901,7.51220674235026,7.631745810953775,-1.4879180163871952,0.6151897151295732,2.894703934832317,-1.0511817001714938,1.1235679068216464,1.7419210294397869,3.6869957333519343,-21.42733619326637,-5.342211042131696,0.7408638613217106,14.382718063186813,2.320175094966761,-10.281429428499742,-13.269614818052316,-5.918262444844003,31.327372929583376,37.89280258783359,36.88642285919669,1577397466.999,-27.718118826898213,-51.11573543387505,5.3174205
40975,1577397467.48,2.359456538502762,5.7808875011909295,9.363547507383764,2.6278991002524767,7.10085175304878,6.668260389672255,-1.2950350789388014,-16.583038765462238,6.086288639322916,5.576901319550305,-0.0409382145579267,2.284352372332317,1.4970360732660062,1.1388266958841464,1.6656270841272869,-0.3871009463355654,-26.67635963076637,9.550367082868304,-0.642082013145482,15.980797847985349,1.2283279914529803,-6.03671996406371,28.534055431451264,-37.72850018023418,31.30341150747297,37.91676400994399,36.81453859286549,1577397466.999,-27.718118826898213,-51.11573543387505,5.3174205
40976,1577397467.49,1.6603496537371372,4.416192554901866,8.956533225157202,0.9758999547446646,-0.1870981004668439,4.527844105492568,-2.688460445149739,4.682260380045573,10.82680792643229,6.370358350800305,-3.0316608708079267,1.9791765910823167,3.572231385766006,-3.255704554115854,1.6351095060022869,0.0096275692894345,-24.32650611514137,19.865308489118306,-0.642082013145482,15.980797847985349,1.2283279914529803,-6.03671996406371,28.534055431451264,-37.72850018023418,31.20756581903136,37.91676400994399,37.0062299697487,1577397466.999,-27.718118826898213,-51.11573543387505,5.3174205
40977,1577397467.5,1.1192600785418243,-0.963578575469226,7.959348233702125,-2.917071944669398,-0.4408834764434064,8.899656336937879,5.530833854166667,6.676630362955728,10.814836918131508,-2.3118926257621952,-1.398970441120427,3.184620927019817,-4.270786192358994,-3.560880335365854,1.4520040372522869,2.3594810849144343,-12.516203380766369,9.855542864118304,0.3951273927049124,15.18175795558608,1.9107324311491023,-6.559145744302,27.073665204394377,-6.873304224428462,31.063797286368946,37.725072633060776,37.0062299697487,1577397466.999,-27.718118826898213,-51.11573543387505,5.3174205
40978,1577397467.51,3.750487703053544,0.3508381359565542,6.878366184141577,2.2101109105552115,-1.1974512010527816,9.674180573998427,2.9319279520670567,8.163429593912761,11.719845145670572,-5.592532274199695,-5.564619855182927,3.108326981707317,2.061611268578506,4.160066930259148,3.344093881002287,1.2455894833519343,1.3692946661086312,-2.458299909319196,0.1481727722643429,13.42387019230769,3.9579457502374105,-5.514294183825435,-10.896480699084863,-2.465419087884791,31.39925719591458,37.82091832150238,37.03019139185911,1577397466.999,-27.718118826898213,-51.11573543387505,5.3174205
40979,1577397467.52,2.689856367604325,-0.3769991687309447,6.804145932676734,1.584027176424352,2.587781623654249,8.914021546898816,-0.3565080281575514,-4.935247688802083,9.35916230875651,-1.4116240710746952,-3.2758014958079267,3.627125809832317,-2.073520567358994,-0.6617104134908537,1.5740743497522869,-8.687882196335565,14.888581775483631,-11.689867292131696,-0.0493909240881123,14.70233402014652,2.3201750949667663,-5.514294183825433,22.692494523223694,2.2363250577617952,31.20756581903136,37.772995477281576,37.0062299697487,1577397466.999,-27.718118826898213,-51.11573543387505,5.3174205
40980,1577397467.53,3.156725691334794,3.5423089489448354,11.987592526915014,3.664588419100133,2.6500308668183115,7.795929371605849,4.649767643229166,-15.275804659016924,6.495697123209635,6.553463819550305,5.086014910442073,2.864186356707317,-0.9748877548589938,9.775301305259148,3.710304818502287,-3.1642005557105657,16.75015404110863,10.008130754743304,-0.0493909240881123,14.70233402014652,2.3201750949667663,-10.73855198620824,27.073665204394377,-4.522432151605171,31.30341150747297,37.772995477281576,37.0062299697487,1577397466.999,-27.718118826898213,-51.11573543387505,5.3174205
40981,1577397467.54,2.175103010670731,0.4681540173042104,10.469668674375953,3.62149278921732,-1.7768480028105935,8.722485414086318,1.170992631022135,14.668475504557293,4.5587879801432285,0.1752899914253048,1.210282488567073,2.711598466082317,-0.3950537704839938,8.371492711509147,2.2759786466272867,-2.5538489932105657,12.355622791108631,6.407056535993304,0.1481727722643429,15.980797847985349,3.9579457502374105,-10.607945541148668,28.89915298821549,-6.726374719877009,31.30341150747297,37.725072633060776,36.910384281307095,1577397466.999,-27.718118826898213,-51.11573543387505,5.3174205
40982,1577397467.55,3.518250142018388,-0.4967092517387572,4.73794989996189,3.518542117830602,0.7849477735565926,10.245197669945693,1.937137162272135,-5.265647517903646,7.419858964029947,-7.850833055449695,11.342118426067072,2.040211747332317,-5.674594786108994,2.176424352134146,2.9778829435022867,-0.6007239932105655,0.8810134161086309,-9.492601667131696,-0.3457364686167981,16.300413804945048,5.322754629629632,-6.428539299242429,21.597201852931025,-6.138656701671178,31.25548866325217,37.725072633060776,36.86246143708629,1577397466.999,-27.718118826898213,-51.11573543387505,5.3174205
40983,1577397467.56,2.237352253834793,3.8703145763862414,12.557412522032202,0.3701669347251334,3.05943935070503,4.0968878066644425,-2.480164900716145,-5.545769112141927,3.847710087076822,-1.0148955554496952,-3.0316608708079267,1.5519304973323171,-0.1203955673589938,3.854891149009146,2.8863302091272867,-3.5914466494605657,-8.609953380766369,8.787427629743304,-0.2469546204405695,13.42387019230769,2.3201750949667663,-10.607945541148668,14.295250717646557,-5.257079674362449,31.39925719591458,37.725072633060776,37.05415281396951,1577397466.999,-27.718118826898213,-51.11573543387505,5.3174205
40984,1577397467.57,2.6180303177996374,1.6580722424018672,6.954980637266577,1.6845836461509145,0.4904609693573738,4.681073011742567,6.75427090250651,10.600726883951824,13.10608790690104,-2.6628447741996952,6.276200457317073,1.5366717082698171,-3.202670957983994,1.9933188833841464,3.0694356778772867,-3.1947181338355657,0.3622145879836309,7.505689348493304,-0.4445183167930257,16.30041380494505,2.3201750949667543,-10.73855198620824,16.850933614996126,-4.816291160708081,31.15964297481056,37.91676400994399,36.910384281307095,1577397466.999,-27.718118826898213,-51.11573543387505,5.3174205
40985,1577397467.58,1.296431001393387,0.7817944347846792,8.041948190977514,0.741268192049352,-0.5103153245879379,10.307446913109755,1.8976328348795568,-0.2653573506673178,10.301280662027994,-5.378909227324695,14.210770769817072,2.406422684832317,-2.134555723608994,-0.3412758431783538,4.229103646627287,-5.025772821335566,9.288606189546131,1.1122567313058034,0.0493909240881142,16.939645718864472,1.5012897673314385,-9.693700425731675,17.946226285288795,-6.726374719877009,31.20756581903136,37.74903405517118,36.86246143708629,1577397466.999,-27.718118826898213,-51.11573543387505,5.3174205
40986,1577397467.59,1.0234920121355746,2.285353077362804,10.496004892637671,3.901614383455602,1.0698577711151862,7.798323573266005,2.2579601847330726,9.48981731363932,18.634299540201827,-6.141848680449695,3.0413371760670733,1.2467547160823171,-2.226108457983994,16.000887242759145,4.869972787252287,-3.8050696963355657,27.55337669735863,-2.2294180733816966,-0.1481727722643409,15.66118189102564,3.684983974358964,-8.910061755374258,14.660348274410776,-6.873304224428462,31.25548866325217,37.86884116572318,36.86246143708629,1577397466.999,-27.718118826898213,-51.11573543387505,5.3174205
40987,1577397467.6,1.641196040455887,-0.0082921130668822,9.923790695860328,3.69810724234232,-0.7760717088652814,13.192459913598036,1.1662042277018223,-16.82485313313802,20.42995078531901,-2.9680205554496952,2.8887492854420733,1.9181414348323167,-6.742710020483994,4.251619664634147,1.9708028653772869,-9.328751336960565,87.27627708798363,7.810865129743304,-0.1481727722643409,15.66118189102564,3.684983974358964,-9.95491331585082,21.2321042961668,-7.167163233531377,31.25548866325217,37.9646868541648,37.05415281396951,1577397466.999,-27.718118826898213,-51.11573543387505,5.3174205
40988,1577397467.61,2.3989608658953405,-1.053361137725085,12.984777518370093,0.3462249181235709,-0.953242631716844,5.6531188857660055,5.001715287272135,-5.265647517903646,23.83689974772136,-2.4187041491996952,4.612992449504573,1.6282244426448171,-1.3716162704839938,-0.5396401009908537,1.8182149747522869,-14.211563836960565,132.50332786923363,33.628736223493306,0.0493909240881152,14.70233402014652,5.049792853751185,-9.171274645493394,19.041518955581463,-5.110150169810997,31.20756581903136,37.725072633060776,37.0062299697487,1577397466.999,-27.718118826898213,-51.11573543387505,5.3174205
40989,1577397467.62,3.135177876393388,-0.5637468982231323,9.622121286680638,1.7791546117270862,-1.903740690798875,11.764318623314834,1.178175236002604,19.182742734781897,13.308397947184243,-3.8225127429496952,2.6140910823170733,2.559010575457317,-4.072421934546494,3.1987632193216475,3.756081185689787,-9.878067743210565,166.04214622860863,6.681714739118305,-0.1481727722643409,15.021949977106228,0.4094426638176527,-10.477339096089098,-14.182358709962871,-40.22630175760892,31.20756581903136,37.74903405517118,36.910384281307095,1577397466.999,-27.718118826898213,-51.11573543387505,5.3174205
40990,1577397467.63,0.0562345414324496,0.2933772961128042,14.750501242735329,3.013365567537633,3.241398676876905,12.957828150902724,-2.5879039754231763,2.2880587198893223,1.4798446451822913,-0.8623076648246951,14.088700457317072,2.833668778582317,-5.247348692358994,5.960604039634147,1.7571798185022869,-3.0116126650855657,145.83950950985863,-26.73503330775669,-0.1481727722643409,13.104254235347984,6.414601733143394,-10.216126205969957,-46.67604126197876,-44.19339838049823,31.111720130589752,37.725072633060776,37.0062299697487,1577397466.999,-27.718118826898213,-51.11573543387505,5.3174205
40991,1577397467.64,5.105605842701982,2.972488953827648,9.507199606993138,1.7492270909751333,-5.186191166873094,13.058384620629289,-2.2598983479817703,-3.5035150960286456,-10.187100044759116,-5.073733446074695,9.144852801067072,0.8195086223323171,2.992397401391006,10.202547399009148,5.571877084127287,-4.140763055710566,68.05020286923363,-20.05168369838169,-0.1481727722643409,13.104254235347984,6.414601733143394,-10.216126205969957,29.26425054497972,-44.19339838049823,31.20756581903136,37.9646868541648,36.910384281307095,1577397466.999,-27.718118826898213,-51.11573543387505,5.3174205
40992,1577397467.65,1.000747096364091,-0.6499381579887576,10.827601822569312,0.2408800450766959,-1.0322512865020004,9.421592298851944,-0.096737148030599,-10.188126131184896,-1.087936635335287,-8.583254930449694,11.784623308879572,2.543751786394817,-3.233188536108994,11.758943883384145,6.258522591939787,-5.712418329148066,-44.42233131045387,0.4256112234933038,9.992007221626409e-16,14.862141998626374,4.094426638176634,-23.276770711926964,25.61327497733748,-3.3469961151935266,31.25548866325217,37.820918321502376,36.910384281307095,1577397466.999,-27.718118826898213,-51.11573543387505,5.3174205
40993,1577397467.66,1.7393583085222932,-1.7608477283012571,8.317281381895484,1.7659865025962271,5.0490209302948745,11.394414466820692,-5.561502437337239,6.394114567057291,18.035749125162763,-3.2731963366996952,10.212968035442072,4.512135575457317,0.1237450576410061,8.249422399009147,6.334816537252287,-5.544571649460566,-37.05233619326637,11.228833879743304,-0.5433001649692534,17.57887763278388,3.139060422602083,-39.7331827894328,-50.327016829621,-2.4654190878847912,31.20756581903136,37.725072633060776,37.10207565819032,1577397466.999,-27.718118826898213,-51.11573543387505,5.3174205
40994,1577397467.67,2.024268306080887,3.829613148163585,7.907872898008765,7.68205880484232,4.953252863888625,3.3020128554925674,3.301832108561197,9.33658840738932,18.921603739420576,1.7927216320503048,9.663651629192072,3.871266434832317,-3.629917051733994,20.151277867759145,6.029640756002287,-4.659561883835566,1.247224353608631,16.081128801618302,-0.5433001649692534,14.382718063186816,3.684983974358964,-6.297932854182853,-50.327016829621,-6.579445215325552,31.20756581903136,37.725072633060776,36.81453859286549,1577397466.999,-27.718118826898213,-51.11573543387505,5.3174205
40995,1577397467.68,3.247705354420732,1.2247217419135854,13.673110495665014,6.262297220369664,-0.9053585985137188,11.092745057641006,4.843697977701822,4.4883300455729165,16.024619730631507,-2.1135283679496952,10.487626238567072,1.6740008098323171,-2.195590879858994,12.186189977134148,5.541359506002287,-6.246475946335566,28.65200950985863,7.017408098493304,-0.5433001649692534,14.382718063186816,3.684983974358964,-6.03671996406371,-50.327016829621,-5.404009178913907,31.25548866325217,37.772995477281576,36.910384281307095,1577397466.999,-27.718118826898213,-51.11573543387505,5.3174205
40996,1577397467.69,-0.3447942366437216,-3.8114814502250858,8.278974155332984,-1.1010699854408823,-3.796357103152391,11.188513124047256,3.805811558024088,5.818309067789713,17.324671232096353,-12.016482469512194,11.021683855754572,1.7808123332698171,-2.699130918921494,6.494661656821647,2.1996847013147867,-3.3320472353980657,45.28408958798363,-12.025560651506698,-0.3951273927049114,14.542526041666669,2.7296177587844186,-7.865210194897697,-50.327016829621,-6.726374719877007,31.27945008536257,37.74903405517118,37.03019139185911,1577397466.999,-27.718118826898213,-51.11573543387505,5.3174205
40997,1577397467.7,-2.9269407271222367,-3.5612873767387567,17.549322983457984,2.3908731358970083,-1.8630392625762189,13.17091209865663,-0.1553950887044264,-14.210384920247394,9.56985205485026,-10.414309617949694,5.635331316692073,3.718678544207317,-2.592319395483994,14.139314977134148,3.923927865377287,-1.6078040713355657,37.53262474423363,-8.149828229631696,0.2469546204405714,14.382718063186816,3.139060422602083,-6.03671996406371,-49.59682171609254,-6.579445215325552,31.30341150747297,37.725072633060776,36.86246143708629,1577397466.999,-27.718118826898213,-51.11573543387505,5.3174205
40998,1577397467.71,2.091305952565262,6.7768753918159295,13.01231083746189,1.3853084386313834,6.657924445919874,13.293016383324598,-3.243915230305989,-25.44158490804036,6.972143253580729,-0.2519561023246951,6.520341082317073,0.7889910442073171,-0.5476416611089938,-9.786466272865852,4.869972787252287,-6.032852899460566,16.13980247860863,28.318677629743306,-0.8396457094979372,12.784638278388275,1.774251543209873,-6.03671996406371,-49.59682171609254,-6.579445215325552,31.25548866325217,37.772995477281576,36.910384281307095,1577397466.999,-27.718118826898213,-51.11573543387505,5.3174205
40999,1577397467.72,-1.6532254439191116,1.5347708569038203,10.479245481016576,-5.150862093595179,5.403362775998,16.26182644191835,-0.8904149983723951,11.31180477701823,9.802089615885416,-0.0230742663871952,4.674027605754573,3.642384598894817,2.778774354516006,5.624910680259147,4.412209115377287,-5.300431024460566,13.393220447358631,42.845044817243306,-0.8396457094979372,12.784638278388275,1.774251543209873,-10.73855198620824,-50.327016829621,-6.579445215325552,31.18360439692096,37.86884116572318,37.05415281396951,1577397466.999,-27.718118826898213,-51.11573543387505,5.3174205
41000,1577397467.73,0.9181471390886996,-4.322643504668444,7.086661728575171,0.3534075231040394,-5.311886754031297,12.267100971947643,6.713569474283854,13.176887870279948,11.115309226481118,-8.583254930449694,3.1023723323170733,4.603688309832317,-1.8598975204839936,1.0014975943216464,3.817116341939787,-2.2791907900855657,21.98391868954613,3.858838762555804,-0.8396457094979372,14.063102106227102,2.866098646723648,-10.281429428499743,-48.31898026741776,-5.771332940292543,31.111720130589752,37.84487974361278,36.93434570341749,1577397466.999,-27.718118826898213,-51.11573543387505,5.3174205
41001,1577397467.74,3.4392414872332315,-0.3434803454887573,11.175958164122044,3.959075223299352,5.681090168576124,6.886132740746474,3.711240592447916,2.314394938151041,18.390090970865888,1.8232392101753048,1.851151629192073,4.420582841082317,0.8561669326410062,10.629793492759148,4.747902474752287,2.5120689755394343,31.21548607235863,-16.450609479631698,0.5433001649692554,14.70233402014652,0.6824044396960991,-10.607945541148668,-47.04113881874298,-5.550938683465359,31.30341150747297,37.91676400994399,37.05415281396951,1577397466.999,-27.718118826898213,-51.11573543387505,5.3174205
41002,1577397467.75,3.1519372880144814,1.3611912365424916,19.75198851080173,4.933515298982945,-1.1591439744902814,22.058188661156628,2.3537282511393225,3.992730301920573,13.070174881998696,10.185055616425306,5.024979754192073,5.824391434832317,-1.8293799423589936,10.049959508384148,3.0999532560022867,1.0777428036644343,31.03238060360863,-18.95305088588169,0.1481727722643429,14.063102106227102,0.6824044396960991,-6.167326409123281,-49.96191927285677,-7.020233728979919,31.39925719591458,37.725072633060776,37.0062299697487,1577397466.999,-27.718118826898213,-51.11573543387505,5.3174205
41003,1577397467.76,0.7541443253679965,1.1505014904487425,13.967597299864233,1.354183817049352,5.137606391720656,16.97529853664491,-7.749802754720052,-6.204174568684896,4.676103861490884,6.660275342987806,6.962845965129573,2.467457841082317,5.861049745141006,-10.488370569740852,1.3299337247522869,2.5120689755394343,6.954011462983631,-10.133470807756696,0.1481727722643429,14.063102106227102,0.6824044396960991,-6.167326409123281,15.755640944703456,-7.020233728979919,31.23152724114176,37.772995477281576,37.0062299697487,1577397466.999,-27.718118826898213,-51.11573543387505,5.3174205
41004,1577397467.77,-2.3307845137433305,-0.8342916858207885,10.115326828672828,1.964705240389196,4.479200935177686,15.222742921410536,-2.614240193684896,-9.371703365071614,6.186845109049479,-0.3129912585746951,-3.1842487614329267,4.237477372332317,6.715541932641006,22.806307164634145,1.3604513028772869,3.4275963192894343,-19.16903541201637,11.625562395368304,-0.2469546204405695,15.980797847985349,1.774251543209873,-10.73855198620824,-50.327016829621,-43.01796234408659,31.111720130589752,37.9646868541648,37.0062299697487,1577397466.999,-27.718118826898213,-51.11573543387505,5.3174205
41005,1577397467.78,0.6835153763933871,-3.903658214141101,11.709865134336887,-4.43499579720846,-5.657848893923875,9.08400986476991,-1.4075625569661452,0.8706913370768222,14.422898819986978,-1.5947295398246952,1.515458269817073,3.321950028582317,1.4360009170160062,6.845613805259147,0.5669942716272867,3.0003502255394343,-24.11288306826637,13.700757707868304,-0.2469546204405695,15.980797847985349,1.774251543209873,-5.514294183825433,-50.327016829621,-44.19339838049823,31.20756581903136,37.9646868541648,36.86246143708629,1577397466.999,-27.718118826898213,-51.11573543387505,5.3174205
41006,1577397467.79,-2.019538297923018,2.187190809296398,11.317216062071266,0.615572604891149,0.6784057996796401,13.594685792504286,1.8030618693033849,7.740853000895182,13.30959504801432,5.393795850800305,1.881669207317073,4.695241044207317,7.173305604516006,-1.1652504525533538,3.0694356778772867,6.265731084914435,-23.57882545107887,14.555249895368306,-0.7408638613217086,15.66118189102564,-0.6824044396961103,-5.253081293706294,-50.327016829621,-6.873304224428464,31.25548866325217,37.84487974361278,37.0062299697487,1577397466.999,-27.718118826898213,-51.11573543387505,5.3174205
41007,1577397467.8,-0.6739969649152056,6.063403297089367,10.82161631841892,-3.0272052210365854,0.8591680250214363,4.05379217678163,2.897212027994791,18.83199219156901,14.647953776041664,11.924557569550306,6.856034441692073,3.382985184832317,13.276821229516006,-2.309659632240854,2.3675313810022867,7.974715459914434,-14.072599865141369,-9.706224714006696,-0.1481727722643409,13.104254235347984,2.04721331908832,-9.171274645493394,-50.327016829621,-1.2899830514731403,31.447180040135382,37.772995477281576,36.910384281307095,1577397466.999,-27.718118826898213,-51.11573543387505,5.3174205
41008,1577397467.81,2.96758376018245,-0.1734920276176635,13.917319065000951,8.395530899568882,-1.2860366624785626,12.965010755883192,1.9778385904947915,-12.596693001302082,10.790894901529946,3.4711884289253048,-7.822920636432927,5.427662919207317,2.687221620141006,6.815096227134147,2.5811544278772867,7.486434209914434,-6.015959240141369,-10.408129010881696,-0.4445183167930248,14.70233402014652,1.774251543209873,-9.171274645493394,19.77171406910991,-2.4654190878847912,31.447180040135382,37.9646868541648,36.86246143708629,1577397466.999,-27.718118826898213,-51.11573543387505,5.3174205
41009,1577397467.82,2.4312825883074503,-2.7436675097953978,6.192427408506812,-0.6222296534096322,1.9844428052948744,10.267942585717178,-4.359613203938802,-4.671885506184895,6.579494181315104,0.4346894054878048,0.5388957698170732,4.069630692644817,8.455043885766006,-2.4469887338033534,1.772438607564787,6.952376592726934,-17.90255591982887,8.772168840680804,-0.4445183167930248,14.70233402014652,1.774251543209873,-10.477339096089098,25.61327497733748,-42.43024432588076,31.27945008536257,37.77299547728158,36.958307125527895,1577397466.999,-27.718118826898213,-51.11573543387505,5.3174205
41010,1577397467.83,-0.8870809126691118,2.953335340546398,8.58782616949314,4.521712613436071,-1.2908250657988751,6.907680555687881,4.465414115397135,3.2361625773111977,7.707163163248698,6.461911085175305,0.8440715510670732,2.803151200457317,5.586391542016006,0.2232993521341463,1.4214864591272869,7.577986944289434,-28.53793189639137,13.822828020368304,-0.8396457094979372,14.063102106227102,2.3201750949667663,-8.518242420195547,25.97837253410171,-42.283314821329306,31.30341150747297,37.86884116572318,36.86246143708629,1577397466.999,-27.718118826898213,-51.11573543387505,5.3174205
41011,1577397467.84,0.5302864701433871,1.5407563610542103,10.608532370665015,-2.124591195157679,-0.9221180101348126,7.678613490258193,-0.4834007161458327,3.0518090494791665,6.210787125651041,13.175778272675306,0.1116496760670732,3.382985184832317,9.217983338891006,-12.502530725990852,-0.0738748689977133,7.394881475539434,-40.50082252139137,8.329663957868304,0.2469546204405714,13.104254235347984,2.593136870845201,-8.518242420195547,25.97837253410171,2.9709725805190725,31.25548866325217,37.772995477281576,37.0062299697487,1577397466.999,-27.718118826898213,-51.11573543387505,5.3174205
41012,1577397467.85,0.9396949540301058,0.587864100312023,8.547124741270483,-0.0775487757240843,3.258158088497999,9.26357498928163,-0.3086239949544264,2.651977372233073,10.88426876627604,10.459713819550306,-0.8038776676829268,4.054371903582317,5.220180604516006,3.915926305259146,0.4754415372522866,8.340926397414435,-39.15804908389137,4.362378801618304,-0.5433001649692534,15.66118189102564,3.684983974358964,-10.607945541148668,31.81993344232929,2.383254562313253,31.20756581903136,37.91676400994399,36.81453859286549,1577397466.999,-27.718118826898213,-51.11573543387505,5.3174205
41013,1577397467.86,-1.612524015696455,-0.8749931140434447,14.369823178770485,-0.036847347501429,-2.6998127428008285,9.115134486351945,0.2049322611490886,1.1556013346354166,10.052283689371745,5.180172803925305,-0.7428425114329268,3.810231278582317,15.153652284203508,-4.720548304115853,4.839455209127287,8.432479131789435,-41.72152564639137,1.6615731375558038,0.2469546204405714,13.104254235347984,1.5012897673314385,-5.253081293706291,35.10581145320729,-4.522432151605171,31.30341150747297,37.82091832150238,36.88642285919669,1577397466.999,-27.718118826898213,-51.11573543387505,5.3174205
41014,1577397467.87,-0.2394493635968467,-0.3506629504692264,12.234195297911109,0.6383175206626334,0.9884549146698738,16.26661484523866,0.5269523844401037,-2.888205269368489,16.32389493815104,5.576901319550305,-4.694868878620427,4.985158036394817,2.839809510766006,3.458162633384146,0.4754415372522866,10.294051397414435,-35.25179908389137,7.932935442243304,0.5433001649692554,16.620029761904764,1.774251543209873,-6.559145744302,32.915226112621944,-6.579445215325552,31.20756581903136,37.9646868541648,36.81453859286549,1577397466.999,-27.718118826898213,-51.11573543387505,5.3174205
41015,1577397467.88,1.7225988969011996,0.7291219982612417,11.590155051329075,6.300604446932164,2.798471369747999,17.073460804711317,2.633849845377604,-2.9097530843098958,11.61928867594401,10.764889600800306,-3.977705792682927,3.840748856707317,13.002163026391006,-0.8753334603658537,3.1609884122522867,9.378524053664435,-24.87582252139137,9.886060442243304,-0.5433001649692534,16.939645718864472,4.776831077872739,-4.469442623348871,31.454835885565064,-5.991727197119726,31.111720130589752,37.725072633060776,36.81453859286549,1577397466.999,-27.718118826898213,-51.11573543387505,5.3174205
41016,1577397467.89,1.8662509965105745,-0.331509337187976,6.2534795508407965,2.893655484529821,0.4282117261933113,4.597275953637099,1.2021172526041664,2.575362919108073,7.913064506022135,7.743649366425305,-4.252363995807927,3.718678544207317,12.666469667016006,-3.530362757240854,2.7642598966272867,9.897322881789435,-19.29110572451637,11.564527239118304,0.4445183167930267,13.743486149267396,2.04721331908832,-10.477339096089098,13.930153160882334,3.41176109417344,31.20756581903136,37.772995477281576,36.910384281307095,1577397466.999,-27.718118826898213,-51.11573543387505,5.3174205
41017,1577397467.9,0.7445675187273715,2.801303535126476,7.177641391661108,-2.331689638761195,1.5163763807343271,8.425604408226942,-0.5336789510091144,3.525860978190104,4.451048905436197,7.835202100800306,-3.0621784489329267,3.825490067644817,7.722622010766006,-1.0736977181783516,0.2313009122522867,9.943099248976935,-25.59298560732887,0.9444100516183036,-0.0493909240881133,15.661181891025638,2.593136870845201,-10.73855198620824,20.50190918263836,-4.816291160708081,31.327372929583376,37.91676400994399,37.0062299697487,1577397466.999,-27.718118826898213,-51.11573543387505,5.3174205
41018,1577397467.91,2.7018273759051064,-0.8845699206840697,3.05243193121189,2.7523975865806016,-2.3730042161895,6.481512660180067,0.2300713785807288,-5.349444576009114,2.4542847208658847,10.612301710175306,-12.858321027057928,4.939381669207317,11.232143495141006,-2.920011194740854,1.1773458341272869,8.005233038039435,-43.43051002139137,0.7918221609933036,-0.1481727722643409,15.021949977106228,3.684983974358964,-10.477339096089098,-50.327016829621,-7.167163233531377,31.30341150747297,37.772995477281576,36.910384281307095,1577397466.999,-27.718118826898213,-51.11573543387505,5.3174205
41019,1577397467.92,2.390581160084793,2.067480726288585,8.156869870665014,-3.120579085782679,1.89106894054878,5.68184930568788,1.3385867472330726,0.0973642008463535,5.928271329752604,9.452633741425306,1.179764910442073,4.390065262957317,9.980922792016006,-10.274747522865852,4.686867318502287,8.798690069289435,-52.09750220889137,4.148755754743304,-0.642082013145482,12.784638278388275,5.049792853751174,-10.73855198620824,19.77171406910991,-5.991727197119726,31.20756581903136,37.62922694461916,37.0062299697487,1577397466.999,-27.718118826898213,-51.11573543387505,5.3174205
41020,1577397467.93,2.1128537675066683,1.2869709850776478,12.159975046446265,2.556073050447789,6.35386083508003,4.81993670803163,3.2994379069010407,-4.080517696126302,9.873915665690102,11.710934522675306,0.1726848323170732,4.786793778582317,7.112270448266006,7.394930211509147,2.8252950528772867,8.646102178664435,-56.76669166201637,6.651197160993304,-0.1481727722643409,15.66118189102564,3.684983974358964,-10.73855198620824,19.77171406910991,-7.167163233531377,31.30341150747297,37.725072633060776,37.0062299697487,1577397466.999,-27.718118826898213,-51.11573543387505,5.3174205
41021,1577397467.94,1.112077473561356,-2.3857343616020383,8.142504660704077,2.1837746922934924,-2.203015898318407,7.423631013451552,0.881294230143229,-0.3443660054524741,13.665133994547524,5.119137647675305,-1.978804425495427,4.512135575457317,5.632167909203506,-1.6077553353658525,2.337013802877287,6.906600225539434,-29.17880103701637,8.741651262555804,-0.2469546204405696,15.980797847985343,2.320175094966761,-10.216126205969957,-50.327016829621,-5.991727197119726,31.30341150747297,37.772995477281576,36.862461437086296,1577397466.999,-27.718118826898213,-51.11573543387505,5.3174205
41022,1577397467.95,0.3722691605730746,3.5925871838081167,12.049841770079077,2.8338004430259143,3.7896708570526862,8.01859012600038,4.237964957682291,3.248133585611979,15.821112589518227,8.048825147675306,-0.4987018864329268,3.688160966082317,6.562954042016006,-2.187589319740854,-0.2264627596227133,6.876082647414434,-18.98592994326637,8.940015520368304,0.0493909240881142,15.66118189102564,3.139060422602083,-10.477339096089098,-49.59682171609254,-38.31621819844,31.20756581903136,37.91676400994399,37.05415281396951,1577397466.999,-27.718118826898213,-51.11573543387505,5.3174205
41023,1577397467.96,1.6603496537371372,2.639694923065929,10.903019174864234,0.2911582799399771,-0.5127095262480938,15.80692812648866,1.838974894205729,8.544107657877603,13.027079252115884,10.337643507050306,0.9661418635670732,4.786793778582317,7.081752870141006,3.183504430259146,3.1915059903772867,8.066268194289435,-0.7974533807663691,-4.792894635881696,-0.8396457094979372,17.898493589743584,3.412022198480529,-6.297932854182853,-50.327016829621,-40.07937225305747,31.30341150747297,37.772995477281576,37.0062299697487,1577397466.999,-27.718118826898213,-51.11573543387505,5.3174205
41024,1577397467.97,1.4400831010027622,2.2781704723823357,11.034700266172829,-0.1014907923256478,3.845934596066359,8.226885670433974,0.313868436686198,-4.529430507405599,5.248318058268229,4.539303663300305,-3.764082745807927,5.153004716082317,6.486660096703506,-1.8213783822408525,3.023659310689787,6.876082647414434,-14.19467017764137,-2.671922956194196,-0.1481727722643409,13.104254235347984,4.776831077872739,-10.477339096089098,-50.327016829621,-7.167163233531377,31.111720130589752,37.820918321502376,36.86246143708629,1577397466.999,-27.718118826898213,-51.11573543387505,5.3174205
41025,1577397467.98,2.2648855729265907,-0.7708453418266483,5.620213211729468,2.735638174959508,-4.745658061404344,8.5046130630121,0.8525638102213537,1.5267025919596346,5.056781925455729,0.2668427258003048,-0.7123249333079268,4.771534989519817,11.903530213891006,9.195467320884148,3.893410287252287,6.815047491164434,-24.38754127139137,3.935132707868304,-0.0987818481762276,14.862141998626374,1.3648088793922093,-8.126423085016839,-48.8666266025641,-6.579445215325552,31.20756581903136,37.91676400994399,37.0062299697487,1577397466.999,-27.718118826898213,-51.11573543387505,5.3174205
41026,1577397467.99,3.111235859791825,3.1496598766792103,7.022018283750953,2.7140903600181017,-0.9436658250762188,0.7641590957269425,4.312185209147135,-1.3391567952473953,5.255500663248697,7.316403272675305,-4.618574933307927,5.244557450457317,1.9547997451410064,-9.878019007240852,3.771339974752287,6.998152959914434,-29.72811744326637,5.430494035993304,-0.3457364686167981,15.021949977106228,0.9553662155745456,-6.297932854182853,25.61327497733748,-5.404009178913907,31.20756581903136,37.86884116572318,37.0062299697487,1577397466.999,-27.718118826898213,-51.11573543387505,5.3174205
41027,1577397468.0,2.7616824174090127,4.392250538300304,8.556701547911109,2.484247000643102,5.015502107052686,8.540526087914444,2.830174381510416,1.9672356974283849,9.074252311197917,13.267331007050306,-3.1842487614329267,4.451100419207317,8.668666932641006,3.793855992759146,1.6961446622522869,6.357283819289434,-22.67855689639137,12.144361223493304,-1.135991254026621,16.300413804945048,2.593136870845201,-6.297932854182853,25.61327497733748,-5.404009178913907,31.543025728577,37.725072633060776,36.86246143708629,1577397467.999,-27.718124256258747,-51.11579209001455,5.1704793
41028,1577397468.01,0.9325123490496372,-0.072935557891101,5.901531906797827,3.4108030431235705,2.5662338087128425,5.090481495629287,2.1071254801432286,6.1594828043619785,7.834055851236979,9.788327100800306,0.0200969416920732,4.573170731707317,4.762416932641006,1.4134848990091464,4.686867318502287,5.716414678664434,-17.49056861514137,7.597242082868304,0.0493909240881142,16.939645718864472,3.139060422602083,-6.167326409123281,24.517982307044807,-5.844797692568268,31.25548866325217,37.91676400994399,36.71869290442388,1577397467.999,-27.718124256258747,-51.11579209001455,5.1704793
41029,1577397468.02,2.791609938160966,1.01762329831007,7.115392148497047,1.7468328893149772,-2.4424360643340317,9.567638600121471,1.439143216959635,-3.946442403157552,7.913064506022135,-0.3740264148246952,-1.276900128620427,4.466359208269817,2.778774354516006,-1.9434486947408536,2.2454610685022867,3.8243248349144334,-1.438322521391369,1.4021737234933036,-0.1481727722643409,14.702334020146523,3.139060422602083,-6.559145744302,25.61327497733748,-4.816291160708081,31.30341150747297,37.772995477281576,37.0062299697487,1577397467.999,-27.718124256258747,-51.11579209001455,5.1704793
41030,1577397468.03,1.0713760453386996,-0.6068425281059447,10.117721030332984,0.8573869725669302,0.9669070997284676,8.325047938500381,1.054873850504557,-1.209869905598958,7.704768961588541,2.3725556164253048,-0.9564655583079268,4.206959794207317,8.180385682641006,-1.2568031869283536,4.793678841939787,3.809066045851933,-6.000700451078869,1.9667489188058036,-0.1481727722643409,14.382718063186816,3.684983974358964,-10.607945541148668,25.06562864219115,-5.918262444844,31.20756581903136,37.89280258783359,36.86246143708629,1577397467.999,-27.718124256258747,-51.11579209001455,5.1704793
41031,1577397468.04,1.6723206620379183,3.1975439098823357,9.025965073301732,3.3150349767173206,2.10175868664253,10.041690528832412,0.0385352457682287,-1.530692928059895,12.344731778971353,5.515866163300305,10.182450457317072,4.206959794207317,0.0932274795160061,1.8102134146341464,3.2830587247522867,3.7938072567894334,-5.161467052641369,8.268628801618304,-0.1481727722643409,14.382718063186816,3.684983974358964,-7.473390859718984,21.597201852931025,-6.726374719877009,31.30341150747297,37.91676400994399,37.05415281396951,1577397467.999,-27.718124256258747,-51.11579209001455,5.1704793
41032,1577397468.05,0.4369126053972934,2.505619630097179,11.688317319395484,0.6407117223227896,0.8041013868378426,12.203654627953505,0.7591899454752601,0.4038220133463535,11.887439261881507,7.499508741425305,2.4309856135670733,5.580250809832317,6.227260682641006,-4.781583460365853,5.510841927877287,2.4815513974144343,-0.309172130766369,6.681714739118304,0.642082013145482,13.743486149267396,2.593136870845201,-7.603997304778556,-48.8666266025641,-6.873304224428462,31.447180040135382,37.91676400994399,37.05415281396951,1577397467.999,-27.718124256258747,-51.11579209001455,5.1704793
41033,1577397468.06,4.064128120534013,-1.155114708281726,10.729439554502903,2.477064395662633,-0.6024920885039537,14.755873597680068,2.4686499308268224,2.241371787516276,12.306424552408853,-0.7097197741996951,-4.282881573932927,4.786793778582317,4.853969667016006,2.252718297446646,3.771339974752287,3.0919029599144343,-3.5592942010788686,3.187452043805804,-0.1481727722643419,15.661181891025642,2.0472133190883195,-10.73855198620824,-49.59682171609254,-6.579445215325552,31.25548866325217,37.772995477281576,36.958307125527895,1577397467.999,-27.718124256258747,-51.11579209001455,5.1704793
41034,1577397468.07,4.090464338795732,1.670043250702648,11.580578244688452,3.705289847322789,0.5167971876190925,7.216532569848036,4.123043277994791,-3.807578706868489,12.105311612955727,0.8771942883003049,0.7525188166920732,4.542653153582317,2.656704042016006,5.319734899009147,6.029640756002287,3.6412193661644334,3.810700916108631,1.0969979422433036,-0.642082013145482,14.70233402014652,2.3201750949667663,-10.73855198620824,-49.59682171609254,0.4731710031443245,31.30341150747297,37.9646868541648,37.10207565819032,1577397467.999,-27.718124256258747,-51.11579209001455,5.1704793
41035,1577397468.08,3.6020472001238564,1.6844084606635854,11.44889715337986,3.832182535311071,4.18950253429878,11.88762000881288,1.9778385904947915,0.7605580607096347,10.649637003580729,6.339840772675305,7.100175066692073,5.732838700457317,3.175502870141006,5.502840367759147,0.5059591153772867,4.404158819289434,2.254304431733631,6.742749895368304,-0.642082013145482,14.70233402014652,2.3201750949667663,-7.995816639957263,-49.23172415932832,-0.8491945378187784,31.20756581903136,37.725072633060776,37.05415281396951,1577397467.999,-27.718124256258747,-51.11579209001455,5.1704793
41036,1577397468.09,0.3626923539324501,2.906648408173351,10.932946695616186,3.6238869908774767,6.052191425900343,7.415251307641006,3.8812289103190096,4.962381974283853,6.038404606119792,8.552365186737806,10.335038347942072,4.267994950457317,6.227260682641006,3.854891149009146,3.4051290372522867,2.9087974911644343,0.1180739629836309,4.698072160993304,-0.1481727722643409,15.341565934065931,3.684983974358964,-9.171274645493394,-47.406236375507206,-5.697868188016817,31.11172013058975,37.91676400994399,37.10207565819032,1577397467.999,-27.718124256258747,-51.11579209001455,5.1704793
41037,1577397468.1,0.4871908402605746,-1.164691514922351,4.110669065000953,-0.1769081446205692,-1.4272945604277816,3.720998146019911,2.998965598551432,-0.6029397847493491,3.9446752543131502,-4.310793992949695,-2.5433796208079267,2.711598466082317,5.113369081078506,3.3360923208841475,2.8863302091272867,2.5120689755394343,-1.499357677641369,3.629956926618304,0.1481727722643429,14.70233402014652,1.774251543209873,-9.040668200433824,-49.96191927285677,-7.020233728979919,31.20756581903136,37.84487974361278,37.00622996974871,1577397467.999,-27.718124256258747,-51.11579209001455,5.1704793
41038,1577397468.11,1.4736019242449496,-3.099206456328601,1.7619572363876708,-0.477380452970179,-1.4033525438262189,3.414540333519912,0.3306278483072912,-0.3335920979817705,8.164455680338541,-9.407229539824694,0.5999309260670732,1.8571062785823167,-5.216831114233994,3.183504430259146,2.0928731778772867,0.0096275692894345,-5.832853771391369,0.9749276297433036,-0.0493909240881123,13.42387019230769,0.6824044396960991,-7.603997304778556,-48.8666266025641,-7.167163233531377,31.30341150747297,37.91676400994399,37.05415281396951,1577397467.999,-27.718124256258747,-51.11579209001455,5.1704793
41039,1577397468.12,2.3857927567644808,1.852002576874523,4.292628391172828,1.4714996983970083,2.0682398634003425,12.356883534203504,-1.814576839192708,-4.499502986653646,8.648084415690104,-1.3811064929496952,1.912186785442073,1.9486590129573167,-3.263706114233994,0.6200278677591463,-0.9588846346227132,-1.2415931338355657,-7.572355724516369,2.5313241141183034,-0.0493909240881123,13.42387019230769,0.6824044396960991,-5.514294183825433,-48.8666266025641,-7.167163233531377,31.25548866325217,37.9646868541648,37.0062299697487,1577397467.999,-27.718124256258747,-51.11579209001455,5.1704793
41040,1577397468.13,1.8255495682879184,5.823983131073742,12.835139914610329,0.5664914708579459,4.59172841320503,9.795087757836315,3.107901774088541,0.6839436075846348,11.602529264322914,11.161618116425306,-5.656172589557928,2.711598466082317,-0.5476416611089938,1.3219321646341464,2.3675313810022867,-0.6007239932105655,-3.391447521391369,7.658277239118304,-0.0987818481762266,14.86214199862637,2.456655982905984,-10.73855198620824,-49.59682171609254,-5.697868188016817,31.08775870847935,37.91676400994399,36.86246143708629,1577397467.999,-27.718124256258747,-51.11579209001455,5.1704793
41041,1577397468.14,2.294813093678543,3.9541116344917104,19.20371633062595,4.25356202749857,4.8443166883515145,8.624323146019911,5.370422342936197,3.967591184488932,12.94567639567057,11.222653272675306,3.0108195979420733,1.6129656535823171,-4.301303770483994,2.924105016196646,3.2372823575647867,-3.3778236025855657,10.585603259858631,4.225049700055804,-0.4445183167930248,15.341565934065931,2.3201750949667663,-6.03671996406371,-49.59682171609254,-39.78551324395456,31.30341150747297,37.82091832150238,36.93434570341749,1577397467.999,-27.718124256258747,-51.11579209001455,5.1704793
41042,1577397468.15,-0.2214928511456743,-11.067109581328598,8.410655246641577,1.80908213247904,-2.3610332078887186,9.39046767726991,6.593859391276041,0.4900132731119785,12.813995304361978,-13.466067430449694,-1.963545636432927,0.6669207317073171,5.250698182641006,3.427645055259146,5.541359506002287,-2.0350501650855657,17.75723411923363,-5.189623151506696,-0.5433001649692534,15.66118189102564,3.139060422602083,-5.906113519004145,23.057592079987923,-7.020233728979919,31.30341150747297,37.9646868541648,37.24584419085272,1577397467.999,-27.718124256258747,-51.11579209001455,5.1704793
41043,1577397468.16,1.353891841237137,-1.365804454375476,5.702813169004859,-0.1302212122475218,-4.5948233568145,10.173371620141005,0.2396481852213537,-2.026292671712239,13.690273111979163,-13.862795946074694,-0.9259479801829268,-2.232249190167683,-3.294223692358994,-3.072599085365854,-4.529441275247713,-2.5843665713355657,26.82095482235863,-3.1754629952566966,0.3457364686167981,16.620029761904764,1.2283279914529803,-10.08551976091039,23.057592079987923,-7.020233728979919,31.20756581903136,37.725072633060776,37.0062299697487,1577397467.999,-27.718124256258747,-51.11579209001455,5.1704793
41044,1577397468.17,-2.594146696360518,7.839900928925305,12.835139914610329,-0.1757110437904915,6.866219990353468,8.473488441430067,-1.8720376790364577,0.5307147013346347,13.151577738444008,7.072262647675305,-0.2240436833079268,0.1481219035823171,-7.841342832983994,-15.645841272865852,-3.0951151033727133,0.4063560849144345,29.72012474423363,-2.8397696358816966,0.3457364686167981,16.620029761904764,1.2283279914529803,-9.171274645493394,22.692494523223694,-6.579445215325552,31.25548866325217,37.91676400994399,36.86246143708629,1577397467.999,-27.718124256258747,-51.11579209001455,5.1704793
41045,1577397468.18,3.187850312916825,2.997628071259289,7.674438236143531,-0.2846472193276012,2.0682398634003434,8.800296968041396,-4.504462404378255,-2.116075233968099,8.417043955485024,-2.464480516387193,-9.486128644245428,-0.4164532917301828,1.6496239638910062,0.5895102896341466,2.687965951314787,-7.650284540085565,39.97403099423363,12.083326067243302,-0.3951273927049114,14.22291008470696,2.456655982905984,-9.432487535612534,24.152884750280585,-5.9917271971197295,31.30341150747297,37.79695689939198,36.86246143708629,1577397467.999,-27.718124256258747,-51.11579209001455,5.1704793
41046,1577397468.19,3.9946962723894814,-1.3059494128715696,10.917384384825173,1.3062997838462271,-4.582852348513718,11.013736402855848,2.669762870279947,6.552131876627604,4.630614029947916,-8.430667039824694,5.940507097942073,2.040211747332317,-10.557407286108994,24.362703649009145,0.7500997403772867,-5.788712274460566,28.16372825985863,7.902417864118304,0.0493909240881142,12.46502232142857,3.139060422602083,-9.95491331585082,-48.8666266025641,-4.816291160708081,31.20756581903136,37.772995477281576,36.910384281307095,1577397467.999,-27.718124256258747,-51.11579209001455,5.1704793
41047,1577397468.2,4.028215095631669,2.907845509003429,7.194400803282202,3.990199844881383,-1.7672711961699687,11.061620436058972,2.899606229654947,8.35496572672526,9.189173990885417,-5.378909227324695,5.696366472942073,0.7889910442073171,2.382045838891006,-3.316739710365854,4.869972787252287,-4.568009149460566,23.98282005673363,-14.131273542131696,-0.4445183167930248,15.341565934065931,3.412022198480529,-6.297932854182853,26.34347009086593,-7.167163233531377,31.39925719591458,37.772995477281576,37.19792134663192,1577397467.999,-27.718124256258747,-51.11579209001455,5.1704793
41048,1577397468.21,2.474378218190263,2.6923673595893667,14.396159397032202,8.105832498689976,3.432934809689405,6.0481621596917865,0.9172072550455724,0.628876969401041,9.763782389322916,-3.0290557116996952,-27.35417063643293,-1.9270734089176829,-9.336704161108994,-21.38314596036585,2.9168477872522867,-8.779434930710565,41.56094505673363,-7.692064557756696,-0.4445183167930248,15.341565934065931,3.412022198480529,-5.514294183825433,16.850933614996126,2.2363250577617952,31.30341150747297,37.725072633060776,37.0062299697487,1577397467.999,-27.718124256258747,-51.11579209001455,5.1704793
41049,1577397468.22,0.6895008805437778,-0.9192858447563352,10.015967459776345,-1.3632350672279916,5.702637983517531,8.289134913598037,1.0776187662760413,-10.099540669759111,6.572311576334635,-2.2661162585746952,26.84504811356708,-0.4317120807926828,-3.843540098608994,8.981844274009147,-2.3321756502477133,-7.192520868210566,31.27652122860863,-1.9242422921316964,0.1481727722643429,15.021949977106225,2.3201750949667663,-5.514294183825433,16.850933614996126,2.2363250577617952,31.15964297481056,37.86884116572318,36.81453859286549,1577397467.999,-27.718124256258747,-51.11579209001455,5.1704793
41050,1577397468.23,0.942089155690262,1.835243165253429,3.5145128516220465,-0.7263774256264293,-3.659887608523484,8.402859492455459,-1.6805015462239583,0.3391785685221361,4.072765043131509,-13.405032274199694,3.926346941692073,-0.8284405964176829,-11.656040098608994,-2.4164711556783534,0.4449239591272867,-9.923844110398065,13.31692650204613,8.146558489118304,0.0493909240881142,13.743486149267396,3.684983974358964,-8.126423085016835,17.58112872852457,-1.7307715651275108,31.30341150747297,37.79695689939199,36.958307125527895,1577397467.999,-27.718124256258747,-51.11579209001455,5.1704793
41051,1577397468.24,0.2118576493426059,-0.4967092517387572,10.397842624571265,-2.0982549768959604,5.444064204220656,9.31385322414491,3.2084582438151035,6.444392801920572,8.250646940104167,-15.724368211699694,2.7666789729420733,0.5448504192073171,-7.841342832983994,5.289217320884147,0.6890645841272867,-5.453018915085566,-10.441008068266369,-3.9384024483816966,-0.9384275576741656,16.300413804945048,2.593136870845201,-6.559145744302,22.692494523223694,-7.167163233531377,31.39925719591458,37.772995477281576,36.81453859286549,1577397467.999,-27.718124256258747,-51.11579209001455,5.1704793
41052,1577397468.25,1.5957062089129184,4.303665076874522,15.013863425352517,5.857677139803258,4.127253291134718,14.303369483910537,2.4878035441080724,-6.299942635091146,11.944900101725258,-0.8928252429496951,2.5530559260670733,1.6129656535823171,-1.8598975204839936,18.594881383384145,5.602394662252287,-8.047013055710565,-14.957609630766369,0.7918221609933036,-0.9384275576741656,16.300413804945048,2.593136870845201,-10.477339096089098,18.31132384205301,-7.167163233531377,31.39925719591458,37.91676400994399,37.0062299697487,1577397467.999,-27.718124256258747,-51.11579209001455,5.1704793
41053,1577397468.26,2.364244941823075,1.4761129162299924,11.995972232725562,2.1311022557700547,-0.0721764207793444,7.039361646996474,5.218390537516275,2.1587718302408856,13.47599206339518,-11.329836961699693,-7.838179425495428,1.0483904582698171,-5.613559629858994,-1.3941322884908538,4.076515756002287,-7.711319696335565,4.634675525483631,-0.3678458077566964,-0.839645709497937,17.898493589743588,3.412022198480529,-10.216126205969957,-16.73804160731244,-4.081643637950804,31.20756581903136,37.84487974361278,36.83850001497589,1577397467.999,-27.718124256258747,-51.11579209001455,5.1704793
41054,1577397468.27,2.1511609940691683,-1.863798399687976,8.238272727110328,5.591920755525914,2.135277509884717,9.469476332055066,0.500616166178385,-0.2833138631184893,9.371133317057293,-11.329836961699694,21.93171803544208,0.6058855754573171,-4.972690489233994,-0.2039467416158536,3.1609884122522867,-8.230118524460565,12.752351306733631,2.5618416922433034,0.1481727722643429,15.980797847985349,2.3201750949667663,-9.693700425731672,-47.406236375507206,-7.167163233531377,31.20756581903136,37.772995477281576,36.86246143708629,1577397467.999,-27.718124256258747,-51.11579209001455,5.1704793
41055,1577397468.28,1.152778901784012,1.921434425019054,7.977304746153296,-4.080653951505336,-0.7928311204863752,5.088087293969131,1.0129753214518225,-3.601677364095052,9.560275248209637,-11.238284227324694,0.7220012385670732,-0.9199933307926828,-2.470249082983994,-1.1194740853658536,1.3909688810022869,-6.978897821335566,9.425935291108631,3.3552987234933034,0.1481727722643429,15.341565934065931,1.774251543209873,-10.73855198620824,-50.327016829621,-44.78111639870406,31.30341150747297,37.9646868541648,36.86246143708629,1577397467.999,-27.718124256258747,-51.11579209001455,5.1704793
41056,1577397468.29,-0.477672428782393,0.0443803234565542,10.167999265196263,1.399673648592321,3.219850861935498,11.013736402855848,2.231623966471353,8.357359928385415,7.752652994791666,-8.308596727324694,1.668046160442073,0.1176043254573171,-14.677280332983994,-4.354337366615853,-1.0809549471227131,-6.368546258835566,10.585603259858631,4.240308489118304,-0.9384275576741656,15.66118189102564,1.5012897673314385,-10.73855198620824,-50.327016829621,-44.78111639870406,31.20756581903136,37.772995477281576,37.0062299697487,1577397467.999,-27.718124256258747,-51.11579209001455,5.1704793
41057,1577397468.3,0.1520026078386996,4.239021632050304,12.042659165098607,-0.5707543177162728,-0.2277995286895001,12.71122537990663,1.6809575846354163,1.8235835978190096,8.681603238932292,5.668454053925305,1.668046160442073,1.2162371379573171,-4.179233457983994,0.9252036490091464,3.3440938810022867,-7.314591180710566,3.352937244233631,-2.1378653390066966,-0.9384275576741656,15.66118189102564,1.5012897673314385,-10.477339096089098,-50.327016829621,-6.579445215325552,31.30341150747297,37.772995477281576,37.0062299697487,1577397467.999,-27.718124256258747,-51.11579209001455,5.1704793
