,timestamp,acc_x_dashboard,acc_y_dashboard,acc_z_dashboard,acc_x_above_suspension,acc_y_above_suspension,acc_z_above_suspension,acc_x_below_suspension,acc_y_below_suspension,acc_z_below_suspension,gyro_x_dashboard,gyro_y_dashboard,gyro_z_dashboard,gyro_x_above_suspension,gyro_y_above_suspension,gyro_z_above_suspension,gyro_x_below_suspension,gyro_y_below_suspension,gyro_z_below_suspension,mag_x_dashboard,mag_y_dashboard,mag_z_dashboard,mag_x_above_suspension,mag_y_above_suspension,mag_z_above_suspension,temp_dashboard,temp_above_suspension,temp_below_suspension,timestamp_gps,latitude,longitude,speed
46795,1577397525.68,1.2674670008217417,-2.373938538788585,9.40798622600276,2.005406668611852,-0.6659968276605372,10.638080322861091,1.2895403722251333,6.443322223942453,7.616539432581459,-8.2912910275343,5.040610708841464,-1.765367461413872,-4.033902796303353,1.6323182641006098,-2.60162353515625,-22.771695765053355,-49.32533822408536,6.535599871379573,-13.34947990859449,6.025525125915753,-0.929943624084252,0.3221902436188151,-3.21384768009768,-43.54009665464743,29.62611195974481,36.57492437176146,39.88160062299697,1577397524.999,-27.718550975219536,-51.11860100163389,4.531864
46796,1577397525.69,-0.0325845006431021,-2.084240137909679,11.3101794449969,0.5629001683677115,-1.6392398025140529,11.982424555038826,-0.4797746546303353,-1.5090185902665303,7.583020609339271,-8.5049140744093,1.3327249666539636,-1.902696562976372,-3.927091272865853,-1.0532286108993902,-1.54876708984375,-7.436612757240853,-19.128194669397864,18.81892506669207,-12.970771258705287,6.208116796398047,-1.3949154361263747,0.1610951218094073,10.318142551892551,-47.385613410027474,29.65007338185521,36.38323299487825,40.121214844101,1577397524.999,-27.718550975219536,-51.11860100163389,4.531864
46797,1577397525.7,0.1541632288490853,0.8151380725395385,12.850848213307447,0.4994538243735709,-0.8575329604730372,12.19670560362281,3.2288437169516957,-4.182144743830983,7.721884305628333,1.9931328005907007,0.3714212557164634,-1.643297148913872,-1.8366371713033536,-3.6472227515243913,0.26702880859375,-2.904752405678354,10.367044588414634,-1.215864972370427,-13.538834233539092,4.38220009157509,-0.7749530200702122,0.4832853654282225,23.680982905982905,-48.19519588484432,29.62611195974481,36.57492437176146,39.97744631143858,1577397524.999,-27.718550975219536,-51.11860100163389,4.531864
46798,1577397525.71,2.7375068201576798,0.1256079944145385,11.428692427174637,3.0971626256431017,1.237393492163681,13.494362903427495,3.559243546053258,0.2040326975752668,14.291573661097082,1.3522636599657014,-13.300453744283535,-2.772447539538872,-2.019742640053354,2.212152248475609,-3.39508056640625,-0.5854164681783537,9.054788729039634,-7.746626691120427,-13.538834233539092,4.0170167506105,-1.084934228098292,-2.094236583522298,23.680982905982905,-54.67185568337912,29.5302662713032,36.479078683319855,39.83367777877617,1577397524.999,-27.718550975219536,-51.11860100163389,4.531864
46799,1577397525.72,2.0599477503334604,-0.8596059887397574,10.567976930348465,3.2120843053306016,-1.8367614394769436,11.662798633407968,-4.379929159024867,-7.009696904475515,13.130385855921302,1.8710624880907012,0.0662454744664633,-2.116319609851372,0.4521811880716463,-1.6330625952743902,-1.86920166015625,-6.749967249428353,3.1648961509146343,-14.948775128620428,-12.970771258705287,4.199608421092795,-0.3099812080280861,-2.094236583522298,23.680982905982905,-54.67185568337912,29.69799622607601,36.57492437176146,39.97744631143858,1577397524.999,-27.718550975219536,-51.11860100163389,4.531864
46800,1577397525.73,1.1740931360756477,-2.6061760998237418,11.519672090260574,0.7460565953696646,-2.376653913842178,7.488508038925543,2.7763396031821643,6.13207600812214,8.806457657679115,-7.864044933784299,-3.0160299161585367,-2.223131133288872,-0.3717934213033537,-0.0614073218368902,-2.12860107421875,3.641268102134146,3.8820592368521343,-10.630537823932926,-12.970771258705287,4.199608421092795,-1.5499060401404114,-2.255331705331705,23.0043833943834,-34.43229381295787,29.62611195974481,36.45511726120945,40.00140773354899,1577397524.999,-27.718550975219536,-51.11860100163389,4.531864
46801,1577397525.74,2.320915731290492,-3.080228028534679,11.09350419475276,1.2727809606040397,-1.3315848891839748,10.669204944443122,0.8681608800376334,0.2902239573408918,10.398601761683022,-1.5469062619092986,-1.7953267911585369,-1.460191680163872,-3.393033655678354,-0.2902891577743902,0.05340576171875,8.295198766196647,4.629739900914634,6.321976824504573,-12.781416933760685,5.477750114468864,-1.084934228098292,-2.416426827141113,22.327783882783883,-16.216688129578753,29.67403480396561,36.479078683319855,39.97744631143858,1577397524.999,-27.718550975219536,-51.11860100163389,4.531864
46802,1577397525.75,1.880382625821741,-0.0635339367378042,11.6441705765887,0.8801318883384146,1.0937413925543065,12.340357703232185,-4.4038711756264295,-7.67049656267864,10.987575370081458,2.6950370974657014,0.8902200838414634,-2.070543242663872,-3.209928186928354,-0.4123594702743902,-0.37384033203125,0.8183921255716463,4.904398104039634,5.589554949504573,-12.213353958926874,4.929975103021979,-1.2399248321123315,-3.382997557997558,20.97458485958485,-15.407105654761905,29.67403480396561,36.57492437176146,40.1691376883218,1577397524.999,-27.718550975219536,-51.11860100163389,4.531864
46803,1577397525.76,2.5112547632729134,-0.0144528027046015,10.309403151051589,1.1865897008384143,0.5909590439214929,7.676452869247809,5.86246554312357,6.577397516911203,6.168047428186927,2.6645195193407014,-0.9103170255335368,-1.475450469226372,0.0249350943216463,3.6159608422256095,-0.03814697265625,6.067415563071647,15.188821932164634,12.913773699504572,-12.40270828387148,4.0170167506105,-1.7048966441544575,-2.5775219489505203,23.850132783882785,-16.823874985691393,29.62611195974481,36.57492437176146,40.0732919998802,1577397524.999,-27.718550975219536,-51.11860100163389,4.531864
46804,1577397525.77,1.0088932215248665,0.3003847156059447,8.830983625905105,2.286725363680211,-0.7892982131585841,5.509700366806403,-1.5020987635170542,-6.377627666194265,9.667173154505289,3.641082019340701,8.061850943216463,-0.5751819145388719,-2.340177210365854,2.364740139100609,-0.92315673828125,-1.7756020150533538,14.074930330602132,0.2337199885670733,-12.40270828387148,4.0170167506105,-1.7048966441544575,-0.3221902436188153,24.357582417582417,-30.789172676282053,29.5302662713032,36.550962949651066,40.049330577769794,1577397524.999,-27.718550975219536,-51.11860100163389,4.531864
46805,1577397525.78,2.483721444181117,-1.593428797577648,8.536496821705887,0.7723928136313833,1.0578283676519626,10.623715112900154,-1.664904476407679,-1.4024766163895768,9.780897733362709,-3.6526191525342986,2.873862661966464,-1.277086211413872,-3.728727015053354,4.9892518578506095,-0.98419189453125,1.7034018911966462,9.390482088414634,-12.934614972370428,-13.917542883428302,5.112566773504274,-0.1549906040140398,-3.060807314378743,25.03418192918193,-42.52811856112638,29.62611195974481,36.52700152754066,40.02536915565939,1577397524.999,-27.718550975219536,-51.11860100163389,4.531864
46806,1577397525.79,0.9873454065834604,-2.026779298065929,11.012101338307447,0.9280159215415396,-0.1296956557855372,10.784126624130622,2.156241373201696,-1.1582680470536393,12.03384149556974,-3.6831367306592986,4.430259146341464,-0.6056994926638719,-1.1957680306783538,3.9211366234756095,2.00653076171875,4.907747594321647,6.582864900914634,-16.718794659870426,-13.538834233539092,4.38220009157509,-0.464971812042126,-1.9331414617128904,26.556530830280828,-42.730514179830585,29.4823434270824,36.52700152754066,40.1691376883218,1577397524.999,-27.718550975219536,-51.11860100163389,4.531864
46807,1577397525.8,2.459779427579554,1.100048070098132,11.21560847942073,4.46425177359232,0.6340546738043065,12.395424341415778,5.879224954744664,-0.4352191456864518,9.771320926722083,0.5130302615282013,-0.2847066739710364,-1.338121367663872,-2.935269983803354,6.0573670922256095,0.29754638671875,-0.6464516244283537,11.191019197789634,-13.453413800495428,-13.349479908594493,5.112566773504274,-1.3949154361263716,-2.899712192569336,26.556530830280828,-42.32572294242216,29.72195764818641,36.33531015065744,39.97744631143858,1577397524.999,-27.718550975219536,-51.11860100163389,4.531864
46808,1577397525.81,0.5324470911537728,1.6124072253715696,11.21560847942073,0.4012915563071651,-2.021114967308975,12.296064972519297,3.578397159334508,4.891879548161204,11.939270529993568,3.1833183474657014,8.367026724466463,-1.063463164538872,-0.5091225228658538,2.303704982850609,0.69427490234375,0.3301108755716463,3.1191197837271343,0.2184611995045731,-12.40270828387148,5.842933455433458,-1.3949154361263716,-2.255331705331705,-3.2138476800976794,-29.979590201465204,29.62611195974481,36.45511726120945,39.97744631143858,1577397524.999,-27.718550975219536,-51.11860100163389,4.531864
46809,1577397525.82,-3.4538986730063828,-3.0299497936713977,10.46861756145198,0.6478943273032584,-4.281241334496475,11.21987132627906,3.018153970857945,1.767446381657298,13.829492740686929,-19.4912421994093,27.379477896341463,0.8896618354611281,-5.590299280678353,1.6323182641006098,-2.96783447265625,-1.2568031869283538,-0.8329065834603658,7.573197527629573,-11.455936659148463,3.834425080128205,-1.5499060401404114,-2.738617070759928,-2.3680982905982906,-16.216688129578753,29.62611195974481,36.33531015065744,40.0732919998802,1577397524.999,-27.718550975219536,-51.11860100163389,4.531864
46810,1577397525.83,-1.6438822179282584,-3.424993067597179,8.737609761159012,0.5257900426352896,-1.6045238784417872,16.503874390243904,2.139481961580602,-3.4183944142411398,13.786397110804115,-22.6040351681593,11.815513052591465,0.035169647961128,-1.8366371713033536,-8.28589462652439,-0.25177001953125,-0.0666176400533536,-4.189840177210366,11.998246355754572,-12.023999633982273,5.112566773504274,-0.1549906040140398,-2.738617070759928,-2.706398046398046,-13.787940705128204,29.5302662713032,36.57492437176146,40.21706053254261,1577397524.999,-27.718550975219536,-51.11860100163389,4.531864
46811,1577397525.84,-1.1686331883872425,-1.6161737133491323,5.997445961110183,-1.549982796720179,0.2928809372320408,9.893483606552495,1.0896245336020864,-1.1834071644852806,11.685485154017003,-0.3109443478467986,-6.525551400533537,-0.8498401176638719,0.6810630240091464,-0.4276182593368902,-1.31988525390625,-8.642057093178352,-24.407735685022868,-4.588057355182927,-12.781416933760685,3.2866500686813174,-0.9299436240842488,-3.060807314378743,-2.706398046398046,-28.3604252518315,29.55422769341361,36.45511726120945,40.02536915565939,1577397524.999,-27.718550975219536,-51.11860100163389,4.531864
46812,1577397525.85,0.5587833094154916,-0.4992786388862417,10.77507537395198,1.5792387731040396,-0.5247389297113184,8.279791687607183,-0.1661342371498665,2.6030227610518293,9.223048746546302,14.0475761599657,-13.086830697408535,-2.680894805163872,3.442903844321646,-4.562750095274391,-1.38092041015625,-5.132535608803353,-25.338521817835368,-4.053999737995427,-11.834645309037668,3.834425080128205,-1.2399248321123315,-0.9665707308564452,-3.21384768009768,-42.32572294242216,29.62611195974481,36.38323299487824,40.02536915565939,1577397524.999,-27.718550975219536,-51.11860100163389,4.531864
46813,1577397525.86,0.956220785001429,-1.9549532482612415,10.133429329030106,3.2288437169516957,-0.8958401870355372,8.07149614317359,3.070826407381383,3.790546784489329,3.8672196327767714,-0.6313789181592987,-4.389320931783536,-0.3920764457888719,-0.2192055306783537,-3.0063536108993905,-2.41851806640625,-1.1652504525533538,-12.521139005335366,-0.2087848942454268,-13.917542883428302,5.112566773504274,-2.014877852182537,-2.738617070759928,-0.6765995115995113,-37.67062371222527,29.62611195974481,36.52700152754066,40.02536915565939,1577397524.999,-27.718550975219536,-51.11860100163389,4.531864
46814,1577397525.87,1.511675570157679,-2.263805262421398,10.147794538991045,3.4491102696860705,-3.2660998305902247,9.979674866318122,3.1426524571860703,2.2798055369307355,4.101851395472083,0.2841484255907013,-1.8868795255335369,-1.063463164538872,2.863069859946646,-2.4875547827743905,-1.68609619140625,6.311556188071647,6.369241854039634,8.183549090129572,-13.7281885584837,4.929975103021979,-1.2399248321123315,-2.738617070759928,-0.6765995115995113,-37.67062371222527,29.62611195974481,36.479078683319855,40.0732919998802,1577397524.999,-27.718550975219536,-51.11860100163389,4.531864
46815,1577397525.88,0.9897396082436164,0.0705413562309451,10.273490126149246,1.6941604527915397,0.3611156845464939,10.495625324081796,0.8585840733970083,-5.530080278498952,9.626471726282633,1.0318290896532014,-1.4748922208460369,-1.765367461413872,0.8489097036966462,-3.570928806211891,-2.18963623046875,6.265779820884147,17.264017244664632,-1.246382550495427,-13.16012558364989,4.7473834325396815,-1.7048966441544608,-2.5775219489505203,-0.5074496336996336,-39.6945798992674,29.74591907029682,36.38323299487824,40.21706053254261,1577397524.999,-27.718550975219536,-51.11860100163389,4.531864
46816,1577397525.89,1.2291597742592415,-0.5950467052924917,10.676913105885571,0.9112565099204458,-1.2717298476800685,14.353881299423591,0.9064681066001332,1.2862118479658915,14.322698282679116,1.5658867068407014,-4.969154916158536,-2.772447539538872,2.344271031821646,0.8388612328506098,-2.96783447265625,4.327913609946647,5.179056307164634,-10.371138409870428,-13.7281885584837,5.295158443986569,-0.929943624084252,28.513836560265133,-2.3680982905982906,-38.88499742445055,29.86572618084883,36.57492437176146,40.360829065205024,1577397524.999,-27.718550975219536,-51.11860100163389,4.531864
46817,1577397525.9,1.2961974207436164,-2.4505529919135856,11.799793684498855,0.9591405431235708,-0.9844256484613184,12.27332005674781,0.6287407140220084,1.4681711741377668,16.889282462366616,0.6503593630907013,1.988852896341464,-1.338121367663872,4.816194859946647,-2.8842832983993905,-1.41143798828125,5.518099156821647,-10.262838224085366,-3.931929425495426,-12.023999633982273,5.842933455433458,-1.3949154361263716,-3.382997557997558,-2.706398046398046,-41.71853608630952,29.62611195974481,36.67077006020308,40.0732919998802,1577397524.999,-27.718550975219536,-51.11860100163389,4.531864
46818,1577397525.91,-0.0732859288657584,-3.583010377167492,13.98569980022151,1.574450369783727,-1.4536891738519435,9.084243445419684,-0.716800618985804,-1.922018376643483,12.017082083948646,-4.964875011909299,-2.3751607755335367,-1.948472930163872,1.9170249380716464,6.2099549828506095,-1.86920166015625,1.3371909536966462,-15.328756192835366,-3.809859112995426,-12.970771258705287,5.295158443986569,-1.2399248321123315,-3.382997557997558,-2.706398046398046,-41.71853608630952,29.67403480396561,36.479078683319855,40.0732919998802,1577397524.999,-27.718550975219536,-51.11860100163389,4.531864
46819,1577397525.92,0.9179135584389292,-0.1090237682807735,11.811764692799636,1.5576909581626333,-0.0614609084710841,10.847572968124762,1.1877868016684927,0.110658832829173,9.360715342005289,2.5729667849657014,-0.8950582364710362,-0.987169219226372,5.380770055259147,-4.639044040586891,0.63323974609375,3.778597203696647,-5.395284513147866,0.6151897151295732,-12.970771258705287,5.477750114468867,-0.6199624160561658,-2.738617070759928,-3.382997557997557,-39.28978866185898,29.62611195974481,36.50304010543026,40.097253421990594,1577397524.999,-27.718550975219536,-51.11860100163389,4.531864
46820,1577397525.93,1.6313856531654916,1.2149697497856322,9.398409419362135,1.179407095857946,2.594905833472275,9.306904199814216,4.775497989412633,0.6996324412276106,4.413097611292397,12.4911796755907,-13.788734994283535,-1.429674102038872,3.534456578696646,3.6159608422256095,-0.92315673828125,0.9404624380716464,7.284769197789634,-2.8943317692454267,-13.7281885584837,5.295158443986569,0.0,0.1610951218094073,-2.706398046398046,-38.88499742445055,29.72195764818641,36.57492437176146,40.0732919998802,1577397524.999,-27.718550975219536,-51.11860100163389,4.531864
46821,1577397525.94,0.4127370081459603,2.9124587268364133,5.404881050221512,3.892037576814977,-4.144771839867569,7.1640937139743714,1.4858649083579458,1.6740725169112043,9.436132694300207,25.4001152224657,-1.9479146817835369,0.1877575385861281,7.440706578696647,-1.5415098608993902,-3.36456298828125,6.738802281821647,8.566507479039634,-0.1782673161204268,-13.7281885584837,5.295158443986569,0.0,-2.738617070759928,-2.706398046398046,-35.64666752518315,29.86572618084883,36.33531015065744,40.0732919998802,1577397524.999,-27.718550975219536,-51.11860100163389,4.531864
46822,1577397525.95,-0.155885886141149,-4.2988766735542105,5.026597187916824,-0.0440299524818968,-5.2604698135003805,6.666099768661871,-0.8820005335365853,-7.548392278010671,15.30192676168302,4.754973620903201,0.4934915682164633,-0.8193225395388719,5.670687047446647,-10.66626572027439,-1.41143798828125,-3.118375452553354,-6.753316739710366,3.2091838557545733,-13.822865720956,5.386454279227717,-1.1624295301053118,-2.738617070759928,-2.706398046398046,-35.64666752518315,29.76988049240722,36.33531015065744,40.1691376883218,1577397524.999,-27.718550975219536,-51.11860100163389,4.531864
46823,1577397525.96,-1.4355866734946643,-0.3460497326362417,15.75501482707698,-3.871161306241664,-0.0099855727777252,13.764907691025153,-0.0212850367104134,-0.987082628352468,8.162417411097083,-5.331085949409299,-5.335365853658536,-0.7888049614138719,4.495760289634147,-3.174200290586891,-0.29754638671875,-0.4633461556783533,-7.806173185022867,-4.328657941120427,-12.781416933760685,5.842933455433458,-1.7048966441544575,28.11109875574161,-2.452673229548229,-26.437666874141485,29.817803336628028,36.35927157276784,40.1930991104322,1577397524.999,-27.718550975219536,-51.11860100163389,4.531864
46824,1577397525.97,-0.3127060948813834,-0.0371977184760854,13.554743501393386,1.3781258336509146,-0.9772430434808496,6.103462378525153,3.779510098787633,3.812094599430736,8.064255143030678,-21.3833320431593,-0.8492818692835366,1.286390351086128,2.802034703696646,-0.6870176733993902,-1.77764892578125,11.194368688071648,16.440042635289632,0.0048381526295732,-12.781416933760685,4.747383432539684,-0.7749530200702122,28.03055119483691,-3.21384768009768,-15.204710036057692,29.67403480396561,36.52700152754066,40.0732919998802,1577397524.999,-27.718550975219536,-51.11860100163389,4.531864
46825,1577397525.98,2.677651778653773,1.653108653594226,12.348065864674636,4.49058799185404,2.343514659155869,10.865529480575937,1.4164330602134143,4.329242158024486,11.22938973775724,0.4367363162157013,-8.265053353658537,0.3403454292111281,-2.385953577553354,-11.64282822027439,0.38909912109375,16.992708531821645,22.543558260289632,5.345414324504573,-12.781416933760685,4.747383432539684,-0.7749530200702122,-3.382997557997558,-0.3382997557997558,-17.026270604395606,29.62611195974481,36.57492437176146,40.74421181897145,1577397524.999,-27.718550975219536,-51.11860100163389,4.531864
46826,1577397525.99,1.3728118738686166,-0.8715769970405386,9.441505049244949,0.7652102086509146,1.9077699570074316,12.919754504989998,-1.4111191004311163,-2.0680646779130143,10.312410501917396,8.2339775271532,-4.770790658346036,0.2640514838986281,4.999300328696647,-3.2199766577743905,-1.83868408203125,8.295198766196647,20.437845369664632,16.667435808879574,-12.970771258705287,5.477750114468867,-2.1698684561965766,-2.738617070759928,-2.3680982905982906,-17.026270604395606,29.5302662713032,36.52700152754066,40.26498337676341,1577397524.999,-27.718550975219536,-51.11860100163389,4.531864
46827,1577397526.0,4.030375716642054,-2.687578956269054,7.432769856373855,5.91992638296732,-1.8451411452874904,3.949877985214605,-3.0762863550697888,-5.832946788508718,8.692733078821693,3.2443535037157014,-6.922279916158536,-0.6056994926638719,4.160066930259147,-2.1671202124618905,0.55694580078125,4.007479039634148,6.018289705602134,-3.016402081745427,-11.455936659148463,6.39070846688034,-1.2399248321123315,0.3221902436188149,25.20333180708181,-13.585545086423991,29.62611195974481,36.50304010543026,40.07329199988019,1577397525.999,-27.71857023756933,-51.11867382132611,4.992908
46828,1577397526.01,3.3815470667397105,-0.7003915783393667,6.592405073659012,1.4044620519126334,1.2014804672613375,8.207965637802497,4.136246146150914,2.035596967594798,2.93587518697599,21.4633476443407,-4.511391244283536,-0.0563830864138719,3.748079625571646,-10.84937118902439,2.12860107421875,8.936067906821647,8.352884432164634,-16.383101300495426,-14.48560585826211,6.39070846688034,0.3099812080280861,2.4164268271411125,26.38738095238095,-10.549610805860803,29.62611195974481,36.57492437176146,40.0732919998802,1577397525.999,-27.71857023756933,-51.11867382132611,4.992908
46829,1577397526.02,3.340845638517054,1.116807481719226,7.344184394948074,0.2193322301352896,2.520685582007431,12.373876526474373,-1.231553975919398,-4.706474907405202,6.603792130335365,18.6252128787157,-7.410561166158536,-1.490709258288872,5.334993688071647,-1.0227110327743902,0.32806396484375,8.142610875571647,19.369730135289632,-7.288863019245427,-14.48560585826211,6.39070846688034,0.3099812080280861,2.5775219489505203,23.850132783882785,-14.395127561240844,29.5302662713032,36.33531015065744,40.21706053254261,1577397525.999,-27.71857023756933,-51.11867382132611,4.992908
46830,1577397526.03,1.1597279261147104,-1.5108288403022578,10.090333699147292,0.8561898717368521,-2.577766853295303,6.866015607284918,-1.2339481775795542,2.207979487126048,11.596899692591224,0.0094902224657014,2.843345083841464,-0.0563830864138719,2.740999547446646,4.8976991234756095,-0.46539306640625,-0.4328285775533536,1.4864293540396345,-8.845259503620428,-13.065448421177589,5.021270938263127,-0.3874765100351028,0.4832853654282225,24.019282661782658,-16.62147936698718,29.602150537634408,36.52700152754066,40.0732919998802,1577397525.999,-27.71857023756933,-51.11867382132611,4.992908
46831,1577397526.04,-0.6359233190024771,-2.972488953827648,11.67529519817073,0.2049670201743521,-1.5015732070550685,10.551889063095466,-0.1158560022865843,3.539155610172923,10.377053946741617,-14.6694648556593,17.766440786966463,2.476575897961128,0.1470054068216463,-1.1752989233993902,2.43377685546875,7.410189000571647,0.2352086509146341,-1.185347394245427,-12.40270828387148,4.0170167506105,-0.1549906040140398,-2.416426827141113,24.35758241758241,-16.216688129578753,29.4823434270824,36.57492437176146,40.0732919998802,1577397525.999,-27.71857023756933,-51.11867382132611,4.992908
46832,1577397526.05,-0.2480626500571646,2.2516590686332885,9.908374372975418,-1.0735366663490853,2.640395665015244,11.818421741318122,5.419538235994664,3.249457209294017,11.878218387659585,-13.2046211056593,12.853110708841465,1.286390351086128,0.8489097036966463,3.8295838891006095,-0.64849853515625,8.569856969321647,4.233011385289634,7.115433855754573,-11.266582334203862,5.842933455433458,-1.3949154361263716,-2.416426827141113,24.35758241758241,-16.216688129578753,29.817803336628028,36.71869290442388,39.97744631143858,1577397525.999,-27.71857023756933,-51.11867382132611,4.992908
46833,1577397526.06,0.6689165857826791,1.789578148223132,8.684937324635573,0.9926593663657584,0.8327734115972752,12.555835852646249,5.029283365389196,5.081021479313547,11.16474629293302,3.4579765505907014,-0.9713521817835366,-0.4225940239138719,3.992220250571646,-0.5039122046493902,1.67083740234375,7.135530797446647,0.0215856040396341,18.13227955887957,-11.266582334203862,5.842933455433458,-1.3949154361263716,-2.416426827141113,24.35758241758241,-16.216688129578753,29.86572618084883,36.38323299487824,39.88160062299697,1577397525.999,-27.71857023756933,-51.11867382132611,4.992908
46834,1577397526.07,-0.194193112703649,-1.1074058605659298,8.305456361500807,-0.0057227259193978,-1.8044397170648343,7.299366107773199,-0.3708384790932262,-10.50642842913372,5.327682645472084,11.9418632693407,-2.8176656583460367,0.2487926948361281,4.846712438071647,-0.9921934546493903,-0.67901611328125,-2.157071741615854,5.331644197789634,7.863114519817072,-12.970771258705287,5.660341784951161,-0.7749530200702089,-3.382997557997558,24.188432539682537,-32.40833762591575,29.62611195974481,36.479078683319855,40.07329199988018,1577397525.999,-27.71857023756933,-51.11867382132611,4.992908
46835,1577397526.08,0.9370671717201792,-1.9477706432807729,5.512620124928543,1.619940201326696,-1.6164948867425684,5.758697339462652,-1.1070554895912728,3.1919963694502664,7.994823294886146,-0.9060371212842988,0.4019388338414634,0.950696991711128,-2.141812952553354,-3.9218809546493913,1.12152099609375,18.365999547446645,5.758890291539634,-11.042525128620428,-12.592062608816082,5.295158443986569,-1.8598872481684976,-3.382997557997558,21.31288461538461,-46.17123969780219,29.67403480396561,36.57492437176146,40.0732919998802,1577397525.999,-27.71857023756933,-51.11867382132611,4.992908
46836,1577397526.09,2.1892346399818976,0.1615210193168822,8.62268808147151,-1.492521956876429,1.5725817245855565,10.726665784286872,3.944710013338414,0.081928412907298,9.75456151510099,13.0099785037157,-12.720619759908535,0.8286266792111281,2.191683141196646,-9.41504501714939,1.51824951171875,5.731722203696647,3.4700719321646343,0.0048381526295732,-12.213353958926874,5.660341784951164,-0.3099812080280861,-2.094236583522298,23.680982905982905,-13.787940705128204,29.86572618084883,36.57492437176146,40.0732919998802,1577397525.999,-27.71857023756933,-51.11867382132611,4.992908
46837,1577397526.1,1.9665738855873665,0.2908079089653202,12.427074519459792,0.9328043248618522,1.577370127905869,12.347540308212654,-1.233948177579554,-8.728733696467701,9.579784793909583,-2.5539863400342995,-12.293373666158535,0.3250866401486281,2.130647984946646,1.1135194359756098,1.09100341796875,-2.202848108803354,-8.736959317835366,-10.645796612995428,-12.213353958926874,5.660341784951164,-0.3099812080280861,-2.094236583522298,20.97458485958485,-17.026270604395606,29.67403480396561,36.52700152754066,40.0732919998802,1577397525.999,-27.71857023756933,-51.11867382132611,4.992908
46838,1577397526.11,2.316127327970179,0.3075673205864135,10.5715682328387,3.4682638829673205,-0.3104578811273341,10.17959070494117,2.7787338048423207,9.450439509098702,9.458877610071692,6.845427722465701,7.451499380716464,2.140882538586128,2.695223180259146,-0.0919248999618906,2.34222412109375,0.9557212271341476,-4.586568692835366,-6.373335675495427,-12.970771258705287,6.025525125915753,-0.929943624084252,-3.382997557997558,24.695882173382174,-16.01429251087454,29.62611195974481,36.45511726120945,40.14517626621141,1577397525.999,-27.71857023756933,-51.11867382132611,4.992908
46839,1577397526.12,0.8460875086342415,-1.9477706432807729,10.664942097584792,3.078009012361852,-5.124000318871474,8.365982947372808,-0.2235950769936165,-8.242710759455983,13.530217533167397,-7.986115246284299,-0.2389303067835365,2.201917694836128,5.365511266196647,-10.72730087652439,0.35858154296875,0.5132163443216463,-10.568014005335366,11.326859637004572,-12.592062608816082,6.39070846688034,-0.3099812080280861,-1.1276658526658527,-3.0446978021978017,-17.026270604395606,29.72195764818641,36.38323299487824,39.97744631143858,1577397525.999,-27.71857023756933,-51.11867382132611,4.992908
46840,1577397526.13,-0.6670479405845083,-1.2869709850776478,12.95858728801448,-1.7295479212318978,1.127260215796494,13.489574500107183,3.233632120272008,-0.8877232594559831,9.69710067525724,1.3217460818407014,0.3714212557164634,0.6455212104611281,-0.3717934213033537,-9.59815048589939,2.92205810546875,-11.175016077553352,-19.296041349085368,11.021683855754572,-12.781416933760685,5.112566773504274,0.7749530200702057,-3.060807314378743,-3.0446978021978017,-17.026270604395606,29.62611195974481,36.479078683319855,40.0732919998802,1577397525.999,-27.71857023756933,-51.11867382132611,4.992908
46841,1577397526.14,0.8724237268959603,-1.2079623302924918,10.955837599293776,2.055684903475133,-1.1424429580316309,10.221489233993903,0.2576394566977896,-1.6395025807450456,9.67076445699552,-1.1044013790967986,-2.9397359708460367,0.3861217963986281,5.243440953696647,0.8388612328506098,-0.31280517578125,-2.141812952553354,-16.396871427210368,9.434769793254572,-12.781416933760685,5.112566773504274,0.7749530200702057,-2.738617070759928,-3.0446978021978017,-42.52811856112638,29.67403480396561,36.52700152754066,39.498217869230544,1577397525.999,-27.71857023756933,-51.11867382132611,4.992908
46842,1577397526.15,1.7846145594154914,1.7249347033989133,11.61783435832698,0.5245929418052115,0.7393995468511814,8.743069708847418,-0.7491223413979134,-6.4901551442216086,11.489160617884194,-4.415558605659299,-6.983315072408536,1.194837616711128,-1.5009438119283538,-6.6837217749618905,0.72479248046875,-8.764127405678352,-13.268819669397866,-5.457808331745428,-11.077228009259256,5.295158443986569,-1.2399248321123315,-3.382997557997558,10.318142551892551,-44.14728351076008,29.62611195974481,36.35927157276784,40.1691376883218,1577397525.999,-27.71857023756933,-51.11867382132611,4.992908
46843,1577397526.16,1.502098763517054,1.978720079375476,10.995341926686354,-3.922636641935023,1.6228599594488378,12.249378040146247,2.4124209508384147,8.203060444157297,6.8767311195931775,4.709197253715701,-6.983315072408536,0.6455212104611281,1.7339194693216462,-0.7175352515243902,0.05340576171875,-1.8061195931783536,-19.387594083460368,-0.7886188786204268,-12.40270828387148,6.208116796398045,-1.7048966441544575,-3.382997557997558,-3.382997557997557,-45.76644846039377,29.96157186929044,36.38323299487824,39.97744631143858,1577397525.999,-27.71857023756933,-51.11867382132611,4.992908
46844,1577397526.17,-0.5233958409751334,-2.0004430798042105,9.676136811940262,1.6271228063071643,-4.056186378441788,7.089873462509527,0.9567463414634146,1.6070348704268291,8.037918924768958,-4.842804699409299,10.625327505716465,2.476575897961128,1.3371909536966462,2.914056545350609,1.39617919921875,-5.925992640053353,-17.220846036585368,1.103470965129573,-13.538834233539092,5.477750114468864,-0.1549906040140398,-3.382997557997558,-2.706398046398046,-13.787940705128204,29.72195764818641,36.28738730643664,39.97744631143858,1577397525.999,-27.71857023756933,-51.11867382132611,4.992908
46845,1577397526.18,2.1305766993080697,-2.89467739987257,9.445096351735184,6.525659402986851,-5.933240480004287,5.243943982529059,3.092374222322789,1.9589825144697977,8.66280555806974,-6.1398017697218,3.240073599466464,1.622083710461128,-0.3412758431783537,-5.600347751524391,0.75531005859375,-0.4023109994283537,-0.3141077553353658,5.101273699504573,-13.160125583649888,5.477750114468864,-0.1549906040140398,-1.6109512180940753,-1.5223489010989009,-16.823874985691393,29.62611195974481,36.38323299487824,40.1691376883218,1577397525.999,-27.71857023756933,-51.11867382132611,4.992908
46846,1577397526.19,1.6409624598061163,0.7073989978325073,8.589169258229324,0.1989815160239615,0.380269297827744,12.52830253355445,0.3498162206138053,-2.935962779719655,7.8152581703744275,4.709197253715701,4.033530630716464,2.079847382336128,0.9557212271341462,-5.356207126524391,0.34332275390625,5.243440953696647,14.700540682164634,12.456010027629572,-11.645290984093066,4.38220009157509,-2.014877852182537,-1.369308535379964,-1.945223595848596,-41.01015142084478,29.72195764818641,36.38323299487825,40.1930991104322,1577397525.999,-27.71857023756933,-51.11867382132611,4.992908
46847,1577397526.2,4.133326388028773,0.1663094226371947,9.98977722942073,1.066879617830602,0.284501231421493,5.818552380966559,6.195259573885289,5.605351642887766,8.571825894983803,9.7445976443407,-16.901527963033537,-2.101060820788872,-1.8976723275533536,6.5761659203506095,-1.28936767578125,-5.132535608803353,9.207376619664634,3.4533244807545733,-12.40270828387148,5.842933455433458,-0.7749530200702122,-2.094236583522298,-3.382997557997557,-38.48020618704212,29.86572618084883,36.52700152754066,40.0732919998802,1577397525.999,-27.71857023756933,-51.11867382132611,4.992908
46848,1577397526.21,2.6058257288490854,0.666697569609851,11.280251924244949,4.382848917147008,-1.6763499282464749,6.378795569443121,-5.572241585782679,-6.63620144549114,10.197488822229896,11.8197929568407,-5.396401009908536,-0.7582873832888719,-2.630094202553354,-2.5485899390243905,0.14495849609375,1.3677085318216462,19.522318025914632,-6.129195050495427,-12.40270828387148,5.112566773504274,-1.3949154361263716,-2.094236583522298,-1.6914987789987788,-38.48020618704212,29.96157186929044,36.38323299487824,40.21706053254261,1577397525.999,-27.71857023756933,-51.11867382132611,4.992908
46849,1577397526.22,2.2790172022377573,-1.7682055187690542,10.289052436940262,0.5389581517661495,-0.7354286758050684,8.259440973495856,-0.8185541895424447,-5.484590446955983,11.59330839010099,-8.2455146603468,13.234580435403965,0.7675915229611281,-1.4399086556783536,3.402337795350609,1.68609619140625,0.1470054068216466,4.538187166539634,-11.515547589557928,-12.023999633982273,5.112566773504274,-0.464971812042126,-2.5775219489505203,-1.184049145299145,-42.52811856112638,29.65007338185521,36.479078683319855,40.1691376883218,1577397525.999,-27.71857023756933,-51.11867382132611,4.992908
46850,1577397526.23,2.9458023645912728,-0.7817944347846792,12.403132502858227,-0.8125686853920541,-0.4768548965081934,10.93256712706031,-0.5324470911537728,3.7977293894697977,9.953280252893958,-3.1033027462842986,3.545249380716464,0.096204804211128,0.4826987661966463,5.2639100609756095,2.89154052734375,-0.4633461556783537,-1.504293302210366,-7.990767316120427,-12.40270828387148,5.477750114468864,-1.3949154361263716,-2.094236583522298,-0.6765995115995113,-42.9329097985348,29.86572618084883,36.33531015065744,39.88160062299697,1577397525.999,-27.71857023756933,-51.11867382132611,4.992908
46851,1577397526.24,2.124591195157679,-0.4585772106635855,14.742267524830886,3.1809596837485703,-2.89260437160585,9.383518652939216,5.924714786287633,5.90941525372761,10.391419156702552,5.227996081840701,6.902182974466464,-0.0563830864138719,0.0859702505716463,8.22411513910061,-0.25177001953125,3.290315953696646,-4.220357755335366,2.9345256526295733,-12.023999633982273,4.747383432539684,-1.3949154361263716,-3.060807314378743,-3.382997557997557,-36.45625,29.72195764818641,36.52700152754066,39.88160062299697,1577397525.999,-27.71857023756933,-51.11867382132611,4.992908
46852,1577397526.25,1.1142380945717416,-1.0738870373237417,13.78219265910823,4.222437405916539,-2.590934962426162,10.101779150986092,-0.8101744837318978,-6.028074223811452,12.03384149556974,-7.650421886909299,9.252036490091465,-0.0869006645388719,-1.7145668588033538,6.0573670922256095,0.54168701171875,-3.515103968178354,1.486429354039634,6.840775652629573,-13.538834233539092,5.477750114468864,-1.3949154361263716,-1.4498560962846678,0.3382997557997558,-36.45625,29.86572618084883,36.38323299487824,39.97744631143858,1577397525.999,-27.71857023756933,-51.11867382132611,4.992908
46853,1577397526.26,0.0105111292397093,0.4009411853325076,9.003366145436354,-0.1014907923256478,1.9628365951910245,12.71265606138648,3.269545145174352,-2.6366875722001235,11.720201078089271,-1.7300117306592988,12.471640982278965,0.8286266792111281,0.4521811880716464,3.9821717797256095,0.35858154296875,-2.9200111947408534,-6.417623380335366,0.3863078791920732,-13.34947990859449,5.295158443986569,-0.929943624084252,-2.416426827141113,0.6765995115995117,-37.67062371222527,29.76988049240722,36.35927157276784,39.95348488932818,1577397525.999,-27.71857023756933,-51.11867382132611,4.992908
46854,1577397526.27,1.837286995938929,-0.1593020031440542,8.337778083912918,2.3717195226157584,-2.4329176528558496,10.812857044052498,4.689306729647008,1.815330414860423,12.692246952112708,3.915740222465701,1.2564310213414631,0.4929333198361281,0.2995932974466463,6.4846131859756095,1.24359130859375,-2.721646936928354,-9.194722989710366,-1.124312237995427,-13.538834233539092,5.477750114468864,-0.1549906040140398,-2.738617070759928,0.3382997557997558,-38.88499742445055,29.67403480396561,36.19154161799503,40.1691376883218,1577397525.999,-27.71857023756933,-51.11867382132611,4.992908
46855,1577397526.28,-0.3222829015220084,-0.1329657848823354,10.016113447682448,0.8370362584556021,-1.0035792617425685,12.996368958114996,1.2943287755454458,-1.8573749318192645,13.223759720667395,-0.6008613400342987,-1.1849752286585369,-0.0258655082888719,0.5132163443216463,-6.851568454649391,1.09100341796875,-6.505826624428353,-18.990865567835368,-5.885054425495427,-12.781416933760685,6.573300137362635,-2.014877852182537,-3.060807314378743,-2.706398046398046,-42.52811856112638,29.96157186929044,36.57492437176146,39.97744631143858,1577397525.999,-27.71857023756933,-51.11867382132611,4.992908
46856,1577397526.29,-0.9471695348227896,-1.2797883800971792,11.136599824635574,-3.3815470667397105,-0.8886575820550684,12.567806860947028,2.093992130037633,6.124893403141672,7.3651482582650525,-3.6526191525342986,11.907065786966465,1.469495819836128,2.985140172446646,-3.0063536108993905,0.05340576171875,-2.965787561928354,-9.225240567835366,0.4626018245045732,-12.781416933760685,4.38220009157509,-0.1549906040140398,28.513836560265133,2.0297985347985352,-41.3137448489011,29.62611195974481,36.71869290442388,40.0732919998802,1577397525.999,-27.71857023756933,-51.11867382132611,4.992908
46857,1577397526.3,-1.02976949209818,-2.8324281567085072,11.167724446217605,1.2296853307212274,-2.331164082299209,11.076219226669684,3.42397115225443,-0.2652308278153581,8.733434507044349,-10.7326972775343,2.004111685403964,1.408460663586128,-2.279142054115854,1.5560243187881095,0.48065185546875,4.022737828696647,-0.6345423256478662,13.173173113567074,-11.834645309037668,5.660341784951164,0.3099812080280861,27.547265829408687,-0.6765995115995109,-26.943655920902017,29.74591907029682,36.35927157276784,40.1930991104322,1577397525.999,-27.71857023756933,-51.11867382132611,4.992908
46858,1577397526.31,-0.2073612218345084,2.526992259551257,12.731138130299636,-0.5276586878334603,3.6938443954839935,16.398529517197026,2.496218008943883,-0.2843844410966072,9.558236978968177,2.5119316287157014,-1.4291158536585369,0.6760387885861281,-0.1581703744283537,-6.027593845274391,1.06048583984375,4.755159703696647,9.298929354039634,25.12080494950457,-11.834645309037668,5.660341784951164,0.3099812080280861,27.547265829408687,-3.0446978021978017,-17.026270604395606,29.62611195974481,36.52700152754066,39.97744631143858,1577397525.999,-27.71857023756933,-51.11867382132611,4.992908
46859,1577397526.32,1.724759517911585,0.5829005115043823,9.963441011159013,3.406014639803258,-0.5079795180902247,6.773838843368902,-3.063118245938929,-7.088705559260671,10.645204532679116,7.730437488090701,-14.460121713033535,0.1877575385861281,1.6118491568216462,2.914056545350609,-1.74713134765625,-5.498746546303353,13.540872713414634,8.488724871379572,-12.970771258705287,4.564791762057388,-0.3099812080280861,27.547265829408687,-3.0446978021978017,-17.026270604395606,29.817803336628028,36.57492437176146,40.408751909425824,1577397525.999,-27.71857023756933,-51.11867382132611,4.992908
46860,1577397526.33,0.7371513330971322,0.0549790454399295,7.887668171803543,1.2225027257407584,-0.6851504409417872,6.019665320419684,0.1858134068931021,-12.032731987483327,12.993916361292396,7.8067314334032,-3.428017220846036,1.454237030773628,-1.0431801400533538,-4.043951267149391,-2.11334228515625,-10.808805140053352,8.230814119664634,-13.117720441120428,-12.781416933760685,5.477750114468864,-1.3949154361263747,-3.060807314378743,-3.382997557997557,-17.026270604395606,29.65007338185521,36.479078683319855,39.97744631143858,1577397525.999,-27.71857023756933,-51.11867382132611,4.992908
46861,1577397526.34,2.0743129602943977,-0.6429307384956168,10.97858251506526,0.8885115941489615,0.6053242538824309,10.98284536192359,-1.6313856531654918,1.882368061344798,10.726607389124426,-1.1196601681592986,-14.582192025533535,-1.856920195788872,0.9099448599466462,-4.257574314024391,-0.41961669921875,4.678865758384148,-6.448140958460366,-21.510054425495422,-12.023999633982273,6.208116796398045,-0.464971812042126,-2.738617070759928,-2.706398046398045,-15.811896892170331,29.4823434270824,36.407194416988645,40.049330577769794,1577397525.999,-27.71857023756933,-51.11867382132611,4.992908
46862,1577397526.35,1.4757625452553351,-2.393092152069835,10.655365290944168,2.122722549959508,-3.050621681176162,4.647787769150152,3.645434805818883,6.40740919904011,8.368318753870522,-2.9812324337842986,-3.5958639005335367,-0.2089709770388719,0.2080405630716463,4.8976991234756095,-0.89263916015625,-1.0736977181783538,-8.736959317835366,-5.000044659870427,-12.023999633982273,6.208116796398045,-0.464971812042126,-0.8054756090470375,-2.706398046398046,-10.95440204326923,29.72195764818641,36.57492437176146,40.0732919998802,1577397525.999,-27.71857023756933,-51.11867382132611,4.992908
46863,1577397526.36,3.101425472501429,-3.4513292858588978,10.332148066823072,3.765144888826696,-4.614035365258194,6.790598254989996,2.3262296910727893,7.970822883122141,7.403455484827552,-10.8242500119093,2.416098990091464,-0.8803576957888719,-1.0736977181783538,-9.68970322027439,2.55584716796875,7.257601109946647,0.0826207602896341,9.739945574504572,-12.781416933760685,5.842933455433458,-0.7749530200702122,-0.8054756090470375,-2.706398046398046,-10.95440204326923,29.67403480396561,36.38323299487824,39.97744631143858,1577397525.999,-27.71857023756933,-51.11867382132611,4.992908
46864,1577397526.37,1.273452504972132,0.0525848437797733,11.495730073659011,-0.372035579923304,0.7322169418707122,9.801306842636482,-2.1066346827065074,-1.9196241749833265,7.950530564173255,-0.8602607540967986,2.461875357278964,-0.7125110161013719,-1.3483559213033538,-0.4123594702743911,-1.28936767578125,3.183504430259146,14.197000643102132,16.69795338700457,-12.308031121399177,5.751637620192307,-0.2324859060210629,-0.8054756090470375,27.06398046398046,-15.00231441735348,29.841764758738428,36.38323299487824,40.02536915565939,1577397525.999,-27.71857023756933,-51.11867382132611,4.992908
46865,1577397526.38,2.191628841642054,1.5836768054496946,11.25391570598323,0.7747870152915396,0.3587214828863367,7.674058667587652,-0.314574740079554,-5.491773051936452,11.353888224085363,1.5658867068407014,-9.790932259908535,-2.253648711413872,-0.8905922494283537,4.4704530297256095,-1.31988525390625,-4.155973108803353,12.411722322789634,4.216263933879573,-12.213353958926874,3.834425080128205,0.9299436240842456,2.255331705331705,24.52673229548229,-16.823874985691393,29.5302662713032,36.52700152754066,40.02536915565939,1577397525.999,-27.71857023756933,-51.11867382132611,4.992908
46866,1577397526.39,1.7822203577553353,1.5262159656059446,9.91316277629573,-1.1908525476967415,2.20225676120665,10.362747131943122,-1.377600277188929,-3.911599956233327,12.50549922262052,2.2067558474657014,-2.5277486661585367,-1.673814727038872,-1.5009438119283538,-6.027593845274391,-0.70953369140625,-0.4938637338033537,6.460794588414634,-11.286665753620428,-12.213353958926874,3.834425080128205,0.9299436240842456,1.772046339903483,23.680982905982905,-46.17123969780219,30.009494713511245,36.57492437176146,40.1691376883218,1577397525.999,-27.71857023756933,-51.11867382132611,4.992908
46867,1577397526.4,-0.8370362584556021,0.149550011016101,11.572344526784011,-0.764684652188929,-2.227016310082412,13.877435169052497,2.2400384313071644,0.0029197581221418,15.560500540979897,-0.4787910275342987,10.442222036966465,-0.2700061332888719,1.9170249380716464,-1.2668516577743902,-2.60162353515625,3.870149938071646,-3.2743128334603657,-13.941695050495428,-11.645290984093066,5.842933455433458,-1.3949154361263716,1.772046339903483,23.680982905982905,-46.17123969780219,29.67403480396561,36.38323299487824,39.97744631143858,1577397525.999,-27.71857023756933,-51.11867382132611,4.992908
46868,1577397526.41,-1.469105496736852,-4.692722846649914,9.02012555705745,-1.2614814966713508,-3.094914411889053,9.097411554550543,-4.124946682218226,-1.125946324641531,10.916946421106848,-19.6590888790968,13.143027701028965,1.561048554211128,-0.7380043588033537,3.203973537538109,0.58746337890625,-5.925992640053353,-16.488424161585368,-16.489912823932926,-12.970771258705287,4.747383432539684,-0.929943624084252,-1.4498560962846678,23.34268315018315,-48.39759150354854,29.65007338185521,36.59888579387187,40.02536915565939,1577397525.999,-27.71857023756933,-51.11867382132611,4.992908
46869,1577397526.42,1.004104818204554,-1.219933338593273,11.754303852955886,2.005406668611852,-3.613259071312881,8.53836546690406,2.467487589022008,10.537407062809638,7.585414810999428,-3.2864082150342986,-0.1778951505335365,-1.002428008288872,0.5437339224466463,2.700433498475609,-0.37384033203125,-1.0431801400533538,-10.873189786585366,5.498002215129573,-12.213353958926874,4.564791762057388,-1.2399248321123315,26.258504854933427,20.97458485958485,-49.409569597069606,29.67403480396561,36.57492437176146,40.02536915565939,1577397525.999,-27.71857023756933,-51.11867382132611,4.992908
46870,1577397526.43,2.5004808558022105,-1.5096317394721792,10.48058856975276,2.1059631383384145,-0.5941707778558497,10.341199317001715,5.060407986971226,-2.3290326588700454,4.322117948206459,11.6977226443407,-6.800209603658536,-2.223131133288872,-3.820279749428354,0.2285096703506097,1.48773193359375,1.7339194693216462,3.2259313071646343,12.333939715129572,-12.213353958926874,4.564791762057388,-1.2399248321123315,25.6141243676958,23.680982905982905,-44.14728351076008,29.62611195974481,36.52700152754066,40.0732919998802,1577397525.999,-27.71857023756933,-51.11867382132611,4.992908
46871,1577397526.44,2.4897069483315075,1.132369792510242,10.759513063160965,2.6422643102134145,2.9205172592535247,11.696317456650153,4.710854544588414,-2.017786443049733,2.99333602681974,11.6977226443407,-4.786049447408536,-0.7582873832888719,-2.141812952553354,2.669915920350609,-0.31280517578125,4.419466344321647,26.968607088414632,14.988969012004572,-11.645290984093066,5.477750114468867,-1.2399248321123315,24.969743880458168,23.680982905982905,-42.9329097985348,29.602150537634408,36.67077006020308,39.88160062299697,1577397525.999,-27.71857023756933,-51.11867382132611,4.992908
46872,1577397526.45,-0.1929960118735709,0.4703730334770385,7.48065388957698,0.3162973973716175,0.4748402634039148,6.042410236191168,-3.9262279444252575,-10.386718346125908,10.96123915181974,8.4018242068407,4.552329458841464,2.140882538586128,-0.2344643197408537,3.6312196312881095,-0.99945068359375,5.060335484946647,44.31785025247714,3.5448772151295724,-12.970771258705287,5.295158443986569,-0.929943624084252,-1.691498778998779,21.735759310134316,-13.686742895776096,29.67403480396561,36.38323299487824,40.097253421990594,1577397525.999,-27.71857023756933,-51.11867382132611,4.992908
46873,1577397526.46,-0.6047986974204459,1.4400247058403195,9.053644380299636,-2.086283968595179,1.3547093735113376,10.374718140243903,2.6470527135337267,2.0236259592940167,13.779214505823646,6.448699206840701,1.5921243807164631,-1.551744414538872,-3.209928186928354,-0.0461485327743902,2.76947021484375,12.262483922446648,15.249857088414634,-23.188521222370422,-11.834645309037668,5.660341784951164,-0.929943624084252,-0.1610951218094077,24.01928266178266,-16.62147936698718,29.86572618084883,36.57492437176146,40.0732919998802,1577397525.999,-27.71857023756933,-51.11867382132611,4.992908
46874,1577397526.47,-0.5305784459556021,-3.037132398651867,12.783810566823073,-1.674481283048304,0.3778750961675867,16.949195899032965,2.726061368318883,-3.1813684498856705,15.905265580042396,-13.3266914181593,-2.1615377286585367,-1.765367461413872,-1.5314613900533538,4.3483827172256095,0.26702880859375,-4.430631311928353,-6.539693692835366,-16.749312237995426,-11.834645309037668,5.660341784951164,-0.929943624084252,-0.1610951218094077,24.01928266178266,-16.62147936698718,29.72195764818641,36.38323299487824,40.0732919998802,1577397525.999,-27.71857023756933,-51.11867382132611,4.992908
46875,1577397526.48,0.6916615015541634,-1.8579880810249132,11.045620161549635,4.6773357213462265,-1.6811383315667872,8.009246900009527,-3.060724044278773,9.01708900861042,8.26057967916349,-10.7479560665968,-0.0863424161585368,1.759412812023628,-3.331998499428354,8.74291396722561,2.03704833984375,4.327913609946647,-5.288472989710366,-0.5749958317454268,-13.160125583649888,5.660341784951159,-0.6199624160561691,-3.382997557997558,23.680982905982905,-13.787940705128204,29.74591907029682,36.19154161799503,40.1691376883218,1577397525.999,-27.71857023756933,-51.11867382132611,4.992908
46876,1577397526.49,0.0105111292397093,2.634731334258288,10.89717965861995,0.4108683629477901,-0.8299996413812403,9.10100285704078,0.347422018953649,-1.720905437190358,7.958910269983802,-4.140900402534299,-2.2530904630335367,1.896741913586128,-0.8753334603658538,-4.166021579649391,1.27410888671875,6.525179234946647,21.49070181497713,6.794999285442073,-12.592062608816082,4.199608421092795,0.0,-3.060807314378743,10.656442307692306,-27.95563401442308,29.67403480396561,36.50304010543026,40.097253421990594,1577397525.999,-27.71857023756933,-51.11867382132611,4.992908
46877,1577397526.5,3.367181856778773,0.2764426990043823,7.830207331959793,1.928792215486852,-0.5079795180902247,9.206347730087654,5.613468570467321,0.7020266428877668,8.028342118128334,8.1882011599657,-3.6568990567835367,-0.2394885551638719,-5.193570765053353,4.2568299828506095,-0.16021728515625,2.374788609946646,26.358255525914632,6.657670183879573,-12.781416933760685,4.747383432539684,-0.464971812042126,-2.738617070759928,-3.382997557997557,-16.216688129578753,29.62611195974481,36.479078683319855,40.1691376883218,1577397525.999,-27.71857023756933,-51.11867382132611,4.992908
46878,1577397526.51,2.1581100183998663,-4.325212891815929,9.594733955494949,2.398055740877477,-1.8630976577386624,6.790598254989996,-1.166910531095179,-2.812661394221608,12.63478611226896,-4.110382824409299,-6.159340463033536,0.1572399604611281,-5.193570765053353,3.036126857850609,0.60272216796875,-0.9516274056783536,13.601907869664634,2.2631389338795733,-11.645290984093066,5.112566773504274,-1.084934228098292,-2.5775219489505203,-3.21384768009768,-16.823874985691393,29.62611195974481,36.38323299487824,40.1691376883218,1577397525.999,-27.71857023756933,-51.11867382132611,4.992908
46879,1577397526.52,0.7120122156654916,0.0932862720024295,7.934355104176589,1.651064822908727,-1.508755812035537,6.431468005966559,0.7628160069907584,-6.032862627131765,13.39374803853849,2.222014636528201,4.720176138528964,1.149061249523628,-1.2873207650533538,-4.104986423399391,1.27410888671875,-3.667691858803354,2.4324742759146343,-9.089400128620428,-12.402708283871476,4.7473834325396815,-0.929943624084252,-2.899712192569336,27.571430097680096,-16.823874985691393,29.62611195974481,36.52700152754066,40.02536915565939,1577397525.999,-27.71857023756933,-51.11867382132611,4.992908
46880,1577397526.53,-2.084415323397008,0.819926475859851,14.33764744426448,-0.7826411646401009,1.9879757126226656,15.274451837753668,1.89168208975443,3.729494642155343,12.104470444544347,-6.155060558784299,-3.7789693692835367,-0.1784533989138719,-0.0208412728658538,-4.0592100562118905,0.14495849609375,-5.3919350228658525,-15.450826505335368,-10.325362042682928,-11.077228009259256,5.295158443986569,0.3099812080280861,-0.5638329263329263,-2.7909729853479845,-16.520281557635073,29.72195764818641,36.47907868331986,40.02536915565938,1577397525.999,-27.71857023756933,-51.11867382132611,4.992908
46881,1577397526.54,1.3416872522865853,-3.7553928966987415,10.89717965861995,5.213636893221227,-1.2549704360589746,11.356340820907963,2.149058768221227,9.237355561344796,10.561407474573643,-18.3926093869093,-2.4667135099085367,0.4624157417111281,-1.4399086556783538,10.78759170160061,-1.35040283203125,-0.0971352181783536,-24.270406583460368,15.812943621379572,-12.40270828387148,3.6518334096459095,-1.3949154361263716,-3.382997557997558,-0.6765995115995113,-42.730514179830585,29.67403480396561,36.479078683319855,40.1691376883218,1577397525.999,-27.71857023756933,-51.11867382132611,4.992908
46882,1577397526.55,2.229936068204554,-6.769692786835461,10.102304707448074,5.814581509920445,-5.423275526391006,6.165711621689215,-1.9857274988686164,-4.833367595393483,10.36747714010099,-18.1179511837843,0.4934915682164634,2.049329804211128,1.6728843130716462,0.4421327172256097,1.36566162109375,-1.0736977181783538,-21.890035489710368,14.744828387004572,-12.970771258705287,4.929975103021979,0.0,-3.382997557997558,-2.706398046398046,-42.9329097985348,29.5302662713032,36.38323299487824,40.1691376883218,1577397525.999,-27.71857023756933,-51.11867382132611,4.992908
46883,1577397526.56,2.089875271085414,-2.1201531628120227,11.63698797160823,1.1219462560141955,-0.6863475417718653,11.593366785263434,0.4767089086020865,-4.798651671321218,9.280509586390052,-1.1349189572217986,2.522910513528964,1.393201874523628,1.3982261099466462,-1.8161680640243905,2.95257568359375,-4.415372522865853,-10.278097013147866,9.877274676067072,-12.970771258705287,4.564791762057388,-0.154990604014043,-3.060807314378743,-3.2138476800976794,-41.3137448489011,29.721957648186415,36.479078683319855,40.1691376883218,1577397525.999,-27.71857023756933,-51.11867382132611,4.992908
46884,1577397526.57,2.69919959359518,2.594029906035632,10.502136384694168,3.389255228182164,1.7353874374761813,13.32676878721656,1.7875343175376333,-3.159820634944264,12.83111064840177,18.5946953005907,-2.8634420255335367,0.8896618354611281,0.5437339224466463,5.9963319359756095,-0.25177001953125,3.198763219321646,1.822122713414634,-2.2229450504954267,-13.917542883428302,4.747383432539684,-0.7749530200702122,-3.382997557997558,-1.6914987789987788,-38.88499742445055,29.62611195974481,36.479078683319855,40.02536915565939,1577397525.999,-27.71857023756933,-51.11867382132611,4.992908
46885,1577397526.58,1.071142464688929,0.475161436797351,13.028019136159012,1.710919864412633,-0.194339100609756,6.649340357040778,0.2121496251548209,-7.411922783381764,8.571825894983803,-0.7229316525342987,-7.929359994283536,-0.3005237114138719,1.0930503286966462,5.6911561547256095,0.96893310546875,-4.674771936928353,10.244974275914634,-6.190230206745427,-13.917542883428302,4.0170167506105,-2.014877852182537,-3.382997557997558,-1.6914987789987788,-38.88499742445055,29.72195764818641,36.479078683319855,40.1691376883218,1577397525.999,-27.71857023756933,-51.11867382132611,4.992908
46886,1577397526.59,1.0472004480873665,0.5014976550590697,9.501360090748856,1.229685330721227,-0.9485126235589748,8.26303227598609,3.022942374178258,-1.3881114064286393,7.745826322229896,10.7211601443407,13.524497427591465,1.377943085461128,2.618929234946646,-0.7480528296493902,3.53240966796875,0.4826987661966463,3.0123082602896343,-8.265425519245428,-14.48560585826211,5.295158443986569,0.6199624160561659,-3.382997557997558,-1.6914987789987788,-38.88499742445055,29.62611195974481,36.57492437176146,40.0732919998802,1577397525.999,-27.71857023756933,-51.11867382132611,4.992908
46887,1577397526.6,1.4458350245033824,-3.26458155636671,10.50692478801448,3.17497417959818,-1.0071705642328028,11.958482538437265,-0.3361225550209603,4.711117322819407,11.264105661829506,-7.268952160346799,2.675498404153964,-0.3615588676638719,-1.0584389291158536,4.0584657250381095,0.51116943359375,6.708284703696647,0.0368443931021341,0.9508830745045737,-14.390928695789809,5.203862608745421,0.852448322077229,-3.060807314378743,-1.0148992673992674,-40.09937113667583,29.626111959744808,36.52700152754066,40.21706053254261,1577397525.999,-27.71857023756933,-51.11867382132611,4.992908
46888,1577397526.61,-1.2320795323813831,-0.1928208263862417,12.97055829631526,0.1786308019126334,-0.3978462417230372,11.21987132627906,-3.010445809415492,-8.513255547053639,13.992298453577552,-9.2983711056593,11.205161490091465,2.293470429211128,3.870149938071646,-0.7785704077743902,0.57220458984375,2.740999547446646,-1.992574552210366,1.713822527629573,-13.34947990859449,5.660341784951164,0.6199624160561659,-2.416426827141113,-3.382997557997557,-39.6945798992674,29.62611195974481,36.38323299487824,40.0732919998802,1577397525.999,-27.71857023756933,-51.11867382132611,4.992908
46889,1577397526.62,2.352040352872523,-0.923052332733898,9.807817903248855,-0.9729801966225228,0.2078867782964929,9.385912854599372,2.4722759923423205,6.596551130192453,7.2526207802377085,3.2443535037157014,-6.037270150533536,0.1267223823361281,-0.6769692025533537,8.52929092035061,3.13568115234375,5.731722203696647,-0.2530725990853658,1.957963152629573,-12.40270828387148,4.747383432539684,-0.7749530200702122,-3.382997557997558,-2.706398046398046,-41.3137448489011,29.817803336628028,36.479078683319855,39.97744631143858,1577397525.999,-27.71857023756933,-51.11867382132611,4.992908
46890,1577397526.63,1.4793538477455697,-2.7665876110542102,11.24673310100276,1.361366422029821,-3.079352101098037,9.766590918564216,2.156241373201696,2.3851504099776104,8.157629007776771,8.6001884646532,3.880942740091464,1.240613983898628,2.618929234946646,6.8508241234756095,1.57928466796875,9.576937047446648,9.146341463414634,12.364457293254572,-12.781416933760685,5.842933455433458,-0.464971812042126,-2.738617070759928,-1.353199023199023,-38.075414949633696,29.67403480396561,36.33531015065744,40.21706053254261,1577397525.999,-27.71857023756933,-51.11867382132611,4.992908
46891,1577397526.64,2.773419845060023,1.2317291614067258,11.601074946705886,1.6426851170981804,1.2098601730718843,10.24303704893531,-1.250707589200648,-5.461845531184499,10.475216214808022,5.899382800590701,4.704917349466464,1.072767304211128,1.1998618521341462,5.7827088891006095,2.73895263671875,2.756258336509146,11.541971346227134,4.948685808879572,-12.213353958926874,5.295158443986569,-0.6199624160561659,26.902885342171057,-3.0446978021978017,-42.12332732371795,29.67403480396561,36.45511726120945,40.408751909425824,1577397525.999,-27.71857023756933,-51.11867382132611,4.992908
46892,1577397526.65,2.2945795130287725,1.8326737781059448,11.4526344437762,4.251167825838414,-0.4457302749261622,7.89911362364234,2.4722759923423205,-5.920335149104421,12.464797794397864,9.4394218630907,-0.0863424161585365,0.3708630073361281,4.846712438071647,12.86278701410061,0.87738037109375,3.687044469321646,5.453714510289634,-13.789107159870428,-13.160125583649888,5.112566773504274,-1.7048966441544575,27.547265829408687,-2.0297985347985343,-42.9329097985348,29.62611195974481,36.52700152754066,40.02536915565939,1577397525.999,-27.71857023756933,-51.11867382132611,4.992908
46893,1577397526.66,1.3440814539467416,-0.5280090588081168,6.568463057057449,1.9790704503501333,-2.3754568130121,6.4889288458103085,0.6407117223227896,-0.6195726735184831,8.102562369593178,13.0404960818407,13.005698599466465,2.140882538586128,-2.080777796303354,14.81591201410061,0.51116943359375,1.3677085318216462,2.1272984946646343,-15.070845441120428,-14.48560585826211,3.834425080128205,-0.3099812080280861,27.547265829408687,-2.0297985347985343,-17.026270604395606,29.86572618084883,36.52700152754066,40.1691376883218,1577397525.999,-27.71857023756933,-51.11867382132611,4.992908
46894,1577397526.67,0.4187225122963509,-1.5395592602241324,7.869711659352371,-0.9777685999428352,1.8790395370855564,10.690752759384528,2.6829657384360703,2.9046921702315167,8.037918924768958,4.6939384646532005,11.952842154153965,0.981214569836128,-0.0055824838033536,-1.2058165015243902,5.02777099609375,1.6728843130716462,-1.473775724085366,-1.490523175495427,-12.023999633982273,5.477750114468864,-0.464971812042126,27.547265829408687,-2.706398046398046,-17.026270604395606,29.67403480396561,36.52700152754066,40.02536915565939,1577397525.999,-27.71857023756933,-51.11867382132611,4.992908
46895,1577397526.68,-2.127510953279821,-3.5040017223823354,7.708103047291824,-0.4438616297279917,-3.7988096999749903,8.17444681456031,1.209334616609899,2.6688633067061254,11.36945053487638,-9.5119941525343,12.303794302591465,1.896741913586128,1.6881431021341464,6.5609071312881095,1.71661376953125,0.8183921255716462,-12.887349942835366,8.885453387004572,-12.023999633982273,5.477750114468864,-0.464971812042126,27.22507558578987,10.318142551892551,-17.026270604395606,29.67403480396561,36.550962949651066,40.1691376883218,1577397525.999,-27.71857023756933,-51.11867382132611,4.992908
46896,1577397526.69,-0.5233958409751334,0.379393370391101,9.621070173756667,-1.8492580042397104,3.7417284286871184,14.313179871200935,1.7252850743735708,-4.570005412776295,10.580561087854896,-7.528351574409299,3.7893900057164633,1.316907929211128,-0.3717934213033537,-3.9523985327743913,3.68499755859375,3.351351109946646,-3.5489710365853657,18.43745534012957,-13.7281885584837,4.199608421092795,-0.6199624160561659,26.902885342171054,23.680982905982905,-17.026270604395606,29.72195764818641,36.38323299487824,40.1691376883218,1577397525.999,-27.71857023756933,-51.11867382132611,4.992908
46897,1577397526.7,-1.2655983556235708,2.668250157500476,11.186878059498856,-1.4853393518959603,0.1169071152105555,11.27733216612281,0.7891522252524771,-8.223557146174734,10.817587052210364,6.235076159965701,0.2188333650914634,1.713636444836128,-0.6464516244283537,4.1042420922256095,0.23651123046875,-14.104703577553352,-0.0089319740853658,10.991166277629572,-14.106897208372905,5.660341784951164,0.0,-0.1610951218094077,26.049081196581195,-17.026270604395606,30.15326324617366,36.28738730643664,40.02536915565939,1577397525.999,-27.71857023756933,-51.11867382132611,4.992908
46898,1577397526.71,-0.6251494115317741,0.7133845019828977,9.597128157155105,0.0086424840415396,0.9955791244879002,7.896719421982183,2.7595801915610703,0.5595716441084699,5.886728733118568,1.5811454959032014,-4.725014291158536,2.797010468273628,-1.1194740853658536,-3.2352354468368905,2.37274169921875,4.129549352134148,19.613870760289632,-1.765181378620427,-12.781416933760685,4.747383432539684,0.464971812042126,1.2082134135705562,25.118756868131868,-11.055599852621336,29.721957648186415,36.43115583909905,40.02536915565939,1577397525.999,-27.71857023756933,-51.11867382132611,4.992908
46899,1577397526.72,1.0855076746498664,2.0409693225395382,8.586775056569168,0.9615347447837272,1.8886163437261811,12.40739534971656,-1.183669942716273,-4.842944402034108,6.117769193323646,12.3691093630907,-2.0699849942835367,2.781751679211128,-2.355435999428354,-5.081548923399391,1.12152099609375,7.227083531821647,45.79795279153964,-1.429488019245427,-12.781416933760685,4.747383432539684,0.464971812042126,2.0942365835222976,24.01928266178266,-12.978358230311354,29.86572618084883,36.52700152754066,40.0732919998802,1577397525.999,-27.71857023756933,-51.11867382132611,4.992908
46900,1577397526.73,1.1453627161537727,-0.8464378796088979,7.947523213307448,2.611139688631383,-2.370668409691787,6.081914563583746,-1.3895712854897102,-2.1853805592606705,8.22227245260099,3.2138359255907014,-11.499916634908535,2.476575897961128,0.3911460318216463,0.9304139672256098,0.48065185546875,12.354036656821648,48.39194693216464,-7.685591534870427,-12.40270828387148,5.112566773504274,0.1549906040140463,0.4832853654282225,25.372481684981683,-15.81189689217033,29.67403480396561,36.479078683319855,40.1691376883218,1577397525.999,-27.71857023756933,-51.11867382132611,4.992908
46901,1577397526.74,-0.7436623937095084,-1.7969359386909292,7.013784565846511,-1.3273220423256478,-2.303630763207412,3.5464550054782773,2.005406668611852,-3.4375480275223893,8.365924552210364,-0.2346504025342987,4.582847036966464,3.331068085461128,0.2080405630716463,-4.837408298399391,2.06756591796875,15.192171422446648,42.53257193216464,-13.178755597370428,-12.970771258705287,5.660341784951164,-1.2399248321123315,-0.1610951218094077,24.01928266178266,-16.216688129578753,29.86572618084883,36.33531015065744,40.0732919998802,1577397525.999,-27.71857023756933,-51.11867382132611,4.992908
46902,1577397526.75,3.342042739347132,-2.8851005932319453,6.584025367848465,4.214057700105992,-1.9421063125238185,8.728704498886481,1.806687930818883,2.374376502506907,12.635983213099037,-6.0635078244093,-6.372963509908537,0.8133678901486281,-2.492765100990854,-3.799810642149391,1.64031982421875,3.000398961509146,12.777933260289632,-3.031660870807927,-12.686739771288384,5.934229290674606,-0.3874765100351061,-3.060807314378743,24.188432539682537,-45.36165722298534,29.69799622607601,36.359271572767845,40.1451762662114,1577397525.999,-27.71857023756933,-51.11867382132611,4.992908
46903,1577397526.76,0.0871255823647093,1.0377988269340697,11.931474775807448,2.180183389803258,0.1863389633550867,12.268531653427496,-4.133326388028773,-1.4216302296708268,13.025040982874428,-1.3943183712842986,3.362143911966464,0.2182751167111281,-2.935269983803354,-5.081548923399391,1.15203857421875,-4.247525843178353,-3.7625940834603657,12.059281512004572,-12.592062608816082,6.025525125915753,0.0,-3.382997557997558,24.69588217338217,-46.17123969780219,29.5302662713032,36.38323299487824,40.1691376883218,1577397525.999,-27.71857023756933,-51.11867382132611,4.992908
46904,1577397526.77,0.1062791956459593,0.2429238757621948,9.542061518971511,-1.8229217859779916,0.0235332504644617,9.735466296982183,-2.34725194955221,-8.252287566096609,4.6429409706673965,-6.002472668159299,-3.9925924161585367,0.6760387885861281,-0.3412758431783537,-0.5039122046493902,-1.22833251953125,-6.444791468178353,0.2657262290396341,-2.0398395817454267,-13.538834233539092,5.112566773504274,-2.324859060210617,-3.382997557997558,24.35758241758241,-46.17123969780219,29.67403480396561,36.52700152754066,40.0732919998802,1577397525.999,-27.71857023756933,-51.11867382132611,4.992908
46905,1577397526.78,1.0531859522377571,-2.112970557831554,10.004142439381669,0.1666597936118521,-2.0642105971917872,5.636593054794684,0.1522945836509146,0.235157319157298,5.538372391565834,-2.5845039181592995,0.6003030916539636,0.7981091010861281,2.191683141196646,0.5642030297256098,-0.22125244140625,7.684847203696647,18.301614900914632,-4.816939191120427,-13.538834233539095,4.929975103021979,-0.7749530200702089,-2.899712192569336,18.775636446886445,-16.014292510874544,29.602150537634408,36.52700152754066,40.0732919998802,1577397525.999,-27.71857023756933,-51.11867382132611,4.992908
46906,1577397526.79,3.5563237879311167,-2.1201531628120227,7.662613215748856,2.122722549959508,-1.0598430007562405,6.560754895614997,0.7197203771079458,-0.1574917531083269,9.33198492208341,1.8710624880907007,-4.023109994283536,0.1267223823361281,-2.1570717416158534,-1.5872862280868905,0.63323974609375,4.175325719321647,10.000833650914634,1.851151629192073,-12.592062608816082,4.929975103021979,0.6199624160561659,-3.060807314378743,20.97458485958485,-16.216688129578753,29.96157186929044,36.45511726120945,39.92952346721778,1577397525.999,-27.71857023756933,-51.11867382132611,4.992908
46907,1577397526.8,3.101425472501429,1.2413059680473508,9.340948579518386,2.141876163240758,1.4552658432379002,10.539918054794684,-0.1781052454506478,-2.956313493830983,7.195159940393959,16.1227714724657,-7.959877572408536,-0.5751819145388719,-0.3107582650533537,2.029046779725609,1.02996826171875,-3.728727015053354,9.451517244664634,-1.063277081745427,-12.592062608816082,4.929975103021979,0.6199624160561659,-3.060807314378743,20.97458485958485,-16.216688129578753,29.72195764818641,36.479078683319855,40.02536915565939,1577397525.999,-27.71857023756933,-51.11867382132611,4.992908
46908,1577397526.81,0.8125686853920541,1.080894456816882,10.358484285084792,3.4586870763266955,-4.221386292992569,7.374783460068121,0.2360916417563834,0.2327631174971418,12.826322245081458,3.763152331840701,-3.1686178067835367,-1.338121367663872,0.4521811880716463,3.6464784203506095,-2.11334228515625,-0.3412758431783537,-4.586568692835366,-1.826216534870427,-12.40270828387148,5.112566773504274,-0.464971812042126,-2.094236583522298,24.35758241758241,-13.787940705128204,29.67403480396561,36.52700152754066,40.0732919998802,1577397525.999,-27.71857023756933,-51.11867382132611,4.992908
46909,1577397526.82,0.2104269678627572,-1.2558463634956167,10.032872859303543,-0.7072238123451791,-1.6500137099847558,4.745950037216558,-0.5085050745522103,1.039609076969798,10.695482767542396,-10.1986396603468,7.222617544778964,-0.0411242973513719,-3.148893030678354,-1.3584043921493902,0.78582763671875,-2.630094202553354,-3.8541468178353657,-3.3826130192454267,-12.308031121399178,4.290904256333945,0.5424671140491458,-2.094236583522298,25.03418192918193,-13.38314946771978,29.86572618084883,36.28738730643664,40.360829065205024,1577397525.999,-27.71857023756933,-51.11867382132611,4.992908
46910,1577397526.83,0.3097863367592415,1.3514392444145382,11.761486457936355,-1.0005135157143197,0.5155416916265722,11.68554354917945,1.7049343602622424,-1.3138911549637955,9.163193705042396,-3.1033027462842986,1.2869485994664631,-0.971910430163872,-0.0208412728658538,0.1216981469131093,-1.02996826171875,-5.117276819740853,-9.576192716272866,-1.139571027057927,-12.781416933760685,3.6518334096459095,1.7048966441544513,-2.738617070759928,24.865032051282046,-29.77719458276099,29.72195764818641,36.550962949651066,40.07329199988018,1577397525.999,-27.71857023756933,-51.11867382132611,4.992908
46911,1577397526.84,1.4087248987709602,-2.199161817597179,10.588327644459792,1.2871461705649772,-2.6675494155511625,4.097121387314215,-0.9729801966225228,-4.531698186213795,9.81202235494474,-10.2444160275343,-8.112465463033537,-1.582261992663872,-0.9516274056783536,0.9304139672256098,0.75531005859375,-4.522184046303353,5.514749666539634,2.9650432307545733,-12.781416933760685,3.6518334096459095,1.7048966441544513,-3.382997557997558,24.35758241758241,-42.9329097985348,29.5302662713032,36.52700152754066,40.1691376883218,1577397525.999,-27.71857023756933,-51.11867382132611,4.992908
46912,1577397526.85,2.3137331263100225,1.155114708281726,9.580368745534011,-1.195640951017054,1.5941295395269626,10.283738477157966,3.789086905428258,-0.6698509083817644,9.414584879358802,5.594207019340701,-3.2296529630335367,-0.6667346489138719,-2.233365686928354,-8.37744736089939,1.97601318359375,-10.320523890053352,-4.006734708460366,-4.694868878620427,-11.645290984093066,5.112566773504274,-1.3949154361263716,-2.899712192569336,23.850132783882785,-42.730514179830585,29.62611195974481,36.52700152754066,40.84005750741306,1577397525.999,-27.71857023756933,-51.11867382132611,4.992908
46913,1577397526.86,0.4402703272377571,-0.1269802807319454,6.891680281178543,0.9268188207114616,-1.1592023696527247,7.664481860947028,2.37052242178568,1.9494057078291716,7.316067124231849,-0.0515449337842987,3.758872427591464,0.4776745307736281,-4.720548304115853,0.4116151391006094,-2.41851806640625,-0.1581703744283538,2.1425572837271343,4.384110613567073,-14.106897208372905,4.929975103021979,-0.7749530200702122,-1.6109512180940757,11.671341575091574,-16.014292510874544,29.65007338185521,36.57492437176147,40.55252044208824,1577397525.999,-27.71857023756933,-51.11867382132611,4.992908
46914,1577397526.87,1.9186898523842413,-2.031567701386241,7.875697163502761,3.4969943028891954,-0.3715100234613184,13.140021057724372,2.908020694490758,-2.4056471119950453,11.80399813619474,-10.7021796994093,-4.633461556783536,-1.765367461413872,-6.048062952553353,-7.187261814024391,1.09100341796875,-7.879117640053353,-8.859029630335366,-2.1008747379954267,-12.592062608816082,3.834425080128205,-0.929943624084252,-2.094236583522298,-3.382997557997557,-17.026270604395606,29.817803336628028,36.57492437176146,39.97744631143858,1577397525.999,-27.71857023756933,-51.11867382132611,4.992908
46915,1577397526.88,-1.6486706212485709,-0.0970527599799917,12.84366560832698,-0.8843947351967415,-0.5438925429925685,13.010734168075937,1.0549086095298208,5.325230048649485,7.276562796839271,-4.507111340034299,-4.419838509908536,-1.551744414538872,-2.843717249428354,-3.0673887671493905,-2.47955322265625,-1.0431801400533538,2.2798863852896343,4.826615496379573,-12.592062608816082,3.834425080128205,-0.929943624084252,-2.094236583522298,-3.382997557997557,-17.026270604395606,29.72195764818641,36.38323299487824,40.1691376883218,1577397525.999,-27.71857023756933,-51.11867382132611,4.992908
46916,1577397526.89,-0.0948337438071646,-1.8304547619331168,10.43749293986995,-0.1757110437904915,-3.603682264672256,7.587867407822028,-4.820462264493616,-4.493390959651295,8.899831522425208,-15.8291328244093,-1.7953267911585369,-0.8193225395388719,-1.3483559213033538,-2.3044493140243905,-1.86920166015625,0.3301108755716463,6.033548494664634,6.047318621379573,-12.592062608816082,3.834425080128205,-0.929943624084252,-2.738617070759928,-2.706398046398046,-42.52811856112638,29.72195764818641,36.38323299487824,40.1691376883218,1577397525.999,-27.71857023756933,-51.11867382132611,4.992908
46917,1577397526.9,1.7080001062904917,1.1443408008110232,12.32053254558284,0.8753434850181021,2.9803723007574314,11.508372626327889,1.3613664220298205,-0.6985813283036394,13.148342368372472,-2.508209972846799,-8.661781869283535,-0.941392852038872,-4.506925257240853,-6.5616514624618905,0.51116943359375,-6.597379358803353,-0.4209192787728661,-3.2300251286204267,-13.34947990859449,4.0170167506105,-0.6199624160561658,-2.0136890226175943,12.263366147741149,-40.80775580214057,29.578189115524005,36.52700152754066,40.049330577769794,1577397525.999,-27.71857023756933,-51.11867382132611,4.992908
46918,1577397526.91,0.5444180994545541,0.666697569609851,9.39601521770198,0.9735057530845084,0.8998110580816502,9.24704915831031,-0.5085050745522103,-8.446217900569264,12.728159977015052,0.7724296755907013,-3.1991353849085367,0.5844860542111281,-1.6230141244283538,7.1865174828506095,-2.96783447265625,-13.006070765053352,-19.173971036585368,-9.455611066120428,-12.40270828387148,5.112566773504274,-0.7749530200702122,-2.416426827141113,-1.0148992673992672,-42.123327323717945,29.817803336628028,36.52700152754066,40.1691376883218,1577397525.999,-27.71857023756933,-51.11867382132611,4.992908
46919,1577397526.92,3.1780399256264293,-1.382739051483898,8.079204304616043,1.354183817049352,-3.8478908340081937,3.242391394638433,4.497770596834508,11.068919831364326,9.266144376429114,1.9626152224657007,-7.776772103658536,-1.307603789538872,0.2995932974466463,0.8388612328506098,-0.61798095703125,-11.022428186928352,-31.472555020960368,-5.640913800495427,-12.40270828387148,5.112566773504274,-0.7749530200702122,-2.416426827141113,-1.0148992673992672,-42.123327323717945,29.62611195974481,36.479078683319855,40.21706053254261,1577397525.999,-27.71857023756933,-51.11867382132611,4.992908
46920,1577397526.93,-0.3007350865806021,-2.937773029755382,8.989000935475417,3.425168253084508,-4.135195033226943,9.414643274521246,1.957522635408727,6.381072980778391,11.258120157679114,-15.0967109494093,11.342490591653965,1.500013397961128,-2.202848108803354,-11.76489853277439,1.24359130859375,-8.367398890053353,-38.79677377096037,12.028763933879572,-12.781416933760685,5.112566773504274,-0.6199624160561691,-2.738617070759928,-2.0297985347985343,-39.6945798992674,29.65007338185521,36.57492437176146,40.1691376883218,1577397525.999,-27.71857023756933,-51.11867382132611,4.992908
46921,1577397526.94,0.5204760828529915,1.116807481719226,12.520448384205888,-1.184867043546351,0.6017329513921971,13.72779756529273,2.2807398595298207,-5.3253760365555936,8.1779797218881,-9.2678535275343,-10.920082650533535,-0.8498401176638719,-3.469327600990854,-2.5485899390243905,-1.80816650390625,-13.357022913490855,-23.080221036585368,6.444047137004572,-13.7281885584837,4.564791762057388,-2.169868456196577,-2.5775219489505203,-0.3382997557997556,-38.88499742445055,29.72195764818641,36.550962949651066,40.1930991104322,1577397525.999,-27.71857023756933,-51.11867382132611,4.992908
46922,1577397526.95,-0.1331409703696646,-1.2749999767768667,11.431086628834793,-0.1852878504311165,-2.0115381606683496,5.050013648056403,-1.8324985926186168,2.3133243601729228,6.419438602503334,0.2841484255907013,-7.837807259908536,-1.246568633288872,-2.019742640053354,1.3576600609756098,-0.40435791015625,1.9475425161966464,5.789407869664634,5.681107683879573,-13.34947990859449,5.660341784951164,0.0,-2.094236583522298,-0.6765995115995113,-40.90895361149268,29.4823434270824,36.67077006020308,40.1691376883218,1577397525.999,-27.71857023756933,-51.11867382132611,4.992908
46923,1577397526.96,1.1932467493568977,0.0298399280082885,11.021678144948076,1.9886472569907585,0.0714172836675867,12.94369652159156,-1.0184700281654917,-3.8804753346512952,10.738578397425208,-4.537628918159299,-4.969154916158536,-0.7277698051638719,-4.461148890053353,-13.65698837652439,3.19671630859375,-2.416471155678354,7.742532869664634,0.2489787776295732,-14.674960183206712,4.0170167506105,0.1549906040140463,-3.382997557997558,-2.706398046398046,-38.88499742445055,29.72195764818641,36.479078683319855,40.21706053254261,1577397525.999,-27.71857023756933,-51.11867382132611,4.992908
46924,1577397526.97,1.0783250696693978,-2.0698749279487423,9.503754292409011,-1.0376236414467417,0.4161823227300867,14.167133569931403,-0.6330035608803353,1.6932261301924545,11.320369400843177,-5.0259101681593,1.3022073885289631,1.362684296398628,-0.0361000619283536,0.3200624047256097,-2.23541259765625,-1.5619789681783538,-3.0606897865853657,1.408646746379573,-14.390928695789809,4.838679267780832,-0.2324859060210597,-3.382997557997558,-3.382997557997557,-38.48020618704212,29.76988049240722,36.38323299487824,40.0732919998802,1577397525.999,-27.71857023756933,-51.11867382132611,4.992908
46925,1577397526.98,1.4470321253334602,-2.6732137463081167,8.850137239186354,2.765565695711461,-2.719024751244522,7.301760309433356,-0.5180818811928353,-5.97181048479778,12.924484513147863,-4.201935558784299,4.003013052591464,3.239515351086128,-3.5456215463033534,-1.9687559546493911,0.77056884765625,-8.184293421303352,-13.146749356897868,-3.703047589557927,-12.781416933760685,4.0170167506105,-0.1549906040140398,-3.2219024361881505,-2.537248168498168,-41.3137448489011,29.67403480396561,36.50304010543026,40.00140773354899,1577397525.999,-27.71857023756933,-51.11867382132611,4.992908
46926,1577397526.99,1.6888464930092415,2.3665807483207884,12.240326789967606,1.3470012120688832,1.2589413071050877,15.08171860411109,0.968717349764196,3.4840889719893293,9.043483622034584,1.0470878787157014,-3.6874166349085367,0.7981091010861281,-5.071500452553353,-5.966558689024391,0.75531005859375,-5.987027796303353,-25.185933927210368,-4.908491925495427,-14.48560585826211,5.295158443986569,-1.5499060401404114,-3.382997557997558,-3.382997557997557,-41.3137448489011,29.67403480396561,36.52700152754066,40.21706053254261,1577397525.999,-27.71857023756933,-51.11867382132611,4.992908
46927,1577397527.0,2.210782454923304,0.398546983672351,11.433480830494949,4.085967911287633,-1.039492286644912,10.563860071396247,3.5951565709556017,5.543102399723703,8.083408756311927,6.479216784965701,-12.568031869283535,-0.3310412895388719,1.4592612661966462,4.1957948266006095,-2.90679931640625,-5.742887171303353,-18.349996427210368,4.521439715129573,-15.05366883309592,6.938483478327229,-0.7749530200702122,-3.382997557997558,-3.382997557997557,-42.9329097985348,29.67403480396561,36.33531015065744,40.21706053254261,1577397526.999,-27.71858872894329,-51.11873850960441,4.7270837
46928,1577397527.01,2.165292623380336,-0.1102208691108516,10.394397309987136,1.37453453116068,-0.6073388869867097,7.742293414902106,0.8095029393638052,-2.0860211903641863,7.930179850061927,-4.369782238471799,0.1272806307164632,-0.2394885551638719,-2.019742640053354,-5.371465915586891,-0.38909912109375,-8.596280725990852,-13.512960294397866,9.144852801067072,-14.296251533317506,6.208116796398047,-0.6199624160561691,-3.3024499970928543,-3.2984226190476185,-42.02212951436584,29.67403480396561,36.33531015065744,40.12121484410099,1577397526.999,-27.71858872894329,-51.11873850960441,4.7270837
46929,1577397527.02,1.521252376798304,-3.30288878292921,8.203702790944167,1.0620912145102896,-2.875844959984756,6.658917163681402,1.421221463533727,-3.688939201838795,10.79603923726896,-6.734894543159299,0.6155618807164634,-0.4225940239138719,-2.355435999428354,0.5642030297256098,-1.74713134765625,-3.942350061928354,-9.988180020960366,9.953568621379572,-12.213353958926874,3.834425080128205,-0.6199624160561659,26.902885342171054,-3.0446978021978017,-15.407105654761905,29.62611195974481,36.479078683319855,40.0732919998802,1577397526.999,-27.71858872894329,-51.11873850960441,4.7270837
46930,1577397527.03,1.8923536341225229,-2.994036768769054,10.19328437053401,1.6079691930259146,-1.0107618667230371,8.899889917587654,1.0620912145102896,-3.188551054866139,4.997282816370522,-1.3943183712842986,2.385581411966464,0.4624157417111281,-3.850797327553354,-0.4733946265243902,3.56292724609375,-3.789762171303354,0.7845250571646342,4.063676043254573,-10.130456384536249,4.38220009157509,-1.3949154361263716,-2.094236583522298,-1.6914987789987788,-17.026270604395606,29.817803336628028,36.38323299487824,40.1691376883218,1577397526.999,-27.71858872894329,-51.11873850960441,4.7270837
46931,1577397527.04,2.2155708582436167,2.510232847930163,12.477352754323071,-0.2355660852943978,5.238104466284775,14.722588355087654,0.7843638219321646,1.077916303532298,9.843146976526771,0.6808769412157013,-3.3517232755335367,0.950696991711128,-0.8600746713033537,-3.4946348608993905,0.78582763671875,1.5813315786966462,16.256937166539632,4.338334246379573,-14.48560585826211,4.564791762057388,-0.6199624160561659,-3.382997557997558,25.03418192918193,-17.026270604395606,29.62611195974481,36.479078683319855,39.40237218078893,1577397526.999,-27.71858872894329,-51.11873850960441,4.7270837
46932,1577397527.05,2.517240267423304,1.3861551684868043,12.865213423268386,1.98745015616068,-1.7589498855218657,11.073825025009528,-2.4118953943764287,-6.067578551204031,15.712532346399817,3.122283191215701,-4.633461556783536,-0.6819934379763719,-1.5162026009908538,6.6066834984756095,-0.35858154296875,-14.348844202553355,-0.6498011147103657,-17.268111066120426,-14.296251533317507,4.564791762057388,-0.6199624160561659,-0.1610951218094077,25.03418192918193,-17.026270604395606,29.721957648186415,36.33531015065744,39.809716356665774,1577397526.999,-27.71858872894329,-51.11873850960441,4.7270837
46933,1577397527.06,0.8460875086342415,-6.499147999237804,9.580368745534011,1.9790704503501333,-3.1870911758050684,6.862424304794684,5.730784451814976,18.78543178204792,6.572667508753334,-23.4280097775343,19.322837271341463,1.683118866711128,-3.698209436928354,3.371820217225609,1.60980224609375,9.027620641196648,-6.417623380335366,-2.8332966129954267,-13.7281885584837,5.660341784951164,-0.3099812080280861,-0.1610951218094077,25.03418192918193,-17.026270604395606,29.62611195974481,36.38323299487824,40.360829065205024,1577397526.999,-27.71858872894329,-51.11873850960441,4.7270837
46934,1577397527.07,0.6760991907631478,-2.9198165173042105,9.226026899830886,-0.0583951624428343,-3.747334364281631,7.925449841904059,-3.640120846036585,-0.0545410817216072,12.668304935511143,-14.7305000119093,10.594809927591465,1.286390351086128,-4.827359827553353,1.0524842797256098,0.20599365234375,-4.461148890053353,-11.849752286585366,8.854935808879572,-13.538834233539092,6.208116796398045,-0.464971812042126,-2.738617070759928,-2.706398046398046,-16.62147936698718,29.62611195974481,36.57492437176146,40.26498337676341,1577397526.999,-27.71858872894329,-51.11873850960441,4.7270837
46935,1577397527.08,1.961785482267054,-0.4513946056831167,11.543614106862137,-1.5068871668373665,-2.54783933254335,10.058683521103278,2.055684903475133,0.9558120188643292,8.504788248499427,-0.9670722775342988,-0.5135885099085366,0.096204804211128,-4.644254358803353,-0.1682188452743902,2.46429443359375,-5.681852015053353,-25.826803067835368,7.542679949504573,-14.48560585826211,5.660341784951164,-0.6199624160561659,1.1276658526658527,25.372481684981683,-17.026270604395606,29.62611195974481,36.38323299487824,40.1691376883218,1577397526.999,-27.71858872894329,-51.11873850960441,4.7270837
46936,1577397527.09,0.8939715418373665,0.5278338733207885,11.82852410442073,1.3553809178794305,0.7908748825445409,10.538720953964608,-0.0368473475014281,0.6553397105147194,8.953701059778725,9.3478691287157,-1.7953267911585369,-0.7582873832888719,-6.811002405678353,6.5456483422256095,0.92315673828125,-6.9330727181783525,-2.2367151772103657,17.82710377762957,-13.917542883428302,4.747383432539684,0.1549906040140463,-0.4027378045235187,24.44215735653236,-33.1167222913805,29.62611195974481,36.52700152754066,40.24102195465301,1577397526.999,-27.71858872894329,-51.11873850960441,4.7270837
46937,1577397527.1,2.9410139612709605,1.9487925586235224,11.057591169850417,-0.4127370081459603,3.4759720444097746,7.532800769638434,5.484181680818883,-7.912310930354421,5.77060995260099,4.8617851443407005,2.522910513528964,0.203016327648628,-9.710172327553352,8.86498427972561,2.43377685546875,-13.311246546303352,13.968118807164634,-9.821822003620428,-13.917542883428302,4.747383432539684,0.1549906040140463,-0.8054756090470375,25.03418192918193,-49.409569597069606,29.578189115524005,36.57492437176146,40.02536915565939,1577397526.999,-27.71858872894329,-51.11873850960441,4.7270837
46938,1577397527.11,3.5180165613686167,-1.892704005097179,9.362496394459791,3.8944317784751328,-1.8080310195550684,9.826445960068122,0.9615347447837272,3.010037043278392,6.91982674947599,-8.7185371212843,8.092368521341463,0.065687226086128,-5.224088343178353,7.0034120141006095,1.60980224609375,0.3606284536966463,28.311380525914632,-8.540083722370428,-14.296251533317507,4.0170167506105,-0.464971812042126,0.4832853654282225,23.680982905982905,-46.17123969780219,29.72195764818641,36.38323299487824,40.21706053254261,1577397526.999,-27.71858872894329,-51.11873850960441,4.7270837
46939,1577397527.12,1.4494263269936165,-2.5463210583198355,11.194060664479323,1.928792215486852,-4.891762757836318,8.440203198837652,2.122722549959508,-4.584370622737233,10.48239881978849,-4.049347668159299,14.226401724466465,0.4624157417111281,-4.827359827553353,5.9963319359756095,0.90789794921875,0.3301108755716463,24.435648104039632,-12.202193097370428,-13.538834233539092,4.38220009157509,-1.084934228098292,-0.8054756090470375,25.03418192918193,-46.17123969780219,29.62611195974481,36.52700152754066,39.88160062299697,1577397526.999,-27.71858872894329,-51.11873850960441,4.7270837
46940,1577397527.13,0.9203077600990852,-1.4569593029487418,8.747186567799636,1.783943015047399,-1.0969531264886627,12.19670560362281,0.7101435704673209,1.702802936833079,10.427332181604896,-6.6891181759718,9.770835318216465,-0.2700061332888719,-5.666593225990853,4.0584657250381095,0.45013427734375,8.402010289634147,22.92502798685213,-9.943892316120428,-13.065448421177589,3.560537574404762,-0.6974577180631858,13.612537792894935,21.22830967643468,-32.71193105397207,29.602150537634408,36.45511726120945,40.02536915565938,1577397526.999,-27.71858872894329,-51.11873850960441,4.7270837
46941,1577397527.14,0.5372354944740853,2.067305540801257,14.007247615162916,0.1044105504477896,1.184721055640244,11.914189807724371,6.137798734041539,1.4394407542158918,12.802380228479896,4.800749988090701,-3.6568990567835367,-2.467271758288872,-4.217008265053353,5.3554627953506095,2.98309326171875,3.015657750571646,15.768655916539634,2.4157268245045733,-13.160125583649888,4.747383432539684,-1.3949154361263716,-3.382997557997558,18.60648656898657,-15.81189689217033,29.72195764818641,36.28738730643664,40.1691376883218,1577397526.999,-27.71858872894329,-51.11873850960441,4.7270837
46942,1577397527.15,-1.6343054112876334,1.0449814319145383,10.937881086842603,1.7157082677329458,-0.175185487328506,17.18143346006812,3.578397159334508,-0.2149525929520759,12.44324997945646,-7.650421886909299,7.848227896341464,-0.6972522270388719,-2.111295374428354,5.1723573266006095,0.75531005859375,-4.461148890053353,1.425394197789634,-1.368452862995427,-13.160125583649888,4.38220009157509,0.7749530200702057,-3.2219024361881505,24.188432539682537,-16.823874985691393,29.67403480396561,36.33531015065744,40.26498337676341,1577397526.999,-27.71858872894329,-51.11873850960441,4.7270837
46943,1577397527.16,-0.9615347447837272,-5.2374037243354605,7.2508105302019805,0.6862015538657584,-3.62044167629335,13.175934082626716,2.378902127596227,0.5871049632002668,13.712176859339271,-15.0051582150343,20.177329458841463,2.018812226086128,2.374788609946646,1.0830018578506098,-1.96075439453125,4.114290563071647,-10.232320645960366,0.6762248713795732,-14.106897208372905,3.834425080128205,-0.6199624160561659,-3.060807314378743,23.680982905982905,-16.216688129578753,29.62611195974481,36.38323299487824,40.1691376883218,1577397526.999,-27.71858872894329,-51.11873850960441,4.7270837
46944,1577397527.17,0.5264615870033822,-3.1879671032417103,10.445872645680495,1.9048501988852893,-3.58811995388124,10.671599146103278,0.6598653356040396,-6.487760942561452,13.268052451380289,-13.2198798947218,0.7986673494664634,-0.3615588676638719,-2.569059046303354,3.9974305687881095,-0.43487548828125,-14.608243616615852,-30.86220345846037,2.6446086604420733,-12.78141693376068,4.199608421092797,-2.014877852182541,-3.2219024361881505,24.01928266178266,-16.62147936698718,29.65007338185521,36.43115583909905,39.97744631143858,1577397526.999,-27.71858872894329,-51.11873850960441,4.7270837
46945,1577397527.18,1.186064144376429,-1.5144201427924917,8.66817791301448,0.7676044103110709,-2.3634858047113183,12.285291065048591,4.052449088045446,2.1361534373213606,6.730684818323646,3.0307304568407014,-2.9855123380335367,-2.345201445788872,1.7949546255716462,2.364740139100609,-1.44195556640625,-3.057340296303354,-31.442037442835368,11.967728777629572,-12.213353958926874,4.929975103021979,-3.099812080280829,-0.6443804872376302,25.20333180708181,-43.94488789205585,29.5302662713032,36.479078683319855,39.40237218078893,1577397526.999,-27.71858872894329,-51.11873850960441,4.7270837
46946,1577397527.19,1.415907503751429,-1.0403682140815542,12.369613679616045,0.2983408849204459,-1.4896021987542871,7.978122278427496,-1.3081684290443978,-10.383127043635673,8.24142606588224,14.3832695193407,-10.004555306783535,-3.382799102038872,1.4287436880716462,-1.6025450171493902,-0.40435791015625,-5.681852015053353,-10.720601895960366,7.847855730754573,-12.023999633982273,4.0170167506105,-2.63484026823871,-0.6443804872376302,26.218231074481075,-47.18321779132327,29.62611195974481,36.52700152754066,40.1691376883218,1577397526.999,-27.71858872894329,-51.11873850960441,4.7270837
46947,1577397527.2,1.5140697718178353,1.7919723498832882,12.4103151078387,-1.0879018763100228,0.5694112289800867,15.462396668075934,3.983017239900914,-3.080811980159108,7.219101956995521,3.915740222465701,-2.9549947599085367,-1.368638945788872,-1.0431801400533538,-3.9218809546493913,0.51116943359375,0.1470054068216463,3.1038609946646343,-5.183150128620427,-14.106897208372905,3.834425080128205,-2.169868456196577,-2.094236583522298,-3.382997557997557,-42.52811856112638,29.72195764818641,36.52700152754066,40.02536915565939,1577397526.999,-27.71858872894329,-51.11873850960441,4.7270837
46948,1577397527.21,1.1896554468666634,-3.6009668896186637,9.29306454631526,1.4679083959067736,-4.496719483910537,7.870383203720466,-0.0799429773842415,1.560347938053782,12.523455735071693,-5.880402355659299,3.316367544778964,0.3403454292111281,5.304476109946647,0.5336854516006098,-3.04412841796875,4.343172399009147,3.4242955649771343,-4.008223370807927,-12.49738544634378,4.838679267780831,-1.7823919461614743,-3.382997557997558,-3.0446978021978017,-42.9329097985348,29.602150537634408,36.45511726120945,40.21706053254261,1577397526.999,-27.71858872894329,-51.11873850960441,4.7270837
46949,1577397527.22,0.4534384363686166,-0.3556265392768667,11.356866377369949,-0.6186383509193978,1.6563787826910252,11.588578381943124,0.0661033238852896,-3.767947856623952,11.63161561666349,15.9701835818407,-0.8797994474085366,-1.704332305163872,-2.233365686928354,-3.8303282202743913,1.18255615234375,-3.972867640053354,-3.6405237709603657,-6.800581769245427,-12.023999633982273,4.747383432539684,-1.3949154361263716,-3.382997557997558,-3.0446978021978017,-42.9329097985348,29.5302662713032,36.479078683319855,40.0732919998802,1577397526.999,-27.71858872894329,-51.11873850960441,4.7270837
46950,1577397527.23,1.8971420374428352,0.8534452991020385,12.252297798268389,1.1746186925376334,0.4640663559332117,13.151992066025151,0.3246771031821646,0.0891110178877668,12.117638553675208,13.1015312380907,-9.455238900533535,-3.840562773913872,1.1540854849466462,5.5996034203506095,-2.93731689453125,-0.7685219369283537,-3.1522425209603657,2.2326213557545733,-13.7281885584837,6.025525125915753,-1.5499060401404114,-3.2219024361881505,-1.8606486568986569,-16.823874985691393,29.72195764818641,36.67077006020308,40.21706053254261,1577397526.999,-27.71858872894329,-51.11873850960441,4.7270837
46951,1577397527.24,1.3225336390053353,0.3865759753715702,11.31137654582698,1.6750068395102895,-1.9301353042230367,8.751449414657966,3.705289847322789,-1.012221745784108,12.629997708948643,2.0846855349657014,3.941977896341464,-0.453111602038872,1.0320151724466462,3.8601014672256095,1.57928466796875,1.7949546255716462,-4.495015958460366,-2.7112263004954267,-12.308031121399177,3.925720915369352,-2.092373154189561,-2.416426827141113,-2.3680982905982906,-42.9329097985348,29.721957648186415,36.38323299487824,40.21706053254261,1577397526.999,-27.71858872894329,-51.11873850960441,4.7270837
46952,1577397527.25,1.1693047327553352,-0.1233889782417104,12.2187789750262,1.046528903719274,0.8555183273687594,10.86074107725562,1.7181024693931015,3.5164106944014386,5.672447684534584,-4.537628918159299,-1.1849752286585369,-1.246568633288872,0.4521811880716462,0.1827333031631091,-1.28936767578125,6.860872594321648,8.551248689977134,1.286576433879573,-13.538834233539092,4.747383432539684,-1.3949154361263716,-3.060807314378743,-1.8606486568986569,-36.25385438129579,29.67403480396561,36.50304010543026,40.0732919998802,1577397526.999,-27.71858872894329,-51.11873850960441,4.7270837
46953,1577397527.26,-0.2504568517173209,-4.832783643769054,7.971465229909011,-1.1621221277748666,-5.77761737209413,3.946286682724371,-4.528369661954554,-7.605853117854421,10.45606260152677,-2.7065742306592986,9.007895865091465,0.8896618354611281,0.5437339224466463,6.9118592797256095,-1.47247314453125,13.086458531821648,20.895609041539632,4.277299090129573,-13.538834233539092,4.747383432539684,-1.3949154361263716,-0.9665707308564452,-0.5074496336996336,-41.51614046760531,29.86572618084883,36.28738730643664,40.0732919998802,1577397526.999,-27.71858872894329,-51.11873850960441,4.7270837
46954,1577397527.27,0.5803311243568978,-2.558292066620617,6.776758601491043,1.811476334139196,0.4089997177496179,7.870383203720465,-0.7000412073647103,-6.995331694514577,12.76167880025724,1.1386406130907014,10.808432974466465,0.1267223823361281,-5.590299280678353,-0.8701231421493902,2.86102294921875,9.424349156821648,21.780618807164632,-9.028364972370428,-12.970771258705287,4.199608421092795,-1.8598872481684976,-1.772046339903483,0.0,-42.123327323717945,29.72195764818641,36.479078683319855,40.0732919998802,1577397526.999,-27.71858872894329,-51.11873850960441,4.7270837
46955,1577397527.28,2.7135648035561166,-2.1357154736030384,7.39805393230159,1.8569661656821643,-2.028297572289443,9.64209243223609,1.6271228063071643,-5.896393132502858,11.351494022425207,14.2917167849657,-3.794228158346036,-0.8345813286013719,2.893587438071646,5.0808045922256095,-0.58746337890625,9.424349156821648,4.355081697789634,-10.859419659870428,-13.34947990859449,4.929975103021979,-1.3949154361263747,-2.094236583522298,-3.382997557997557,-42.123327323717945,29.65007338185521,36.28738730643664,40.1691376883218,1577397526.999,-27.71858872894329,-51.11873850960441,4.7270837
46956,1577397527.29,2.895524129727992,3.410452672148913,14.294551814381668,1.9802675511802112,1.177538450659775,9.50801713926734,2.8086613255942736,5.198337360661203,9.20628933492521,17.1603691287157,0.1883157869664634,-0.941392852038872,1.1388266958841462,2.502069240663109,2.35748291015625,3.595491734946646,9.329446932164634,-11.073042706745428,-13.917542883428302,3.6518334096459095,-2.324859060210617,-3.060807314378743,-0.3382997557997558,-36.05145876259157,29.86572618084883,36.59888579387187,40.1691376883218,1577397526.999,-27.71858872894329,-51.11873850960441,4.7270837
46957,1577397527.3,1.7439131311928353,-1.3492202282417105,11.850071919362136,4.473828580232945,-3.440876551781631,8.227119251083746,1.9072444005454456,14.830210639469794,8.646046146448645,-0.7229316525342987,-1.9479146817835369,-2.192613555163872,4.633089391196647,3.8295838891006095,-0.67901611328125,18.640657750571645,15.951761385289634,9.404252215129572,-13.917542883428302,3.6518334096459095,-2.324859060210617,-2.094236583522298,1.3531990231990234,-36.45625,29.72195764818641,36.71869290442388,40.74421181897145,1577397526.999,-27.71858872894329,-51.11873850960441,4.7270837
46958,1577397527.31,-0.9926593663657584,-6.336342286347179,7.099975825612137,-0.0440299524818968,-7.410462904320693,6.426679602646247,-4.552311678556117,-10.112582256038015,7.403455484827552,-7.101105480659299,27.318442740091463,1.438978241711128,2.527376500571646,6.1184022484756095,-0.43487548828125,15.802522984946648,31.302103182164632,19.78022877762957,-13.917542883428302,3.6518334096459095,-2.324859060210617,-3.382997557997558,-2.0297985347985343,-42.52811856112638,29.817803336628028,36.19154161799503,40.0732919998802,1577397526.999,-27.71858872894329,-51.11873850960441,4.7270837
46959,1577397527.32,1.098675783780726,-3.003613575409679,8.592760560719558,-1.327322042325648,1.862280125464462,11.995592664169685,0.3689698338950553,-9.02322050066692,12.554580356653725,-5.7430732540968,9.526694693216465,0.492933319836128,1.6118491568216462,5.3096864281631095,2.43377685546875,5.701204625571647,27.426370760289632,-5.488325909870424,-13.16012558364989,3.2866500686813174,-2.324859060210623,-2.094236583522298,-1.6914987789987788,-41.11134923019689,29.74591907029682,36.550962949651066,39.73783209033456,1577397526.999,-27.71858872894329,-51.11873850960441,4.7270837
46960,1577397527.33,3.412671688321742,2.7137399890434444,12.604245442311354,0.5425494542563833,1.3068253403082126,8.693988574814215,-0.8077802820717416,-6.02328582049114,15.488674491175209,17.1908867068407,-5.671059213033536,-1.277086211413872,1.6118491568216462,14.48021865472561,2.67791748046875,4.358431188071647,19.156107088414632,-20.594527081745422,-12.023999633982273,3.6518334096459095,-1.084934228098292,-2.094236583522298,-1.6914987789987788,-41.3137448489011,29.86572618084883,36.33531015065744,40.84005750741306,1577397526.999,-27.71858872894329,-51.11873850960441,4.7270837
46961,1577397527.34,2.172475228360804,0.7768308459770384,13.669665181080886,5.898378568025914,-1.2142690078363183,6.57751430723609,0.0517381139243521,-4.244393986995045,10.312410501917396,12.9794609255907,-5.396401009908536,-1.521226836413872,2.283235875571646,11.55053115472561,1.30462646484375,1.0625327505716462,3.5005895102896343,-15.437056378620428,-12.023999633982273,3.6518334096459095,-1.084934228098292,27.8694560730275,-0.6765995115995113,-40.504162374084245,29.817803336628028,36.52700152754066,40.1691376883218,1577397526.999,-27.71858872894329,-51.11873850960441,4.7270837
46962,1577397527.35,1.5763190149818975,-2.4792834118354605,9.173354463307447,1.162647684236852,-3.0290738662347563,9.012417395614998,2.031742886873571,8.291645905583078,4.906303153284584,17.3129570193407,19.475425161966463,0.950696991711128,5.701204625571647,2.059564357850609,2.28118896484375,7.379671422446647,6.949075838414634,-9.333540753620428,-12.023999633982273,3.6518334096459095,-1.084934228098292,28.513836560265133,-3.382997557997557,-40.504162374084245,29.62611195974481,36.38323299487824,40.02536915565939,1577397526.999,-27.71858872894329,-51.11873850960441,4.7270837
46963,1577397527.36,1.1309975061928352,-1.928617029999523,8.141453547780106,2.3262296910727893,-2.610088575707412,11.631674011825934,1.1829983983481802,1.7530811716963588,8.85434169088224,0.894499988090701,10.701621451028965,0.065687226086128,-0.2954994759908538,7.842645412538109,1.16729736328125,7.867952672446647,3.0123082602896343,13.432572527629574,-13.065448421177589,4.290904256333942,-1.3174201341193548,28.43328899936043,-2.7909729853479845,-14.496325370592947,29.86572618084883,36.50304010543026,40.57648186419864,1577397526.999,-27.71858872894329,-51.11873850960441,4.7270837
46964,1577397527.37,-2.1538471715415395,-1.363585438202648,10.408762519948072,-0.429496419767054,-1.1185009414300684,11.71068266661109,3.322217581697789,-12.58100416765911,8.042707328089271,-5.575226574409299,3.148520865091464,-1.338121367663872,0.0859702505716463,4.4094178734756095,-0.89263916015625,3.809114781821646,14.975198885289634,12.394974871379572,-13.7281885584837,4.199608421092795,-1.5499060401404114,-3.2219024361881505,-2.1989484126984125,-16.014292510874544,29.67403480396561,36.52700152754066,40.74421181897145,1577397526.999,-27.71858872894329,-51.11873850960441,4.7270837
46965,1577397527.38,-1.1458882726157584,-1.3109130016792103,9.37686160442073,-1.8588348108803352,-1.0107618667230371,11.14325687315406,2.407632547518102,-4.826184990413014,8.049889933069739,-0.2956855587842987,6.078208365091464,0.5844860542111281,1.3677085318216462,-0.1682188452743902,0.23651123046875,2.832552281821646,21.292337557164632,-3.0164020817454267,-12.40270828387148,4.747383432539684,-2.324859060210617,-3.2219024361881505,25.54163156288156,-16.419083748282965,29.62611195974481,36.52700152754066,40.0732919998802,1577397526.999,-27.71858872894329,-51.11873850960441,4.7270837
46966,1577397527.39,-1.0237839879477897,-2.558292066620617,5.287565168873855,-1.1046612879311166,-1.3674979140863184,9.577448987411872,1.3422128087485707,1.1904437815596418,10.714636380823643,-0.5703437619092987,5.834067740091464,2.018812226086128,1.6728843130716462,-1.6330625952743902,1.91497802734375,10.614534703696648,21.048196932164632,-6.678511456745427,-12.40270828387148,4.747383432539684,-2.324859060210617,-1.1276658526658527,-3.382997557997557,-17.026270604395606,29.62611195974481,36.52700152754066,40.1691376883218,1577397526.999,-27.71858872894329,-51.11873850960441,4.7270837
46967,1577397527.4,-1.8402067540610707,0.4679788318168822,13.384755183522293,-1.875594222501429,1.0745877792730565,13.860675757431403,1.5864213780845082,-0.1981931813309822,8.75857362447599,1.6879570193407014,2.568686880716464,1.438978241711128,-1.9892250619283536,3.8295838891006095,2.95257568359375,9.302278844321648,14.914163729039634,-4.511763409870427,-13.538834233539092,4.747383432539684,-1.3949154361263716,0.4832853654282225,-3.382997557997557,-17.026270604395606,29.43442058286159,36.52700152754066,40.1691376883218,1577397526.999,-27.71858872894329,-51.11873850960441,4.7270837
46968,1577397527.41,1.4374553186928352,-0.9218552319038198,8.422772242848465,3.073220609041539,-1.894222279320693,5.162541126083746,-2.2419070765053357,-6.813372368342702,10.355506131800208,9.2868339724657,-4.145180306783536,0.218275116711128,3.595491734946646,7.4001405297256095,1.67083740234375,6.433626500571647,13.022073885289634,-6.220747784870427,-13.822865720956,5.386454279227719,-1.472410738133398,-0.8054756090470375,26.38738095238095,-17.026270604395606,29.76988049240722,36.479078683319855,40.0732919998802,1577397526.999,-27.71858872894329,-51.11873850960441,4.7270837
46969,1577397527.42,3.441402108243617,-2.4721008068549915,6.448752974049636,3.71726085562357,-2.583752357445693,4.54723129942359,4.114698331209508,2.964547211735423,8.480846231897864,17.4045097537157,-4.145180306783536,0.3708630073361281,1.7644370474466462,1.3576600609756098,0.29754638671875,11.957308141196648,5.728372713414634,-5.488325909870427,-13.34947990859449,3.834425080128205,-1.2399248321123315,-2.899712192569336,-3.21384768009768,-16.823874985691393,29.67403480396561,36.28738730643664,40.360829065205024,1577397526.999,-27.71858872894329,-51.11873850960441,4.7270837
46970,1577397527.43,1.6696928797279915,-0.8320726696479605,8.232433210866043,2.505794815584508,0.0331100571050867,7.140151697372809,0.1546887853110709,-1.1415086354325457,9.536689164026772,10.2023613162157,-3.0465474942835367,-0.7888049614138719,-1.1957680306783538,4.4399354516006095,-1.25885009765625,7.257601109946647,11.282571932164634,4.551957293254573,-13.917542883428302,5.842933455433458,-1.3949154361263716,-2.899712192569336,-3.21384768009768,-16.823874985691393,29.67403480396561,36.57492437176146,40.1691376883218,1577397526.999,-27.71858872894329,-51.11873850960441,4.7270837
46971,1577397527.44,0.8652411219154915,-0.4035105724799917,10.186101765553545,2.3382006993735707,-0.175185487328506,8.310916309189215,3.695713040682164,-4.728022722346608,10.446485794886144,-3.6221015744092986,3.209556021341464,-0.3615588676638719,-2.141812952553354,6.4540956078506095,0.48065185546875,-1.1347328744283538,6.888040682164634,3.819535418254573,-12.781416933760685,4.0170167506105,-1.084934228098292,0.6443804872376299,26.556530830280828,-16.823874985691393,29.62611195974481,36.479078683319855,40.0732919998802,1577397526.999,-27.71858872894329,-51.11873850960441,4.7270837
46972,1577397527.45,-0.5090306310141959,0.9516075671684447,11.258704109303542,1.610363394686071,-0.6348722060785059,12.665969129013437,0.8609782750571646,-9.63853032732708,9.958068656214271,-3.4389961056592986,13.463462271341465,0.920179413586128,-1.9281899056783536,-0.4123594702743902,2.67791748046875,-2.202848108803354,-0.6192835365853658,-1.887251691120427,-12.592062608816082,4.199608421092795,-1.5499060401404114,1.4498560962846674,25.03418192918193,-42.9329097985348,29.86572618084883,36.33531015065744,40.1691376883218,1577397526.999,-27.71858872894329,-51.11873850960441,4.7270837
46973,1577397527.46,-2.055684903475133,-2.036356104706554,11.06237957317073,0.4324161778891959,-1.1400487563714747,8.738281305527106,1.0237839879477897,-1.9232154774735613,10.661963944300208,-19.0945136837843,14.592612661966465,0.6150036323361281,-0.0361000619283536,3.341302639100609,-0.67901611328125,0.5437339224466463,4.263528963414634,-3.9929645817454262,-12.970771258705287,4.564791762057388,-1.2399248321123315,-0.8860231699517416,24.78045711233211,-48.09399807549222,29.67403480396561,36.38323299487825,40.0732919998802,1577397526.999,-27.71858872894329,-51.11873850960441,4.7270837
46974,1577397527.47,-1.651064822908727,-1.5527273693549917,7.775140693776199,-3.1995877405678352,1.6659555893316502,13.894194580673592,0.1091989537681021,2.9597588084151103,8.765756229456459,-8.1997382931593,2.049888052591464,1.408460663586128,-0.7380043588033537,-3.0368711890243905,-0.09918212890625,2.802034703696646,-2.0841272865853657,2.6598674495045733,-13.34947990859449,4.199608421092795,-0.929943624084252,-2.738617070759928,24.01928266178266,-17.026270604395606,29.62611195974481,36.57492437176146,40.1691376883218,1577397526.999,-27.71858872894329,-51.11873850960441,4.7270837
46975,1577397527.48,0.3648529749428353,-0.8320726696479605,11.4909416703387,1.9144270055259145,-0.6947272475824122,8.267820679306402,-1.980939095548304,-5.032086333186452,6.405073392542397,0.9860527224657012,-3.2296529630335367,-0.5446643364138719,-2.019742640053354,6.9728944359756095,0.57220458984375,-1.5924965463033538,5.362161775914634,2.9650432307545733,-11.834645309037668,3.834425080128205,-0.929943624084252,-3.2219024361881505,21.820334249084247,-13.585545086423991,29.62611195974481,36.52700152754066,40.1691376883218,1577397526.999,-27.71858872894329,-51.11873850960441,4.7270837
46976,1577397527.49,0.1972588587318978,-0.0300151134956167,8.447911360280106,2.7763396031821643,-0.529527333031631,7.676452869247809,-0.0320589441811156,-0.6195726735184831,9.970039664515053,9.4699394412157,5.467856802591464,1.469495819836128,0.1775229849466463,-2.7011778296493905,0.45013427734375,-8.519986780678353,-2.5418909584603657,-1.612593487995427,-12.970771258705287,3.1040583981990206,-2.169868456196577,-3.2219024361881505,25.20333180708181,-13.585545086423991,29.67403480396561,36.33531015065744,40.1691376883218,1577397526.999,-27.71858872894329,-51.11873850960441,4.7270837
46977,1577397527.5,2.3879533777748665,-2.80489483761671,6.472694990651199,2.012589273592321,-1.2214516128167872,8.277397485947027,0.8442188634360709,0.0795342112471418,10.975604361780675,-5.209015636909299,-13.819252572408535,0.3403454292111281,-0.5548988900533537,-0.6565000952743902,0.35858154296875,-5.651334436928353,-15.206685880335366,0.6151897151295732,-13.917542883428302,4.0170167506105,-1.084934228098292,-2.738617070759928,24.35758241758241,-15.00231441735348,29.72195764818641,36.57492437176146,40.21706053254261,1577397526.999,-27.71858872894329,-51.11873850960441,4.7270837
46978,1577397527.51,0.9442497767006478,0.4512194201957885,7.049697590748855,0.9806883580649772,-5.210191578637099,7.877565808700933,-0.7479252405678353,-4.282701213557545,11.722595279749427,22.0736992068407,-3.6263814786585367,1.011732147961128,0.7878745474466463,-6.851568454649391,1.12152099609375,-13.372281702553352,-26.742330411585368,1.744340105754573,-13.538834233539092,5.477750114468864,-2.9448214762667897,-1.772046339903483,26.725680708180704,-15.407105654761905,29.67403480396561,36.479078683319855,40.21706053254261,1577397526.999,-27.71858872894329,-51.11873850960441,4.7270837
46979,1577397527.52,-0.941184030672399,-2.0686778271186634,8.874079255787917,0.5880392857993522,-2.5310799209222563,10.736242590927498,-0.295421126798304,-3.595565337092702,12.29480947652677,-12.3196113400343,1.5463480135289631,-0.5751819145388719,-3.026822718178354,-6.119146579649391,0.32806396484375,-14.501432093178352,-35.287252286585364,1.622269793254573,-13.7281885584837,4.929975103021979,-0.6199624160561659,-2.094236583522298,-3.0446978021978017,-17.026270604395606,29.65007338185521,36.38323299487824,40.0732919998802,1577397526.999,-27.71858872894329,-51.11873850960441,4.7270837
46980,1577397527.53,0.1302212122475218,-0.0539571300971792,10.94027528850276,-0.975374398282679,-0.8204228347406153,12.710261859726325,2.363339816805212,-0.5525350270341084,12.222983426722084,-8.5354316525343,-0.8187642911585366,0.3403454292111281,-4.155973108803353,-4.532232517149391,-0.49591064453125,-18.04147115567835,-48.53188119283536,4.063676043254573,-13.7281885584837,4.929975103021979,-0.6199624160561659,-0.8054756090470375,-3.382997557997557,-15.407105654761905,29.96157186929044,36.479078683319855,40.14517626621141,1577397526.999,-27.71858872894329,-51.11873850960441,4.7270837
46981,1577397527.54,-1.086033231111852,-0.1521193981635854,11.337712764088698,-2.356828756192835,-0.0530812026605372,13.28127895567359,0.6670479405845083,5.808858784001047,4.14255282369474,-2.4319160275342986,-3.4737935880335367,-0.6667346489138719,-2.874234827553354,-8.89624618902439,-0.09918212890625,-3.393033655678354,-34.921041349085364,10.930131121379572,-13.538834233539092,5.477750114468864,-2.014877852182537,-0.8054756090470375,-3.382997557997557,-15.407105654761905,29.62611195974481,36.19154161799503,40.1691376883218,1577397526.999,-27.71858872894329,-51.11873850960441,4.7270837
46982,1577397527.55,-0.6550769322837271,0.0489935412895385,13.377572578541823,-2.115014388517054,-1.6883209365472558,10.417813770126717,2.7380323766196644,0.8791975657393293,3.680471903284584,-9.0542304806593,-12.873207650533535,-0.4836291801638719,1.0930503286966462,-7.5534727515243905,-0.37384033203125,-2.538541468178354,-5.776754239710366,12.394974871379572,-12.213353958926874,4.564791762057388,-2.7898308722527494,-1.1276658526658527,-3.382997557997557,-39.28978866185897,29.96157186929044,36.28738730643664,40.360829065205024,1577397526.999,-27.71858872894329,-51.11873850960441,4.7270837
46983,1577397527.56,1.3428843531166634,-2.833625257538585,8.724441652028151,0.8585840733970084,-1.8271846328363184,4.947062976669684,1.0620912145102896,1.709985541813548,4.453799039515053,-3.6221015744092986,-2.649818978658536,1.026990937023628,-3.576139124428354,0.4421327172256097,-2.38800048828125,3.900667516196646,17.965921541539632,13.310502215129572,-11.077228009259256,4.199608421092795,-1.5499060401404114,-1.1276658526658527,-3.382997557997557,-39.28978866185897,29.74591907029682,36.38323299487824,40.26498337676341,1577397526.999,-27.71858872894329,-51.11873850960441,4.7270837
46984,1577397527.57,2.545970687345179,-2.091422742890148,6.475089192311355,1.3398186070884146,-1.7852861037835843,3.151411731552496,-3.3252833277260385,-16.414121025569266,6.624142844446693,-1.1806953244092986,-5.732094369283536,2.018812226086128,-4.995206507240853,-3.799810642149391,0.98419189453125,1.9475425161966464,35.95603384622714,-5.534102277057925,-11.077228009259256,4.199608421092795,-1.5499060401404114,-2.899712192569336,27.402280219780216,-16.62147936698718,29.62611195974481,36.43115583909905,40.21706053254261,1577397526.999,-27.71858872894329,-51.11873850960441,4.7270837
46985,1577397527.58,4.640897139981898,0.312355723906726,7.205320698659011,0.6071928990806021,3.9141109482183687,8.112197571396246,3.9518926183188823,-0.6650625050614519,9.48641092916349,1.9320976443407007,-9.699379525533535,-1.856920195788872,-5.742887171303353,-1.1142637671493902,1.42669677734375,-0.8600746713033537,30.203470369664632,-29.261519269245422,-11.455936659148463,4.929975103021979,-2.169868456196577,-2.094236583522298,-3.382997557997557,-39.6945798992674,29.62611195974481,36.479078683319855,40.21706053254261,1577397526.999,-27.71858872894329,-51.11873850960441,4.7270837
46986,1577397527.59,4.470908822110804,1.1718741199028198,10.71761453410823,5.148993448397008,0.2078867782964929,9.405066467880625,-3.752648324063929,9.335517829411202,13.245307535608802,10.8127128787157,-10.126625619283535,-1.887437773913872,-4.186490686928353,3.493890529725609,-0.31280517578125,-0.5548988900533537,13.296732088414634,-10.798384503620428,-13.7281885584837,4.564791762057388,-2.4798496642246697,-3.382997557997558,-0.6765995115995113,-39.6945798992674,29.72195764818641,36.38323299487824,40.0732919998802,1577397526.999,-27.71858872894329,-51.11873850960441,4.7270837
46987,1577397527.6,0.3337283533608041,-4.04389419674757,10.504530586354324,1.764789401766149,-7.141115217553114,8.526394458603278,-1.1250120020424446,1.3197306712080787,12.450432584436928,-12.1670234494093,12.670005240091465,-0.1021594536013719,-3.4082924447408534,-1.4499571265243905,-0.52642822265625,-5.8039223275533525,-2.1604212318978657,5.848954363567072,-13.254802746122191,3.19535423344017,-1.6274013421474345,-1.6109512180940753,-0.6765995115995115,-39.28978866185898,29.65007338185521,36.38323299487824,40.21706053254261,1577397526.999,-27.71858872894329,-51.11873850960441,4.7270837
46988,1577397527.61,0.2930269251381478,-6.017913465546398,8.921963288991043,-2.792573458341273,-0.6181127944574122,14.14319155332984,-1.3704176722084602,-4.335373650080983,15.471915079554114,-30.5080879025343,15.477622427591465,1.316907929211128,-6.353238733803353,-3.0673887671493905,2.03704833984375,-4.278043421303353,-19.112935880335368,9.495804949504572,-14.296251533317507,2.191100045787545,-1.7048966441544575,-3.382997557997558,1.3531990231990234,-36.45625,29.72195764818641,36.52700152754066,40.21706053254261,1577397526.999,-27.71858872894329,-51.11873850960441,4.7270837
46989,1577397527.62,0.1613458338295541,-0.2694352795112417,10.789440583912915,-0.0176937342201781,-0.2925013686761623,11.823210144638434,-0.372035579923304,-0.5549292286942644,17.229259098108802,-19.7048652462843,10.716880240091465,0.5234508979611281,0.7268393911966463,2.700433498475609,-0.28228759765625,-14.074185999428352,-35.317769864710364,10.960648699504572,-12.023999633982273,4.747383432539684,-1.3949154361263716,-2.738617070759928,-2.0297985347985343,-35.64666752518315,29.62611195974481,36.38323299487824,40.1691376883218,1577397526.999,-27.71858872894329,-51.11873850960441,4.7270837
46990,1577397527.63,0.5396296961342415,1.7249347033989133,13.31532333537776,0.0972279454673209,0.3682982895269617,7.891931018661872,-0.5923021326576791,-8.211586137873953,10.72421318746427,-7.131623058784299,-5.884682259908536,-0.971910430163872,-2.233365686928354,0.3505799828506097,-1.31988525390625,-13.463834436928352,-33.059469083460364,-0.5139606754954268,-14.296251533317507,4.0170167506105,-0.7749530200702122,-2.738617070759928,-1.6914987789987788,-36.45625,29.43442058286159,36.047773085332615,40.408751909425824,1577397526.999,-27.71858872894329,-51.11873850960441,4.7270837
46991,1577397527.64,-0.5748711766684927,-0.1688788097846797,12.81852649089534,-0.6701136866127573,-1.3244022842035064,10.763775910019294,0.7245087804282584,4.906244758122141,8.065452243860756,5.4111015505907005,-6.617104134908536,-0.8040637504763719,-2.8742348275533534,-3.9523985327743913,-1.19781494140625,-8.260587366615852,-25.735250333460364,-3.962447003620427,-13.444157071066794,4.47349592681624,-2.7123355702457297,-2.738617070759928,-1.6914987789987788,-36.45625,29.578189115524005,36.33531015065744,40.121214844101,1577397526.999,-27.71858872894329,-51.11873850960441,4.7270837
46992,1577397527.65,0.5228702845131478,-5.895809180878429,5.716127266041824,1.9790704503501333,-5.444823341332412,5.095503479599372,-1.413513302091273,-5.400793388850515,6.464928434046303,-9.3899238400343,7.726157583841464,0.981214569836128,-12.029508265053352,0.9304139672256098,-1.59454345703125,-5.712369593178353,-1.778951505335366,8.336136980754572,-12.592062608816082,3.834425080128205,-2.4798496642246697,-2.416426827141113,0.6765995115995117,-35.24187628777472,29.62611195974481,36.52700152754066,40.21706053254261,1577397526.999,-27.71858872894329,-51.11873850960441,4.7270837
46993,1577397527.66,0.8005976770912728,-0.5830756969917105,8.91717488567073,0.8537956700766959,1.3331615585699317,14.428101550888435,3.130681448885289,-7.088705559260671,6.30691112447599,4.922820300590701,7.390464224466464,1.255872772961128,-6.200650843178353,-9.44556259527439,2.37274169921875,-5.376676233803353,5.270609041539634,2.0800334651295733,-13.34947990859449,5.295158443986569,-1.5499060401404114,-2.899712192569336,-3.21384768009768,-42.730514179830585,29.67403480396561,36.38323299487824,40.0732919998802,1577397526.999,-27.71858872894329,-51.11873850960441,4.7270837
46994,1577397527.67,3.3264804285561165,0.9707611804496948,14.0192186234637,2.941539517732945,3.150360618628525,13.044252991318125,2.893655484529821,-1.6418967824052018,12.191858805140052,1.9320976443407007,-18.610512338033537,-3.352281523913872,-5.437711390053353,3.8295838891006095,-0.95367431640625,-1.9587074838033536,8.780130525914634,-3.657271222370426,-13.917542883428302,4.38220009157509,-2.014877852182537,-0.8054756090470375,-1.353199023199023,-42.9329097985348,29.86572618084883,36.57492437176146,40.02536915565939,1577397526.999,-27.71858872894329,-51.11873850960441,4.7270837
46995,1577397527.68,2.069524556974085,0.184265935088367,11.18328675700862,5.107094919344274,-1.2046922011956935,12.961653034042731,1.969493643709508,-2.4858528676102805,10.684708860071693,6.6012870974657005,-7.334267220846036,-1.353380156726372,-2.370694788490854,-4.516973728086891,-0.08392333984375,-2.1723305306783534,8.200296541539634,-7.456709698932927,-12.686739771288384,4.290904256333944,-1.627401342147441,-2.416426827141113,-2.0297985347985343,-38.88499742445055,29.65007338185521,36.52700152754066,40.28894479887381,1577397526.999,-27.71858872894329,-51.11873850960441,4.7270837
46996,1577397527.69,1.6672986780678352,-2.685184754608898,9.63782958537776,3.025336575838414,-6.299553334008193,11.605337793564216,3.6717710240806016,6.606127936833079,6.680406583460365,-7.619904308784299,-0.1778951505335365,0.035169647961128,-6.933072718178353,-4.257574314024391,-0.64849853515625,5.212923375571647,16.958841463414632,3.727982683879573,-12.970771258705287,5.295158443986569,-2.4798496642246697,25.29193412407698,-3.382997557997557,-42.123327323717945,29.62611195974481,36.52700152754066,40.02536915565939,1577397526.999,-27.71858872894329,-51.11873850960441,4.7270837
46997,1577397527.7,-0.3773495397056021,-3.403445252655773,12.079915278737136,0.2672162633384146,-3.1870911758050684,11.25817855284156,0.4228393712485709,-0.2077699879716072,10.13763378072599,-15.3103339962843,9.679282583841465,-0.8193225395388719,0.4216636099466463,-7.7670957983993905,-1.01470947265625,2.740999547446646,23.672708650914632,7.115433855754573,-15.05366883309592,3.286650068681319,-1.7048966441544575,22.07003168788883,-2.3680982905982906,-39.6945798992674,29.86572618084883,36.479078683319855,40.1691376883218,1577397526.999,-27.71858872894329,-51.11873850960441,4.7270837
