,timestamp,acc_x_dashboard,acc_y_dashboard,acc_z_dashboard,acc_x_above_suspension,acc_y_above_suspension,acc_z_above_suspension,acc_x_below_suspension,acc_y_below_suspension,acc_z_below_suspension,gyro_x_dashboard,gyro_y_dashboard,gyro_z_dashboard,gyro_x_above_suspension,gyro_y_above_suspension,gyro_z_above_suspension,gyro_x_below_suspension,gyro_y_below_suspension,gyro_z_below_suspension,mag_x_dashboard,mag_y_dashboard,mag_z_dashboard,mag_x_above_suspension,mag_y_above_suspension,mag_z_above_suspension,temp_dashboard,temp_above_suspension,temp_below_suspension,timestamp_gps,latitude,longitude,speed
51261,1577395943.03,1.0926902796303353,-3.3388602029939976,9.162200987280867,1.1883707532929209,-3.052490326374333,10.748593167784156,-0.9251837561630624,-6.444227348960317,8.874254441275248,-5.676455614043445,-3.437321360518293,0.8066689095846037,-4.867739793730945,-2.055470536394817,1.0219667016006095,-21.4653945550686,-6.8874824337843,18.20187452362805,25.645294621932727,-13.146600274725271,7.262416873800799,-16.57098723036223,4.420856227106228,-20.0638859537898,31.97433132656424,36.862461437086296,41.702668703387545,1577395943.0,-27.689036870112577,-51.1294675720939,5.4060946
51262,1577395943.04,-0.6095871007407584,4.949865944466939,10.998553660620711,-1.0490106981230938,5.530722625285823,8.918225998594702,0.2395953515029532,-7.111012511313834,10.042624851431498,14.800839307831556,6.511409108231708,2.759793909584604,-7.034487840605945,-1.1704607707698171,1.1287782250381098,-2.193543969131097,10.8127128787157,-11.70535203887195,25.31545160428729,-14.97251697954823,5.136831447322516,-15.93530855718356,3.811082954401921,-20.0638859537898,31.97433132656424,36.910384281307095,41.75059154760835,1577395943.0,-27.689036870112577,-51.1294675720939,5.4060946
51263,1577395943.05,-1.698948856111852,6.245129042611471,11.352895506323838,-4.262029326052781,2.6816226496998854,10.395448422911109,0.2419895531631094,5.633322925697885,16.00418698522056,8.086972120331556,-3.254215891768293,-1.5126670279153962,-2.395815965605945,-1.0483904582698171,1.7391297875381098,18.8941025152439,5.319548816215701,-17.32058641387195,26.14005914840088,-14.789925309065936,6.376756279434842,-15.472996794871795,-1.981763136288998,-91.47771731473654,31.83056279390182,36.57492437176146,41.79851439182916,1577395943.0,-27.689036870112577,-51.1294675720939,5.4060946
51264,1577395943.06,0.5408267969643197,-1.2918177835604043,10.1893134994879,-1.54939884509575,-0.6942016911204266,6.758656101133765,-3.327765122129859,8.779303907143197,6.494417991079936,-11.154360887480944,-6.855290110518292,-0.9023154654153962,1.5104340343940548,12.745554854230184,-2.0755674780868905,8.487608374618903,-7.345246105659299,-7.982207507621951,26.634823674869036,-13.876966956654456,5.84535992281528,-15.472996794871795,-1.981763136288998,-91.47771731473654,31.926408482343422,37.0062299697487,41.75059154760835,1577395943.0,-27.689036870112577,-51.1294675720939,5.4060946
51265,1577395943.07,-1.411644656893102,-1.131406272329935,10.632240806616808,1.749811042599562,-1.4783027348215985,10.039909476377906,-3.673727262022437,2.6142346322408536,7.654408695425639,4.333310010956555,32.66497356135671,2.637723597084604,-1.358218309355945,-0.3617449504573171,0.2742860375381097,-6.664369164443596,-6.536530285346799,14.46347120331555,27.12958820133719,-14.059558627136752,6.731020517181234,-16.021992012617012,1.753098159024884,-90.9676185193012,31.97433132656424,36.93434570341749,41.65474585916674,1577395943.0,-27.689036870112577,-51.1294675720939,5.4060946
51266,1577395943.08,-0.6909899571860709,-2.069933323111185,7.629911924780869,-0.4193356615020001,2.7223240779225417,10.929355393125952,4.046375991151391,-1.9802383535989887,20.076724009146343,-13.000674364043444,21.373469655106707,3.522733362709604,-3.647036668730945,8.564646651105184,1.3118836937881098,-6.923768578506097,-14.3032539181593,6.116913586128049,27.12958820133719,-14.059558627136752,6.731020517181234,-17.091087962962966,5.335516136162689,-105.76048358692589,32.16602270344745,36.81453859286549,41.60682301494594,1577395943.0,-27.689036870112577,-51.1294675720939,5.4060946
51267,1577395943.09,-1.181801297518102,4.346527126107564,14.302551951636335,-3.2995602586699686,6.002380352336604,14.341092758848609,1.5348584496474842,4.347636634193978,11.780815256704935,-8.209414598418444,-6.885807688643292,-1.1159385122903962,1.4799164562690548,6.916697432355183,1.6475770531631098,1.0108017339939026,-16.1343086056593,-0.1391899294969513,26.46990216604632,-14.789925309065936,6.731020517181234,-19.86495853683354,5.335516136162689,-88.7571904057481,31.83056279390182,36.910384281307095,41.65474585916674,1577395943.0,-27.689036870112577,-51.1294675720939,5.4060946
51268,1577395943.1,-1.276372263094274,2.7041047872403774,12.073550206030868,-0.9053585985137192,-0.3231004337962084,9.067863602354468,1.0153166893935788,-0.0804393362650054,3.234712430777201,8.910946729706557,9.883601491044208,-0.3682578482278962,4.867367628144055,8.640940596417684,-0.1529600562118902,3.742124976181404,17.6028740115282,-3.892852038871952,25.150530095464568,-14.60733363858364,6.376756279434849,-18.478023249898254,5.640402772514842,-79.23534622428855,31.95036990445383,36.71869290442388,41.55890017072513,1577395943.0,-27.689036870112577,-51.1294675720939,5.4060946
51269,1577395943.11,0.4558326380287728,-4.37794372350181,3.899745738257431,0.0427452589081551,-0.8761610172923016,6.377978037168921,2.3895884423232654,7.019565686928353,10.741731736197124,-7.293887254668445,-2.399723704268293,0.7761513314596037,0.5033539562690549,-3.642384598894817,5.4317567406631095,19.9622177496189,39.3161308474657,6.635712414253049,24.65576556899641,-15.33770032051282,5.845359922815277,-17.322243844118844,6.25017604521915,-88.7571904057481,32.118099859226646,37.0062299697487,41.55890017072513,1577395943.0,-27.689036870112577,-51.1294675720939,5.4060946
51270,1577395943.12,-1.7300734776938833,0.2763843038419389,11.1469941635504,-5.442370744509812,7.685504119426447,11.776902780821263,-1.9223687476181397,-10.046303746665396,10.07374947301353,7.140927198456555,15.422541920731708,0.7151161752096037,4.958920362519055,3.315623213605183,1.2813661156631098,16.6968368902439,37.3324882693407,-6.517363757621951,24.65576556899641,-15.33770032051282,5.845359922815277,-21.020737942612943,-4.420856227106227,-90.11745386024232,31.97433132656424,36.81453859286549,41.463054482283525,1577395943.0,-27.689036870112577,-51.1294675720939,5.4060946
51271,1577395943.13,-1.0166013829673208,2.5460874776700644,9.759554301489851,2.444129524044874,1.1684872004811346,8.79133331060642,-2.6334466406845465,2.966182276283822,14.447955906118995,12.634091260956556,0.2705643816692074,1.0050331673971038,2.5175141125190548,15.766795088605184,0.2437684594131097,16.4221786871189,18.7167656130907,-13.59744188262195,26.882205938103112,-14.333446132860196,5.933925982251871,-21.020737942612943,-4.420856227106227,-90.11745386024232,31.87848563812262,36.81453859286549,41.463054482283525,1577395943.0,-27.689036870112577,-51.1294675720939,5.4060946
51272,1577395943.14,-0.7819696202720083,-1.1481656839510288,11.958628526343368,-0.1847038988066879,0.0120877986256668,12.7872558814072,-0.1135493933700932,3.757465924965463,12.801942264761577,-2.502627489043445,-5.848210032393292,0.1963173470846037,1.4188813000190548,-4.588429520769816,4.973993068788109,-2.6818252191310963,-2.1572578244092986,1.8597114376905488,26.3049806572236,-14.242150297619048,6.199624160561654,-19.77827508140009,-4.344634568018188,-15.132930931248238,31.73471710546021,36.790577170755085,41.55890017072513,1577395943.0,-27.689036870112577,-51.1294675720939,5.4060946
51273,1577395943.15,-2.678177335115758,4.569187880502096,11.872437266577744,-1.7768480028105935,1.5228290461842595,13.72099452886814,-4.457828305723609,7.862324671303353,12.470345334829936,15.960507276581556,9.837825123856708,1.905301722084604,6.362728956269055,8.625681807355184,0.0606629906631097,5.435850562118903,-1.0281074337842988,8.55831983612805,25.31545160428729,-14.242150297619048,8.325209587039938,-20.09611441798942,-4.115969590754073,-4.420856227106225,31.83056279390182,37.0062299697487,41.65474585916674,1577395943.0,-27.689036870112577,-51.1294675720939,5.4060946
51274,1577395943.16,-1.5050185216391958,0.5110160665372514,8.118329063452745,-0.9819730516387188,1.5204348445241034,5.877589890196265,1.6449917260146718,2.207220350014291,7.598144956411967,3.9365814953315534,0.0111649676067073,2.454618128334604,6.759457471894055,13.508494307355184,0.2437684594131097,2.536680640243903,3.976775378715701,10.29782178925305,25.31545160428729,-14.242150297619048,8.325209587039938,-20.09611441798942,1.3719898635846923,-4.420856227106225,31.97433132656424,36.86246143708629,41.65474585916674,1577395943.0,-27.689036870112577,-51.1294675720939,5.4060946
51275,1577395943.17,-3.078009012361852,2.123510884652487,10.322191691626571,-2.712980851931688,0.6776758601491034,11.271726230528296,0.8070211449599844,-14.561768077720084,9.283662925161966,2.975277784394056,3.4443925066692067,1.2033974252096038,6.576352003144055,-7.548634598894817,2.044305568788109,-3.749940453506097,-4.171417980659299,-9.41653367949695,26.222519902812245,-14.1508544623779,6.288190219998247,-20.09611441798942,1.3719898635846923,-4.420856227106225,31.926408482343422,36.81453859286549,41.463054482283525,1577395943.0,-27.689036870112577,-51.1294675720939,5.4060946
51276,1577395943.18,0.247537093595179,-4.897485483755716,1.1248660141363376,-3.207383494753953,0.4167078791920723,10.006390653135718,0.6513980370498283,9.781277301918587,9.909746659292828,-0.0001860827934451,3.032405201981707,4.133084925209603,3.768734815644055,-0.1938982707698171,2.563104396913109,13.233091773056405,-4.583405285346799,-1.268340320121951,26.3049806572236,-14.97251697954823,5.845359922815277,-16.484303774928776,-0.3811082954401921,-3.570691568047336,31.97433132656424,37.05415281396951,41.60682301494594,1577395943.0,-27.689036870112577,-51.1294675720939,5.4060946
51277,1577395943.19,-0.1642655919516959,2.469473024545065,5.6307535385504,-1.465601786990281,-0.3757728703196454,12.854293527891578,-3.658164951231421,-12.39262137361852,11.172688035025248,13.274960401581556,-6.580631907393292,3.644803675209604,5.782894971894055,-1.9028826457698167,3.7838075219131095,-3.017518578506097,-8.8100898556593,7.001923351753049,25.48037311311001,-15.155108650030524,4.959699328449328,-17.264454873829877,-4.26841290893015,-14.96289799943646,31.97433132656424,36.910384281307095,41.463054482283525,1577395943.0,-27.689036870112577,-51.1294675720939,5.4060946
51278,1577395943.2,-2.426786160799352,4.052040321908346,15.29614564060118,-4.168655461306687,0.8692119929616035,7.9988525610947026,-0.346984055235327,1.280664307533822,12.810321970572122,12.634091260956556,-3.773014719893293,0.9287392220846036,7.674984815644055,-8.525197098894816,2.990350490663109,4.337217749618903,-10.7632148556593,-7.890654773246951,25.48037311311001,-15.155108650030524,4.959699328449328,-17.322243844118844,3.811082954401921,-26.185071499013805,31.97433132656424,37.05415281396951,41.60682301494594,1577395943.0,-27.689036870112577,-51.1294675720939,5.4060946
51279,1577395943.21,-1.636699612947789,1.2699779928067836,9.1550183823004,0.4258175245331556,0.332910821086604,10.606138169004858,3.0611620079970945,9.069002308022103,5.959313920035014,9.292416456269056,-6.855290110518292,1.7832314095846038,4.958920362519055,2.278025557355183,0.1216981469131097,8.090879858993901,4.6634208865282005,9.07711866425305,25.397912358698647,-14.1508544623779,7.350982933237393,-17.322243844118844,3.3537529998736897,-23.46454459002536,31.95036990445383,36.86246143708629,41.67870728127714,1577395943.0,-27.689036870112577,-51.1294675720939,5.4060946
51280,1577395943.22,-0.3127060948813834,-1.5958813944002477,4.843061192358993,0.9501476881073738,-0.8570074040110516,6.440227280332984,-0.730056320860327,-9.184391149009146,9.709830820669778,-2.777285692168445,-3.925602610518293,3.095487268959604,4.836850050019055,-5.595509598894817,2.227411037538109,2.628233374618903,19.0219413943407,7.795380383003049,25.975137639578165,-13.511783615689868,6.199624160561654,-16.859932081807084,0.457329954528231,-22.10428113553113,31.926408482343422,37.0062299697487,41.65474585916674,1577395943.0,-27.689036870112577,-51.1294675720939,5.4060946
51281,1577395943.23,-1.2871461705649772,4.657773341927877,8.491824522437119,-5.337025871462938,4.201940703899104,10.586984555723609,-1.3190299292587646,0.3469256600728846,7.049872776236186,18.82915962033156,4.100520436356708,2.027372034584604,9.750180128144056,-8.158986161394816,1.8001649437881098,13.614561499618905,24.1794120974657,-8.10427782012195,26.46990216604632,-14.059558627136752,6.731020517181234,-17.322243844118844,0.7622165908803841,-26.185071499013805,31.73471710546021,36.81453859286549,41.75059154760835,1577395943.0,-27.689036870112577,-51.1294675720939,5.4060946
51282,1577395943.24,-1.8306299474204455,4.518909645638814,9.82539484714415,-1.6475611131621564,2.5571241633717605,8.49205810308689,1.082354335877953,7.134487366615853,11.290003916372903,12.512020948456556,-8.594792063643293,1.0202919564596038,4.745297315644055,-2.696339677019817,0.1522157250381097,25.0891708746189,18.9303886599657,-8.89773485137195,26.46990216604632,-14.059558627136752,6.731020517181234,-20.03832544770045,0.6097732727043083,-24.484742180896028,31.782639949681013,36.81453859286549,41.463054482283525,1577395943.0,-27.689036870112577,-51.1294675720939,5.4060946
51283,1577395943.25,-0.4587523961509146,-1.7658697122713412,8.951511241187118,-1.2860366624785624,-0.4871032475169115,8.770982596495093,-2.031304923155249,2.0851160653463223,6.332809379019389,-2.975649949980945,-4.444401438643292,2.240995081459604,3.4635590343940548,-0.4990740520198171,2.990350490663109,8.930113257431405,17.2976982302782,-0.7953178591844514,26.79974518369176,-14.059558627136752,6.908152636054422,-18.56470670533171,-0.0762216590880379,-22.61437993096647,31.926408482343422,37.0062299697487,41.27136310540031,1577395943.0,-27.689036870112577,-51.1294675720939,5.4060946
51284,1577395943.26,1.4374553186928352,-0.5615862772127476,5.532591270483994,0.9980317213104988,-0.8785552189524579,4.781045529844703,-3.99095898199314,2.786617151772103,8.989176120962748,2.8684662609565548,-2.033512766768293,2.912381800209604,6.973080518769055,4.170115401105183,1.3424012719131098,5.710508765243903,17.2214042849657,9.07711866425305,25.31545160428729,-13.146600274725271,4.782567209576139,-17.091087962962966,-1.3719898635846908,-20.74401768103691,32.16602270344745,36.81453859286549,41.75059154760835,1577395943.0,-27.689036870112577,-51.1294675720939,5.4060946
51285,1577395943.27,-0.0493439122641959,2.7735366353849087,7.859755284155868,-2.270053544802781,-0.1243816960032392,-0.2539605614638907,2.937860622499047,-5.509291600669302,8.00515923863853,15.502743604706556,-2.094547923018293,1.1118446908346038,3.860287550019055,-2.177540848894817,2.532586818788109,8.609678687118903,19.7238456912157,-3.618193835746952,26.799745183691755,-13.69437528617216,7.085284754927611,-17.091087962962966,-1.3719898635846908,-20.74401768103691,31.83056279390182,36.86246143708629,41.65474585916674,1577395943.0,-27.689036870112577,-51.1294675720939,5.4060946
51286,1577395943.28,-1.153070877596227,5.121051363168111,10.92912181247618,-6.560462919802782,9.076535283977227,11.906189670469702,0.1366446801162344,2.5878984139791346,8.82158200475181,13.320736768769056,-1.1790205792682926,0.5777870736471037,3.799252393769055,-2.177540848894817,1.4949891625381098,7.541563452743903,13.0099785037157,-9.75222703887195,26.799745183691755,-13.69437528617216,7.085284754927611,-17.322243844118844,1.3719898635846923,-26.185071499013805,31.902447060233023,36.910384281307095,41.84643723604996,1577395943.0,-27.689036870112577,-51.1294675720939,5.4060946
51287,1577395943.29,2.323309932950648,-5.25900993443931,5.817501268042587,0.3875102979706556,-2.7017397831614423,5.4286770789169685,-3.4151534827255614,6.162441492592416,7.268942228140482,-12.848086473418444,-20.191471751143293,-1.0854209341653962,9.292416456269056,9.037669112042684,0.9914491234756098,9.204771460556405,6.372405261528201,2.1496284298780486,26.3049806572236,-12.0510502518315,5.491095685068893,-15.444102309727311,1.9055414772009605,-21.5941823400958,32.07017701500584,36.910384281307095,41.582861592835535,1577395943.0,-27.689036870112577,-51.1294675720939,5.4060946
51288,1577395943.3,-1.066879617830602,-0.5927108987947789,6.909257225073838,-0.1655502855254376,-0.0381904362376142,9.895060275938452,-2.3533250464462645,-1.230853233970083,6.769751181997904,5.645565870331555,27.446467701981707,5.109647425209603,2.6701020031440548,-6.144826005144817,3.6617372094131095,2.078916968368903,10.7821953005907,7.642792492378049,25.15053009546457,-14.424741968101342,4.959699328449328,-16.859932081807084,4.420856227106227,-26.185071499013805,31.782639949681013,36.86246143708629,41.65474585916674,1577395943.0,-27.689036870112577,-51.1294675720939,5.4060946
51289,1577395943.31,-0.9591405431235708,2.124707985482565,10.000171568335556,-3.92444689197075,5.183563384563167,8.779362302305639,0.3928242577529532,-8.442188634360708,7.986005625357279,2.2886322765815548,17.833430592606707,3.248075159584604,6.728939893769055,4.963572432355183,2.044305568788109,5.679991187118903,14.4748222537157,0.6847846798780487,26.799745183691755,-13.329191945207567,5.313963566195704,-17.322243844118844,-4.420856227106227,-23.46454459002536,31.97433132656424,36.71869290442388,41.41513163806272,1577395943.0,-27.689036870112577,-51.1294675720939,5.4060946
51290,1577395943.32,0.3002095301186165,3.82578826502358,9.830183250464463,-1.9635957323027813,1.98251576493426,8.324463986875953,2.9905330590224843,3.5455790780416345,8.00515923863853,11.977963331269056,-11.600773508955792,0.8677040658346038,6.149105909394055,7.771189619855183,2.257928615663109,9.433653296493905,11.7282402224657,-4.014922351371951,26.799745183691755,-13.329191945207567,5.313963566195704,-15.415207824582827,4.573299545282305,-4.08079036348267,32.09413843711624,36.81453859286549,41.55890017072513,1577395943.0,-27.689036870112577,-51.1294675720939,5.4060946
51291,1577395943.33,0.5755427210365853,-0.8201600565096225,7.4695004135504,0.9226143690155776,1.084690142375666,6.71077206793064,-3.099118863584937,1.2088382577291352,8.984387717642436,4.089169385956555,-4.627506907393292,1.1423622689596038,4.165463331269055,1.3930157917301829,2.563104396913109,7.190611304306404,15.0241386599657,1.4324653439405486,26.799745183691755,-14.059558627136752,6.022492041688465,-15.357418854293854,-4.115969590754073,-8.501646590588896,31.782639949681013,36.81453859286549,41.702668703387545,1577395943.0,-27.689036870112577,-51.1294675720939,5.4060946
51292,1577395943.34,0.4175254114662728,2.4670788228849085,6.368167649878525,-0.5007385179473126,1.5539536677662908,9.140886752989232,-1.5464790869736085,-4.422324046958364,10.392178293814313,7.262997510956555,9.990413014481708,2.820829065834604,4.195980909394055,1.3014630573551829,2.196893459413109,2.872373999618903,2.2677910037157014,-1.6955864138719514,25.975137639578165,-14.97251697954823,6.199624160561654,-15.472996794871795,-3.2013096816976128,-26.185071499013805,31.782639949681013,36.86246143708629,41.55890017072513,1577395943.0,-27.689036870112577,-51.1294675720939,5.4060946
51293,1577395943.35,-1.2272911290610709,4.557216872201314,9.710473167456652,-2.8183257249785623,2.2985503840748844,8.027582981016577,2.102284243104516,2.868020008217416,8.395414109243998,6.927304151581555,5.870539967606708,1.1423622689596038,3.4025238781440548,4.292185713605183,0.9151551781631098,6.503965796493903,-0.8450019650342988,-0.7495414919969513,26.3049806572236,-14.97251697954823,6.553888398308031,-15.010685032560032,-2.896423045345459,-80.59560967878276,32.07017701500584,36.910384281307095,41.84643723604996,1577395943.0,-27.689036870112577,-51.1294675720939,5.4060946
51294,1577395943.36,-0.8358391576255239,2.263571681771628,8.078824736060165,-3.507855803103562,0.6082440120045722,7.852806259825171,2.71280566644436,8.101744837318979,5.146482456411968,-2.151675340605945,-1.499455149580792,1.890042933022104,0.9611176281440548,-1.2009783488948171,3.539666896913109,7.053282202743903,6.326628894340701,1.5087592892530486,26.799745183691755,-14.424741968101342,8.502341705913125,-15.472996794871795,-2.896423045345459,-80.59560967878276,32.09413843711624,36.86246143708629,41.75059154760835,1577395943.0,-27.689036870112577,-51.1294675720939,5.4060946
51295,1577395943.37,0.3840065882240853,4.219634438119283,7.943552342261338,0.5754551282929212,2.7319008845631663,8.245455332090796,-1.4818356421493903,-4.132625646079458,6.870307651724467,13.305477979706556,-14.576237376143292,0.0437294564596036,1.0984467297065548,1.2862042682926829,1.0372254906631095,-0.9575820550685974,13.1778251834032,4.026459484565549,26.3049806572236,-14.607333638583638,6.908152636054422,-16.368725834350837,-2.972644704433497,-80.42557674697099,31.926408482343422,37.0062299697487,41.60682301494593,1577395943.0,-27.689036870112577,-51.1294675720939,5.4060946
51296,1577395943.38,-0.8753434850181021,0.9252129537442828,8.621111412085556,-1.654743718142625,0.5124759455983223,7.206371811582984,-0.9144098486923584,2.439457911049447,10.521465183462748,2.2886322765815548,5.778987233231708,1.5390907845846038,0.3202484875190549,-0.9263201457698172,2.196893459413109,3.818418921493903,7.699919909965701,-11.30862352324695,25.15053009546457,-14.424741968101342,7.085284754927611,-15.415207824582827,-1.2195465454086138,-80.2555438151592,31.83056279390182,36.81453859286549,41.65474585916674,1577395943.0,-27.689036870112577,-51.1294675720939,5.4060946
51297,1577395943.39,1.253101790860804,0.2237118673185013,8.068050828589463,-3.874168657107469,2.9186486140553543,12.976397812559544,5.36797530755764,15.720094519936165,13.612379526724467,-7.080264207793445,-2.033512766768293,1.3865028939596038,-2.456851121855945,-4.008595536394817,3.081903225038109,7.450010718368903,0.1315605349657012,4.896210461128049,25.81021613075545,-14.059558627136752,7.793813230420372,-17.091087962962966,5.945289408866995,-79.91547795153564,32.07017701500584,36.86246143708629,41.65474585916674,1577395943.0,-27.689036870112577,-51.1294675720939,5.4060946
51298,1577395943.4,-1.3841113378013052,0.7109319051602982,10.397609043921491,1.3619503736542489,-2.123540082233708,10.870697452452124,-5.992511569883765,-5.97017542024938,12.526609073843607,-3.036685106230945,2.177913014481708,1.981595667397104,-3.204531785918445,2.751048018292683,0.1674745141006097,-9.380433617568595,-11.2209785275343,8.39047315644055,26.3049806572236,-13.511783615689868,7.262416873800799,-16.28204237891738,5.335516136162689,-75.15455586080586,32.02225417078504,36.81453859286549,41.75059154760835,1577395943.0,-27.689036870112577,-51.1294675720939,5.4060946
51299,1577395943.41,-4.411579337068883,0.7049464010099077,12.140587852515244,-7.393645097537156,0.490928130656916,10.850346738340797,0.2324127465224844,-1.499003819907583,15.345781528677591,-4.547305223418445,5.168635670731708,0.5930458627096037,0.5949066906440549,-8.342091630144816,2.410516506288109,-3.597352562881097,-34.7195136837843,1.0815131955030486,26.63482367486904,-13.876966956654456,6.199624160561654,-17.322243844118844,6.555062681571303,-79.23534622428853,31.97433132656424,36.86246143708629,41.75059154760835,1577395943.0,-27.689036870112577,-51.1294675720939,5.4060946
51300,1577395943.42,-1.409250455232946,0.0824539693692826,9.313035691870711,-3.4527891649199685,6.857110345012385,12.049841770079077,3.711187758729516,7.474464002358041,13.727301206411967,-5.645938035918445,0.8656571551067074,1.5085732064596038,0.7780121593940549,-0.5601092082698171,1.1592958031631098,-2.163026391006097,-42.4099433712843,-1.3293754763719514,25.975137639578165,-14.97251697954823,6.553888398308031,-20.558426180301183,-1.6768764999368446,-79.23534622428853,31.83056279390182,36.81453859286549,41.79851439182916,1577395943.0,-27.689036870112577,-51.1294675720939,5.4060946
51301,1577395943.43,-0.0301902989829459,4.4758140157560025,11.941869114722277,2.858326411251905,2.621767608195979,9.023570871641576,-2.0947512671493893,4.93421604093226,10.911720054068216,8.025936964081556,-12.333195383955792,0.2726112923971037,-0.3816558093559451,7.862742354230183,-0.3665831030868902,-8.632752953506097,-46.7129218869093,5.109833508003049,26.46990216604632,-14.242150297619048,6.376756279434845,-21.020737942612943,-1.6768764999368446,-20.74401768103691,31.878485638122623,36.86246143708629,41.65474585916674,1577395943.0,-27.689036870112577,-51.1294675720939,5.4060946
51302,1577395943.44,-0.6957783605063834,1.2987084127286586,5.9252403427496185,-0.2732893602324693,-0.3362685429270678,7.763023697569312,-0.8581461096786873,-4.903558580649771,5.907838584341655,3.2041596203315548,3.490168873856707,1.905301722084604,2.0902680187690548,-6.297413895769817,0.7625672875381094,-20.1073623285061,-42.0742500119093,7.2155463986280495,27.12958820133719,-14.424741968101342,5.313963566195704,-19.60490817053317,-4.039747931666035,-11.052140567765568,32.07017701500584,36.958307125527895,41.72663012549795,1577395943.0,-27.689036870112577,-51.1294675720939,5.4060946
51303,1577395943.45,-1.804293729158727,-2.8097416360994663,7.41203957370665,-1.3794105272246564,-3.107556964557926,10.395448422911109,2.655344826600609,10.96042161954554,6.417803537954936,-16.693301317168444,6.725032155106708,-0.2919639029153963,0.9000824718940549,-2.238576005144817,-1.2515928687118902,-1.7052627191310974,-17.1108711056593,7.917450695503049,26.46990216604632,-15.520291990995116,5.668227803942081,-17.322243844118844,-4.115969590754073,-4.420856227106225,32.07017701500584,37.05415281396951,41.60682301494594,1577395943.0,-27.689036870112577,-51.1294675720939,5.4060946
51304,1577395943.46,-4.488193790193883,-0.8943803079744663,7.02896730808165,-1.635590104861375,1.1349683772389472,9.169617172911108,-2.054049838926733,-0.0768480337747705,5.68757203160728,-8.117861864043444,14.598567311356708,2.759793909584604,-5.142397996855945,-8.220021317644816,-0.1834776343368902,-0.6066299066310974,8.5238945193407,11.88473585175305,26.14005914840088,-14.789925309065936,7.085284754927611,-16.859932081807084,-2.896423045345459,-4.420856227106225,31.97433132656424,37.0062299697487,41.55890017072513,1577395943.0,-27.689036870112577,-51.1294675720939,5.4060946
51305,1577395943.47,-1.5433257482016955,6.419905763802877,11.356486808814072,-6.457512248416062,7.666350506145197,13.72817713384861,0.7782907250381094,-11.492401549399773,7.253379917349467,0.9000824718940548,-14.927189524580792,-1.1159385122903962,-1.6328765124809452,-8.769337723894816,-2.1366026343368905,-1.7968154535060974,15.5734550662157,-6.914092273246951,25.975137639578165,-13.146600274725277,6.908152636054415,-16.68656517094017,2.439093090817229,-4.08079036348267,31.75867852757061,36.910384281307095,41.79851439182916,1577395943.0,-27.689036870112577,-51.1294675720939,5.4060946
51306,1577395943.48,1.0472004480873665,-5.089021616568216,9.562032664526964,0.2821654249237806,-1.8338416813548013,2.971029074766577,-1.5716182044052491,5.640505530678354,11.77842105504478,-11.444277879668444,-29.194157298018293,-2.000948277915396,-0.671572801543445,2.369578291730183,-1.1447813452743905,7.861998023056404,12.2470390505907,-4.198027820121951,25.975137639578165,-12.781416933760685,7.262416873800799,-16.802143111518113,-4.26841290893015,3.40065863623556,32.07017701500584,36.862461437086296,41.702668703387545,1577395943.0,-27.689036870112577,-51.1294675720939,5.4060946
51307,1577395943.49,-0.7580276036704459,3.637843434701314,5.915663536108994,-5.088028898806687,5.777325396281917,12.454461850645483,-1.4746530371689208,-0.2707783682474268,6.183171775259623,13.915829542206556,23.204524342606707,4.773954065834603,-8.285708543730944,-22.89897639576981,4.7603700219131095,2.200987280868903,17.5570976443407,-10.72878953887195,25.975137639578165,-12.781416933760685,7.262416873800799,-16.744354141229145,1.6768764999368453,3.0605927726120075,31.97433132656424,37.05415281396951,41.75059154760835,1577395943.0,-27.689036870112577,-51.1294675720939,5.4060946
51308,1577395943.5,1.0184700281654917,5.866845180306783,9.044885105933211,1.5654575147675305,1.8651998835866035,10.57980195074314,0.8357515648818594,13.357017481361948,6.8942496683260295,8.178524854706556,2.544123951981707,0.7456337533346037,1.3578461437690548,10.670359541730184,-4.9442198218368905,7.175352515243903,23.3554374880907,-3.3740532107469514,24.82068707781913,-11.868458581349207,6.731020517181234,-17.206665903540905,2.896423045345459,-26.185071499013805,31.97433132656424,36.910384281307095,41.79851439182916,1577395943.0,-27.689036870112577,-51.1294675720939,5.4060946
51309,1577395943.51,2.3257041346108043,0.4619349325040483,8.974256156958603,4.402586482052686,0.5412063655201973,1.0101779150986083,0.3449402245498282,2.3891796761861657,15.18058161412681,-3.601260301543445,-6.183903391768292,-1.2685264029153962,-9.597964403105944,12.501414229230184,1.3118836937881098,-1.2474990472560974,7.303191394340701,8.37521436737805,25.31545160428729,-15.155108650030526,6.199624160561658,-15.877519586894593,2.1342064544650765,-23.1244787264018,31.926408482343422,36.86246143708629,41.463054482283525,1577395943.0,-27.689036870112577,-51.1294675720939,5.4060946
51310,1577395943.52,-1.2727809606040397,-0.7650934183260288,10.390426438941024,1.3427967603729989,0.4514238032643384,12.080966391661107,0.4538764000869379,-4.570764549888052,14.008619901480326,-0.1832915515434451,25.066096608231707,0.2573525033346037,-1.403994676543445,-2.635304520769817,-0.5191709937118907,-6.603334008193596,-23.4127509884718,-10.77456590605945,24.82068707781913,-14.789925309065936,7.439548992673988,-17.00440450752951,2.9726447044334985,-23.29451165821358,31.97433132656424,36.86246143708629,41.65474585916674,1577395943.0,-27.689036870112577,-51.1294675720939,5.4060946
51311,1577395943.53,-1.1650418858970084,-4.229503220572123,4.761658335913681,-0.6060833909941876,-3.500206036823552,7.07469072027439,2.7032288598037346,26.19472678311976,7.725037644400248,-11.871523973418444,19.878108326981707,2.790311487709604,-2.517886278105945,10.395701338605184,0.1216981469131097,9.982969702743905,-36.3674629025343,15.33322217987805,24.82068707781913,-14.789925309065936,7.439548992673988,-17.091087962962966,1.6768764999368453,-26.185071499013805,32.07017701500584,36.81453859286549,41.75059154760835,1577395943.0,-27.689036870112577,-51.1294675720939,5.4060946
51312,1577395943.54,-1.2560215489829458,1.935566054330221,13.064749693335555,-0.5869297777129376,1.257072661906916,16.15350341558689,-13.115261508848608,-5.260294628013052,11.026641733755715,-12.329287645293444,-3.101628001143293,-0.3224814810403963,-5.203433153105945,-4.741017411394817,3.9363954125381095,-22.1215224847561,-24.5266425900343,32.14840772675305,26.3049806572236,-13.511783615689868,7.616681111547183,-18.940335012210014,1.0671032272325378,-19.38375422654269,31.97433132656424,37.05415281396951,41.942282924491565,1577395943.0,-27.689036870112577,-51.1294675720939,5.4060946
51313,1577395943.55,-3.299472665926305,6.804175130257955,12.986938139380475,-4.396104619021531,4.811265026408869,11.872670847227514,5.01722476434475,-3.7220200613626617,5.903050181021342,4.882626417206557,1.6743729754192072,0.9134804330221036,-0.6563140124809452,1.4387921589176829,0.7625672875381098,-10.3112197503811,-8.2760322384718,-9.98110887480945,25.23299084987593,-14.51603780334249,5.933925982251871,-16.542092745217747,0.3811082954401927,-12.412404022259793,31.90244706023303,37.05415281396951,41.55890017072513,1577395943.0,-27.689036870112577,-51.1294675720939,5.4060946
51314,1577395943.56,-1.928792215486852,1.7033284932950647,7.170225206030869,-1.125625151248094,-0.5768858097727705,9.74901397466892,6.071870595643578,11.673893714272102,8.82876460973228,-3.326602098418445,-6.153385813643292,0.9287392220846036,2.0292328625190548,3.010447432355183,-2.8079893530868905,2.750303687118903,3.1222831912157014,-1.3293754763719514,26.799745183691755,-12.96400860424298,6.731020517181234,-16.859932081807084,2.896423045345459,-20.74401768103691,31.97433132656424,36.81453859286549,41.55890017072513,1577395943.0,-27.689036870112577,-51.1294675720939,5.4060946
51315,1577395943.57,-0.5808566808188834,-7.502376890005716,5.590052110327744,1.0315505445526862,-2.0732618473704267,8.092226425840796,-2.638235044004859,-5.894758067954458,10.72497232457603,-7.293887254668445,-2.491276438643293,1.3254677377096038,-5.417056199980945,-6.511036942644817,2.044305568788109,-4.451844750381097,-1.9131171994092988,-0.0781547732469513,26.799745183691755,-12.96400860424298,6.731020517181234,-16.802143111518113,-4.26841290893015,-14.96289799943646,31.73471710546021,36.86246143708629,41.65474585916674,1577395943.0,-27.689036870112577,-51.1294675720939,5.4060946
51316,1577395943.58,0.8197512903725228,-0.2862530862947788,4.129589097632431,0.2103393751190926,2.248272149211604,8.278974155332984,0.4287372826552969,6.516783338295541,9.717013425650247,-1.5565825671684452,7.945735280106708,5.079129847084603,-5.325503465605945,-2.208058427019817,3.112420803163109,-6.649110375381097,-17.4465644650343,4.591034679878049,27.624352727805352,-14.242150297619048,6.199624160561654,-16.802143111518113,-4.26841290893015,-14.96289799943646,31.782639949681013,37.0062299697487,41.75059154760835,1577395943.0,-27.689036870112577,-51.1294675720939,5.4060946
51317,1577395943.59,-1.6079691930259146,6.196047908578268,13.687242124976182,-1.0394338914824688,2.061524419719416,11.719441940977514,-0.9838416968368896,0.0632127633443695,12.719342307486183,2.746395948456555,-6.519596751143293,0.4557167611471037,-2.121157762480945,-9.608571122332316,0.6252381859756098,-9.929750023818595,-22.5430000119093,6.7883003048780495,25.645294621932727,-13.511783615689868,6.908152636054415,-17.264454873829877,-3.658639636225842,-15.302963863060016,31.95036990445383,36.76661574864468,41.60682301494594,1577395943.0,-27.689036870112577,-51.1294675720939,5.4060946
51318,1577395943.6,-1.7611980992759146,2.033728322396627,11.508518614233994,-4.137530839724656,5.923371697551448,17.41045928716892,5.013633461854516,13.390536304604137,2.792982224478373,1.1899994640815548,-11.646549876143292,1.0202919564596038,-4.287905809355945,-7.426564286394817,0.8541200219131098,1.5296005621189026,-7.803009777534299,0.4101264767530487,25.975137639578165,-14.97251697954823,5.845359922815277,-17.148876933251934,5.487959454338766,-14.96289799943646,32.07017701500584,36.910384281307095,41.463054482283525,1577395943.0,-27.689036870112577,-51.1294675720939,5.4060946
51319,1577395943.61,-1.6438822179282584,-1.5096901346346223,9.1550183823004,0.981272309689405,-1.347818744343083,10.321228171446265,-5.305375693418921,0.9191398568502284,10.643569468130718,-12.207217332793444,-7.129948313643292,2.210477503334604,0.3812836437690549,1.5761212604801829,-1.0990049780868902,-8.022401391006097,8.4933769412157,15.11959913300305,25.975137639578165,-14.97251697954823,5.845359922815277,-15.877519586894593,5.487959454338766,-12.242371090448014,31.97433132656424,36.71869290442388,41.55890017072513,1577395943.0,-27.689036870112577,-51.1294675720939,5.4060946
51320,1577395943.62,-0.213346725984899,0.258427791390767,9.928345518530868,2.037115241818312,-3.1722004093821456,3.2774868872665777,-2.03729042730564,-12.146018602622426,12.661881467642436,-6.332583543730944,-3.910343821455793,0.8219276986471037,-0.5647612781059451,-0.071827958269817,-0.4886534155868902,-6.740663109756097,5.197478503715701,-3.3740532107469514,26.05759839398952,-14.698629473824786,6.111058101125059,-16.57098723036223,5.487959454338766,-13.602634544942235,32.07017701500585,37.0062299697487,41.41513163806272,1577395943.0,-27.689036870112577,-51.1294675720939,5.4060946
51321,1577395943.63,0.419919613126429,-0.4251167825838414,10.957852232398055,-3.640733995242234,1.502478332072932,10.129692038633763,1.5013396264052976,9.552631043373664,10.572940519156107,-2.838320848418445,1.1097977801067074,2.027372034584604,-1.2971831531059452,-9.959523270769816,3.478631740663109,10.501768530868905,3.625823230278201,-1.9244682498094516,26.3049806572236,-14.607333638583638,5.845359922815277,-15.270735398860404,-2.6677580680813437,-52.54017592983939,31.97433132656424,36.93434570341749,41.60682301494593,1577395943.0,-27.689036870112577,-51.1294675720939,5.4060946
51322,1577395943.64,0.7503194422279915,5.735164088998189,10.071997618140244,1.134501215939405,2.245877947551447,6.885548789122046,0.7112530785537344,-4.611465978110708,7.169582859243998,8.758358839081556,4.100520436356708,2.302030237709604,-0.4121733874809451,5.940134932355183,-0.8548643530868902,-2.834413109756097,7.669402331840701,8.22262647675305,26.63482367486904,-12.781416933760685,5.491095685068893,-15.357418854293858,-2.896423045345459,-87.39692695125387,31.97433132656424,36.81453859286549,41.60682301494594,1577395943.0,-27.689036870112577,-51.1294675720939,5.4060946
51323,1577395943.65,-0.3869263463462271,1.2292765645841273,8.53492015231993,5.898962519650343,-3.078826544636052,0.9646880835556396,-0.7587867407822021,-9.957718285239617,7.401820420279154,6.469540479706555,-11.310856516768292,-0.6276572622903963,-1.2056304187309452,0.4164532917301829,-1.6178038062118902,-5.336854516006097,12.7048027224657,-9.05032274199695,26.63482367486904,-12.781416933760685,5.491095685068893,-15.357418854293858,-2.896423045345459,-87.39692695125387,32.07017701500584,36.81453859286549,41.65474585916674,1577395943.0,-27.689036870112577,-51.1294675720939,5.4060946
51324,1577395943.66,0.1110675989662728,-1.1385888773104045,5.652301353491806,-3.2229458055449687,1.6736637507741037,8.329252390196265,-4.050814023497046,13.287585633217416,5.867137156118998,-0.030703660918445,-0.2940108136432915,0.1963173470846036,-3.433413621855945,-9.929005692644816,2.929315334413109,11.081602515243905,10.7211601443407,-4.381133288871951,26.05759839398952,-14.333446132860196,6.111058101125059,-17.322243844118844,-1.0671032272325374,-91.47771731473654,31.95036990445383,36.86246143708629,41.65474585916674,1577395943.0,-27.689036870112577,-51.1294675720939,5.4060946
51325,1577395943.67,-1.447557681795446,0.8222622823575639,12.48056448825743,-3.4611688707305155,0.2838296870534009,11.05864228277439,0.080380941102563,-5.70202483431188,13.117976883902202,-0.5800200671684451,8.647639576981707,1.6001259408346038,0.243954542206555,-2.223317216082317,0.6099793969131098,-5.779359398818596,2.4966728396532014,5.8575141720655495,26.63482367486904,-14.607333638583638,7.262416873800799,-17.29334935897436,5.411737795250728,-84.50636711045365,31.97433132656424,36.93434570341749,41.582861592835535,1577395943.0,-27.689036870112577,-51.1294675720939,5.4060946
51326,1577395943.68,-3.851336148592321,4.911558717904439,10.423945262183212,-0.6994572557402814,1.6640869441334785,13.268490415098608,-2.4778235327743903,10.170335071693978,13.13114499303306,0.7627533703315549,5.260188405106708,1.6611610970846038,-3.006167528105945,-0.8958025676448171,0.7015321312881098,0.1563095464939026,-13.1130683712843,-6.944609851371951,25.31545160428729,-14.97251697954823,6.199624160561654,-17.206665903540905,5.335516136162689,-79.23534622428853,31.782639949681013,37.0062299697487,41.55890017072513,1577395943.0,-27.689036870112577,-51.1294675720939,5.4060946
51327,1577395943.69,-1.7157082677329458,-0.8776208963533725,8.53492015231993,-2.6674910203887183,-0.3685902653391767,9.590996665098608,-2.0684150488876707,1.8576669076314785,15.403242368521342,-8.270449754668444,-5.909245188643292,0.9592568002096036,3.738217237519055,1.5761212604801829,-2.4417784155868905,3.574278296493903,-16.0122382931593,1.0204780392530486,25.31545160428729,-14.97251697954823,6.199624160561654,-17.206665903540905,5.335516136162689,-79.23534622428853,32.07017701500584,36.86246143708629,41.65474585916674,1577395943.0,-27.689036870112577,-51.1294675720939,5.4060946
51328,1577395943.7,-1.0501202062095083,1.2053345479825648,9.949893333472277,0.5120087842987806,1.4917044246022293,13.96280889654392,-0.1925580481552494,3.442628406654916,7.601736258902202,1.6325043468940552,-2.9032637433307924,1.3254677377096038,-1.175112840605945,-5.244557450457317,2.715692287538109,-8.602235375381095,-20.5898750119093,5.8575141720655495,26.79974518369176,-14.05955862713675,6.199624160561654,-18.593601190476196,5.487959454338766,-82.29593899690053,32.02225417078503,36.81453859286549,41.55890017072513,1577395943.0,-27.689036870112577,-51.1294675720939,5.4060946
51329,1577395943.71,-0.0828627355063834,3.036898818002096,12.724773057593367,-0.5581993577910627,3.0790601252858227,14.19983486089939,6.222705300233422,1.893579932533822,8.041072263540872,-0.8546782702934451,-10.212223704268292,1.5696083627096038,2.6090668468940548,0.1112775104801829,-1.4957334937118902,-9.334657250381095,-6.887482433784299,13.38009717987805,27.624352727805352,-13.146600274725271,6.553888398308031,-19.63380265567766,-1.6768764999368446,-24.824808044519585,32.07017701500584,36.71869290442388,41.75059154760835,1577395943.0,-27.689036870112577,-51.1294675720939,5.4060946
51330,1577395943.72,-0.2815814732993521,0.7767724508145951,8.997001072730088,-0.6324196092559063,-1.5537200871165204,4.591903598692359,0.6202734154677969,-9.308889635337271,3.61898179723228,-3.387637254668445,-2.521794016768293,1.6611610970846038,5.599789503144055,-0.102345536394817,2.776727443788109,-2.834413109756097,8.6459648318407,-3.5876762576219514,25.975137639578165,-15.702883661477411,5.136831447322516,-20.558426180301183,-4.115969590754073,-8.5016465905889,31.97433132656424,36.67077006020308,41.75059154760835,1577395943.0,-27.689036870112577,-51.1294675720939,5.4060946
51331,1577395943.73,0.0667748682533822,1.3154678243497515,8.853348973120713,-1.8630392625762189,0.6106382136647285,8.01321777105564,0.7304066918349844,7.093785938393197,7.160006052603373,2.2733734875190548,0.9266923113567074,1.996854456459604,-2.090640184355945,-5.229298661394817,2.624139553163109,9.250547827743905,10.5380546755907,-7.860137195121951,25.975137639578165,-15.702883661477411,5.136831447322516,-20.558426180301183,-4.115969590754073,-8.5016465905889,31.878485638122623,37.0062299697487,41.65474585916674,1577395943.0,-27.689036870112577,-51.1294675720939,5.4060946
51332,1577395943.74,-0.5808566808188834,0.5325638814786576,8.800676536597274,0.1026003004120618,1.5048725337330884,11.916963577940406,0.8656790856338126,1.138209308754526,8.415764823355326,2.8684662609565548,-4.963200266768292,2.149442347084604,0.7169770031440549,-1.3383074504573171,0.9151551781631098,7.602598608993903,23.2486259646532,5.109833508003049,26.63482367486904,-13.876966956654456,6.908152636054422,-17.062193477818482,-3.734861295313881,-4.250823295294447,32.07017701500584,36.81453859286549,41.53493874861473,1577395943.0,-27.689036870112577,-51.1294675720939,5.4060946
51333,1577395943.75,-2.958298929354039,3.2715305806974087,7.732862596167587,-1.597282878298875,2.9617442439381665,9.126521543028296,-0.4188101050400145,3.461782019936165,4.526384226431499,7.781796339081555,7.823664967606708,2.820829065834604,-0.0459624499809451,-0.041310380144817,0.2437684594131097,13.004209937118905,34.9826347537157,-5.998564929496951,26.799745183691755,-13.69437528617216,7.085284754927611,-15.93530855718356,5.335516136162689,-4.420856227106225,31.83056279390182,36.86246143708629,41.65474585916674,1577395943.0,-27.689036870112577,-51.1294675720939,5.4060946
51334,1577395943.76,0.640186165860804,-1.940646433462748,6.241274961890244,0.1002060987519051,-0.6894132878001141,2.762733530332984,-2.274316391661108,4.4481931039205405,6.006000852408061,-14.221377489043444,-9.723942454268292,1.7527138314596038,4.134945753144055,0.7216290729801829,2.044305568788109,17.5818466558689,48.1967460818407,-0.6885063357469513,24.98560858664185,-13.146600274725271,7.262416873800799,-17.322243844118844,-4.115969590754073,-4.420856227106225,31.97433132656424,36.71869290442388,41.65474585916674,1577395943.0,-27.689036870112577,-51.1294675720939,5.4060946
51335,1577395943.77,2.909889339688929,1.2675837911466274,6.363379246558213,1.1273186109589364,1.6353565242116035,8.008429367735328,-1.2112908545517334,-10.307271727622426,5.0171955667635295,11.352352979706556,-18.299381907393293,1.0202919564596038,-1.3582183093559452,-2.574269364519817,5.2181336937881095,10.288145483993905,52.6217949099657,-9.11135789824695,25.48037311311001,-11.868458581349207,7.085284754927611,-17.322243844118844,-4.420856227106227,-19.38375422654269,31.782639949681013,36.81453859286549,41.65474585916674,1577395943.0,-27.689036870112577,-51.1294675720939,5.4060946
51336,1577395943.78,0.4498471338783821,0.8078970723966273,9.784693418921494,-0.437292173953172,1.8041477412526192,8.30650747442478,-1.6075312293075934,8.653608319984993,14.88729191075767,3.646664503144055,3.3223221941692067,2.042630823647104,-0.518984910918445,-1.9028826457698167,0.2437684594131097,14.1943954839939,29.5810234255907,-5.205107898246951,25.397912358698647,-12.690121098519535,6.111058101125064,-17.322243844118844,-4.115969590754073,-18.703622499295577,31.85452421601222,36.910384281307095,41.79851439182916,1577395943.0,-27.689036870112577,-51.1294675720939,5.4060946
51337,1577395943.79,1.444637923673304,0.1063959859708451,10.086362828101182,-1.846279850955125,-1.199378241413395,9.131309946348608,-4.069967636778296,-6.09826520906774,15.807862449087748,-6.744570848418445,0.1942704363567073,1.844266565834604,2.4869965343940548,4.505808760480183,4.1500184594131095,-3.658387719131097,-4.934357433784299,-1.3904106326219514,27.954195745450782,-13.876966956654456,5.845359922815277,-17.322243844118844,3.5061963180497666,-20.74401768103691,31.926408482343422,36.57492437176146,41.65474585916674,1577395943.0,-27.689036870112577,-51.1294675720939,5.4060946
51338,1577395943.8,-0.2600336583579459,2.09597756556069,12.463805076636335,-2.0952768236113752,4.374323223430354,11.714653537657204,2.631402809999047,11.022670862709605,10.480763755240092,5.706601026581555,21.648127858231707,2.942899378334604,-3.036685106230945,6.397898604230183,4.3026063500381095,3.147032202743903,-16.2563789181593,3.2482612423780486,26.96466669251448,-12.781416933760685,7.262416873800799,-17.322243844118844,3.5061963180497666,-20.74401768103691,31.782639949681013,36.86246143708629,41.75059154760835,1577395943.0,-27.689036870112577,-51.1294675720939,5.4060946
51339,1577395943.81,-0.6754276463950558,4.218437337289205,10.695687150610947,1.7402342359589364,2.4158662654225407,9.552689438536108,1.072777529237328,14.987468811928354,4.7346797708650925,3.021054151581555,3.017146412919208,1.859525354897104,-3.555483934355945,7.923777510480183,1.4339540062881098,5.435850562118903,-6.918000011909299,26.96041944550305,27.12958820133719,-14.424741968101342,6.376756279434842,-19.922747507122512,1.219546545408615,-20.40395181741336,31.926408482343422,36.86246143708629,41.75059154760835,1577395943.0,-27.689036870112577,-51.1294675720939,5.4060946
51340,1577395943.82,-4.8473240392173205,3.2978667989591277,10.194101902808212,-3.007467656130906,2.118985259563167,10.105750022032202,-2.8776552100204835,-14.294814592612662,6.681165720572123,-3.906436082793445,6.114680592606708,1.3865028939596038,1.4951752453315548,-1.9334002238948167,0.3658387719131097,-10.280702172256095,15.3445732302782,-6.883574695121951,27.624352727805352,-13.876966956654456,6.908152636054422,-18.62249567562068,0.838438249968423,-22.274314067342917,31.97433132656424,36.83850001497589,41.60682301494593,1577395943.0,-27.689036870112577,-51.1294675720939,5.4060946
51341,1577395943.83,0.3768239832436165,-7.349147983755716,3.1407838119879,2.685943891720655,1.3169277034108222,6.19362450933689,4.66647422113186,8.779303907143197,11.649134165396342,-20.416445848418444,8.861262623856707,1.3559853158346038,-3.280825731230945,9.602244307355184,1.0982606469131098,15.079405249618905,0.4977714724657012,-4.869414538871951,26.14005914840088,-14.059558627136752,7.085284754927611,-16.166464438339442,0.457329954528231,-4.420856227106225,31.926408482343422,36.81453859286549,41.65474585916674,1577395943.0,-27.689036870112577,-51.1294675720939,5.4060946
51342,1577395943.84,-1.6462764195884143,0.5589000997403764,5.166278416480088,-1.7337523729277813,2.6241618098561355,9.588602463438452,-1.5560558936142332,7.038719300209603,5.855166147818217,2.1970795422065548,10.844905201981708,3.919461878334604,-0.2901030749809451,0.5690411823551829,4.3941590844131095,7.205870093368903,1.1386406130907012,-3.1909477419969514,26.14005914840088,-15.155108650030524,5.313963566195704,-17.322243844118844,3.201309681697613,-24.824808044519585,31.83056279390182,37.05415281396951,41.65474585916674,1577395943.0,-27.689036870112577,-51.1294675720939,5.4060946
51343,1577395943.85,0.2511283960854134,1.6123488302091271,11.532460630835557,3.5334912794159674,2.1405330745045723,7.757038193418921,-3.634222934629859,9.624457093178354,8.218243186392435,-2.563662645293445,-2.277653391768293,1.5085732064596038,-0.9309722156059452,4.475291182355183,-1.6178038062118902,0.9192489996189026,4.983855456840701,14.99752882050305,28.119117254273505,-13.69437528617216,7.085284754927611,-17.322243844118844,2.896423045345459,-26.185071499013805,31.926408482343422,36.81453859286549,41.65474585916674,1577395943.0,-27.689036870112577,-51.1294675720939,5.4060946
51344,1577395943.86,0.2858443201576791,1.676992275033346,8.455911497534775,0.1073887037323744,2.585854583293635,4.887587503721655,0.6071053063369376,-7.351629778159536,9.694268509878764,7.751278760956555,-5.268376048018292,1.2949501595846038,-2.594180223418445,3.651316572980183,3.6617372094131095,-0.4387832269435971,9.5004570193407,-0.1239311404344505,28.119117254273505,-13.69437528617216,7.085284754927611,-17.29334935897436,2.972644704433498,-19.21372129473091,31.926408482343422,37.0062299697487,41.702668703387545,1577395943.0,-27.689036870112577,-51.1294675720939,5.4060946
51345,1577395943.87,-1.449951883455602,2.6298845357755334,9.593157286108994,0.8064955884979988,2.913860210735041,11.128074130918922,2.806179531190453,18.842133484779914,12.649910459341656,4.394345167206555,11.760432545731708,1.2033974252096038,1.7545746593940548,-1.0178728801448171,-1.3736631812118902,4.703428687118903,-4.232453136909299,5.750702648628049,25.645294621932727,-13.876966956654456,5.845359922815277,-17.091087962962966,-4.420856227106227,-26.185071499013805,31.97433132656424,37.0062299697487,41.463054482283525,1577395943.0,-27.689036870112577,-51.1294675720939,5.4060946
51346,1577395943.88,-0.6574711339438833,1.5860126119474085,5.472736228980088,-1.985143547244188,0.1341920832936348,8.283762558653295,-5.130598972227515,-17.40368544832555,10.41133190709556,3.7534760265815534,15.971858326981708,4.163602503334603,1.4493988781440548,0.1417950886051829,1.7391297875381098,-9.578797875381095,-13.9370429806593,3.5229194455030486,25.31545160428729,-14.242150297619048,6.199624160561654,-17.091087962962966,-3.81108295440192,-20.74401768103691,31.97433132656424,36.81453859286549,41.463054482283525,1577395943.0,-27.689036870112577,-51.1294675720939,5.4060946
51347,1577395943.89,-2.2340529271567737,0.162659724984518,10.13903526462462,-3.407299333377,-3.230858350055973,10.213489096739233,1.8461046654677973,2.1234232919088223,7.873478147329935,-6.210513231230944,9.898860280106708,1.5848671517721038,1.7087982922065548,-2.192799637957317,0.7473084984756097,-0.5455947503810954,-9.4509589962843,-6.6546928591844505,27.12958820133719,-16.61584201388889,5.668227803942081,-17.17777141839642,-3.1250880226095745,-19.89385302197802,31.806601371791416,36.93434570341749,41.65474585916674,1577395943.0,-27.689036870112577,-51.1294675720939,5.4060946
51348,1577395943.9,-0.4563581944907584,-5.108175229849466,7.610758311499619,-0.5103153245879376,-0.0477672428782392,8.733872470762671,-5.214396030332984,20.120637171303358,11.498299460806498,-28.656191942168444,4.405696217606708,2.912381800209604,-1.3582183093559452,-8.067433427019816,4.3636415062881095,7.724668921493903,7.272673816215701,25.12936475800305,27.12958820133719,-16.61584201388889,5.668227803942081,-17.264454873829877,-3.658639636225843,-13.602634544942235,31.926408482343422,36.81453859286549,41.55890017072513,1577395943.0,-27.689036870112577,-51.1294675720939,5.4060946
51349,1577395943.91,-0.5114248326743521,5.804595937142721,12.961799021948837,-5.210133183474657,6.818803118449885,17.441583908750953,4.012857167909203,-16.999065367759144,7.837565122427592,-1.4345122546684452,-14.057438548018292,2.179959925209604,-0.9004546374809451,-11.760060380144816,3.539666896913109,-9.792420922256095,5.746794909965701,9.10763624237805,24.82068707781913,-13.69437528617216,6.376756279434842,-15.415207824582827,-3.353752999873689,-78.89528036066497,31.782639949681013,36.86246143708629,41.55890017072513,1577395943.0,-27.689036870112577,-51.1294675720939,5.4060946
51350,1577395943.92,-2.3286238927329457,13.899391750131,13.627387083472277,-8.832560295291062,7.687898321086604,11.84394042730564,-0.5504911963486083,-0.301902989829458,2.876779282583842,37.32281196408155,0.4078934832317073,3.187040003334604,7.705502393769055,-0.7432146770198171,2.257928615663109,-7.198426781631097,-3.9577949337842986,-9.20291063262195,24.98560858664185,-12.781416933760685,5.491095685068893,-17.322243844118844,-3.81108295440192,-80.59560967878276,32.07017701500584,36.71869290442388,41.65474585916674,1577395943.0,-27.689036870112577,-51.1294675720939,5.4060946
51351,1577395943.93,-0.8621753758872427,-0.9267020303865756,7.8142654526129,1.4062431043671402,-1.9200329411204269,5.780624722959937,-0.1746015357040778,6.974075855385385,10.580123124136575,4.409603956269056,-15.598576243330792,0.4709755502096038,2.1665619640815548,0.1723126667301837,2.959832912538109,8.716490210556401,-0.5856025509717986,-4.182769031059451,25.975137639578165,-14.242150297619048,6.553888398308038,-16.628776200651203,5.945289408866996,-90.11745386024232,32.02225417078504,37.05415281396951,41.51097732650433,1577395943.0,-27.689036870112577,-51.1294675720939,5.4060946
51352,1577395943.94,3.7287063074623674,-1.4713829080721226,6.717721092261337,3.004372712521436,0.9673742610280096,12.487980673887671,-1.8337832861923584,-4.089530016196646,3.226332724966655,-8.728213426543444,5.962092701981708,2.271512659584604,0.2592133312690549,-4.313771317644817,1.4339540062881098,-6.527040062881097,12.8268730349657,9.13815382050305,26.46990216604632,-14.789925309065936,6.376756279434842,-16.802143111518113,-2.7439797271693824,-91.137651451113,31.97433132656424,36.81453859286549,41.65474585916674,1577395943.0,-27.689036870112577,-51.1294675720939,5.4060946
51353,1577395943.95,1.7367305262123665,1.4040532857755337,6.432811094702744,1.965289192013624,-0.7995465641673016,6.169682492735328,3.3257212914443595,-5.315361266196645,12.32669323522056,7.568173292206555,14.690120045731708,4.590848597084603,-4.959292528105945,2.644236494855183,-2.2586729468368905,-4.879090844131097,8.2797538943407,12.09835889862805,24.82068707781913,-13.69437528617216,6.731020517181234,-17.322243844118844,5.640402772514843,-79.91547795153564,31.97433132656424,36.81453859286549,42.22981998981639,1577395943.0,-27.689036870112577,-51.1294675720939,5.4060946
51354,1577395943.96,-2.726061368318883,4.1382315816739705,10.975808744849228,-4.376951005740281,3.2466542414967603,6.27023896246189,0.8525109765029532,6.076250232826791,13.270008689322124,2.181820753144055,-0.2482344464557933,0.3489052377096038,-1.2666655749809452,0.3249005573551829,3.020868068788109,2.750303687118903,-2.5234687619092986,1.8749702267530488,25.975137639578165,-14.059558627136752,6.908152636054418,-17.322243844118844,6.555062681571303,-76.51481931530009,31.95036990445383,36.86246143708629,41.55890017072513,1577395943.0,-27.689036870112577,-51.1294675720939,5.4060946
51355,1577395943.97,-0.3988973546470084,1.7943081563810024,8.616323008765244,-3.184638578982469,2.084269335490901,12.065404080870092,1.221218032167016,0.8999862435689783,11.358238663687358,5.248837354706555,1.0792802019817074,1.844266565834604,-2.777285692168445,0.9199933307926828,0.5642030297256097,-0.4540420160060971,-26.4492500119093,-4.045439929496951,27.12958820133719,-14.059558627136752,7.439548992673988,-16.831037596662597,5.564181113426804,-79.74544501972386,31.83056279390182,36.862461437086296,41.75059154760835,1577395943.0,-27.689036870112577,-51.1294675720939,5.4060946
51356,1577395943.98,-1.421221463533727,-2.9605763406893097,6.811094957007431,2.999584309201124,-1.752438824909489,8.84879415045017,-1.3549429541611082,3.8352774789205406,12.132762900747904,-14.892764207793444,-3.254215891768293,0.7761513314596037,1.5104340343940548,-3.062550614519817,1.2813661156631098,-11.257264672256095,-41.3723457150343,8.28366163300305,27.12958820133719,-14.059558627136752,7.439548992673988,-19.113701923076928,5.792846090690919,-79.57541208791208,31.83056279390182,36.86246143708629,41.75059154760835,1577395943.0,-27.689036870112577,-51.1294675720939,5.4060946
51357,1577395943.99,-1.6007865880454455,2.1725920186856897,9.803847032202745,-3.1056299241973124,4.525157928020198,10.72105984869236,0.3018445946670157,5.518401246010384,2.6469359232088423,-1.7091704577934452,4.680354420731708,2.515653284584604,-5.966372606230945,-9.867970536394816,4.3026063500381095,-16.6893935785061,-33.8650214962843,19.26998975800305,26.14005914840088,-14.059558627136752,8.148077468166749,-19.17149089336589,-1.6768764999368446,-22.10428113553113,31.97433132656424,36.81453859286549,41.65474585916674,1577395943.0,-27.689036870112577,-51.1294675720939,5.4060946
51358,1577395944.0,-2.3190470860923207,3.5995362081388147,10.664562529028917,-3.467154374880906,0.8907598079030097,8.31967558355564,0.4359198876357656,-4.491755895102895,7.705884031118998,-0.6715728015434452,-2.2776533917682924,2.332547815834604,-2.365298387480945,-9.196583817644816,-1.2210752905868902,-16.8114638910061,-0.0820625119092987,14.50924757050305,24.82068707781913,-13.69437528617216,7.08528475492761,-21.020737942612943,-1.981763136288998,-20.74401768103691,31.90244706023303,36.86246143708629,41.65474585916674,1577395944.0,-27.688984232916454,-51.12948891782178,6.193256
51359,1577395944.01,-1.1650418858970084,2.4479252096036586,12.248326927222276,-3.4551833665801253,3.568674364787776,9.750211075499,-0.9934185034775144,1.3740381722799166,9.660749686636576,-10.009951707793444,-17.597477610518293,-0.5666221060403963,-2.807803270293445,-3.642384598894817,1.0982606469131098,2.277281226181403,4.068328113090701,-5.632353991996951,25.48037311311001,-12.233641922313796,6.731020517181234,-20.78958206145706,-2.896423045345459,-22.784412862778247,32.26186839188906,36.83850001497589,41.60682301494593,1577395944.0,-27.688984232916454,-51.12948891782178,6.193256
51360,1577395944.02,1.482945150235804,-1.54320895787681,10.613087193335556,0.5982000440644051,-3.3062757023508955,5.530430649473609,2.564365163514672,-1.412812560141958,13.013829111685403,-5.157656785918445,-8.045475657393293,-0.5055869497903963,1.6935395031440548,1.4845685261051829,-0.2750303687118902,2.475645483993903,2.6340019412157014,-5.784941882621951,25.48037311311001,-12.233641922313796,6.731020517181234,-16.339831349206353,-4.26841290893015,-4.08079036348267,31.926408482343422,36.81453859286549,41.75059154760835,1577395944.0,-27.688984232916454,-51.12948891782178,6.193256
51361,1577395944.03,-0.5664914708579459,-2.7666460062166536,10.421551060523056,0.8328318067597176,0.0001167903248857,5.597468295957984,-2.336565634825171,8.422567859779916,10.521465183462748,-4.333682176543445,18.382746998856707,3.705838831459604,-4.776187059355945,-8.311574052019816,4.2110536156631095,6.046202124618903,-3.8052070431592986,7.642792492378049,26.14005914840088,-14.424741968101342,5.668227803942081,-16.39762031949532,-1.3719898635846908,-1.7003293181177797,31.83056279390182,37.0062299697487,41.55890017072513,1577395944.0,-27.688984232916454,-51.12948891782178,6.193256
51362,1577395944.04,-1.0285723912681022,4.769103719125143,10.863281266821884,-2.3035723680449687,3.417839660197932,12.314401053526344,-3.927512637998999,-3.048052294028677,9.367459983267436,-1.4955474109184452,1.2623856707317072,2.530912073647104,-0.4121733874809452,-4.069630692644816,0.3658387719131094,-7.152650414443596,0.3146660037157012,5.0335395626905495,26.222519902812245,-14.333446132860193,6.465322338871443,-16.744354141229145,-3.963526272577997,-24.14467631727247,31.926408482343422,36.742654326534286,41.702668703387545,1577395944.0,-27.688984232916454,-51.12948891782178,6.193256
51363,1577395944.05,-1.5720561681235707,0.3529987569669389,8.755186705054307,-1.1711149827910623,-2.252826971882145,3.4378983984970466,4.707175649354515,10.234978516518195,8.117686716665872,9.155087354706556,2.116877858231707,1.5696083627096038,4.134945753144055,1.1183575886051829,1.3424012719131098,2.231504858993903,-4.232453136909299,1.9665229611280488,27.45943121898264,-14.059558627136752,6.731020517181234,-17.091087962962966,-4.420856227106227,-25.504939771766697,31.83056279390182,36.81453859286549,41.55890017072513,1577395944.0,-27.688984232916454,-51.12948891782178,6.193256
51364,1577395944.06,0.9370671717201792,-4.53117262975181,7.1630426010504005,3.32758993664253,-0.5433669865305829,6.67246484136814,-3.442686801817359,6.883096192299448,9.93967418004478,-21.362490770293444,-5.237858469893292,0.5014931283346037,-4.837222215605945,-2.909962723894817,1.6780946312881098,11.142637671493905,0.2841484255907012,13.01388624237805,27.45943121898264,-14.059558627136752,6.731020517181234,-17.322243844118844,-3.5061963180497666,-24.14467631727247,31.97433132656424,36.81453859286549,41.55890017072513,1577395944.0,-27.688984232916454,-51.12948891782178,6.193256
51365,1577395944.07,-1.1973636083091177,6.158937782845846,8.582804185523056,-3.172667570681688,4.946537420207698,12.82795730962986,-0.4571173316025145,-15.493112523520864,7.183948069204936,14.877133253144056,2.376277272294208,1.829007776772104,-2.090640184355945,-7.945363114519817,1.5865418969131098,-10.677430687881095,0.2536308474657012,-6.334258288871951,26.38744141163496,-14.516037803342492,6.996718695491016,-16.28204237891738,1.6768764999368453,-18.023490772048465,31.878485638122623,36.86246143708629,41.60682301494594,1577395944.0,-27.688984232916454,-51.12948891782178,6.193256
51366,1577395944.08,-1.7133140660727897,0.8869057271817826,9.377679136694931,-1.3243438890410628,2.838442858440119,9.68556763067478,3.859628261659204,10.861062250649056,8.944883390249858,4.150204542206555,-6.916325266768292,-0.8717978872903963,-0.473208543730945,6.931956221417684,-1.6635801733993902,9.0216659918064,-13.9675605587843,-9.82852098418445,26.3049806572236,-14.242150297619048,6.553888398308031,-17.322243844118844,1.3719898635846914,-24.824808044519585,32.07017701500584,36.910384281307095,41.75059154760835,1577395944.0,-27.688984232916454,-51.12948891782178,6.193256
51367,1577395944.09,2.416683797696741,-2.570321470083841,8.64984183200743,3.76812304211128,0.1437688899342598,6.715560471250953,-8.851188352110327,7.57741467374476,6.185565976919779,-11.200137254668444,-8.777897532393293,-0.2309287466653963,-5.783267137480945,-0.8347674113948171,2.685174709413109,-3.749940453506097,9.9582206912157,23.08468702362805,25.81021613075545,-13.329191945207567,6.376756279434842,-17.322243844118844,0.457329954528231,-24.14467631727247,31.97433132656424,36.86246143708629,41.55890017072513,1577395944.0,-27.688984232916454,-51.12948891782178,6.193256
51368,1577395944.1,-1.3493954137290396,1.5764358053067835,8.570833177222275,-1.0394338914824688,3.9864625544850414,13.141597727110328,1.7455481957412342,-12.236998265708364,3.6141933939119673,-7.843203660918445,10.905940358231708,2.698758753334604,-6.393618699980945,-9.806935380144816,2.166375881288109,-10.738465844131095,24.1488945193407,14.90597608612805,25.81021613075545,-13.329191945207567,6.376756279434842,-17.322243844118844,0.457329954528231,-24.14467631727247,32.07017701500584,37.0062299697487,41.65474585916674,1577395944.0,-27.688984232916454,-51.12948891782178,6.193256
51369,1577395944.11,-0.6251494115317741,2.6406584432462368,8.463094102515244,-4.918040580935594,3.792532220012385,10.36911220464939,-2.233614963438452,-9.282553417075553,9.341123765005715,0.1371430187690548,6.847102467606707,3.400663050209604,0.9000824718940549,3.010447432355183,-1.3736631812118902,-1.9494033441310967,24.8202812380907,-12.31570360137195,25.892676885166804,-14.333446132860196,6.288190219998251,-17.322243844118844,0.457329954528231,-24.824808044519585,31.974331326564236,36.86246143708629,41.60682301494594,1577395944.0,-27.688984232916454,-51.12948891782178,6.193256
51370,1577395944.12,0.0105111292397093,3.008168398080221,16.26100890964415,1.736642933468702,2.668454540569026,8.02040037603611,0.2108649315810783,10.230190113197883,6.046702280630717,-6.866641160918445,-9.083073313643292,0.7761513314596037,-2.609439012480945,2.4611310261051838,1.4644715844131098,14.057066382431405,34.5096122927782,-3.633452624809451,25.975137639578165,-13.511783615689868,5.491095685068893,-16.28204237891738,1.9817631362889987,-23.1244787264018,31.782639949681013,36.88642285919669,41.60682301494593,1577395944.0,-27.688984232916454,-51.12948891782178,6.193256
51371,1577395944.13,0.1278270105873656,-1.959800046743997,6.693779075659776,2.788894563107374,-3.0548845280344894,10.682752622129858,-4.014900998594703,-13.218620946372427,12.554142392935404,-8.087344285918444,10.478694264481708,1.2949501595846038,0.1371430187690548,3.040965010480183,2.593621975038109,2.658750952743903,31.9919120974657,-6.456328601371951,26.46990216604632,-14.059558627136752,6.022492041688465,-15.241840913715915,3.5061963180497666,-22.10428113553113,31.926408482343422,36.86246143708629,41.65474585916674,1577395944.0,-27.688984232916454,-51.12948891782178,6.193256
51372,1577395944.14,2.2921853113686166,-3.63095280553306,7.878908897437118,-0.3738458299590314,-1.659064960163395,4.706825278379859,-1.1634068213486082,3.852036890541634,9.834329306997905,-4.547305223418445,10.173518483231708,1.4780556283346038,0.9000824718940549,4.688914229230183,2.257928615663109,7.724668921493903,10.3854667849657,-10.36257860137195,26.46990216604632,-14.059558627136752,6.022492041688465,-17.264454873829877,4.26841290893015,-25.84500563539025,31.926408482343422,36.81453859286549,41.65474585916674,1577395944.0,-27.688984232916454,-51.12948891782178,6.193256
51373,1577395944.15,-0.5437465550864615,0.9204245504239712,11.586330168189072,-5.4950431810332505,0.5028991389576973,9.20074179449314,-0.7252679175400145,18.3393511361471,13.358594150747903,-8.224673387480944,10.677058522294208,1.996854456459604,-1.2971831531059452,-0.7737322551448171,3.326043850038109,9.281065405868905,2.5729667849657014,5.445526867378049,25.56283386752137,-14.516037803342492,5.933925982251871,-17.091087962962966,5.640402772514843,-12.582436954071568,32.07017701500584,36.81453859286549,41.60682301494594,1577395944.0,-27.688984232916454,-51.12948891782178,6.193256
51374,1577395944.16,-0.8274594518149772,7.731928273568502,12.940251207007432,-0.6695297349883286,5.455305272990901,12.818380502989234,0.7435748009658442,-5.462604668296256,15.786314634146342,14.190487745331556,-1.9419600323932928,2.179959925209604,-1.617617723418445,2.583201338605183,2.471551662538109,-9.1668105706936,-12.3501289181593,6.4983833126905495,27.294509710159915,-14.97251697954823,6.553888398308031,-16.310936864061865,0.5335516136162695,-14.452799204001126,31.782639949681013,36.76661574864468,41.702668703387545,1577395944.0,-27.688984232916454,-51.12948891782178,6.193256
51375,1577395944.17,-3.185748087068883,2.443136806283346,6.023402610816025,-5.272382426638719,-0.0286136295969892,9.693947336485326,4.905894387147485,-0.7400418936380518,20.270654343619,13.458065870331556,8.128840748856707,3.187040003334604,4.379086378144055,1.6371564167301829,0.2437684594131097,-8.846376000381097,-37.3440254025343,-12.89553758574695,25.48037311311001,-14.059558627136752,6.376756279434842,-15.472996794871795,-4.115969590754073,-26.185071499013805,32.07017701500584,36.86246143708629,41.60682301494594,1577395944.0,-27.688984232916454,-51.12948891782178,6.193256
51376,1577395944.18,-3.2934871617759143,-2.110634751333841,6.870949998511338,-4.625947978396531,-2.250432770221989,4.998917880918921,-2.987788486387672,8.140052063881479,9.879819138540872,-12.176699754668444,5.870539967606708,2.851346643959604,0.7169770031440549,1.3014630573551829,3.7227723656631095,8.457090796493903,-50.1003730587843,5.262421398628049,25.48037311311001,-14.789925309065936,6.022492041688465,-15.472996794871795,-3.81108295440192,-26.185071499013805,31.926408482343422,37.10207565819032,41.55890017072513,1577395944.0,-27.688984232916454,-51.12948891782178,6.193256
51377,1577395944.19,-0.4862857152427115,-0.5077167398592324,11.400779539526962,1.3020953321503428,0.9853307734791824,15.554953000547828,-3.412759281065406,-1.7037080618509428,-0.1913901449063919,-11.810488817168444,-0.7670332745807928,1.1271034798971038,-0.930972215605945,-7.640187333269816,3.081903225038109,-13.5460830316311,-9.9850166134718,22.85580518769055,25.727755376344085,-14.516037803342492,6.111058101125059,-15.588574735449736,2.286649772641152,-89.4373221329952,32.118099859226646,36.958307125527895,41.65474585916674,1577395944.0,-27.688984232916454,-51.12948891782178,6.193256
51378,1577395944.2,-1.3877026402915396,4.272306874642721,10.969823240698837,4.797629755978467,0.9170960261647284,4.970187460997046,-1.754774631407202,-7.285789232505239,7.9069969705721235,-6.500430223418445,-14.942448313643292,1.3254677377096038,0.7169770031440549,7.740672041730183,-1.6788389624618902,-3.261659203506097,25.7663261599657,-7.036162585746951,25.645294621932727,-14.242150297619048,6.199624160561654,-15.704152676027675,5.945289408866995,-91.47771731473654,31.83056279390182,37.0062299697487,41.463054482283525,1577395944.0,-27.688984232916454,-51.12948891782178,6.193256
51379,1577395944.21,-0.7005667638266959,-0.9518411478182164,9.748780394019152,1.093799787716749,1.9729389582936343,0.8880736304306396,4.881952370545922,8.89183138517054,5.721090854849467,2.0750092297065548,-10.364811594893292,-1.6042197622903962,-3.952212449980945,-1.2620135051448171,1.891717678163109,17.5513290777439,22.1042167849657,-5.998564929496951,26.14005914840088,-13.69437528617216,4.605435090702943,-15.704152676027675,5.945289408866995,-91.47771731473654,32.07017701500584,36.910384281307095,41.65474585916674,1577395944.0,-27.688984232916454,-51.12948891782178,6.193256
51380,1577395944.22,3.0200226160561168,3.874869399056784,6.873344200171494,-6.653836784548875,8.932883184367853,20.616295310118137,2.75111289300686,1.4386816171041346,12.592449619497904,11.413388135956556,-11.921208079268292,2.179959925209604,-1.3582183093559452,-18.56548030201981,6.5914247094131095,8.640196265243903,15.3598320193407,-1.1462700076219514,25.645294621932727,-15.33770032051282,5.136831447322516,-17.322243844118844,-3.5061963180497666,-90.11745386024232,31.97433132656424,36.86246143708629,41.31928594962111,1577395944.0,-27.688984232916454,-51.12948891782178,6.193256
51381,1577395944.23,0.0763516748940072,3.536089864144674,12.784628099097274,1.638480665402296,-1.7261026066477705,8.639301505186499,-1.0736242590927498,3.459387818276009,11.384574881949076,5.264096143769055,-3.208439524580793,0.5625282845846038,-1.6633940906059452,8.869822432355184,-0.8548643530868907,-0.9423232660060974,4.4955742068407005,-0.0018608279344514,26.22251990281224,-14.698629473824786,5.57966174450549,-16.94661553724054,6.326397704307188,-77.70504983798253,32.07017701500584,36.83850001497589,41.65474585916674,1577395944.0,-27.688984232916454,-51.12948891782178,6.193256
51382,1577395944.24,-2.6638121251548204,-2.6397533182283723,5.779194041480087,-0.9245122117949688,-4.529712750690739,5.6932363623642335,4.826885732362328,-0.2300769400247705,11.029035935415871,-20.660586473418444,9.776789967606708,1.5390907845846038,4.470639112519055,-10.844533036394816,0.3658387719131097,-2.742860375381097,-0.7839668087842988,5.353974133003049,25.48037311311001,-14.424741968101342,4.959699328449328,-19.17149089336589,5.335516136162689,-75.15455586080586,31.73471710546021,36.86246143708629,41.60682301494594,1577395944.0,-27.688984232916454,-51.12948891782178,6.193256
51383,1577395944.25,0.8867889368568977,-4.41625095006431,11.046437693823837,-5.011414445681687,1.0966611506764472,15.461579135801731,-2.997365293028297,3.255880677162728,11.924467356314311,-30.548281785918444,11.882502858231708,1.1118446908346038,-4.593081590605945,-12.950245927019816,4.6382997094131095,1.8347763433689024,3.3969413943407014,11.88473585175305,24.65576556899641,-14.607333638583638,5.491095685068893,-19.17149089336589,-1.981763136288998,-15.302963863060016,31.97433132656424,36.86246143708629,41.75059154760835,1577395944.0,-27.688984232916454,-51.12948891782178,6.193256
51384,1577395944.26,-2.2831340611899766,4.868463088021628,9.856519468726182,-6.366532585330125,3.699158355266292,12.899783359434544,-3.761115622618141,-4.759906481040395,12.580478611197124,0.2439545422065547,8.846003834794208,1.4933144173971038,2.7921723156440548,5.085642744855183,-0.1224424780868902,-6.740663109756097,-5.605744152534299,-1.0241996951219514,26.14005914840088,-15.155108650030524,6.731020517181234,-19.17149089336589,-1.981763136288998,-15.302963863060016,31.854524216012216,36.67077006020308,41.55890017072513,1577395944.0,-27.688984232916454,-51.12948891782178,6.193256
51385,1577395944.27,-1.0764564244712271,2.7041047872403774,10.230014927710556,-1.7002335496855938,0.4143136775319168,4.810973050596656,3.3352980980849845,8.895422687660774,9.49794397374595,21.02642524533156,-17.200749094893293,-0.9938681997903964,3.707699659394055,1.3014630573551838,-1.2363340796493902,4.871275366806403,-27.0290839962843,-9.66067430449695,25.48037311311001,-14.059558627136752,6.376756279434842,-18.998123982498985,-4.115969590754073,-2.040395181741335,31.83056279390182,36.81453859286549,41.65474585916674,1577395944.0,-27.688984232916454,-51.12948891782178,6.193256
51386,1577395944.28,0.8173570887123666,-2.8887502908846225,10.536472740210556,-0.4767965013457501,3.0934253352467604,19.86451598882908,-2.408391684629858,6.789722327553354,11.28042710973228,-5.035586473418445,-13.172428782393292,-0.4750693716653963,-5.813784715605945,-13.926808427019816,6.0115907250381095,-10.067079125381095,-34.7195136837843,20.73483350800305,26.46990216604632,-13.329191945207567,6.376756279434842,-16.68656517094017,-3.048866363521536,-4.08079036348267,31.97433132656424,36.86246143708629,41.65474585916674,1577395944.0,-27.688984232916454,-51.12948891782178,6.193256
51387,1577395944.29,0.5731485193764291,-1.0595802225252475,9.41119795993712,0.1552727369354988,-2.365354449909489,14.341092758848609,-2.971029074766577,-10.678372984946645,8.017130246939312,-5.249209520293445,2.574641530106707,2.271512659584604,0.6864594250190549,5.512888838605183,0.5184266625381098,-29.9645400628811,-23.3364570431593,13.04440382050305,25.645294621932727,-13.146600274725271,7.616681111547183,-15.819730616605618,5.335516136162689,-4.420856227106225,31.97433132656424,36.86246143708629,41.65474585916674,1577395944.0,-27.688984232916454,-51.12948891782178,6.193256
51388,1577395944.3,-2.2436297337973987,2.871698903451315,7.262401969946884,-2.9595836229277808,-0.6487118595774579,1.046090940000952,7.704716127870141,5.410662171303353,1.5312379495760298,11.001400831269056,6.404597584794208,2.820829065834604,-0.8089019031059451,0.9352521198551828,0.3048036156631097,-5.642030297256097,-12.5637519650343,0.4101264767530487,26.63482367486904,-14.242150297619048,6.553888398308031,-16.513198260073263,5.335516136162689,-4.420856227106225,31.95036990445383,37.05415281396951,41.55890017072513,1577395944.0,-27.688984232916454,-51.12948891782178,6.193256
51389,1577395944.31,0.3576703699623665,5.751923500619284,10.615481394995712,-2.6782649278594217,6.052658587199885,15.058156156065404,3.52324292840725,3.5096660531392905,9.027483347525248,3.4788178234565548,-19.642155344893293,-1.3600791372903962,-2.914614793730945,-6.739918778582316,1.7238709984756095,4.291441382431403,-0.7992255978467986,-4.167510241996951,26.14005914840088,-14.059558627136752,6.376756279434842,-15.964203042328046,-0.0762216590880382,-20.573984749225136,32.07017701500584,36.67077006020308,41.60682301494594,1577395944.0,-27.688984232916454,-51.12948891782178,6.193256
51390,1577395944.32,-0.4276277745688834,4.906770314584128,9.739203587378526,2.089787678341749,-1.7284968083079266,13.902953855040014,-2.3437482398056395,6.246238550697885,7.708278232779154,24.53594672970656,-6.305973704268292,1.3865028939596038,8.041195753144056,9.602244307355184,-0.0003721655868902,2.506163062118903,12.8573906130907,8.83297803925305,26.96466669251448,-13.146600274725271,5.845359922815277,-15.877519586894593,4.26841290893015,-20.40395181741336,31.73471710546021,37.0062299697487,41.55890017072513,1577395944.0,-27.688984232916454,-51.12948891782178,6.193256
51391,1577395944.33,-0.5928276891196647,-6.889461265005716,7.725679991187119,4.474412531857373,-7.12742155196027,1.168195224668921,-0.5241549780868896,-7.015244444907583,13.286768100943217,-17.791934129668444,-9.144108469893292,0.7761513314596037,-5.020327684355945,7.191355635480183,-1.5262510718368902,0.9497665777439026,12.4301445193407,5.445526867378049,25.975137639578165,-13.511783615689868,6.553888398308031,-16.39762031949532,2.896423045345459,-26.185071499013805,31.83056279390182,36.67077006020308,41.65474585916674,1577395944.0,-27.688984232916454,-51.12948891782178,6.193256
51392,1577395944.34,-1.7815488133872426,2.7831134420255337,9.56322976535704,-5.626724272341844,7.067800091106135,14.23814208746189,-1.0197547217392342,8.647622815834604,14.250434269156107,-4.715151903105944,15.269954030106708,3.492215784584604,-1.495547410918445,-8.967701981707316,4.1042420922256095,8.060362280868905,-5.163239269721799,-4.854155749809451,25.31545160428729,-13.511783615689868,4.782567209576139,-18.01571148758649,1.829319818112921,-26.185071499013805,31.95036990445383,36.93434570341749,41.48701590439393,1577395944.0,-27.688984232916454,-51.12948891782178,6.193256
51393,1577395944.35,0.6784933924233041,6.965783742318502,12.36085440524962,3.19351464367378,1.3576291316334783,13.055406467344705,-2.8178001685165777,-0.6514564322122706,9.128039817251809,14.526181104706556,-7.465641673018292,0.7456337533346037,4.867367628144055,13.111765791730184,-0.7022764624618902,-4.970643578506097,-11.3735664181593,0.2270210080030487,25.31545160428729,-13.511783615689868,4.782567209576139,-19.51822471509972,1.0671032272325378,-20.74401768103691,31.83056279390182,37.0062299697487,41.55890017072513,1577395944.0,-27.688984232916454,-51.12948891782178,6.193256
51394,1577395944.36,0.304997933438929,-0.3269545145174351,13.103056919898057,1.8431849073456552,-4.606327203815739,7.577473068907202,-1.4435284155868895,-10.166013829673208,11.301974924673685,0.6101654797065549,-8.075993235518293,-0.8717978872903963,6.881527784394055,2.583201338605183,2.502069240663109,-10.555360375381095,-14.8220527462843,-0.5054008669969513,25.48037311311001,-14.789925309065936,6.731020517181234,-16.513198260073263,1.0671032272325378,-20.74401768103691,31.926408482343422,36.910384281307095,41.55890017072513,1577395944.0,-27.688984232916454,-51.12948891782178,6.193256
51395,1577395944.37,-1.0345578954184926,-4.065500406851419,10.888420384253523,-3.189426982302781,-1.855389496296208,4.589509397032202,0.3186040062881094,10.840711536537729,8.225425791372905,-11.841006395293444,4.527766530106708,1.6306435189596038,2.4869965343940548,-11.515919755144816,0.6099793969131098,-2.132508812881097,-21.3528144650343,-0.4138481326219513,25.8926768851668,-13.603079450931014,5.933925982251868,-16.10867546805047,3.0488663635215367,-25.84500563539025,32.02225417078504,36.81453859286549,41.55890017072513,1577395944.0,-27.688984232916454,-51.12948891782178,6.193256
51396,1577395944.38,-0.6359233190024771,3.7048810811856896,10.13185265964415,-0.6946688524199695,0.8991395137135575,13.176313651182593,-3.2212231482529057,-1.8365862539896147,10.264088504995952,7.049374464081555,2.849299733231707,2.698758753334604,1.6782807140815548,-1.8723650676448167,2.608880764100609,-2.651307641006097,-2.2640693478467986,18.44601514862805,26.799745183691755,-13.69437528617216,6.376756279434842,-16.71545965608466,-0.9908815681444992,-25.67497270357848,32.07017701500584,36.910384281307095,41.72663012549795,1577395944.0,-27.688984232916454,-51.12948891782178,6.193256
51397,1577395944.39,-0.7795754186118521,6.020074086556783,12.808570115698837,-0.7856485155059064,4.7166940608326975,10.764155478575171,-6.406708457090796,-7.450989147056021,11.649134165396342,6.011776807831555,-8.686344798018293,0.0132118783346036,3.3720063000190548,3.864939619855183,0.1522157250381097,4.154112280868903,10.3549492068407,-12.04104539824695,26.799745183691755,-13.69437528617216,6.376756279434842,-16.10867546805047,3.658639636225843,-19.72382009016624,31.83056279390182,36.81453859286549,41.65474585916674,1577395944.0,-27.688984232916454,-51.12948891782178,6.193256
51398,1577395944.4,-0.6263465123618521,2.431165797982565,11.4151447494879,-1.9803551439238751,0.4502267024342598,7.6445107153915774,11.899357436463893,7.546290052162728,8.378654697622904,8.819393995331556,-16.529362376143293,-1.0854209341653962,2.3038910656440548,2.278025557355183,2.410516506288109,21.5186142339939,14.8410331912157,-10.54568407012195,26.3049806572236,-13.511783615689868,6.199624160561654,-17.322243844118844,5.335516136162689,-26.185071499013805,31.97433132656424,36.81453859286549,41.65474585916674,1577395944.0,-27.688984232916454,-51.12948891782178,6.193256
51399,1577395944.41,0.4271022181068973,1.1825896322110805,5.454779716528916,0.6939681104706551,1.929843328410822,6.145740476133765,-10.716271445372046,7.239832239662729,4.933398508658061,6.774716260956556,1.7811844988567076,2.225736292397104,-0.2595854968559451,-2.116505692644817,1.1592958031631098,8.487608374618903,26.9565117068407,10.14523389862805,25.645294621932727,-14.607333638583638,4.959699328449323,-17.322243844118844,5.335516136162689,-15.302963863060016,31.878485638122623,37.05415281396951,41.65474585916674,1577395944.0,-27.688984232916454,-51.12948891782178,6.193256
51400,1577395944.42,-1.2440505406821647,2.8381800802091277,11.00573626560118,0.5802435316132332,-0.1818425358469894,8.251440836241187,1.366067232606469,-5.603862566245474,8.768909568228374,11.840634229706556,3.429133717606707,1.1118446908346038,4.867367628144055,2.720530440167683,-1.6025450171493905,0.9039902105564026,12.3996269412157,-3.099395007621951,25.15053009546457,-14.059558627136752,6.731020517181234,-17.322243844118844,5.335516136162689,-15.302963863060016,31.926408482343422,36.88642285919669,41.60682301494593,1577395944.0,-27.688984232916454,-51.12948891782178,6.193256
51401,1577395944.43,-0.4611465978110708,-4.701160947622904,6.315495213355088,-0.0530228074980938,-1.6039983219798015,0.2775522070907958,2.396771047303734,22.12218975919398,16.89243580113853,-7.263369676543445,4.436213795731708,-0.0783408560403963,-1.9075347156059448,-2.482716630144817,1.6170594750381098,17.4902939214939,2.7865898318407014,5.964325695503049,25.15053009546457,-14.059558627136752,6.731020517181234,-17.322243844118844,5.335516136162689,-15.302963863060016,31.782639949681013,36.81453859286549,41.65474585916674,1577395944.0,-27.688984232916454,-51.12948891782178,6.193256
51402,1577395944.44,-1.639093814607946,2.4958092428067835,8.743215696753525,-6.747210649294969,11.944788872844416,17.92760684576267,-3.6222519263290778,-15.811541344321643,2.5511678568025924,-5.981631395293445,2.910334889481707,1.6611610970846038,-6.759829637480945,-15.605275223894816,2.044305568788109,-3.414247094131097,11.4230644412157,0.3185737423780487,25.81021613075545,-14.789925309065936,6.022492041688465,-15.472996794871795,5.640402772514843,-80.59560967878276,31.97433132656424,36.86246143708629,41.60682301494594,1577395944.0,-27.688984232916454,-51.12948891782178,6.193256
51403,1577395944.45,1.505690066007288,1.9607051717618615,9.107134349097276,1.517573481564405,1.910689715129572,8.429808859922828,-4.91033241949314,6.962104847084603,7.928544785513529,2.029232862519056,-9.144108469893292,-1.7262900747903964,11.794857862519056,17.872507979230182,-6.1649229468368905,8.182432593368903,9.9582206912157,-11.94949266387195,26.7172844292804,-13.420487780448717,6.288190219998247,-17.322243844118844,5.640402772514843,-86.03666349675964,31.87848563812262,36.86246143708629,41.75059154760835,1577395944.0,-27.688984232916454,-51.12948891782178,6.193256
51404,1577395944.46,0.419919613126429,0.9898563985685014,9.6530123276129,3.0666219556854992,-0.8366566898997235,3.724005496885718,0.3533199303603752,-1.4403458792337551,8.73898204747642,13.213925245331556,5.321223561356708,1.2033974252096038,0.778012159394055,-5.915944169207316,3.6464784203506095,1.6669296636814028,24.3319999880907,0.5627143673780486,26.63482367486904,-12.781416933760685,5.845359922815277,-17.17777141839642,5.716624431602881,-77.36498397435898,31.782639949681013,36.76661574864468,41.65474585916674,1577395944.0,-27.688984232916454,-51.12948891782178,6.193256
51405,1577395944.47,-1.7659865025962271,2.500597646127096,15.02799505466368,-4.618765373416062,10.388557793742851,13.902953855040014,1.9227191185927968,11.556577832924448,6.729049753775248,-5.890078660918445,27.660090748856707,1.0202919564596038,6.088070753144055,3.193552901105183,-2.2281553687118905,14.560606421493905,18.4726249880907,-4.991484851371951,26.63482367486904,-12.781416933760685,5.845359922815277,-17.264454873829877,5.487959454338766,-68.6933044519583,31.97433132656424,36.910384281307095,41.41513163806272,1577395944.0,-27.688984232916454,-51.12948891782178,6.193256
51406,1577395944.48,2.1078317835365854,1.2340649679044398,2.140007518042588,3.547856489376905,-5.738784589069645,2.6717538672470464,2.959408437440453,-6.862015538657583,9.819964097036967,6.957821729706555,19.206721608231707,2.057889612709604,10.268978956269056,18.055613447980186,-0.3665831030868902,1.3770126714939026,15.2072441287157,5.262421398628049,26.799745183691755,-12.96400860424298,6.731020517181234,-17.322243844118844,7.164835954275611,-25.504939771766697,32.07017701500584,36.910384281307095,41.79851439182916,1577395944.0,-27.688984232916454,-51.12948891782178,6.193256
51407,1577395944.49,0.0045256250893197,1.13829690149819,10.535275639380478,-2.558554844851609,2.9856862605397287,11.690711521055638,1.7108322716689697,2.810559168373666,12.89531612950767,-2.0601226062309443,2.315242116044208,-0.0020469107278963,-5.645938035918445,-7.884327958269816,2.776727443788109,5.176451148056403,0.4977714724657014,-3.3893119998094514,26.14005914840088,-12.416233592796091,7.97094534929356,-19.17149089336589,5.945289408866996,-77.87508276979432,31.95036990445383,36.910384281307095,41.582861592835535,1577395944.0,-27.688984232916454,-51.12948891782178,6.193256
51408,1577395944.5,-1.677401041170446,9.580251955209128,11.214031810034776,-8.260346098513718,3.6967641536061353,16.692198789122045,5.150102956483422,3.916680335365853,15.03453531285728,22.06402290158156,12.370784108231708,1.4170204720846038,0.6254242687690549,11.494334151105184,-1.9229795874618905,-2.376649437881097,-12.0449531369093,1.1425483517530486,25.975137639578165,-15.33770032051282,6.908152636054422,-21.020737942612943,5.335516136162689,-75.15455586080586,31.926408482343422,37.0062299697487,41.65474585916674,1577395944.0,-27.688984232916454,-51.12948891782178,6.193256
51409,1577395944.51,-2.122722549959508,-0.7052383768221225,10.201284507788682,6.600463606076124,-5.602315094440739,6.102644846250953,-7.369177524473609,-3.847715648520864,13.497457847036967,-14.404482957793444,-2.918522532393293,-1.4516318716653962,-1.0530425281059452,12.776072432355184,1.4034364281631098,-0.2099013910060974,-24.1604316525343,4.224823742378049,25.975137639578165,-15.33770032051282,6.908152636054422,-21.020737942612943,-3.2013096816976128,-15.302963863060016,31.97433132656424,36.86246143708629,41.55890017072513,1577395944.0,-27.688984232916454,-51.12948891782178,6.193256
51410,1577395944.52,-1.448754782625524,-2.838472056021341,11.05721160129454,-1.1711149827910623,-5.484999213093083,4.35487763433689,2.1884755028701406,14.008240332924446,6.9301626932283735,-17.929263231230948,5.7332108660442085,2.256253870522104,-1.8159819812309448,-11.393849442644816,5.7979676781631095,-5.123231469131097,-14.1506660275343,13.25802686737805,26.38744141163496,-13.968262791895604,6.111058101125059,-20.789582061457065,-3.2013096816976128,-15.302963863060016,31.95036990445383,36.910384281307095,41.463054482283525,1577395944.0,-27.688984232916454,-51.12948891782178,6.193256
51411,1577395944.53,-1.0261781896079458,8.311325075326314,7.503019236792587,-5.631512675662156,10.285607122356137,11.203491483213844,1.1158731591201403,-5.842085631431021,6.085009507193217,8.056454542206556,10.631282155106708,2.393582972084604,-1.0988188952934452,-2.3759051067073167,0.3200624047256093,-6.832215844131096,3.0307304568407014,-0.2307426638719505,24.490844060173693,-14.424741968101342,8.148077468166749,-20.789582061457065,-0.1524433181760769,-20.74401768103691,31.782639949681013,36.862461437086296,41.65474585916674,1577395944.0,-27.688984232916454,-51.12948891782178,6.193256
51412,1577395944.54,-2.7045135533774767,8.179643984017721,6.866161595191025,-3.989090336794968,3.828445244914729,0.2560043921493896,4.058346999452172,6.974075855385385,7.375484202017436,33.23345649533155,-9.327213938643292,1.2339150033346038,5.477719190644055,6.703074385480183,0.5794618187881098,16.1475204839939,10.2023613162157,-11.46121141387195,26.14005914840088,-13.329191945207567,7.439548992673988,-17.148876933251934,-4.26841290893015,-4.08079036348267,31.83056279390182,36.86246143708629,41.31928594962111,1577395944.0,-27.688984232916454,-51.12948891782178,6.193256
51413,1577395944.55,3.233106563810023,-4.995647751822123,5.233316062964462,-0.2756835618926251,-4.745190900104801,1.4507110205673583,0.2204417382217032,2.791405555092416,9.247749900259622,0.3660248547065549,-16.987126048018293,-2.031465856040396,-2.182192918730945,-15.818898270769816,4.5467469750381095,3.482725562118903,4.342986316215701,6.849335461128049,26.14005914840088,-13.329191945207567,7.439548992673988,-17.322243844118844,3.201309681697613,-19.38375422654269,31.926408482343422,36.67077006020308,41.55890017072513,1577395944.0,-27.688984232916454,-51.12948891782178,6.193256
51414,1577395944.56,-1.3709432286704462,-1.9454348367830605,11.03087538303282,-1.6715031297637188,4.2091233088795725,14.472773850157202,-3.806605454161109,-2.1358614615091454,8.148811338247905,-6.912417528105944,1.4149735613567074,1.2033974252096038,-5.691714403105945,-7.426564286394817,2.746209865663109,-6.832215844131097,-1.0586250119092988,3.2482612423780486,26.38744141163496,-13.055304439484123,5.933925982251875,-16.68656517094017,0.6097732727043083,-25.84500563539025,31.87848563812262,37.0062299697487,41.55890017072513,1577395944.0,-27.688984232916454,-51.12948891782178,6.193256
51415,1577395944.57,-0.1594771886313834,2.081612355599752,11.554008445776962,0.9764839063690928,0.3101659053151196,9.154054862120091,2.6529506249404533,5.548328766762338,6.9864264322420455,-15.442080614043444,8.525569264481707,5.079129847084603,-2.350039598418445,9.571726729230184,0.1216981469131097,3.604795874618903,12.0181572146532,6.8645942501905495,26.46990216604632,-14.789925309065936,7.793813230420372,-16.28204237891738,1.0671032272325378,-25.504939771766697,31.97433132656424,36.62284721598228,41.60682301494593,1577395944.0,-27.688984232916454,-51.12948891782178,6.193256
51416,1577395944.58,0.6473687708412728,4.29864309290444,12.356066001929308,-3.534192021365281,4.800491118938167,10.91259598150486,-0.979053293516577,-10.405433995688831,11.048189548697122,-1.5565825671684452,-10.700504954268292,-0.0173056997903963,-4.104800340605945,-11.393849442644816,6.5609071312881095,1.6516708746189026,22.9892265505907,-2.1228325076219514,26.3049806572236,-13.511783615689868,6.199624160561654,-16.166464438339442,1.0671032272325378,-25.504939771766697,31.83056279390182,37.0062299697487,42.325665678258005,1577395944.0,-27.688984232916454,-51.12948891782178,6.193256
51417,1577395944.59,-1.066879617830602,5.493349721322408,10.883631980933211,-2.844661943240281,4.532340533000666,15.183851743223608,1.2379774437881093,-0.4096420645364893,8.598921250357279,25.42095649533156,-1.0569502667682926,1.1728798470846038,6.362728956269055,4.017527510480183,-1.4041807593368902,6.656553687118903,18.7778007693407,-12.74294969512195,26.3049806572236,-13.511783615689868,6.199624160561654,-17.091087962962966,0.457329954528231,-22.784412862778247,31.782639949681013,36.81453859286549,41.55890017072513,1577395944.0,-27.688984232916454,-51.12948891782178,6.193256
51418,1577395944.6,-0.5305784459556021,-2.034020298208841,7.995027677954697,3.594543421749953,-3.950315948932927,1.996588999082984,-2.629855338194312,-1.904821001304068,5.773763291372904,-12.115664598418444,4.665095631669208,1.3254677377096038,1.1899994640815548,9.449656416730184,0.9761903344131094,1.8500351324314028,23.5538017459032,1.2493598751905486,26.38744141163496,-12.872712769001833,6.642454457744632,-17.322243844118844,-0.7622165908803835,-13.942700408565791,31.97433132656424,36.86246143708629,41.60682301494594,1577395944.0,-27.688984232916454,-51.12948891782178,6.193256
51419,1577395944.61,0.9586149866615852,-0.3868095560213413,8.688149058569932,-4.420046635623093,5.341580694133479,10.275738339903295,3.919483303163109,8.051466602455697,10.255708799185404,-2.014346239043445,14.140803639481708,1.966336878334604,-6.851382371855945,-7.884327958269817,8.17833877191311,9.891416968368905,19.4491874880907,4.560517101753049,25.31545160428729,-13.146600274725271,6.908152636054422,-16.28204237891738,2.896423045345459,-21.424149408284023,32.16602270344745,36.86246143708629,41.60682301494594,1577395944.0,-27.688984232916454,-51.12948891782178,6.193256
51420,1577395944.62,0.6138499475990853,4.928318129525533,7.766381419409775,-2.231746318240281,4.934566411906917,10.352352793028295,-3.787451840879859,-2.6984988516458643,9.72180182897056,-0.4884673327934451,1.2623856707317074,2.149442347084604,-2.304263231230945,6.214793135480183,0.7930848656631098,0.7666611089939026,17.0688163943407,-1.6345512576219514,26.96466669251448,-14.97251697954823,6.199624160561654,-16.28204237891738,2.896423045345459,-24.824808044519585,31.83056279390182,36.71869290442388,41.55890017072513,1577395944.0,-27.688984232916454,-51.12948891782178,6.193256
51421,1577395944.63,-2.6925425450766958,9.759817079720843,10.110304844702744,0.8304376050995613,3.790138018352229,7.85998886480564,2.509298525331078,4.941398645912728,12.501469956411968,28.99151313595656,-0.3855635480182927,0.8982216439596037,-1.1445952624809452,9.022410322980184,-1.8619444312118905,3.818418921493903,-5.636261730659299,-10.27102586699695,26.96466669251448,-14.97251697954823,6.199624160561654,-17.206665903540905,2.896423045345459,-24.824808044519585,31.97433132656424,36.81453859286549,41.65474585916674,1577395944.0,-27.688984232916454,-51.12948891782178,6.193256
51422,1577395944.64,-0.2360916417563834,-2.773828611197122,11.21762311252501,-0.3211733934355943,-0.3338743412669115,14.05977406378025,-1.84575429449314,-1.202122814048208,13.89130402013267,-8.773989793730944,-5.802433665205792,0.0284706673971038,-2.273745653105945,-2.085988114519817,3.432855373475609,-9.502503930068595,-10.5953681759718,1.3866889767530488,26.55236292045768,-14.333446132860196,5.756793863378679,-16.85993208180708,-0.1524433181760756,-23.804610453648912,32.118099859226646,36.81453859286549,41.60682301494593,1577395944.0,-27.688984232916454,-51.12948891782178,6.193256
51423,1577395944.65,-4.897602274080602,1.0640766500333452,12.351277598608991,-1.2860366624785626,-1.1443116032298015,7.867171469786109,-1.4650762305282958,16.184569642006476,13.94277935582603,-18.188662645293444,13.683039967606708,1.2644325814596038,1.0831879406440548,7.862742354230183,0.1827333031631097,5.924131812118903,-25.6863105587843,5.628632336128049,26.14005914840088,-14.059558627136752,5.668227803942081,-15.819730616605618,3.5061963180497666,-18.023490772048465,31.83056279390182,36.86246143708629,41.65474585916674,1577395944.0,-27.688984232916454,-51.12948891782178,6.193256
51424,1577395944.66,0.1589516321693978,3.048869826302877,9.645829722632431,0.2869538282440926,3.991250957805354,10.52234111089939,-0.2248797705673583,-8.45415964266149,11.16550543004478,-5.554385301543445,9.532649342606708,3.980497034584604,-5.661196824980945,-3.459279130144817,2.776727443788109,-15.712831078506095,-20.7119453244093,14.11251905487805,26.63482367486904,-14.607333638583638,6.199624160561654,-15.819730616605618,3.5061963180497666,-18.023490772048465,31.782639949681013,36.910384281307095,41.84643723604996,1577395944.0,-27.688984232916454,-51.12948891782178,6.193256
51425,1577395944.67,-0.6694421422446646,3.2571653707364705,11.81737062839415,-4.156684453005906,3.2658078547780103,13.450449741270484,-2.757945127012672,-8.746252245200552,8.129657724966654,4.989437940644056,-8.274357493330793,-0.4292930044778963,-1.4497710437309452,0.5995587604801829,0.4268739281631097,-14.400575219131095,-15.8291328244093,-1.7261039919969514,26.63482367486904,-14.97251697954823,4.428302971829755,-15.010685032560032,-4.115969590754073,-4.420856227106225,31.90244706023303,37.0062299697487,41.65474585916674,1577395944.0,-27.688984232916454,-51.12948891782178,6.193256
51426,1577395944.68,0.7239832239662728,-1.9310696268221224,5.910875132788681,2.6500308668183115,-1.138326099079411,7.186021097471656,2.788223018739282,12.151536945473277,1.9777565591951705,-6.958193895293445,-10.883610423018292,2.027372034584604,-1.922793504668445,6.092722822980184,0.9456727562881094,8.304502905868905,14.6121513552782,5.7659614376905495,25.48037311311001,-14.059558627136752,6.022492041688465,-15.415207824582826,-3.81108295440192,-53.39034058889828,31.926408482343422,36.86246143708629,41.65474585916674,1577395944.0,-27.688984232916454,-51.12948891782178,6.193256
51427,1577395944.69,-0.4922712193931021,0.9228187520841264,8.597169395483993,0.2366755933808113,-3.493023431843083,5.681265354063453,-0.7061143042587645,-22.766697167075552,4.926215903677592,7.720761182831555,7.823664967606708,1.6001259408346038,-3.647036668730945,-11.760060380144816,2.898797756288109,-0.6066299066310974,37.6681816287157,-3.0993950076219514,24.82068707781913,-14.059558627136752,6.376756279434842,-17.322243844118844,-3.81108295440192,-91.47771731473654,31.926408482343422,36.71869290442388,41.65474585916674,1577395944.0,-27.688984232916454,-51.12948891782178,6.193256
51428,1577395944.7,0.8341165003334603,0.7983202657560015,8.455911497534775,-1.951624724002,4.151662469035823,11.331581272032205,1.599501894471703,11.34349388517054,9.30042233678306,-9.460635301543444,-5.665104563643292,0.2573525033346037,-1.0835601062309452,3.407175947980183,0.7930848656631098,15.598204077743905,29.6115410037157,-10.60671922637195,26.63482367486904,-15.33770032051282,6.199624160561654,-17.322243844118844,4.725742863458382,-91.47771731473654,31.73471710546021,36.81453859286549,41.55890017072513,1577395944.0,-27.688984232916454,-51.12948891782178,6.193256
51429,1577395944.71,-1.0920187352622426,3.987396877084127,8.507386833228134,0.1552727369354988,1.5731072810475408,5.872801486875953,-1.6901311865829831,6.806481739174448,11.984322397818216,8.544735792206556,4.436213795731708,-0.2767051138528963,-4.074282762480945,9.815867354230184,0.7930848656631098,12.485411108993905,24.6982109255907,-0.8410942263719513,24.98560858664185,-13.511783615689868,6.553888398308031,-17.322243844118844,5.640402772514843,-80.59560967878276,31.854524216012216,36.86246143708629,41.79851439182916,1577395944.0,-27.688984232916454,-51.12948891782178,6.193256
51430,1577395944.72,1.0112874231850228,-1.457017698111185,7.3904917587652434,-1.4632075853301254,1.2044002253834794,10.007587753965796,-1.7739282446884523,-1.5133690298685214,13.15748121129478,-9.063906785918444,3.001887623856707,0.8982216439596037,-3.631777879668445,-4.985158036394816,0.1522157250381097,-3.093812523818597,-5.6057441525343,-6.898833484184451,26.46990216604632,-14.789925309065936,6.376756279434842,-19.28706883394384,5.487959454338766,-77.53501690617075,31.782639949681013,36.862461437086296,41.75059154760835,1577395944.0,-27.688984232916454,-51.12948891782178,6.193256
51431,1577395944.73,-1.4188272618735709,1.2484301778653772,13.103056919898057,-0.4528544847441876,0.0432124202076973,12.080966391661107,-1.0700329566025146,21.71996388028773,14.75920212193931,-14.099307176543444,-0.4160811261432927,-1.4211142935403962,-1.0835601062309452,6.458933760480183,-0.2139952124618902,-0.7287002191310974,-16.8667304806593,14.05148389862805,25.48037311311001,-14.424741968101342,6.022492041688465,-19.229279863654867,5.487959454338766,-80.2555438151592,31.97433132656424,36.86246143708629,41.75059154760835,1577395944.0,-27.688984232916454,-51.12948891782178,6.193256
51432,1577395944.74,0.6545513758217415,-0.98775417272056,9.868490477026963,2.7170685133026864,-0.3590134586985517,4.055602426817359,-2.9782116797470466,-16.7716162100443,9.755320652212747,-6.469912645293445,8.647639576981707,2.332547815834604,-5.600161668730945,7.221873213605183,-1.3736631812118902,-18.0932021722561,-14.2117011837843,12.34249952362805,26.14005914840088,-14.424741968101342,7.085284754927611,-19.229279863654867,5.487959454338766,-80.2555438151592,31.782639949681013,36.86246143708629,41.463054482283525,1577395944.0,-27.688984232916454,-51.12948891782178,6.193256
51433,1577395944.75,0.2427486902748665,3.8293795675138154,11.208046305884384,-0.7066398607207504,3.126944158488948,14.82472149420017,6.052716982362328,12.915287275063118,9.62004825841392,1.5714691906440548,-0.0803877667682928,-0.0935996451028963,-0.915713426543445,0.8742169636051829,-0.2139952124618906,-6.389710961318596,-21.6427314572218,0.883148937690549,24.65576556899641,-14.242150297619048,6.908152636054422,-19.893853021978025,0.5335516136162695,-48.45938556635672,31.902447060233023,36.93434570341749,41.72663012549795,1577395944.0,-27.688984232916454,-51.12948891782178,6.193256
51434,1577395944.76,-2.4196035558188838,-4.89509128209556,5.575686900366806,2.834384394650342,-2.659841254108708,9.708312546446264,0.9482790429092032,-11.123694493735709,3.592645578970561,-4.791445848418445,9.196955983231708,0.4709755502096037,-7.950015184355945,6.397898604230183,-0.7022764624618902,-8.998963891006097,6.418181628715701,11.64059522675305,25.81021613075545,-14.789925309065936,7.085284754927611,-17.264454873829877,-3.658639636225843,-2.720526908988449,31.97433132656424,36.81453859286549,41.79851439182916,1577395944.0,-27.688984232916454,-51.12948891782178,6.193256
51435,1577395944.77,0.2140182703529915,2.304273109994284,8.748004100073837,-2.0617580003691875,3.651274322063167,9.203135996153296,-0.634288254454077,-0.7591955069193018,12.144733909048686,-3.357119676543445,15.086848561356708,1.2949501595846038,-2.029605028105945,-1.0178728801448171,3.7838075219131095,8.823301733993903,6.051970691215701,-6.120635241996951,25.31545160428729,-13.876966956654456,7.262416873800799,-17.264454873829877,-3.658639636225843,-4.08079036348267,31.782639949681013,36.86246143708629,41.55890017072513,1577395944.0,-27.688984232916454,-51.12948891782178,6.193256
51436,1577395944.78,-0.4372045812095084,4.593129897103658,10.060026609839465,-0.6850920457793439,2.7510544978444167,8.283762558653295,3.9984919579482656,8.19033029874476,8.07459108678306,3.4483002453315548,-8.869450266768293,-2.794405309165396,-0.5037261218559451,8.534129072980184,-3.5709288062118905,-5.672547875381097,8.2797538943407,-3.3130180544969514,25.31545160428729,-13.511783615689868,6.908152636054422,-16.628776200651203,1.6768764999368453,1.0201975908706693,31.782639949681013,37.0062299697487,41.55890017072513,1577395944.0,-27.688984232916454,-51.12948891782178,6.193256
51437,1577395944.79,-1.439177975984899,2.194139833627096,7.550903269995713,0.1385133253144056,2.934210924846369,11.391436313536108,1.8329365563369384,7.753388495766244,11.124804001822122,2.609066846894055,-0.3855635480182927,-0.5818808951028963,-3.296084520293445,1.5761212604801829,1.510247951600609,0.6598495855564028,-4.171417980659299,-1.8634330935594516,27.12958820133719,-13.69437528617216,4.959699328449328,-16.10867546805047,-0.6097732727043068,-2.720526908988446,31.90244706023303,36.76661574864468,41.630784437056334,1577395944.0,-27.688984232916454,-51.12948891782178,6.193256
51438,1577395944.8,-3.6717710240806016,2.4479252096036586,10.32338879245665,-1.4991206102324688,-1.1898014347727703,8.16644667730564,-1.7954760596298582,-14.032649510825552,18.03925839635337,3.6619232922065534,12.096125905106708,1.7221962533346038,0.0761078625190548,2.979929854230183,0.3963563500381097,-14.827821312881095,-23.0312812619093,-0.8716118044969513,25.31545160428729,-13.511783615689868,7.616681111547183,-16.339831349206353,-4.26841290893015,-23.1244787264018,31.73471710546021,36.910384281307095,41.55890017072513,1577395944.0,-27.688984232916454,-51.12948891782178,6.193256
51439,1577395944.81,-1.179407095857946,-2.94142272740806,3.861438511694931,-4.209356889529343,-2.774762933796208,5.202425022032203,-0.0548914526962645,9.540660035072884,6.367525303091655,-14.435000535918444,4.802424733231708,0.8371864877096037,-3.586001512480945,15.309031416730184,-1.7398741187118902,-14.827821312881095,-35.1772773556593,-1.3598930544969514,25.48037311311001,-14.424741968101342,7.085284754927611,-16.859932081807084,0.457329954528231,-23.46454459002536,31.97433132656424,36.910384281307095,41.463054482283525,1577395944.0,-27.688984232916454,-51.12948891782178,6.193256
51440,1577395944.82,-0.9064681066001332,2.457502016244283,11.283463658179306,-2.305966569705125,-0.2369091740305829,14.300391330625953,-1.8744847144150143,11.795997998940072,10.36105367223228,-0.7783843249809452,-6.061833079268292,0.6693398080221038,-2.029605028105945,-14.964406083269816,4.6077821312881095,-12.783143578506095,-18.2095039181593,24.91574171112805,26.140059148400884,-14.607333638583638,6.908152636054415,-16.859932081807084,0.457329954528231,-23.46454459002536,31.926408482343422,36.86246143708629,41.463054482283525,1577395944.0,-27.688984232916454,-51.12948891782178,6.193256
51441,1577395944.83,-2.8338004430259143,4.401593764291159,11.917927098120712,0.2462524000214368,3.2729904597584785,11.119694425108374,2.2543160485244376,-4.164947368491568,6.316049967398295,13.061337354706556,-2.857487376143293,-0.7497275747903963,-2.731509324980945,0.4317120807926828,-0.3360655249618904,-12.783143578506095,-0.1736152462842985,-5.632353991996951,26.63482367486904,-14.607333638583638,6.553888398308031,-16.85993208180708,0.457329954528231,-26.185071499013805,31.926408482343422,36.86246143708629,41.60682301494594,1577395944.0,-27.688984232916454,-51.12948891782178,6.193256
51442,1577395944.84,1.2483133875404917,0.1734336324552201,10.641817613257432,0.3228668531464363,2.0663128230397283,10.833587326719702,-4.91033241949314,5.4609404061666345,6.436957151236186,-1.5260649890434452,0.7130692644817074,-0.2004111685403963,-0.4426909656059451,0.5385236042301829,-0.0308897437118902,10.654356421493905,7.150603503715701,-0.8105766482469513,27.78927423662807,-12.233641922313796,5.668227803942081,-16.39762031949532,0.457329954528231,-26.185071499013805,31.926408482343422,36.81453859286549,41.60682301494594,1577395944.0,-27.688984232916454,-51.12948891782178,6.193256
51443,1577395944.85,0.6330035608803353,-0.7531224100252475,8.86771418308165,-1.2716714525176251,-1.5920273136790204,6.203201315977515,-0.509789768125952,-4.494150096763051,7.950092600454935,-12.024111864043444,-14.393131907393292,-0.7192099966653963,-3.067202684355945,-6.846730302019817,2.837762600038109,2.078916968368903,7.516814441215701,-2.1228325076219514,24.490844060173693,-12.96400860424298,5.313963566195704,-16.39762031949532,0.457329954528231,-26.185071499013805,31.97433132656424,37.0062299697487,41.463054482283525,1577395944.0,-27.688984232916454,-51.12948891782178,6.193256
51444,1577395944.86,-1.4655141942466177,3.8198027608731895,9.591960185278916,-2.155131865115281,2.8276689509694166,9.318057675840794,0.4407082909560781,9.413767347084605,7.552655124868998,9.643368604706556,5.778987233231708,-0.4750693716653963,-1.4802886218559452,-1.1094256145198171,-0.1224424780868902,1.7127060308689026,8.5238945193407,4.255341320503049,26.22251990281224,-14.881221144307084,6.288190219998247,-17.322243844118844,1.9817631362889991,-23.46454459002536,31.97433132656424,36.86246143708629,41.65474585916674,1577395944.0,-27.688984232916454,-51.12948891782178,6.193256
51445,1577395944.87,-2.2879224645102894,-1.0763396341463414,5.022626316870713,-1.8869812791777811,0.3795977534596509,7.7366874793075935,-0.4056419959091557,1.3824178780904632,9.399781705679546,-3.387637254668445,-2.430241282393293,0.5014931283346037,0.4880951672065548,1.3472394245426829,-1.4499571265243905,-0.1946426019435971,7.150603503715701,3.522919445503049,26.3049806572236,-14.97251697954823,6.553888398308031,-15.761941646316648,3.506196318049767,-22.10428113553113,31.73471710546021,36.76661574864468,41.534938748614735,1577395944.0,-27.688984232916454,-51.12948891782178,6.193256
51446,1577395944.88,-0.7628160069907584,1.619531435189596,8.961088047827745,-2.8973343797637185,3.0455413020436355,12.638815378477515,-1.898426731016577,-3.775889598716177,10.13121031285728,-8.087344285918444,-0.7517744855182926,-0.4445517935403963,0.4118012218940549,-7.335011552019817,1.5560243187881098,-2.864930687881097,-5.788849621284299,-5.907012195121951,26.3049806572236,-14.97251697954823,6.553888398308031,-17.264454873829877,3.3537529998736897,-19.04368836291913,31.97433132656424,37.05415281396951,41.463054482283525,1577395944.0,-27.688984232916454,-51.12948891782178,6.193256
51447,1577395944.89,-1.849783560701696,1.29152580774819,12.133405247534776,-1.903740690798875,-2.0158010075266763,12.052235971739233,0.2539605614638907,2.753098328529916,10.751308542837748,3.2346771984565548,2.513606373856707,-0.6276572622903963,2.6090668468940548,2.766306807355183,-1.3126280249618902,1.9263290777439024,-4.568146496284299,-9.23342821074695,25.48037311311001,-14.059558627136752,7.439548992673988,-17.322243844118844,-4.115969590754073,-26.185071499013805,31.97433132656424,36.910384281307095,41.75059154760835,1577395944.0,-27.688984232916454,-51.12948891782178,6.193256
51448,1577395944.9,-0.0110366857016959,0.8462042989591269,11.081153617896105,-0.284063267703172,1.756263708049494,10.315242667295877,-3.440292600157202,4.5966336068502285,7.787286887564311,-2.197451707793445,-4.139225657393292,0.0437294564596036,-1.4955474109184452,1.5761212604801829,0.7930848656631098,4.856016577743904,10.3702079959032,4.0874946408155495,26.799745183691755,-14.424741968101344,6.376756279434845,-16.253147893772894,-3.887304613489958,-15.132930931248238,31.97433132656424,36.81453859286549,41.75059154760835,1577395944.0,-27.688984232916454,-51.12948891782178,6.193256
51449,1577395944.91,2.299367916349085,3.1733683126310024,8.192549314917587,-1.9659899339629376,0.4574093074147285,9.94055010748142,-3.289457895567359,-11.97842448641149,8.325982261099467,10.131649854706556,-7.038395579268292,0.1352821908346037,4.440121534394055,-3.947560380144817,1.3118836937881098,-5.642030297256097,16.0312187380907,-9.26394578887195,26.3049806572236,-14.242150297619048,5.845359922815277,-15.241840913715915,-4.420856227106227,-15.302963863060016,32.07017701500584,36.57492437176146,41.75059154760835,1577395944.0,-27.688984232916454,-51.12948891782178,6.193256
51450,1577395944.92,0.1876820520912728,0.8246564840177202,7.5748452865972755,-0.9628194383574687,1.3504465266530097,3.464234616758765,2.3321276024795154,24.736657972084604,5.117752036490092,6.988339307831555,3.856379811356707,-0.5666221060403963,0.7169770031440549,6.245310713605183,-2.1671202124618905,17.7954697027439,15.4819023318407,0.5321967892530487,26.3049806572236,-14.242150297619048,5.845359922815277,-15.415207824582827,5.487959454338766,-80.2555438151592,31.83056279390182,36.81453859286549,41.65474585916674,1577395944.0,-27.688984232916454,-51.12948891782178,6.193256
51451,1577395944.93,0.8556643152748665,-1.3444902200838411,10.165371482886338,-0.9915498582793438,0.9673742610280096,8.583037766172827,1.1589687890029532,-6.285012938559927,7.918967978872905,-4.486270067168445,4.375178639481708,0.8066689095846037,0.9916352062690548,-6.511036942644817,4.7908876000381095,3.421690405868903,24.3319999880907,16.03512647675305,25.31545160428729,-14.97251697954823,5.845359922815277,-15.357418854293858,-4.115969590754073,-88.7571904057481,31.97433132656424,36.910384281307095,41.65474585916674,1577395944.0,-27.688984232916454,-51.12948891782178,6.193256
51452,1577395944.94,-1.5852242772544298,3.573199989877096,9.600339891089464,-1.0298570848418445,2.877947185832697,9.192362088682591,0.2994503930068598,3.767042731606088,12.714553904165872,4.577450635956555,9.425837819169208,0.7914101205221037,0.7474945812690549,5.543406416730184,-0.1224424780868906,6.687071265243902,-4.2782295040968,-15.45901414824695,26.46990216604632,-14.97251697954823,6.376756279434849,-16.28204237891738,-2.4390930908172286,-88.07705867850099,31.83056279390182,36.88642285919669,41.48701590439393,1577395944.0,-27.688984232916454,-51.12948891782178,6.193256
51453,1577395944.95,-0.8394304601157584,-3.4825123026033724,6.207756138648056,0.0140148389862801,-2.1187516789133958,9.468892380430638,-14.075336374571265,-3.567594054282583,9.096915195669778,-20.080752489043444,0.9266923113567074,0.3794228158346037,2.3344086437690548,0.4774884479801829,1.6475770531631098,3.452207983993903,-5.758332043159299,12.43405225800305,25.15053009546457,-13.329191945207567,6.731020517181234,-15.357418854293858,-1.0671032272325374,-87.39692695125387,31.97433132656424,36.81453859286549,41.65474585916674,1577395944.0,-27.688984232916454,-51.12948891782178,6.193256
51454,1577395944.96,-1.677401041170446,2.337791933236471,9.557244261206652,-2.5621461473418434,0.2826325862233223,13.304403440000952,-2.8992030249618903,-8.494861070884145,13.777579441275249,10.406308057831556,9.044368092606708,2.240995081459604,-0.5342436999809451,-10.875050614519816,1.7391297875381098,-14.217469750381095,-17.7822578244093,3.9196479611280486,25.15053009546457,-13.329191945207567,6.731020517181234,-17.264454873829877,5.487959454338766,-80.2555438151592,31.97433132656424,36.910384281307095,41.463054482283525,1577395944.0,-27.688984232916454,-51.12948891782178,6.193256
51455,1577395944.97,-2.144270364900914,0.5828421163419398,10.893208787573837,-6.117535612673875,0.0336356135670723,13.701840915586889,2.985744655702172,-0.0289640005716456,13.212547849478373,-4.471011278105944,2.528865162919208,0.3794228158346038,4.440121534394055,-1.9028826457698167,2.044305568788109,-3.200624047256097,-29.4704902462843,1.9054878048780488,26.46990216604632,-13.329191945207567,6.376756279434845,-17.322243844118844,7.7746092269799165,-80.59560967878276,32.02225417078504,37.0062299697487,41.463054482283525,1577395944.0,-27.688984232916454,-51.12948891782178,6.193256
51456,1577395944.98,0.5276586878334603,2.7088931905606897,10.122275853003526,0.0128177381562025,0.3388963252369946,9.255808432676734,3.756677590272485,1.090325275551401,9.970798801626811,5.218319776581555,-5.115788157393292,1.874784143959604,0.3812836437690548,-2.528492997332317,0.8083436547256094,-4.680726586318597,-12.5637519650343,9.13815382050305,26.14005914840088,-15.155108650030524,7.085284754927611,-19.17149089336589,5.945289408866995,-80.59560967878276,31.782639949681013,36.790577170755085,41.702668703387545,1577395944.0,-27.688984232916454,-51.12948891782178,6.193256
51457,1577395944.99,-1.1195520543540396,4.846915273080221,13.58429145358946,-1.6499553148223125,3.510016424113948,15.121602500059543,-4.062785031797827,-14.468394212973989,11.131986606802592,8.910946729706556,-8.686344798018293,-1.0549033560403962,-0.4121733874809451,-2.208058427019817,1.4644715844131098,-6.679627953506097,-0.2956855587842988,-10.91189500762195,26.46990216604632,-14.789925309065936,5.313963566195704,-20.84737103174604,-1.829319818112921,-12.242371090448014,31.926408482343422,36.86246143708629,41.65474585916674,1577395944.0,-27.688984232916454,-51.12948891782178,6.193256
51458,1577395945.0,-0.0086424840415396,-1.016484592642435,7.208532432593369,0.9788781080292488,-2.8370121769602705,6.148134677793921,8.482831667420921,15.772766956459604,6.594974460806498,6.011776807831555,-1.2705733136432926,0.5014931283346037,0.3812836437690549,7.252390791730183,0.6404969750381098,15.109922827743905,-4.140900402534299,-8.71462938262195,26.46990216604632,-14.789925309065936,5.313963566195704,-19.63380265567766,-4.420856227106227,-4.420856227106225,31.97433132656424,36.910384281307095,41.463054482283525,1577395945.0,-27.688923539135565,-51.129514630969375,7.1890283
51459,1577395945.01,1.687649392179163,1.0975954732755335,10.996159458960555,0.62693046398628,-0.9647464787180828,2.4203626929306394,-3.967016965391578,7.007594678627572,3.38913843785728,-3.235049364043445,2.223689381669208,1.0202919564596038,3.4330414562690548,-1.3840838176448171,1.3729188500381098,10.013487280868905,15.1767265505907,8.40573194550305,27.04712744692584,-15.42899615575397,5.22539750675911,-16.859932081807084,-4.420856227106227,-4.420856227106225,31.87848563812262,36.910384281307095,41.55890017072513,1577395945.0,-27.688923539135565,-51.129514630969375,7.1890283
51460,1577395945.02,0.860452718595179,5.335332411752096,6.114382273901962,0.5982000440644051,3.846401757365901,10.649233798887671,-6.764641605284155,-10.817236681235707,10.739337534536968,23.04058540158156,1.4149735613567074,0.4099403939596037,0.427060010956555,1.5608624714176833,-0.0156309546493906,-0.9575820550685972,11.8655693240282,0.6542671017530495,26.799745183691755,-14.424741968101342,6.022492041688465,-16.39762031949532,-3.81108295440192,-1.7003293181177797,31.782639949681013,36.86246143708629,41.51097732650433,1577395945.0,-27.688923539135565,-51.129514630969375,7.1890283
51461,1577395945.03,-2.4531223790610706,-1.04521501256431,5.788770848120713,-5.308295451541063,-0.9862942936594892,2.0085600073837644,5.995256142518578,15.81346838468226,4.957340525259624,2.7463959484565548,4.588801686356708,-1.1464560904153962,4.318051221894055,2.888377119855183,-0.3665831030868902,12.424375952743905,7.699919909965701,-1.2683403201219514,26.3049806572236,-13.146600274725271,5.845359922815277,-17.091087962962966,-4.420856227106227,-3.0605927726120044,31.97433132656424,36.86246143708629,41.65474585916674,1577395945.0,-27.688923539135565,-51.129514630969375,7.1890283
51462,1577395945.04,-1.8641487706626332,-0.9422643411775912,5.602023118628525,-2.96676622790825,-0.6726538761790204,9.674793723204075,-1.0867923682236085,-9.849979210532585,10.133604514517437,-5.310244676543445,9.013850514481708,2.820829065834604,4.836850050019055,-17.161671708269818,1.2203309594131098,1.4380478277439026,19.3576347537157,6.818817883003049,26.3049806572236,-13.146600274725271,5.845359922815277,-17.322243844118844,1.6768764999368453,-20.74401768103691,32.07017701500584,36.910384281307095,41.75059154760835,1577395945.0,-27.688923539135565,-51.129514630969375,7.1890283
51463,1577395945.05,-1.9730849461997424,1.6075604268888142,10.026507786597277,-0.3283559984160631,3.389109240276057,14.836692502500952,-2.7914639502548586,6.164835694252572,14.831028171744,-6.958193895293444,3.917414967606708,0.5320107064596036,0.3965424328315548,5.161936690167684,1.4797303734756095,4.489805640243903,-9.1915595822218,-8.22634813262195,26.14005914840088,-13.694375286172162,6.376756279434842,-15.472996794871795,1.6768764999368453,-19.38375422654269,32.02225417078504,36.76661574864468,41.43909306017312,1577395945.0,-27.688923539135565,-51.129514630969375,7.1890283
