,timestamp,acc_x_dashboard,acc_y_dashboard,acc_z_dashboard,acc_x_above_suspension,acc_y_above_suspension,acc_z_above_suspension,acc_x_below_suspension,acc_y_below_suspension,acc_z_below_suspension,gyro_x_dashboard,gyro_y_dashboard,gyro_z_dashboard,gyro_x_above_suspension,gyro_y_above_suspension,gyro_z_above_suspension,gyro_x_below_suspension,gyro_y_below_suspension,gyro_z_below_suspension,mag_x_dashboard,mag_y_dashboard,mag_z_dashboard,mag_x_above_suspension,mag_y_above_suspension,mag_z_above_suspension,temp_dashboard,temp_above_suspension,temp_below_suspension,timestamp_gps,latitude,longitude,speed
524,1577395435.66,-0.6054935998535146,0.5761646295166015,9.978613534240722,-0.549264897937309,0.48193527564072,10.18107978158346,-0.6952875630696608,0.3571350809733066,9.692526387532553,-0.1583099365234375,0.2832412719726562,-0.273895263671875,-0.2229271865472559,0.1505409798971036,0.1084862685785061,0.0016348702566966,-0.4483177548363095,0.0759306408110119,21.43929088850964,-10.44405947475144,3.2840144230769246,67.96133954678365,1.7938373672018535,9.140028490028469,37.9646868541648,35.66439033156618,32.597328301434686,1577395435.0,-27.71769200429012,-51.0990578183887,0.016879449
525,1577395435.67,-0.5061342309570303,0.1631648431396484,9.359712405090333,-0.4463142265505903,0.3358889743711887,9.814766927579551,-0.7383831929524732,0.3140394510904941,9.807448067220054,-0.1125335693359375,-0.1287460327148437,-0.014495849609375,-0.2839623427972559,0.4862343392721036,0.2000390029535061,0.0931876046316966,0.2841041201636905,-0.168209984188988,22.48315149356816,-11.868249403126637,4.105018028846156,70.08810517881243,1.7122993050563151,7.893660968660963,37.86884116572319,35.99985024111181,32.64525114565549,1577395435.0,-27.71769200429012,-51.0990578183887,0.016879449
526,1577395435.68,-0.4522646936035145,0.6623558892822264,9.844538241271971,-0.6139083427615277,0.3299034702207981,9.796810415128382,-0.6893020589192702,0.360726383463541,9.692526387532553,-0.0362396240234375,-0.1440048217773437,0.092315673828125,-0.1466332412347559,-0.0173056997903963,0.1390038467035061,-0.0594002859933033,0.2230689639136905,-0.259762718563988,21.921072706228955,-9.874383503401363,3.831350160256412,69.31473585807468,1.7122993050563151,9.555484330484324,37.725072633060776,35.9040045526702,32.7171354119867,1577395435.0,-27.71769200429012,-51.0990578183887,0.016879449
527,1577395435.69,-0.5600037683105459,0.2577358087158203,10.009738155822753,-0.4678620414919965,0.3215237644102512,10.075734908536583,-0.5995194966634108,0.3667118876139316,9.996589998372398,-0.2498626708984375,0.6494522094726562,-0.212860107421875,-0.2839623427972559,0.1200234017721036,0.1390038467035061,0.0016348702566966,-0.3567650204613095,-0.076657249813988,21.921072706228955,-9.874383503401363,3.831350160256412,67.76799721659921,1.7122993050563151,-7.062749287749304,37.91676400994399,35.856081708449395,32.6931739898763,1577395435.0,-27.71769200429012,-51.0990578183887,0.016879449
528,1577395435.7,-0.5983109948730458,0.2481590020751953,9.765529586486815,-0.4199780082888715,0.71177863501572,9.90574659066549,-0.716835378011067,0.3738944925944004,10.159395711263024,0.2689361572265625,-0.1440048217773437,-0.212860107421875,-0.0703392959222559,-0.2767051138528963,0.0474511123285061,-0.0899178641183033,0.0399634951636905,-0.015622093563988,22.402854523948275,-9.684491512951334,2.9191239316239352,67.96133954678365,-2.4461418643661625,-8.309116809116826,37.86884116572318,35.99985024111181,32.64525114565549,1577395435.0,-27.71769200429012,-51.0990578183887,0.016879449
529,1577395435.71,-0.5145139367675771,0.4289212274169922,9.790668703918456,-0.3409693535037152,0.1922368747618137,9.587317769864711,-0.688104958089192,0.3762886942545566,9.845755293782554,-0.0667572021484375,-0.2050399780273437,-0.075531005859375,-0.0398217177972559,0.4251991830221036,0.0779686904535061,0.1542227608816966,0.6503150576636905,-0.046139671688988,21.840775736609068,-9.019869546376244,3.0103465544871844,67.96133954678365,-2.4461418643661625,-8.309116809116826,38.06053254260641,35.856081708449395,32.50148261299308,1577395435.0,-27.71769200429012,-51.0990578183887,0.016879449
530,1577395435.72,-0.6246472131347656,0.4205415216064453,9.57159925201416,-0.8437517021365276,0.3047643527891575,10.082917513517051,-0.7371860921223952,0.3284046610514316,9.49620185139974,-0.3108978271484375,0.0085830688476562,0.122833251953125,-0.1008568740472559,-0.0935996451028963,-0.0746192001714938,0.1847403390066966,-0.1126243954613094,0.0148954845610119,22.08166664546873,-10.823843455651492,4.743576388888888,69.12139352789025,-0.2446141864366158,2.0772792022791826,37.91676400994399,35.97588881900141,32.50148261299308,1577395435.0,-27.71769200429012,-51.0990578183887,0.016879449
531,1577395435.73,-0.4402936853027333,-0.0343567938232412,8.949106820373535,-0.4846214531130902,0.5178483005430637,9.762094491056118,-0.841333864339192,0.3595292826334629,9.74519882405599,-0.4024505615234375,0.0085830688476562,-0.151824951171875,-0.3144799209222559,0.5472694955221036,-0.0135840439214938,0.0931876046316966,-0.0515892392113094,0.3505888439360119,22.2422605847085,-9.114815541601256,4.56113114316239,67.76799721659921,-2.8538321750938573,-7.8936609686609795,37.86884116572318,35.856081708449395,32.789019678317906,1577395435.0,-27.71769200429012,-51.0990578183887,0.016879449
532,1577395435.74,-0.3660734338378896,0.3654748834228515,9.638636898498534,-0.405612798327934,0.2209672946836887,10.047004488614707,-0.7120469746907545,0.2733380228678378,9.805053865559897,0.3910064697265625,-0.0524520874023437,-0.029754638671875,0.082248594702744,0.4862343392721036,-0.1356543564214938,0.3068106515066966,0.1620338076636905,-0.107174827938988,22.2422605847085,-9.114815541601256,4.56113114316239,69.70142051844356,-2.5276799265117016,-8.724572649572671,37.9646868541648,36.047773085332615,32.45355976877228,1577395435.0,-27.71769200429012,-51.0990578183887,0.016879449
533,1577395435.75,-0.5564124658203119,0.4420893365478515,10.091141012268066,-0.5660243095584027,0.2724426303770481,9.735758272794396,-0.5959281941731764,0.3846684000651035,9.772732143147786,-0.0514984130859375,0.1001358032226562,-0.197601318359375,-0.2534447646722559,0.1657997689596036,0.1695214248285061,0.0321524483816966,-0.2194359188988095,-0.061398460751488,22.242260584708504,-8.924923551151231,3.831350160256412,69.79809168353577,-0.2038451553638463,-7.685933048433073,37.94072543205439,35.80815886422859,32.64525114565549,1577395435.0,-27.71769200429012,-51.0990578183887,0.016879449
534,1577395435.76,-0.5719747766113271,0.3104082452392578,9.475831185607907,-0.3313925468630903,0.5824917453672824,10.042216085294395,-0.6857107564290358,0.3762886942545566,10.003772603352868,-0.0972747802734375,-0.2660751342773437,-0.121307373046875,0.051731016577744,-0.3072226919778963,0.1390038467035061,-0.0899178641183033,-0.2957298642113095,-0.2902802966889881,21.599884827749413,-9.114815541601256,3.101569177350434,67.96133954678365,-2.283065740075086,8.309116809116793,38.0605325426064,35.95192739689101,32.357714080330666,1577395435.0,-27.71769200429012,-51.0990578183887,0.016879449
535,1577395435.77,-0.3780444421386708,0.3271676568603515,9.286689254455563,-0.2116824638552777,0.3358889743711887,9.477184493497523,-0.7048643697102858,0.3116452494303379,9.946311763509115,-0.1277923583984375,-0.0829696655273437,0.122833251953125,-0.2229271865472559,0.3031288705221036,-0.0441016220464938,0.2152579171316966,0.2535865420386905,0.1064482189360119,21.43929088850964,-11.583411417451597,4.3786858974359,69.31473585807468,-2.5276799265117016,11.217307692307685,37.91676400994399,35.80815886422859,32.789019678317906,1577395435.0,-27.71769200429012,-51.0990578183887,0.016879449
536,1577395435.78,-0.4618415002441396,0.4109647149658203,9.743981771545409,-0.7695314506716839,0.3358889743711887,9.819555330899863,-0.668951344807942,0.3355872660319003,9.654219160970053,0.0553131103515625,0.1611709594726562,0.000762939453125,-0.1924096084222559,0.0284706673971036,-0.0441016220464938,0.1847403390066966,0.0704810732886905,0.2590361095610119,21.43929088850964,-11.583411417451597,4.3786858974359,69.50807818825913,1.7938373672018535,12.463675213675206,37.9646868541648,35.95192739689101,32.64525114565549,1577395435.0,-27.71769200429012,-51.0990578183887,0.016879449
537,1577395435.79,-0.586339986572265,0.398993706665039,9.817004922180177,-0.5277170829959027,0.3191295627500949,9.836314742520958,-0.6701484456380201,0.3248133585611972,9.672175673421226,0.1773834228515625,0.1459121704101562,-0.060272216796875,-0.2076683974847559,0.2115761361471036,0.1695214248285061,0.3068106515066966,-0.3567650204613095,-0.046139671688988,21.43929088850964,-9.87438350340136,2.736678685897437,69.50807818825913,1.7938373672018535,12.463675213675206,37.9886482762752,35.999850241111815,32.6931739898763,1577395435.0,-27.71769200429012,-51.0990578183887,0.016879449
538,1577395435.8,-0.4187458703613271,0.2122459771728515,9.528503622131346,-0.424766411609184,0.3598309909727512,9.888987179044396,-0.7742962178548171,0.3140394510904941,9.797871260579427,-0.0362396240234375,-0.2660751342773437,-0.121307373046875,0.265354063452744,-0.3072226919778963,-0.0441016220464938,-0.2425057547433033,0.4061744326636905,-0.046139671688988,20.95750907079032,-7.975463598901102,3.466459668803423,70.28144750899686,2.119989615784009,-8.309116809116826,37.91676400994399,35.95192739689101,32.64525114565549,1577395435.0,-27.71769200429012,-51.0990578183887,0.016879449
539,1577395435.81,-0.4977545251464833,0.695874712524414,9.952277315979003,-0.5420822929568403,0.2832165378477512,9.663932222989713,-0.668951344807942,0.3307988627115878,9.627882942708332,0.3604888916015625,0.1001358032226562,-0.090789794921875,-0.3449974990472559,-0.1241172232278963,0.1084862685785061,0.0626700265066966,0.1009986514136905,-0.137692406063988,21.921072706228955,-10.254167484301416,3.466459668803423,67.76799721659921,1.7122993050563151,-8.724572649572671,37.86884116572318,35.95192739689101,32.64525114565549,1577395435.0,-27.71769200429012,-51.0990578183887,0.016879449
540,1577395435.82,-0.5480327600097645,0.274495220336914,9.715251351623534,-0.7360126274294965,0.3143411594297824,10.13558995004049,-0.6402209248860671,0.4361437357584629,9.524932271321614,-0.2803802490234375,0.2832412719726562,0.092315673828125,-0.0093041396722559,-0.1546348013528963,-0.0135840439214938,-0.1204354422433033,-0.3567650204613095,-0.2597627185639881,21.921072706228955,-10.254167484301416,3.466459668803423,67.96133954678365,1.7938373672018535,-8.309116809116826,37.91676400994399,36.047773085332615,32.50148261299308,1577395435.0,-27.71769200429012,-51.0990578183887,0.016879449
541,1577395435.83,-0.604296499023437,0.3211821527099609,9.75595277984619,-0.473847545642387,0.406517923345798,10.02066827035299,-0.707258571370442,0.379879996744791,9.941523360188803,0.2231597900390625,-0.0982284545898437,-0.136566162109375,-0.1466332412347559,0.2115761361471036,-0.0746192001714938,0.0626700265066966,-0.2652122860863095,-0.000363304501488,21.680181797369297,-10.1592214890764,4.469908520299148,67.76799721659921,-3.3430605479670894,-8.309116809116826,38.0126096983856,35.95192739689101,32.50148261299308,1577395435.0,-27.71769200429012,-51.0990578183887,0.016879449
542,1577395435.84,-0.5025429284667958,0.4157531182861328,9.758346981506346,-0.5947547294802777,0.3646193942930637,9.757306087735804,-0.7240179829915357,0.3978365091959628,9.805053865559897,-0.2193450927734375,-0.1134872436523437,-0.060272216796875,-0.2534447646722559,-0.0630820669778963,0.0169335342035061,0.2152579171316966,0.3451392764136905,-0.046139671688988,23.205824220147136,-11.01373544610152,3.101569177350434,68.54136653733694,-2.8538321750938573,9.555484330484315,37.86884116572318,35.99985024111181,32.64525114565549,1577395435.0,-27.71769200429012,-51.0990578183887,0.016879449
543,1577395435.85,-0.5791573815917959,0.552222612915039,9.988190340881347,-0.443920024890434,0.0725267917540012,9.745335079435025,-0.6761339497884108,0.3667118876139316,9.62309453938802,-0.3108978271484375,0.2222061157226562,-0.243377685546875,-0.0703392959222559,0.5777870736471036,0.1390038467035061,0.0931876046316966,-0.4483177548363095,-0.107174827938988,22.08166664546873,-10.44405947475144,2.18934294871795,67.76799721659921,-1.386147056474159,7.893660968660963,37.91676400994399,35.616467487345375,32.50148261299308,1577395435.0,-27.71769200429012,-51.0990578183887,0.016879449
544,1577395435.86,-0.5288791467285145,0.3774458917236328,9.229228414611816,-0.5576446037478558,0.5812946445372044,9.906943691495568,-0.7479599995930983,0.3439669718424473,9.79667415974935,-0.1583099365234375,-0.0219345092773437,0.000762939453125,-0.1008568740472559,-0.2461875357278963,0.1390038467035061,0.1847403390066966,-0.2194359188988095,-0.168209984188988,22.08166664546873,-10.44405947475144,2.18934294871795,69.31473585807468,-2.038451553638469,7.893660968660963,37.9646868541648,35.9040045526702,32.669212567765896,1577395435.0,-27.71769200429012,-51.0990578183887,0.016879449
545,1577395435.87,-0.475009609374999,0.3810371942138671,9.669761520080565,-0.4989866630740277,0.27124552954697,9.501126510099086,-0.6497977315266921,0.3307988627115878,9.793082857259114,0.1926422119140625,0.0696182250976562,0.016021728515625,-0.0703392959222559,0.5472694955221036,0.2915917373285062,0.1542227608816966,0.0704810732886905,0.1064482189360119,22.161963615088617,-10.72889746042648,2.827901308760686,67.96133954678365,-1.9569134914929305,9.97094017094016,38.036571120496,35.856081708449395,32.597328301434686,1577395435.0,-27.71769200429012,-51.0990578183887,0.016879449
546,1577395435.88,-0.5528211633300771,0.4037821099853516,9.779894796447753,-0.5827837211794965,0.1635064548399387,9.730969869474086,-0.678528151448567,0.4169901224772129,9.644642354329427,-0.3108978271484375,0.4053115844726562,-0.182342529296875,-0.650173280297256,0.4251991830221036,0.0169335342035061,0.0626700265066966,-0.2041771298363094,0.0454130626860119,21.760478766989184,-11.203627436551546,3.2840144230769246,67.76799721659921,-2.8538321750938573,5.400925925925918,37.86884116572318,35.95192739689101,32.789019678317906,1577395435.0,-27.71769200429012,-51.0990578183887,0.016879449
547,1577395435.89,-0.6054935998535146,0.188303960571289,9.614694881896972,-0.5085634697146527,0.4963004856016574,9.934477010587363,-0.6761339497884108,0.4002307108561191,9.74519882405599,-0.4634857177734375,-0.0524520874023437,-0.090789794921875,-0.0398217177972559,0.2115761361471036,0.2915917373285062,-0.0288827078683033,-0.3872825985863095,-0.137692406063988,22.72404240242782,-11.203627436551546,3.6489049145299135,67.76799721659921,-2.8538321750938573,-7.8936609686609795,37.91676400994399,35.99985024111181,32.64525114565549,1577395435.0,-27.71769200429012,-51.0990578183887,0.016879449
548,1577395435.9,-0.4714183068847646,0.3726574884033203,9.58476736114502,-0.5624330070681683,0.3981382175352512,9.946448018888146,-0.7108498738606764,0.351149576822916,9.994195796712242,-0.0667572021484375,0.1153945922851562,0.046539306640625,-0.3449974990472559,0.2726112923971036,-0.0898779892339938,0.0626700265066966,0.1467750186011905,0.0911894298735119,22.161963615088617,-10.539005469976455,3.5576822916666684,63.12778129217276,-2.364603802220624,-8.437694987151191e-15,37.9886482762752,35.927965974780605,32.64525114565549,1577395435.0,-27.71769200429012,-51.0990578183887,0.016879449
549,1577395435.91,-0.5743689782714834,0.4301183282470703,10.263523531799317,-0.6378503593630902,0.3694077976133762,9.611259786466274,-0.601913698323567,0.4576915506998691,9.577604707845053,0.1468658447265625,0.2527236938476562,0.092315673828125,-0.2229271865472559,-0.5208457388528964,0.2305565810785061,0.2152579171316966,0.1009986514136905,0.0759306408110119,22.402854523948275,-10.823843455651492,3.2840144230769246,62.741096631803885,-1.386147056474159,7.893660968660963,37.9646868541648,35.95192739689101,32.50148261299308,1577395435.0,-27.71769200429012,-51.0990578183887,0.016879449
550,1577395435.92,-0.677319649658203,0.5282805963134766,9.822990426330565,-0.4511026298709027,0.2544861179258762,9.996726253751428,-0.6474035298665358,0.4241727274576816,9.793082857259114,-0.3414154052734375,0.0696182250976562,-0.151824951171875,-0.4365502334222559,0.2420937142721036,0.0169335342035061,0.1237051827566966,7.364182245163691,-0.046139671688988,21.599884827749413,-11.01373544610152,3.831350160256412,68.54136653733694,-3.179984423676012,8.72457264957264,37.91676400994399,35.80815886422859,32.45355976877228,1577395435.0,-27.71769200429012,-51.0990578183887,0.016879449
551,1577395435.93,-0.4450820886230458,0.0135272393798828,9.17416177642822,-0.4798330497927777,0.5441845188047825,9.941659615567836,-0.678528151448567,0.3738944925944004,9.716468404134114,-0.5855560302734375,0.1306533813476562,-0.029754638671875,-0.3755150771722559,0.2115761361471036,0.0169335342035061,-0.2425057547433033,0.1315162295386905,0.1064482189360119,22.563448463188045,-11.393519427001571,2.006897702991451,68.54136653733694,-2.2015276779295467,-4.570014245014259,37.9646868541648,36.14361877377422,32.789019678317906,1577395435.0,-27.71769200429012,-51.0990578183887,0.016879449
552,1577395435.94,-0.4642357019042958,0.4827907647705078,9.5584311428833,-0.5456735954470745,0.3167353610899387,9.612456887296352,-0.6845136555989577,0.322419156901041,9.590772816975912,0.0705718994140625,0.0085830688476562,-0.197601318359375,-0.2076683974847559,-0.2309287466653964,0.1695214248285061,0.1847403390066966,-0.0363304501488094,0.0301542736235119,22.563448463188045,-10.823843455651494,3.2840144230769206,68.44469537224472,-0.2038451553638465,1.8695512820512667,37.820918321502376,35.99985024111181,32.7171354119867,1577395435.0,-27.71769200429012,-51.0990578183887,0.016879449
553,1577395435.95,-0.6916848596191405,0.1954865655517578,9.770317989807127,-0.6186967460818402,0.2832165378477512,9.824343734220175,-0.716835378011067,0.3188278544108066,9.632671346028646,0.0858306884765625,0.3137588500976562,-0.060272216796875,-0.2534447646722559,0.0284706673971036,0.2610741592035062,0.1237051827566966,-0.6009056454613095,-0.046139671688988,20.95750907079032,-9.874383503401363,0.912226228632484,68.3480242071525,-2.119989615784008,9.140028490028469,38.0605325426064,35.80815886422859,32.50148261299308,1577395435.0,-27.71769200429012,-51.0990578183887,0.016879449
554,1577395435.96,-0.5767631799316396,0.3463212701416016,9.657790511779783,-0.4199780082888715,0.3933498142149387,10.147560958341272,-0.7814788228352858,0.3954423075358066,10.001378401692712,0.2079010009765625,-0.2050399780273437,-0.182342529296875,-0.2839623427972559,0.7914101205221036,-0.1661719345464938,0.2457754952566966,-0.4178001767113095,-0.137692406063988,22.72404240242782,-10.44405947475144,4.013795405982902,69.31473585807468,-2.2015276779295467,-6.231837606837628,37.91676400994399,36.047773085332615,32.64525114565549,1577395435.0,-27.71769200429012,-51.0990578183887,0.016879449
555,1577395435.97,-0.4426878869628896,0.3199850518798828,9.590752865295409,-0.4044156974978559,0.30955275610947,9.847088649991662,-0.6641629414876296,0.351149576822916,9.84216399129232,-0.0057220458984375,0.2222061157226562,-0.090789794921875,-0.1161156631097559,0.4251991830221036,0.1237450576410062,-0.0441414969308033,0.0552222842261905,0.0454130626860119,22.402854523948275,-11.583411417451597,3.2840144230769246,67.76799721659921,-2.2015276779295467,6.647293447293432,37.86884116572318,35.856081708449395,32.7171354119867,1577395435.0,-27.71769200429012,-51.0990578183887,0.016879449
556,1577395435.98,-0.5791573815917963,0.4696226556396484,9.881648367004392,-0.903606743640434,0.3981382175352512,9.793219112638148,-0.7048643697102858,0.3786828959147129,9.570422102864583,-0.1277923583984375,-0.1287460327148437,-0.136566162109375,-0.4975853896722559,-0.2461875357278963,0.0474511123285061,0.0321524483816966,-0.3872825985863095,0.0454130626860119,21.921072706228955,-11.773303407901622,3.2840144230769246,69.31473585807468,-2.690756050802779,-8.724572649572671,37.9886482762752,36.19154161799503,32.64525114565549,1577395435.0,-27.71769200429012,-51.0990578183887,0.016879449
557,1577395435.99,-0.4881777185058583,0.025498247680664,9.087970516662596,-0.3026621269412152,0.3741962009336887,9.879410372403772,-0.7407773946126295,0.3523466776529941,9.872091512044276,-0.2193450927734375,0.1611709594726562,-0.395965576171875,-0.0093041396722559,0.6083046517721036,0.1390038467035061,0.0626700265066966,-0.1431419735863094,0.0759306408110119,22.402854523948275,-10.064275493851389,4.743576388888888,67.76799721659921,-2.8538321750938573,-7.8936609686609795,37.9646868541648,35.95192739689101,32.789019678317906,1577395435.0,-27.71769200429012,-51.0990578183887,0.016879449
558,1577395436.0,-0.4067748620605458,0.2409763970947265,9.614694881896972,-0.3050563286013715,0.30955275610947,10.25051162972799,-0.707258571370442,0.2565786112467441,9.934340755208336,0.1468658447265625,0.1916885375976562,-0.151824951171875,0.448459532202744,-0.0325644888528963,-0.2882422470464938,-0.0899178641183033,0.2841041201636905,-0.015622093563988,22.563448463188045,-9.114815541601256,4.196240651709401,67.76799721659921,-2.2015276779295467,-7.8936609686609795,38.0605325426064,35.99985024111181,32.45355976877228,1577395435.0,-27.71769200429012,-51.0990578183887,0.016879449
559,1577395436.01,-0.4402936853027333,0.7389703424072265,10.186909078674317,-0.7096764091677776,0.2305441013243137,9.735758272794396,-0.6294470174153639,0.3834712992350254,9.61112353108724,0.3910064697265625,-0.2355575561523437,-0.029754638671875,-0.2381859756097559,0.0437294564596036,-0.0746192001714938,0.0779288155691966,-0.0973656063988094,-0.046139671688988,23.045230280907365,-11.583411417451597,2.9191239316239352,68.15468187696808,-2.935370237239396,8.309116809116793,37.86884116572318,35.76023602000779,32.62128972354509,1577395435.0,-27.71769200429012,-51.0990578183887,0.016879449
560,1577395436.02,-0.5899312890624989,0.2002749688720703,9.636242696838378,-0.2428070854373089,0.52024250220322,9.979966842130334,-0.7623252095540358,0.2757322245279941,9.790688655598958,-0.0667572021484375,0.0696182250976562,-0.106048583984375,-0.4060326552972559,0.8829628548971036,0.1084862685785061,0.2762930733816966,-0.2652122860863095,-0.198727562313988,22.96493331128748,-11.29857343177656,3.3752370459401737,67.76799721659921,-3.5061366722581666,7.893660968660963,37.86884116572319,36.047773085332615,32.6931739898763,1577395435.0,-27.71769200429012,-51.0990578183887,0.016879449
561,1577395436.03,-0.4355052819824208,0.322379253540039,9.370486312561034,-0.4654678398318402,0.4771468723204074,10.09728272347799,-0.793449831136067,0.3188278544108066,9.996589998372398,0.0247955322265625,-0.0829696655273437,-0.090789794921875,-0.1008568740472559,-0.1546348013528963,-0.0441016220464938,0.1542227608816966,0.2841041201636905,-0.2597627185639881,22.08166664546873,-10.064275493851389,2.9191239316239352,67.76799721659921,-2.038451553638469,7.893660968660963,37.9646868541648,35.99985024111181,32.45355976877228,1577395435.0,-27.71769200429012,-51.0990578183887,0.016879449
562,1577395436.04,-0.543244356689452,0.3511096734619141,9.854115047912597,-0.4463142265505903,0.09886301001572,9.589711971524869,-0.7000759663899733,0.2900974344889316,9.83617848714193,-0.0972747802734375,0.2222061157226562,-0.121307373046875,-0.0093041396722559,0.0589882455221036,-0.0441016220464938,0.3678458077566966,0.4366920107886905,0.0148954845610119,22.72404240242782,-10.064275493851389,2.5542334401709463,67.76799721659921,-3.3430605479670894,-8.724572649572671,37.91676400994399,35.99985024111181,32.50148261299308,1577395435.0,-27.71769200429012,-51.0990578183887,0.016879449
563,1577395436.05,-0.6665457421875,0.4444835382080078,9.805033913879392,-0.6773546867556683,0.3706048984434543,9.999120455411584,-0.7132440755208327,0.4074133158365879,9.678161177571614,-0.2346038818359375,-0.0066757202148437,-0.121307373046875,-0.2534447646722559,0.4099403939596036,0.1542626357660061,0.1084463936941965,-0.4635765438988095,-0.091916038876488,22.563448463188045,-9.494599522501307,2.736678685897437,68.54136653733696,-2.119989615784008,12.463675213675195,37.9646868541648,35.95192739689101,32.64525114565549,1577395435.0,-27.71769200429012,-51.0990578183887,0.016879449
564,1577395436.06,-0.4043806604003896,-0.0175973822021474,9.298660262756346,-0.3553345634646527,0.4651758640196262,9.733364071134242,-0.8102092427571608,0.3020684427897128,9.960676973470056,-0.0972747802734375,-0.6017684936523438,-0.151824951171875,-0.0703392959222559,0.1505409798971036,0.0169335342035061,0.2762930733816966,-0.1126243954613094,0.1980009533110119,23.366418159386907,-11.203627436551546,3.2840144230769246,67.76799721659921,-2.038451553638469,7.893660968660963,37.9646868541648,35.80815886422859,32.357714080330666,1577395435.0,-27.71769200429012,-51.0990578183887,0.016879449
565,1577395436.07,-0.3995922570800771,0.6336254693603515,9.79426000640869,-0.5181402763552777,0.2353325046446262,9.86025675912252,-0.697681764729817,0.2637612162272129,9.826601680501303,0.3910064697265625,0.1916885375976562,-0.182342529296875,0.204318907202744,-0.2461875357278963,0.3831444717035062,0.1542227608816966,0.4366920107886905,-0.046139671688988,21.43929088850964,-10.823843455651492,3.6489049145299135,68.3480242071525,-1.7938373672018528,-8.309116809116826,37.9646868541648,35.80815886422859,32.50148261299308,1577395435.0,-27.71769200429012,-51.0990578183887,0.016879449
566,1577395436.08,-0.5384559533691395,0.4085705133056641,10.052833785705566,-0.6641865776248089,0.1826600681211887,9.90574659066549,-0.6426151265462233,0.3691060892740879,9.544085884602865,0.0553131103515625,0.3747940063476562,0.122833251953125,-0.0093041396722559,0.2115761361471036,0.1695214248285061,0.2457754952566966,0.0094459170386905,-0.2597627185639881,21.760478766989184,-10.44405947475144,2.9191239316239352,69.12139352789026,-2.119989615784008,-8.309116809116826,37.86884116572318,35.52062179890376,32.64525114565549,1577395435.0,-27.71769200429012,-51.0990578183887,0.016879449
567,1577395436.09,-0.5552153649902338,0.2960430352783203,9.578781856994627,-0.4618765373416059,0.406517923345798,9.956024825528772,-0.6893020589192702,0.3523466776529941,9.864908907063803,0.0095367431640625,-0.0677108764648437,-0.106048583984375,-0.3449974990472559,0.1657997689596035,-0.0135840439214938,0.0321524483816966,-0.4635765438988095,-0.168209984188988,22.88463634166759,-11.01373544610152,4.196240651709401,68.54136653733694,-3.016908299384934,-8.724572649572671,37.9886482762752,35.80815886422859,32.64525114565549,1577395435.0,-27.71769200429012,-51.0990578183887,0.016879449
568,1577395436.1,-0.4043806604003896,0.3558980767822265,9.607512276916504,-0.7120706108279339,0.3406773776915012,9.956024825528772,-0.716835378011067,0.3523466776529941,9.845755293782554,-0.0362396240234375,-0.2965927124023437,-0.182342529296875,0.509494688452744,0.0895058236471036,-0.1356543564214938,0.1542227608816966,0.2535865420386905,0.0148954845610119,22.72404240242782,-10.44405947475144,3.2840144230769246,68.54136653733694,-2.5276799265117016,-8.724572649572671,37.91676400994399,35.99985024111181,32.50148261299308,1577395435.0,-27.71769200429012,-51.0990578183887,0.016879449
569,1577395436.11,-0.5456385583496083,0.638413872680664,10.08156420562744,-0.4104012016482465,0.3358889743711887,9.455636678556118,-0.716835378011067,0.3164336527506504,9.63027714436849,0.2994537353515625,0.1306533813476562,-0.029754638671875,0.143283750952744,-0.0935996451028963,0.1390038467035061,0.1542227608816966,0.0399634951636905,0.0454130626860119,23.205824220147136,-9.114815541601256,3.831350160256412,68.54136653733694,-1.8753754293473912,-8.724572649572671,37.725072633060776,35.99985024111181,32.50148261299308,1577395435.0,-27.71769200429012,-51.0990578183887,0.016879449
570,1577395436.12,-0.6318298181152343,0.5091269830322266,9.811019418029783,-0.5827837211794965,0.127593429937595,10.035033480313928,-0.6521919331868483,0.3403756693522128,9.565633699544271,-0.3414154052734375,0.3442764282226562,-0.060272216796875,-0.3449974990472559,0.1505409798971036,0.1695214248285061,0.0016348702566966,-0.5398704892113095,-0.137692406063988,22.563448463188045,-9.114815541601256,3.466459668803423,67.76799721659921,-3.3430605479670894,-7.8936609686609795,37.91676400994399,35.856081708449395,32.50148261299308,1577395435.0,-27.71769200429012,-51.0990578183887,0.016879449
571,1577395436.13,-0.4307168786621083,0.2397792962646489,9.597935470275878,-0.3278012443728559,0.4939062839415012,9.985952346280724,-0.726412184651692,0.3882597025553378,9.88765382283529,0.1316070556640625,-0.0066757202148437,-0.243377685546875,-0.3297387099847559,0.3336464486471036,0.0016747451410061,0.1694815499441966,0.1009986514136905,-0.000363304501488,22.08166664546873,-11.203627436551546,3.2840144230769246,67.76799721659921,-3.179984423676012,11.217307692307685,37.94072543205439,35.95192739689101,32.7171354119867,1577395435.0,-27.71769200429012,-51.0990578183887,0.016879449
572,1577395436.14,-0.4091690637207021,0.6408080743408202,9.741587569885253,-0.5253228813357464,0.2688513278868137,9.730969869474086,-0.573183278401692,0.3307988627115878,9.747593025716146,-0.3719329833984375,0.1306533813476562,0.031280517578125,0.082248594702744,0.0895058236471036,0.0474511123285061,-0.0899178641183033,-0.0210716610863094,0.0148954845610119,23.84819997710623,-9.874383503401363,4.196240651709401,67.76799721659921,-3.179984423676012,10.386396011395991,37.91676400994399,35.99985024111181,32.6931739898763,1577395435.0,-27.71769200429012,-51.0990578183887,0.016879449
573,1577395436.15,-0.639012423095703,0.2242169854736328,9.746375973205565,-0.7048880058474651,0.242515109625095,9.807584322599084,-0.6354325215657546,0.3906539042154941,9.441135213216146,-0.3414154052734375,0.6189346313476562,0.031280517578125,-0.1618920302972559,0.3641640267721036,0.1084862685785061,0.0626700265066966,-0.1126243954613094,0.2285185314360119,23.045230280907365,-10.823843455651492,2.5542334401709463,68.92805119770581,-3.179984423676012,10.386396011395991,37.86884116572318,35.856081708449395,32.50148261299308,1577395435.0,-27.71769200429012,-51.0990578183887,0.016879449
574,1577395436.16,-0.5719747766113271,0.2577358087158203,9.363303707580563,-0.3206186393923871,0.4304599399473606,10.03383637948385,-0.6988788655598952,0.3523466776529941,9.844558192952476,0.1468658447265625,-0.1745223999023437,0.183868408203125,0.066989805640244,0.1200234017721036,0.0321923232660061,0.0779288155691966,0.1467750186011905,-0.046139671688988,22.563448463188045,-11.01373544610152,3.831350160256412,67.96133954678365,-2.2015276779295467,7.893660968660963,37.9646868541648,35.9040045526702,32.62128972354509,1577395435.0,-27.71769200429012,-51.0990578183887,0.016879449
575,1577395436.17,-0.4714183068847646,0.3977966058349609,9.912772988586426,-0.6785517875857464,0.3406773776915012,9.70942205453268,-0.601913698323567,0.4169901224772129,9.773929243977864,0.2079010009765625,0.2069473266601562,-0.106048583984375,0.021213438452744,-0.2461875357278963,0.3526268935785062,0.1237051827566966,0.3451392764136905,-0.015622093563988,21.599884827749413,-9.114815541601256,4.196240651709401,67.76799721659921,1.7122993050563151,9.555484330484315,37.772995477281576,35.856081708449395,32.64525114565549,1577395435.0,-27.71769200429012,-51.0990578183887,0.016879449
576,1577395436.18,-0.6007051965332021,0.6048950494384765,10.191697481994629,-0.520534478015434,0.2401209079649387,9.577740963224086,-0.697681764729817,0.3930481058756503,9.618306136067709,-0.1888275146484375,0.4663467407226562,0.031280517578125,-0.3449974990472559,0.5167519173971036,0.2305565810785061,-0.0899178641183033,-0.1126243954613094,0.1064482189360119,22.08166664546873,-10.823843455651492,3.6489049145299135,67.76799721659921,1.7122993050563151,9.555484330484315,37.86884116572318,35.99985024111181,32.64525114565549,1577395435.0,-27.71769200429012,-51.0990578183887,0.016879449
577,1577395436.19,-0.5647921716308584,0.0757764825439453,9.18134438140869,-0.5827837211794965,0.5058772922422824,9.951236422208458,-0.707258571370442,0.4050191141764316,9.63027714436849,-0.4634857177734375,0.1611709594726562,0.000762939453125,-0.0703392959222559,-0.0935996451028963,0.2000390029535061,0.2762930733816966,-0.1431419735863094,0.0454130626860119,22.88463634166759,-10.254167484301416,4.196240651709401,69.31473585807468,-2.8538321750938573,-8.724572649572671,37.725072633060776,35.76023602000779,32.45355976877228,1577395435.0,-27.71769200429012,-51.0990578183887,0.016879449
578,1577395436.2,-0.4438849877929677,0.4313154290771483,9.607512276916504,-0.4570881340212934,0.3801817050840793,9.69625394540182,-0.678528151448567,0.3260104593912754,9.781111848958334,0.1621246337890625,-0.1897811889648437,-0.075531005859375,-0.2381859756097559,0.1352821908346036,-0.1661719345464938,0.0779288155691966,0.1620338076636905,-0.091916038876488,23.205824220147136,-10.06427549385139,3.831350160256412,68.15468187696808,-2.2015276779295467,-7.8936609686609795,37.91676400994399,36.16758019588463,32.669212567765896,1577395435.0,-27.71769200429012,-51.0990578183887,0.016879449
579,1577395436.21,-0.6318298181152343,0.3439270684814453,10.00494975250244,-0.6737633842654339,0.0868920017149387,9.869833565763146,-0.6593745381673171,0.3595292826334629,9.524932271321614,0.1468658447265625,0.3442764282226562,0.153350830078125,0.082248594702744,0.3336464486471036,0.1390038467035061,-0.1509530203683033,-0.0821068173363094,-0.046139671688988,22.88463634166759,-9.874383503401363,4.196240651709401,67.76799721659921,1.7122993050563151,11.217307692307685,37.9646868541648,35.99985024111181,32.64525114565549,1577395435.0,-27.71769200429012,-51.0990578183887,0.016879449
580,1577395436.22,-0.6749254479980468,0.3487154718017578,9.770317989807127,-0.5612359062380903,0.3909556125547824,9.984755245450646,-0.697681764729817,0.3619234842936191,9.766746638997397,-0.0972747802734375,0.4053115844726562,-0.090789794921875,-0.3144799209222559,-0.0935996451028963,-0.0441016220464938,0.2762930733816966,-0.5093529110863095,-0.076657249813988,22.563448463188045,-9.874383503401363,3.466459668803423,67.76799721659921,1.7122993050563151,11.217307692307685,37.9646868541648,36.14361877377422,32.45355976877228,1577395435.0,-27.71769200429012,-51.0990578183887,0.016879449
581,1577395436.23,-0.4139574670410146,0.1906981622314453,9.075999508361816,-0.338575151843559,0.5250309055235325,9.666326424649869,-0.7695078145345046,0.3858655008951816,9.963071175130212,0.0858306884765625,-0.6017684936523438,-0.182342529296875,-0.1618920302972559,0.0895058236471036,0.0169335342035061,0.0931876046316966,-0.1126243954613094,0.0759306408110119,22.2422605847085,-9.494599522501307,4.926021634615379,69.31473585807468,-2.8538321750938573,-8.724572649572671,37.91676400994399,35.856081708449395,32.64525114565549,1577395435.0,-27.71769200429012,-51.0990578183887,0.016879449
582,1577395436.24,-0.503740029296874,0.5199008905029296,9.975022231750486,-0.6582010734744183,0.2532890170957981,9.741743776944787,-0.6593745381673171,0.3738944925944004,9.629080043538412,0.1316070556640625,0.1459121704101562,0.000762939453125,-0.1313744521722559,-0.1393760122903963,-0.0593604111089938,0.1084463936941965,0.1467750186011905,-0.122433617001488,21.59988482774941,-10.064275493851389,3.6489049145299175,69.50807818825912,-0.4076903107276932,5.40092592592591,37.94072543205439,35.97588881900141,32.64525114565549,1577395435.0,-27.71769200429012,-51.0990578183887,0.016879449
583,1577395436.25,-0.6605602380371093,0.2888604302978516,9.471042782287595,-0.577995317859184,0.261668722906345,10.16671457162252,-0.6665571431477858,0.3212220560709629,10.145030501302086,-0.2498626708984375,0.1611709594726562,0.031280517578125,-0.0703392959222559,0.3336464486471036,-0.0441016220464938,-0.0594002859933033,-0.4788353329613095,0.1369657970610119,21.11810301003009,-8.924923551151231,4.743576388888888,68.15468187696808,1.875375429347392,5.400925925925918,37.9646868541648,35.66439033156618,32.597328301434686,1577395435.0,-27.71769200429012,-51.0990578183887,0.016879449
584,1577395436.26,-0.5169081384277333,-0.0487220037841787,9.152613961486816,-0.3792765800662152,0.5178483005430637,9.831526339200646,-0.7982382344563795,0.3260104593912754,9.922369746907554,-0.4634857177734375,0.0085830688476562,0.061798095703125,-0.4060326552972559,-0.0630820669778963,-0.1966895126714938,0.0626700265066966,-0.0515892392113094,-0.015622093563988,21.278696949269868,-10.633951465201466,4.196240651709401,67.76799721659921,1.875375429347392,12.04821937321936,37.91676400994399,35.80815886422859,32.6931739898763,1577395435.0,-27.71769200429012,-51.0990578183887,0.016879449
585,1577395436.27,-0.4187458703613271,0.4444835382080078,9.732010763244627,-0.5636301078982465,0.2856107395079075,9.750123482755336,-0.697681764729817,0.2877032328287753,9.723651009114583,0.3604888916015625,-0.2660751342773437,-0.060272216796875,0.051731016577744,0.3641640267721036,0.1695214248285061,0.0626700265066966,0.1315162295386905,0.0759306408110119,22.2422605847085,-9.114815541601256,2.736678685897437,67.96133954678365,1.9569134914929305,11.632763532763512,37.86884116572318,35.95192739689101,32.597328301434686,1577395435.0,-27.71769200429012,-51.0990578183887,0.016879449
586,1577395436.28,-0.5588066674804681,0.4289212274169922,10.051636684875488,-0.5935576286501996,0.2868078403379855,9.878213271573694,-0.6761339497884108,0.3559379801432285,9.716468404134115,-0.1125335693359375,0.1764297485351562,0.000762939453125,-0.2534447646722559,0.1657997689596035,0.1847802138910061,0.1237051827566965,-0.3567650204613094,-0.137692406063988,22.00136967584884,-9.779437508176349,3.3752370459401737,69.60474935335134,1.8346063982746228,6.439565527065509,37.91676400994399,35.8800431305598,32.50148261299308,1577395435.0,-27.71769200429012,-51.0990578183887,0.016879449
587,1577395436.29,-0.6916848596191405,0.3822342950439453,9.447100765686034,-0.5803895195193403,0.4699642673399387,10.10446532845846,-0.7862672261555983,0.4002307108561191,10.054050838216147,-0.2498626708984375,0.0085830688476562,0.122833251953125,-0.4060326552972559,-0.2767051138528963,0.1695214248285061,-0.0288827078683033,-0.0515892392113094,0.2590361095610119,21.760478766989184,-9.304707532051282,2.9191239316239352,69.70142051844356,1.7122993050563151,11.217307692307685,38.0605325426064,35.99985024111181,32.64525114565549,1577395435.0,-27.71769200429012,-51.0990578183887,0.016879449
588,1577395436.3,-0.4546588952636708,0.0231040460205078,9.363303707580563,-0.5540533012576215,0.1778716648008762,10.066158101895958,-0.123073366292317,0.2829148295084628,9.807448067220054,-0.1583099365234375,-0.1134872436523437,-0.090789794921875,0.265354063452744,0.3946816048971036,0.0169335342035061,0.0321524483816966,0.5587623232886905,0.3505888439360119,22.2422605847085,-9.494599522501307,2.371788194444441,69.70142051844356,1.7122993050563151,11.217307692307685,37.91676400994399,35.99985024111181,32.50148261299308,1577395435.0,-27.71769200429012,-51.0990578183887,0.016879449
589,1577395436.31,-0.5635950708007802,0.561799419555664,10.083958407287597,-0.7024938041873089,0.3382831760313449,9.750123482755336,-0.6833165547688795,0.3906539042154941,9.517749666341146,-0.1125335693359375,0.1306533813476562,-0.090789794921875,0.234836485327744,-0.8260215201028964,0.0779686904535061,0.0016348702566966,-0.0821068173363094,0.0148954845610119,22.72404240242782,-10.823843455651494,2.5542334401709423,69.70142051844356,1.7122993050563151,11.217307692307685,37.91676400994399,35.99985024111181,32.64525114565549,1577395435.0,-27.71769200429012,-51.0990578183887,0.016879449
590,1577395436.32,-0.6318298181152343,0.0997184991455078,9.236411019592284,-0.3876562858767621,0.357436789312595,9.95722192635885,-0.6952875630696608,0.3547408793131504,9.848149495442708,-0.2498626708984375,0.2527236938476562,-0.151824951171875,-0.3602562881097559,0.5014931283346036,0.1695214248285061,0.1999991280691966,-0.3872825985863095,-0.122433617001488,22.72404240242782,-10.064275493851389,3.2840144230769246,68.15468187696808,1.875375429347392,1.6618233618233518,37.86884116572318,35.927965974780605,32.62128972354509,1577395435.0,-27.71769200429012,-51.0990578183887,0.016879449
591,1577395436.33,-0.4690241052246083,0.2673126153564453,9.483013790588378,-0.396035991687309,0.27124552954697,9.56816415658346,-0.7144411763509108,0.3307988627115878,9.721256807454427,0.2384185791015625,-0.2660751342773437,0.031280517578125,0.143283750952744,-0.1241172232278963,0.0474511123285061,0.0016348702566966,0.4061744326636905,-0.015622093563988,22.72404240242782,-10.064275493851389,3.2840144230769246,68.54136653733694,-2.2015276779295467,-8.724572649572671,37.91676400994399,35.99985024111181,32.45355976877228,1577395435.0,-27.71769200429012,-51.0990578183887,0.016879449
592,1577395436.34,-0.4546588952636708,0.5761646295166015,9.715251351623534,-0.7384068290896527,0.2736397312071262,9.824343734220175,-0.6665571431477858,0.3403756693522128,9.587181514485676,0.3299713134765625,-0.0219345092773437,-0.212860107421875,0.143283750952744,-0.3987754263528963,-0.1661719345464938,0.2457754952566966,0.2535865420386905,-0.137692406063988,21.921072706228955,-9.874383503401363,2.736678685897437,68.54136653733694,-2.2015276779295467,-8.724572649572671,37.91676400994399,35.856081708449395,32.64525114565549,1577395435.0,-27.71769200429012,-51.0990578183887,0.016879449
593,1577395436.35,-0.6222530114746088,0.3295618585205078,9.818202023010253,-0.6617923759646527,0.3765904025938449,9.89856398568502,-0.6952875630696608,0.4289611307779941,9.618306136067709,-0.1583099365234375,0.3442764282226562,-0.090789794921875,-0.1618920302972559,0.2115761361471036,0.3221093154535062,0.2152579171316966,-0.2652122860863095,-0.046139671688988,21.19839997964998,-10.1592214890764,3.922572783119657,70.08810517881243,1.7122993050563151,10.386396011395991,37.84487974361279,35.80815886422859,32.64525114565549,1577395435.0,-27.71769200429012,-51.0990578183887,0.016879449
594,1577395436.36,-0.4833893151855458,0.1476025323486328,9.370486312561034,-0.3469548576541059,0.4340512424375949,9.967995833829551,-0.7371860921223952,0.331995963541666,9.979830586751303,-0.1583099365234375,-0.1440048217773437,0.092315673828125,0.082248594702744,0.3183876595846036,-0.1356543564214938,0.1999991280691966,-0.0210716610863094,-0.076657249813988,23.205824220147136,-9.494599522501307,3.831350160256412,68.8313800326136,-0.5299974039460019,12.255947293447274,37.772995477281576,35.95192739689101,32.669212567765896,1577395435.0,-27.71769200429012,-51.0990578183887,0.016879449
595,1577395436.37,-0.4714183068847646,0.3439270684814453,9.708068746643065,-0.577995317859184,0.1994194797422825,9.611259786466274,-0.6186731099446608,0.3020684427897128,9.690132185872397,0.1163482666015625,0.0085830688476562,-0.151824951171875,0.173801329077744,0.3641640267721036,-0.1356543564214938,0.1542227608816966,-0.0210716610863094,0.1674833751860119,23.205824220147136,-9.494599522501307,3.831350160256412,64.28783527327937,-2.8538321750938573,-8.724572649572671,38.10845538682721,35.99985024111181,32.6931739898763,1577395435.0,-27.71769200429012,-51.0990578183887,0.016879449
596,1577395436.38,-0.5576095666503896,0.6503848809814452,10.052833785705566,-0.8509343071169964,0.4292628391172824,9.872227767423302,-0.7120469746907545,0.3978365091959628,9.563239497884114,-0.0972747802734375,0.2527236938476562,-0.243377685546875,-0.528102967797256,0.0284706673971036,0.2305565810785061,0.0931876046316966,-0.4178001767113095,-0.3818330310639881,22.08166664546873,-9.684491512951334,3.2840144230769246,68.92805119770581,-1.8753754293473912,11.217307692307685,37.91676400994399,35.856081708449395,32.789019678317906,1577395435.0,-27.71769200429012,-51.0990578183887,0.016879449
597,1577395436.39,-0.5396530541992182,0.1260547174072265,9.381260220031738,-0.3565316642947309,0.36701359595322,9.953630623868616,-0.7323976888020827,0.3296017618815097,9.826601680501303,-0.4024505615234375,-0.1745223999023437,-0.106048583984375,0.173801329077744,-0.0783408560403963,0.0474511123285061,0.1084463936941966,-0.0821068173363094,-0.137692406063988,21.760478766989184,-10.254167484301416,4.378685897435895,65.5445604194782,-2.4053728332933937,7.685933048433031,37.91676400994399,35.856081708449395,32.57336687932428,1577395435.0,-27.71769200429012,-51.0990578183887,0.016879449
598,1577395436.4,-0.4043806604003896,0.5187037896728516,9.624271688537595,-0.6857343925662152,0.2305441013243137,9.630413399747525,-0.6234615132649733,0.3044626444498691,9.666190169270832,0.2994537353515625,-0.2355575561523437,0.031280517578125,0.112766172827744,0.3336464486471036,0.0169335342035061,0.1237051827566966,0.2841041201636905,-0.046139671688988,20.475727253071003,-10.44405947475144,3.6489049145299135,69.70142051844356,1.875375429347392,10.386396011395991,38.0605325426064,36.14361877377422,32.45355976877228,1577395435.0,-27.71769200429012,-51.0990578183887,0.016879449
599,1577395436.41,-0.4618415002441396,0.4229357232666015,9.952277315979003,-0.7024938041873089,0.3191295627500949,9.90574659066549,-0.6138847066243482,0.4169901224772129,9.565633699544271,-0.0362396240234375,0.4968643188476562,-0.182342529296875,-0.1008568740472559,0.2726112923971036,-0.0135840439214938,-0.0594002859933033,-0.4788353329613095,-0.046139671688988,20.475727253071003,-10.44405947475144,3.6489049145299135,69.70142051844356,1.875375429347392,10.386396011395991,37.86884116572318,35.80815886422859,32.64525114565549,1577395435.0,-27.71769200429012,-51.0990578183887,0.016879449
600,1577395436.42,-0.6090849023437495,0.3834313958740234,9.73081366241455,-0.2691433036990277,0.5513671237852512,10.025456673673302,-0.735988991292317,0.3499524759928379,9.94391756184896,-0.2040863037109375,-0.0219345092773437,-0.045013427734375,-0.0093041396722559,0.1200234017721036,0.0474511123285061,-0.2730233328683034,-0.5093529110863095,0.1369657970610119,22.08166664546873,-10.633951465201466,3.6489049145299175,69.31473585807468,-2.364603802220624,12.879131054131037,37.84487974361278,35.856081708449395,32.789019678317906,1577395435.0,-27.71769200429012,-51.0990578183887,0.016879449
601,1577395436.43,-0.4091690637207021,0.1140837091064453,9.370486312561034,-0.4965924614138715,0.3239179660704074,9.862650960782675,-0.7156382771809889,0.3343901652018222,9.824207478841148,-0.1583099365234375,0.2832412719726562,-0.060272216796875,-0.0398217177972559,0.1352821908346036,-0.0898779892339938,0.0931876046316966,0.3909156436011904,-0.137692406063988,22.2422605847085,-9.874383503401363,4.56113114316239,69.70142051844356,-2.9353702372393955,2.4927350427350285,37.9646868541648,35.95192739689101,32.45355976877228,1577395435.0,-27.71769200429012,-51.0990578183887,0.016879449
602,1577395436.44,-0.5049371301269521,0.6886921075439452,9.978613534240722,-0.645032964343559,0.1778716648008762,9.932082808927207,-0.6450093282063796,0.3858655008951816,9.51535546468099,0.3299713134765625,0.0696182250976562,0.092315673828125,0.021213438452744,0.4862343392721036,0.1695214248285061,0.0931876046316966,-0.6009056454613095,-0.2902802966889881,21.278696949269868,-10.254167484301416,5.290912126068384,67.76799721659921,-2.5276799265117016,12.04821937321936,37.86884116572318,35.66439033156618,32.50148261299308,1577395435.0,-27.71769200429012,-51.0990578183887,0.016879449
603,1577395436.45,-0.5911283898925771,0.4899733697509765,9.906787484436034,-0.6282735527224652,0.6064337619688449,9.90574659066549,-0.7407773946126295,0.3691060892740879,9.702103194173176,-0.0362396240234375,0.6494522094726562,-0.395965576171875,-0.1618920302972559,-0.1851523794778963,0.3831444717035062,0.2152579171316966,-0.1736595517113094,0.1064482189360119,21.278696949269868,-10.254167484301416,5.290912126068384,67.76799721659921,-2.5276799265117016,12.04821937321936,37.9646868541648,35.99985024111181,32.45355976877228,1577395435.0,-27.71769200429012,-51.0990578183887,0.016879449
604,1577395436.46,-0.4953603234863271,0.2613271112060547,9.529700722961424,-0.4487084282107465,0.5058772922422824,9.84828575082174,-0.8269686543782545,0.3403756693522128,9.908004536946615,0.0095367431640625,-0.0829696655273437,0.046539306640625,-0.2229271865472559,0.2115761361471036,0.1695214248285061,0.0016348702566966,-0.0210716610863094,0.0759306408110119,22.322557554328387,-10.349113479526428,3.3752370459401737,68.73470886752138,-2.4461418643661625,5.816381766381765,37.94072543205439,35.95192739689101,32.64525114565549,1577395435.0,-27.71769200429012,-51.0990578183887,0.016879449
605,1577395436.47,-0.4426878869628896,0.4444835382080078,9.674549923400878,-0.4941982597537152,0.2664571262266574,9.79800751595846,-0.6174760091145827,0.3906539042154941,9.656613362630209,-0.1583099365234375,-0.0219345092773437,-0.212860107421875,-0.0703392959222559,0.3183876595846036,0.0169335342035061,0.0474112374441966,0.2078101748511905,0.1369657970610119,22.08166664546873,-9.684491512951334,3.6489049145299135,68.63803770242916,-0.366921279654924,11.4250356125356,37.91676400994399,36.02381166322221,32.62128972354509,1577395435.0,-27.71769200429012,-51.0990578183887,0.016879449
606,1577395436.48,-0.5911283898925771,0.427724126586914,10.117477230529785,-0.5468706962771528,0.4101092258360324,9.908140792325646,-0.6952875630696608,0.4241727274576816,9.797871260579427,-0.3108978271484375,0.4663467407226562,0.000762939453125,-0.0093041396722559,-0.1241172232278963,0.2610741592035062,-0.1509530203683033,-0.1126243954613094,-0.015622093563988,22.402854523948275,-10.064275493851389,3.6489049145299135,68.92805119770581,-2.5276799265117016,14.540954415954404,37.9646868541648,35.95192739689101,32.597328301434686,1577395435.0,-27.71769200429012,-51.0990578183887,0.016879449
607,1577395436.49,-0.7036558679199217,0.3822342950439453,9.787077401428222,-0.4391316215701215,0.5920685520079074,9.819555330899863,-0.7551426045735671,0.3858655008951816,10.001378401692712,0.1163482666015625,-0.1134872436523437,-0.121307373046875,-0.1924096084222559,0.0895058236471036,0.0169335342035061,-0.0594002859933033,-0.1736595517113094,0.1980009533110119,22.402854523948275,-10.064275493851389,3.6489049145299135,67.76799721659921,-2.5276799265117016,13.710042735042729,37.9646868541648,35.80815886422859,33.22032527630515,1577395435.0,-27.71769200429012,-51.0990578183887,0.016879449
608,1577395436.5,-0.4762067102050771,0.3163937493896484,9.6733528225708,-0.587572124499809,0.3478599826719699,9.910534993985802,-0.7024701680501295,0.3954423075358066,9.881668318684898,-0.0057220458984375,-0.0829696655273437,-0.090789794921875,0.204318907202744,0.1200234017721036,0.0474511123285061,0.3678458077566966,0.3756568545386905,0.1064482189360119,22.242260584708504,-11.01373544610152,3.284014423076921,67.76799721659921,-2.038451553638469,-7.062749287749304,37.94072543205439,35.856081708449395,32.597328301434686,1577395435.0,-27.71769200429012,-51.0990578183887,0.016879449
609,1577395436.51,-0.5935225915527333,0.6144718560791015,9.87805706451416,-0.607922838611137,0.2221643955137668,9.68308583627096,-0.6557832356770826,0.4050191141764316,9.541691682942709,0.0858306884765625,0.1306533813476562,0.214385986328125,-0.1313744521722559,-0.2156699576028964,-0.0135840439214938,0.2610342843191966,-0.1278831845238094,0.1369657970610119,21.760478766989184,-9.684491512951334,1.824452457264953,65.73790274966264,-2.405372833293393,9.347756410256393,38.10845538682721,35.95192739689101,32.54940545721389,1577395435.0,-27.71769200429012,-51.0990578183887,0.016879449
610,1577395436.52,-0.5576095666503896,0.0661996759033203,9.320208077697751,-0.4894098564334027,0.5034830905821261,9.948842220548302,-0.7671136128743483,0.3499524759928379,9.82899588216146,-0.4329681396484375,0.1611709594726562,-0.273895263671875,-0.3755150771722559,0.2115761361471036,0.2305565810785061,0.0321524483816966,-0.3567650204613095,0.1369657970610119,21.760478766989184,-9.304707532051282,2.18934294871795,63.707808282726056,-2.119989615784008,4.985470085470055,38.0605325426064,36.047773085332615,32.6931739898763,1577395435.0,-27.71769200429012,-51.0990578183887,0.016879449
611,1577395436.53,-0.4522646936035145,0.2912546319580078,9.39203412750244,-0.3649113701052777,0.3071585544493137,9.788430709317836,-0.6809223531087233,0.2924916361490878,9.812236470540368,-0.3414154052734375,0.0391006469726562,0.092315673828125,-0.0398217177972559,0.4557167611471036,0.0474511123285061,0.1237051827566966,0.1925513857886905,0.1674833751860119,21.760478766989184,-9.304707532051282,2.18934294871795,62.741096631803885,-2.2015276779295467,4.570014245014226,38.10845538682721,35.80815886422859,32.597328301434686,1577395435.0,-27.71769200429012,-51.0990578183887,0.016879449
612,1577395436.54,-0.4630386010742177,0.4061763116455078,9.863691854553222,-0.5983460319705121,0.3251150669004856,9.65076411385885,-0.5947310933430983,0.4026249125162753,9.76435243733724,0.1163482666015625,0.1306533813476562,-0.136566162109375,-0.2229271865472559,-0.0478232779153963,0.2763329482660061,0.0016348702566966,-0.2041771298363095,-0.198727562313988,22.08166664546873,-10.633951465201466,3.101569177350426,65.44788925438598,-2.6907560508027792,0.4154558404558219,37.9886482762752,35.78419744211819,32.54940545721389,1577395435.0,-27.71769200429012,-51.0990578183887,0.016879449
613,1577395436.55,-0.7108384729003905,0.5139153863525391,9.83256723297119,-0.4391316215701215,0.4460222507383762,10.38458692269674,-0.7407773946126295,0.3307988627115878,9.876879915364588,-0.1888275146484375,0.1001358032226562,-0.060272216796875,-0.0398217177972559,-0.0630820669778963,0.0779686904535061,-0.0594002859933033,-0.1736595517113094,-0.137692406063988,22.2422605847085,-10.254167484301416,2.371788194444441,67.76799721659921,-3.179984423676012,-8.724572649572671,37.725072633060776,35.95192739689101,32.64525114565549,1577395435.0,-27.71769200429012,-51.0990578183887,0.016879449
614,1577395436.56,-0.524090743408202,0.0997184991455078,9.178950179748536,-0.2859027153201214,0.3143411594297824,9.663932222989713,-0.7814788228352858,0.2565786112467441,9.891245125325524,-0.2498626708984375,-0.3576278686523437,-0.060272216796875,0.112766172827744,0.2726112923971036,-0.1051367782964938,0.2457754952566966,0.3451392764136905,0.1369657970610119,22.72404240242782,-8.924923551151231,3.6489049145299135,67.76799721659921,-2.2015276779295467,-8.724572649572671,37.91676400994399,35.99985024111181,32.597328301434686,1577395435.0,-27.71769200429012,-51.0990578183887,0.016879449
615,1577395436.57,-0.4714183068847646,0.494761773071289,9.885239669494627,-0.8509343071169964,0.48193527564072,9.891381380704551,-0.6665571431477858,0.3284046610514316,9.666190169270832,0.1621246337890625,0.2222061157226562,-0.029754638671875,-0.1924096084222559,0.3336464486471036,-0.0441016220464938,-0.0899178641183033,0.3756568545386905,0.0148954845610119,23.36641815938691,-9.87438350340136,3.4664596688034197,67.96133954678365,-2.119989615784008,-8.309116809116826,37.9886482762752,35.52062179890376,32.64525114565549,1577395435.0,-27.71769200429012,-51.0990578183887,0.016879449
616,1577395436.58,-0.6246472131347656,0.2577358087158203,9.758346981506346,-0.4331461174197308,0.2880049411680637,9.97757264047018,-0.6749368489583326,0.3643176859537754,9.721256807454427,-0.4940032958984375,0.4053115844726562,-0.243377685546875,-0.1008568740472559,0.2420937142721036,0.1695214248285061,0.0321524483816966,-0.3262474423363094,0.0301542736235119,22.402854523948275,-10.823843455651492,3.2840144230769246,68.25135304206029,-2.4869108954389323,-0.2077279202279394,37.91676400994399,35.99985024111181,32.597328301434686,1577395435.0,-27.71769200429012,-51.0990578183887,0.016879449
617,1577395436.59,-0.5528211633300771,0.092535894165039,9.45667757232666,-0.549264897937309,0.4172918308165012,9.84828575082174,-0.7599310078938796,0.2829148295084628,9.94391756184896,-0.0362396240234375,-0.2355575561523437,-0.029754638671875,0.082248594702744,0.0589882455221036,0.1695214248285061,0.1847403390066966,0.1925513857886905,0.0454130626860119,21.11810301003009,-9.684491512951334,3.2840144230769246,67.96133954678365,-2.772294112948318,8.309116809116793,37.91676400994399,35.95192739689101,32.64525114565549,1577395435.0,-27.71769200429012,-51.0990578183887,0.016879449
618,1577395436.6,-0.4259284753417958,0.4660313531494141,9.45667757232666,-0.6139083427615277,0.4101092258360324,9.639990206388148,-0.7000759663899733,0.2829148295084628,9.58478731282552,-0.0362396240234375,-0.0219345092773437,-0.212860107421875,-0.3449974990472559,-0.0630820669778963,-0.1966895126714938,-0.1204354422433033,0.2535865420386905,-0.198727562313988,21.921072706228955,-10.254167484301416,2.371788194444441,63.12778129217276,-2.690756050802779,-8.724572649572671,37.725072633060776,35.66439033156618,32.64525114565549,1577395435.0,-27.71769200429012,-51.0990578183887,0.016879449
619,1577395436.61,-0.6066907006835932,0.4025850091552734,9.846932442932127,-0.7096764091677776,0.280822336187595,9.93687121224752,-0.6521919331868483,0.4098075174967441,9.46986563313802,-0.1430511474609375,0.3442764282226562,-0.090789794921875,-0.3449974990472559,-0.1241172232278963,0.0169335342035061,0.2152579171316966,-0.5398704892113095,-0.137692406063988,22.40285452394827,-9.87438350340136,2.371788194444441,61.58104265069727,-3.0169082993849345,-8.724572649572671,37.94072543205439,35.856081708449395,32.789019678317906,1577395435.0,-27.71769200429012,-51.0990578183887,0.016879449
620,1577395436.62,-0.5288791467285145,0.2409763970947265,9.217257406311036,-0.3972330925173871,0.4747526706602512,9.999120455411584,-0.6857107564290358,0.3631205851236972,9.98222478841146,-0.0667572021484375,-0.1745223999023437,-0.151824951171875,-0.1313744521722559,-0.0173056997903963,0.0474511123285062,0.0321524483816966,-0.1584007626488094,-0.015622093563988,22.2422605847085,-11.01373544610152,2.006897702991451,68.63803770242917,-2.976139268312165,0.6231837606837445,38.0605325426064,35.97588881900141,32.57336687932428,1577395435.0,-27.71769200429012,-51.0990578183887,0.016879449
621,1577395436.63,-0.4546588952636708,0.0781706842041015,9.581176058654783,-0.5157460746951215,0.1515354465391575,9.78603650765768,-0.6737397481282545,0.3092510477701816,9.761958235677085,-0.2498626708984375,-0.0829696655273437,0.031280517578125,-0.3755150771722559,0.4862343392721036,0.0474511123285061,0.3068106515066966,0.3451392764136905,0.0148954845610119,22.72404240242782,-11.203627436551546,3.2840144230769246,69.50807818825913,-2.6092179886572406,9.97094017094016,38.0605325426064,35.80815886422859,32.64525114565549,1577395435.0,-27.71769200429012,-51.0990578183887,0.016879449
622,1577395436.64,-0.5671863732910146,0.7820659722900389,10.172543868713378,-0.7815024589724652,0.21378468970322,10.05179289193502,-0.6402209248860671,0.4217785257975254,9.448317818196614,0.2079010009765625,-0.2660751342773437,0.092315673828125,-0.0093041396722559,0.1505409798971036,-0.1661719345464938,0.1237051827566966,-0.0515892392113094,0.0759306408110119,22.72404240242782,-11.203627436551546,4.013795405982902,68.54136653733694,-3.179984423676012,6.231837606837594,37.9646868541648,35.856081708449395,32.64525114565549,1577395435.0,-27.71769200429012,-51.0990578183887,0.016879449
623,1577395436.65,-0.5815515832519521,0.2218227838134765,9.540474630432128,-0.415189604968559,0.27124552954697,9.86025675912252,-0.6857107564290358,0.3212220560709629,9.639853951009114,-0.3414154052734375,0.2222061157226562,0.061798095703125,-0.3449974990472559,0.3031288705221036,0.3526268935785062,0.0931876046316966,-0.3567650204613095,0.1369657970610119,22.804339372047707,-11.488465422226584,3.7401275373931626,68.54136653733694,-2.690756050802779,6.231837606837594,38.0605325426064,35.856081708449395,32.597328301434686,1577395435.0,-27.71769200429012,-51.0990578183887,0.016879449
624,1577395436.66,-0.4139574670410146,0.437300933227539,9.471042782287595,-0.4499055290408246,0.3789846042540012,9.764488692716272,-0.7132440755208327,0.351149576822916,9.850543697102866,0.4520416259765625,-0.1745223999023437,-0.121307373046875,-0.0245629287347559,0.0895058236471036,0.1237450576410061,0.1237051827566966,0.2688453311011905,0.1217070079985118,22.402854523948275,-10.44405947475144,2.5542334401709463,67.76799721659921,-2.2015276779295467,-7.062749287749304,37.9646868541648,35.80815886422859,32.42959834666188,1577395435.0,-27.71769200429012,-51.0990578183887,0.016879449
625,1577395436.67,-0.4355052819824208,0.4660313531494141,9.818202023010253,-0.6689749809451214,0.2281498996641575,9.841103145841272,-0.6162789082845045,0.3906539042154941,9.544085884602865,0.1773834228515625,0.1916885375976562,0.031280517578125,-0.1313744521722559,-0.0325644888528963,0.1390038467035061,0.2152579171316966,-0.1431419735863094,0.2590361095610119,22.72404240242782,-10.064275493851389,2.9191239316239352,67.76799721659921,-2.2015276779295467,-5.400925925925935,38.0605325426064,35.856081708449395,32.64525114565549,1577395435.0,-27.71769200429012,-51.0990578183887,0.016879449
626,1577395436.68,-0.6414066247558593,0.4444835382080078,10.122265633850096,-0.6857343925662152,0.3813788059141574,10.075734908536583,-0.6952875630696608,0.3930481058756503,9.651824959309897,-0.2498626708984375,0.1916885375976562,-0.090789794921875,-0.2534447646722559,0.0284706673971036,0.0169335342035061,-0.1204354422433033,-0.2652122860863095,-0.137692406063988,21.921072706228955,-9.874383503401363,2.371788194444441,67.76799721659921,-2.8538321750938573,-8.724572649572671,37.91676400994399,35.99985024111181,32.64525114565549,1577395435.0,-27.71769200429012,-51.0990578183887,0.016879449
627,1577395436.69,-0.5252878442382807,0.1571793389892583,9.401610934143063,-0.4690591423220746,0.3777875034239231,10.036230581144006,-0.7551426045735671,0.3343901652018222,9.922369746907554,-0.3414154052734375,0.0085830688476562,-0.029754638671875,-0.0245629287347559,0.4557167611471036,0.0932274795160061,0.1237051827566966,-0.0058128720238094,0.0606718517485119,22.08166664546873,-9.49459952250131,3.284014423076921,67.96133954678365,-2.8538321750938573,-0.4154558404558544,37.91676400994399,35.97588881900141,32.45355976877228,1577395435.0,-27.71769200429012,-51.0990578183887,0.016879449
628,1577395436.7,-0.5025429284667958,0.5953182427978515,9.976219332580566,-0.4487084282107465,0.2257556980040012,9.49154970345846,-0.6474035298665358,0.3140394510904941,9.673372774251302,0.7266998291015625,-0.0829696655273437,-0.090789794921875,0.265354063452744,-0.0935996451028963,0.0779686904535061,0.1237051827566966,0.2535865420386905,-0.168209984188988,23.527012098626685,-11.773303407901622,3.466459668803423,68.15468187696808,-2.8538321750938573,5.400925925925918,37.91676400994399,35.99985024111181,32.789019678317906,1577395435.0,-27.71769200429012,-51.0990578183887,0.016879449
629,1577395436.71,-0.5264849450683583,0.5929240411376953,10.021709164123534,-0.8078386772341839,0.299975949468845,10.087705916837365,-0.6378267232259108,0.4576915506998691,9.548874287923176,0.3299713134765625,0.3137588500976562,-0.212860107421875,-0.2839623427972559,0.3336464486471036,0.1695214248285061,0.1237051827566966,-0.6619408017113095,-0.076657249813988,22.88463634166759,-11.393519427001571,3.466459668803423,67.76799721659921,-2.5276799265117016,6.231837606837594,37.91676400994399,35.99985024111181,32.789019678317906,1577395435.0,-27.71769200429012,-51.0990578183887,0.016879449
630,1577395436.72,-0.6438008264160155,0.1260547174072265,9.784683199768065,-0.3816707817263715,0.5154540988829075,10.068552303556116,-0.7000759663899733,0.3762886942545566,9.857726302083336,-0.5855560302734375,0.4053115844726562,-0.121307373046875,-0.2229271865472559,0.5777870736471036,-0.1661719345464938,0.0931876046316966,-0.1431419735863094,0.0759306408110119,20.95750907079032,-11.01373544610152,2.371788194444441,67.76799721659921,-2.364603802220624,6.231837606837594,37.91676400994399,35.856081708449395,32.597328301434686,1577395435.0,-27.71769200429012,-51.0990578183887,0.016879449
631,1577395436.73,-0.4271255761718739,0.3906140008544921,9.415976144104002,-0.4965924614138715,0.3203266635801731,9.757306087735804,-0.6761339497884108,0.3260104593912754,9.696117690022788,-0.1277923583984375,-0.3423690795898437,-0.075531005859375,0.2500952743902441,0.1352821908346036,-0.0593604111089938,0.0931876046316965,0.1772925967261905,0.0301542736235118,20.95750907079032,-11.01373544610152,2.371788194444441,66.89795673076924,-0.2038451553638465,9.76321225071224,37.91676400994399,35.80815886422859,32.669212567765896,1577395435.0,-27.71769200429012,-51.0990578183887,0.016879449
632,1577395436.74,-0.5312733483886708,0.3846284967041015,9.978613534240722,-0.6833401909060589,0.242515109625095,9.69026844125143,-0.7096527730305983,0.3475582743326816,9.51535546468099,-0.2498626708984375,-0.1440048217773437,-0.060272216796875,-0.1313744521722559,0.2420937142721036,0.1390038467035061,0.0626700265066966,-0.3872825985863095,0.0148954845610119,23.045230280907365,-10.44405947475144,3.6489049145299135,68.15468187696808,1.7122993050563151,-8.724572649572671,37.772995477281576,35.856081708449395,32.789019678317906,1577395435.0,-27.71769200429012,-51.0990578183887,0.016879449
633,1577395436.75,-0.6605602380371093,0.5354632012939453,9.782288998107909,-0.4175838066287152,0.3311005710508762,9.934477010587363,-0.7479599995930983,0.4050191141764316,9.87448571370443,0.0858306884765625,0.4663467407226562,-0.060272216796875,-0.0703392959222559,0.3641640267721036,0.2915917373285062,0.1237051827566966,-0.8145286923363095,0.0454130626860119,22.563448463188045,-11.01373544610152,2.736678685897437,67.76799721659921,-3.5061366722581666,-8.724572649572671,37.9646868541648,35.99985024111181,32.64525114565549,1577395435.0,-27.71769200429012,-51.0990578183887,0.016879449
634,1577395436.76,-0.4534617944335927,0.1763329522705078,9.541671731262204,-0.3696997734255902,0.4986946872618137,10.145166756681116,-0.7575368062337233,0.3188278544108066,9.996589998372398,-0.1583099365234375,-0.0982284545898437,-0.090789794921875,0.143283750952744,0.1200234017721036,-0.0441016220464938,0.0931876046316966,0.2535865420386905,0.2285185314360119,22.563448463188045,-10.633951465201466,3.101569177350434,67.76799721659921,-3.5061366722581666,-8.724572649572671,37.94072543205439,35.99985024111181,32.789019678317906,1577395435.0,-27.71769200429012,-51.0990578183887,0.016879449
635,1577395436.77,-0.5193023400878896,0.7868543756103514,10.052833785705566,-0.6617923759646527,0.2401209079649387,9.850679952481896,-0.6306441182454421,0.3834712992350254,9.645839455159503,0.0247955322265625,-0.0829696655273437,-0.060272216796875,0.051731016577744,0.3489052377096036,0.0169335342035061,0.1847403390066966,0.0247047061011905,-0.107174827938988,22.563448463188045,-10.633951465201466,3.101569177350434,68.15468187696808,-2.119989615784008,-0.4154558404558544,37.62922694461916,35.927965974780605,32.669212567765896,1577395435.0,-27.71769200429012,-51.0990578183887,0.016879449
636,1577395436.78,-0.5719747766113271,0.217034380493164,9.765529586486815,-0.405612798327934,0.5058772922422824,9.673509029630337,-0.6665571431477858,0.4433263407389316,9.797871260579427,-0.6160736083984375,0.6189346313476562,-0.426483154296875,-0.2839623427972559,0.2115761361471036,0.2915917373285062,0.0626700265066966,-0.5398704892113095,-0.107174827938988,23.045230280907365,-10.064275493851389,3.2840144230769246,68.54136653733694,-2.2015276779295467,-8.724572649572671,37.86884116572318,35.76023602000779,32.789019678317906,1577395435.0,-27.71769200429012,-51.0990578183887,0.016879449
637,1577395436.79,-0.5216965417480458,0.2002749688720703,9.222045809631346,-0.2643549003787152,0.6136163669493138,9.630413399747525,-0.726412184651692,0.3738944925944004,9.97025378011068,-0.0667572021484375,0.0391006469726562,-0.151824951171875,-0.1008568740472559,-0.0325644888528963,-0.3187598251714938,0.2152579171316966,-0.0515892392113094,-0.2597627185639881,23.68760603786645,-10.064275493851389,3.2840144230769246,68.54136653733694,-2.2015276779295467,-8.724572649572671,37.91676400994399,35.95192739689101,32.64525114565549,1577395435.0,-27.71769200429012,-51.0990578183887,0.016879449
638,1577395436.8,-0.4187458703613271,0.4205415216064453,9.66138181427002,-0.5732069145388715,0.19463107642197,9.788430709317836,-0.6761339497884108,0.2972800394694003,9.821813277180992,0.1926422119140625,-0.0219345092773437,-0.167083740234375,0.082248594702744,0.3336464486471036,0.0779686904535061,0.1542227608816966,0.3451392764136905,0.0148954845610119,22.563448463188045,-11.773303407901622,3.101569177350434,68.54136653733694,1.7122993050563151,-7.8936609686609795,37.86884116572318,35.80815886422859,32.64525114565549,1577395435.0,-27.71769200429012,-51.0990578183887,0.016879449
639,1577395436.81,-0.6605602380371093,0.580953032836914,10.172543868713378,-0.7084793083376996,0.2209672946836887,9.933279909757289,-0.6557832356770826,0.3715002909342441,9.557253993733724,-0.1583099365234375,0.2527236938476562,-0.334930419921875,-0.3144799209222559,0.1657997689596035,-0.0593604111089938,-0.0899178641183033,-0.3415062313988095,-0.061398460751488,22.563448463188045,-11.773303407901622,3.101569177350434,69.31473585807468,2.0384515536384704,-6.231837606837619,37.9646868541648,35.83212028633899,32.57336687932428,1577395435.0,-27.71769200429012,-51.0990578183887,0.016879449
640,1577395436.82,-0.5528211633300771,0.236187993774414,9.243593624572751,-0.3146331352419965,0.510665695562595,9.800401717618618,-0.8054208394368483,0.3307988627115878,9.898427730305992,-0.3414154052734375,0.0696182250976562,-0.334930419921875,-0.680690858422256,0.5167519173971036,-0.2272070907964938,0.0931876046316966,-0.3567650204613095,0.1369657970610119,22.08166664546873,-11.203627436551546,3.2840144230769246,68.15468187696808,-2.2015276779295467,-7.062749287749304,37.91676400994399,36.14361877377422,32.45355976877228,1577395435.0,-27.71769200429012,-51.0990578183887,0.016879449
641,1577395436.83,-0.4139574670410146,0.0781706842041015,9.32739068267822,-0.4678620414919965,0.3861672092344699,9.960813228849084,-0.7910556294759108,0.2877032328287753,9.915187141927088,0.1163482666015625,-0.1745223999023437,-0.029754638671875,-0.1008568740472559,0.1810585580221036,-0.0441016220464938,0.1542227608816966,0.2230689639136905,0.0148954845610119,21.43929088850964,-10.064275493851389,3.2840144230769246,67.76799721659921,-2.2015276779295467,-6.231837606837628,37.86884116572318,35.99985024111181,32.789019678317906,1577395435.0,-27.71769200429012,-51.0990578183887,0.016879449
642,1577395436.84,-0.5085284326171865,0.5570110162353514,10.019314962463378,-0.6210909477419965,0.2616687229063449,9.77286839852682,-0.611490504964192,0.3655147867838535,9.64943075764974,0.2994537353515625,0.2985000610351562,-0.060272216796875,-0.0245629287347559,-0.0173056997903963,0.2000390029535061,0.0168936593191966,-0.3567650204613094,0.0148954845610119,23.205824220147136,-10.254167484301416,3.466459668803423,68.54136653733696,-0.0815380621455381,-7.47820512820515,38.13241680893762,35.856081708449395,32.64525114565549,1577395435.0,-27.71769200429012,-51.0990578183887,0.016879449
643,1577395436.85,-0.6557718347167968,0.2984372369384765,9.842144039611815,-0.3553345634646527,0.48193527564072,10.087705916837365,-0.7216237813313795,0.3571350809733066,9.843361092122398,-0.3108978271484375,0.1611709594726562,0.061798095703125,-0.650173280297256,0.6998573861471036,0.0474511123285061,0.0626700265066966,-0.1431419735863094,0.1369657970610119,23.205824220147136,-10.254167484301416,3.466459668803423,68.3480242071525,1.7938373672018535,-7.47820512820515,37.91676400994399,35.95192739689101,32.45355976877228,1577395435.0,-27.71769200429012,-51.0990578183887,0.016879449
644,1577395436.86,-0.4618415002441396,0.2888604302978516,9.241199422912596,-0.348151958484184,0.3334947727110324,9.948842220548302,-0.6545861348470046,0.3379814676920566,9.831390083821615,0.1773834228515625,-0.3576278686523437,-0.090789794921875,0.265354063452744,0.0284706673971036,0.0474511123285061,0.1542227608816966,0.2230689639136905,0.1980009533110119,22.08166664546873,-11.203627436551546,4.013795405982902,68.73470886752138,-2.119989615784008,-7.47820512820515,37.725072633060776,35.99985024111181,32.64525114565549,1577395435.0,-27.71769200429012,-51.0990578183887,0.016879449
645,1577395436.87,-0.3852270471191396,0.2984372369384765,9.492590597229002,-0.606725737781059,0.2880049411680637,9.644778609708462,-0.6210673116048171,0.3092510477701816,9.568027901204427,-0.3414154052734375,0.2527236938476562,-0.182342529296875,0.204318907202744,0.4862343392721036,0.0779686904535061,-0.2119881766183033,0.1925513857886905,0.1064482189360119,22.72404240242782,-8.924923551151231,5.108466880341885,67.96133954678365,1.9569134914929305,10.801851851851836,37.725072633060776,35.856081708449395,32.789019678317906,1577395435.0,-27.71769200429012,-51.0990578183887,0.016879449
646,1577395436.88,-0.5983109948730463,0.5438429071044921,9.858903451232909,-0.5528562004275434,0.2963846469786106,9.839906045011194,-0.7276092854817702,0.3559379801432285,9.72604521077474,0.0553131103515625,0.0238418579101562,-0.014495849609375,-0.2839623427972559,0.1810585580221036,0.0474511123285061,0.1694815499441966,-0.2957298642113094,0.1522245861235119,23.045230280907365,-11.203627436551546,3.6489049145299135,67.86466838169143,-2.813063144021087,1.8695512820512672,37.89280258783359,35.9040045526702,32.57336687932428,1577395435.0,-27.71769200429012,-51.0990578183887,0.016879449
647,1577395436.89,-0.4666299035644521,0.1452083306884765,9.796654208068846,-0.3361809501834027,0.5920685520079074,9.72857566781393,-0.7814788228352858,0.3858655008951816,10.022926216634117,-0.0362396240234375,-0.0219345092773437,0.061798095703125,0.021213438452744,-0.0935996451028963,0.1390038467035061,0.0626700265066966,0.0094459170386905,0.0759306408110119,23.045230280907365,-11.203627436551546,3.6489049145299135,68.54136653733694,-3.5061366722581666,12.04821937321936,37.62922694461916,35.95192739689101,32.64525114565549,1577395435.0,-27.71769200429012,-51.0990578183887,0.016879449
648,1577395436.9,-0.4977545251464833,0.7844601739501952,10.095929415588378,-0.5348996879763714,0.223361496343845,9.850679952481896,-0.6761339497884108,0.3044626444498691,9.793082857259114,0.1773834228515625,-0.0219345092773437,0.153350830078125,0.265354063452744,0.3031288705221036,-0.1356543564214938,0.0931876046316966,0.4366920107886905,-0.168209984188988,23.045230280907365,-11.203627436551546,3.6489049145299135,67.76799721659921,1.7122993050563151,11.217307692307685,37.9646868541648,35.80815886422859,32.6931739898763,1577395435.0,-27.71769200429012,-51.0990578183887,0.016879449
649,1577395436.91,-0.5480327600097645,0.3247734552001953,9.729616561584471,-0.7192532158084026,0.2113904880430637,9.6974510462319,-0.6641629414876296,0.4983929789225254,9.517749666341146,-0.5855560302734375,0.4358291625976562,-0.029754638671875,-0.3449974990472559,-0.2461875357278963,0.5662499404535062,0.1542227608816966,-0.0210716610863094,-0.076657249813988,22.563448463188045,-9.494599522501307,3.466459668803423,67.76799721659921,1.875375429347392,-8.724572649572671,37.91676400994399,35.95192739689101,32.789019678317906,1577395435.0,-27.71769200429012,-51.0990578183887,0.016879449
650,1577395436.92,-0.5600037683105463,0.2194285821533203,9.182541482238769,-0.539688091296684,0.3562396884825168,10.102071126798302,-0.7515513020833327,0.3260104593912754,10.073204451497398,-0.0057220458984375,-0.0524520874023437,0.016021728515625,-0.2687035537347559,0.5472694955221036,0.0169335342035061,-0.0746590750558033,-0.4788353329613095,0.0911894298735118,22.161963615088617,-10.539005469976454,3.740127537393163,67.86466838169143,1.7530683361290844,0.2077279202279065,37.94072543205439,35.83212028633899,32.64525114565549,1577395435.0,-27.71769200429012,-51.0990578183887,0.016879449
651,1577395436.93,-0.3876212487792958,0.2337937921142578,9.612300680236816,-0.549264897937309,0.30955275610947,9.996726253751428,-0.7120469746907545,0.2829148295084628,9.850543697102868,0.1163482666015625,-0.0219345092773437,-0.273895263671875,0.051731016577744,0.1505409798971036,0.2305565810785061,0.2152579171316966,0.4977271670386905,0.2590361095610119,22.2422605847085,-10.254167484301416,3.831350160256412,68.92805119770581,1.7122993050563151,-8.724572649572671,38.15637823104801,35.99985024111181,32.45355976877228,1577395435.0,-27.71769200429012,-51.0990578183887,0.016879449
652,1577395436.94,-0.5169081384277333,0.7317877374267577,10.323378573303222,-0.549264897937309,0.223361496343845,9.508309115079555,-0.5276934468587233,0.3834712992350254,9.644642354329427,0.2689361572265625,0.4358291625976562,-0.029754638671875,0.021213438452744,-0.1241172232278963,0.1084862685785061,-0.0594002859933033,0.0704810732886905,0.1064482189360119,22.2422605847085,-10.254167484301416,3.831350160256412,67.96133954678365,1.7938373672018535,-4.985470085470089,37.772995477281576,35.95192739689101,32.6931739898763,1577395435.0,-27.71769200429012,-51.0990578183887,0.016879449
653,1577395436.95,-0.648589229736328,0.4229357232666015,9.672155721740722,-0.5851779228396528,0.2544861179258762,9.98236104379049,-0.678528151448567,0.4217785257975254,9.642248152669271,-0.4024505615234375,0.1916885375976562,-0.121307373046875,-0.4670678115472559,0.3946816048971036,0.2915917373285062,0.0626700265066966,-0.4483177548363095,-0.198727562313988,23.205824220147136,-10.254167484301416,3.466459668803423,68.73470886752138,-2.772294112948318,9.140028490028469,37.91676400994399,35.95192739689101,32.64525114565549,1577395435.0,-27.71769200429012,-51.0990578183887,0.016879449
654,1577395436.96,-0.4522646936035145,0.2397792962646489,9.274718246154784,-0.3637142692751996,0.4364454440977512,10.012288564542445,-0.7192295796712233,0.3786828959147129,9.819419075520834,-0.0667572021484375,-0.0677108764648437,0.046539306640625,-0.0550805068597559,0.3183876595846036,-0.0135840439214938,0.2152579171316966,0.0857398623511905,0.0759306408110119,21.6801817973693,-10.539005469976452,4.652353766025639,68.54136653733694,-2.6907560508027792,9.140028490028469,37.91676400994399,35.927965974780605,32.54940545721389,1577395435.0,-27.71769200429012,-51.0990578183887,0.016879449
655,1577395436.97,-0.4929661218261708,0.494761773071289,9.803836813049315,-0.7958676689334027,0.4172918308165012,9.673509029630337,-0.6952875630696608,0.2877032328287753,9.57281630452474,-0.1277923583984375,0.0085830688476562,-0.029754638671875,-0.1008568740472559,0.0895058236471036,-0.1661719345464938,-0.0899178641183033,0.4061744326636905,-0.015622093563988,21.760478766989184,-10.44405947475144,4.743576388888888,70.08810517881243,-2.5276799265117016,11.217307692307685,37.91676400994399,35.80815886422859,32.50148261299308,1577395435.0,-27.71769200429012,-51.0990578183887,0.016879449
656,1577395436.98,-0.6916848596191405,0.3008314385986328,10.02410336578369,-0.6139083427615277,0.2927933444883762,9.673509029630337,-0.6282499165852858,0.4624799540201816,9.55366269124349,-0.4634857177734375,0.4358291625976562,0.000762939453125,-0.4975853896722559,-0.1241172232278963,0.0169335342035061,-0.1509530203683033,-0.3872825985863095,-0.137692406063988,21.760478766989184,-10.44405947475144,4.743576388888888,70.08810517881243,-2.5276799265117016,11.217307692307685,37.725072633060776,35.66439033156618,32.45355976877228,1577395435.0,-27.71769200429012,-51.0990578183887,0.016879449
657,1577395436.99,-0.5911283898925771,0.4396951348876953,9.324996481018063,-0.338575151843559,0.4005324191954074,10.018274068692834,-0.7802817220052076,0.3451640726725254,9.948705965169276,0.1163482666015625,-0.1440048217773437,0.031280517578125,-0.2687035537347559,0.2878700814596036,-0.0593604111089938,0.1084463936941965,-0.0058128720238094,-0.030880882626488,21.599884827749413,-9.494599522501307,4.926021634615379,69.31473585807468,-2.2015276779295467,8.72457264957264,37.91676400994399,36.02381166322221,32.669212567765896,1577395435.0,-27.71769200429012,-51.0990578183887,0.016879449
658,1577395437.0,-0.4247313745117177,0.3822342950439453,9.678141225891112,-0.6570039726443402,0.3287063693907199,9.84828575082174,-0.6282499165852858,0.3284046610514316,9.673372774251302,-0.0820159912109375,0.1459121704101562,-0.060272216796875,-0.1618920302972559,0.1200234017721036,-0.0135840439214938,0.1237051827566966,0.1925513857886905,0.1064482189360119,22.48315149356816,-9.77943750817635,4.469908520299148,68.15468187696808,1.7122993050563151,11.217307692307685,37.91676400994399,35.95192739689101,32.6931739898763,1577395437.0,-27.71769229594516,-51.09905737709217,0.009860062
659,1577395437.01,-0.5815515832519521,0.6886921075439452,10.103112020568847,-0.5827837211794965,0.2975817478086887,9.843497347501428,-0.6545861348470046,0.4193843241373691,9.66858437093099,-0.1277923583984375,0.0391006469726562,-0.365447998046875,-0.4670678115472559,0.3336464486471036,0.2610741592035062,0.2152579171316966,-0.6009056454613095,-0.046139671688988,22.72404240242782,-11.203627436551546,5.473357371794874,68.15468187696808,1.7122993050563151,-8.724572649572671,37.772995477281576,35.99985024111181,32.45355976877228,1577395437.0,-27.71769229594516,-51.09905737709217,0.009860062
660,1577395437.02,-0.6102820031738271,0.245764800415039,9.274718246154784,-0.5157460746951215,0.4843294773008762,10.367827511075646,-0.7407773946126295,0.3978365091959628,9.919975545247398,-0.3414154052734375,0.2832412719726562,-0.121307373046875,-0.2229271865472559,0.5167519173971036,-0.1356543564214938,0.2152579171316966,-0.3262474423363095,0.1369657970610119,22.72404240242782,-11.203627436551546,5.473357371794874,70.86147449955017,1.7122993050563151,7.893660968660963,37.86884116572318,35.856081708449395,32.50148261299308,1577395437.0,-27.71769229594516,-51.09905737709217,0.009860062
661,1577395437.03,-0.4714183068847646,0.4396951348876952,9.64821370513916,-0.2859027153201214,0.36701359595322,9.802795919278774,-0.7575368062337233,0.3116452494303379,9.86251470540365,0.1926422119140625,-0.0982284545898437,-0.029754638671875,0.204318907202744,0.1200234017721036,-0.2577246689214938,0.1237051827566966,0.4061744326636905,0.1980009533110119,21.43929088850964,-10.254167484301416,3.831350160256408,67.96133954678365,2.119989615784009,13.294586894586882,37.9886482762752,35.80815886422859,32.64525114565549,1577395437.0,-27.71769229594516,-51.09905737709217,0.009860062
662,1577395437.04,-0.5169081384277333,0.3080140435791015,9.933123702697753,-0.7587575432009808,0.3143411594297824,9.730969869474086,-0.6641629414876296,0.3379814676920566,9.520143868001302,-0.3108978271484375,0.3137588500976562,-0.548553466796875,-0.1466332412347559,0.1200234017721036,0.0321923232660061,0.1237051827566965,-0.2957298642113095,0.0148954845610119,22.563448463188045,-8.735031560701206,3.831350160256412,68.54136653733696,1.7122993050563151,2.0772792022791906,37.725072633060776,35.9040045526702,32.50148261299308,1577395437.0,-27.71769229594516,-51.09905737709217,0.009860062
663,1577395437.05,-0.686896456298828,0.398993706665039,9.633848495178222,-0.3553345634646527,0.3143411594297824,9.922506002286584,-0.8197860493977858,0.4217785257975254,9.89363932698568,-0.3108978271484375,0.1611709594726562,-0.060272216796875,-0.3144799209222559,0.5777870736471036,-0.0746192001714938,0.0626700265066966,-0.2346947079613094,-0.3513154529389881,22.563448463188045,-8.735031560701206,3.831350160256412,68.3480242071525,1.7938373672018535,-6.647293447293474,37.9646868541648,35.856081708449395,32.6931739898763,1577395437.0,-27.71769229594516,-51.09905737709217,0.009860062
664,1577395437.06,-0.4426878869628896,0.130843120727539,9.061634298400875,-0.434343218249809,0.3454657810118137,10.157137764981895,-0.7527484029134108,0.3020684427897128,9.93194655354818,-0.0057220458984375,-0.5407333374023438,0.092315673828125,0.173801329077744,-0.2156699576028963,-0.2577246689214938,-0.0594002859933033,-0.0210716610863094,-0.137692406063988,22.563448463188045,-8.735031560701206,3.831350160256412,67.76799721659921,-2.8538321750938573,-7.8936609686609795,37.9646868541648,35.66439033156618,32.597328301434686,1577395437.0,-27.71769229594516,-51.09905737709217,0.009860062
665,1577395437.07,-0.4283226770019521,0.4768052606201171,9.940306307678222,-0.5827837211794965,0.2760339328672825,9.76688289437643,-0.6545861348470046,0.2829148295084628,9.795477058919271,0.0705718994140625,0.2222061157226562,0.168609619140625,-0.1618920302972559,0.2420937142721036,0.0474511123285061,0.1542227608816966,0.4366920107886905,0.1064482189360119,21.6801817973693,-9.589545517726322,2.8279013087606826,67.76799721659921,1.7122993050563151,-7.062749287749304,38.0126096983856,35.856081708449395,32.64525114565549,1577395437.0,-27.71769229594516,-51.09905737709217,0.009860062
666,1577395437.08,-0.648589229736328,0.360686480102539,10.026497567443847,-0.4654678398318402,0.357436789312595,9.920111800626428,-0.6737397481282545,0.4421292399088535,9.775126344807944,-0.2498626708984375,0.4053115844726562,-0.273895263671875,-0.2839623427972559,0.3336464486471036,0.2763329482660061,0.0016348702566966,-0.3262474423363094,-0.275021507626488,23.045230280907365,-10.823843455651492,4.013795405982902,68.54136653733696,1.7122993050563151,-8.724572649572671,37.9646868541648,35.97588881900141,32.64525114565549,1577395437.0,-27.71769229594516,-51.09905737709217,0.009860062
667,1577395437.09,-0.5528211633300771,0.0781706842041015,9.370486312561034,-0.4702562431521527,0.4963004856016574,9.790824910977992,-0.7503542012532546,0.3475582743326816,9.975042183430991,-0.3414154052734375,-0.0524520874023437,-0.273895263671875,-0.2229271865472559,-0.0630820669778963,0.0474511123285061,0.2457754952566966,-0.1736595517113094,0.0759306408110119,21.43929088850964,-10.064275493851389,2.5542334401709463,68.92805119770581,-2.690756050802779,10.386396011395991,37.9646868541648,35.95192739689101,32.64525114565549,1577395437.0,-27.71769229594516,-51.09905737709217,0.009860062
668,1577395437.1,-0.4786009118652333,0.4899733697509765,9.569205050354002,-0.491804058093559,0.1706890598204075,9.685480037931118,-0.6569803365071608,0.2829148295084628,9.682949580891927,-0.1888275146484375,-0.4491806030273437,-0.151824951171875,-0.0093041396722559,-0.1241172232278963,0.2915917373285062,-0.0288827078683033,0.1009986514136905,-0.137692406063988,21.43929088850964,-10.064275493851389,2.5542334401709463,69.50807818825913,-2.6092179886572406,9.97094017094016,37.9646868541648,36.14361877377422,32.45355976877228,1577395437.0,-27.71769229594516,-51.09905737709217,0.009860062
669,1577395437.11,-0.5181052392578119,0.4145560174560547,9.81939912384033,-0.6701720817751995,0.3765904025938449,9.814766927579551,-0.6593745381673171,0.4110046183268223,9.629080043538412,-0.1277923583984375,0.1153945922851562,-0.151824951171875,-0.2076683974847559,-0.0935996451028963,-0.0135840439214938,0.0931876046316966,-0.3262474423363095,0.1827421642485119,20.79691513155055,-9.87438350340136,2.919123931623932,68.25135304206029,1.7530683361290844,0.6231837606837445,38.036571120496006,35.8800431305598,32.64525114565549,1577395437.0,-27.71769229594516,-51.09905737709217,0.009860062
670,1577395437.12,-0.5576095666503896,0.3199850518798828,9.37288051422119,-0.357728765124809,0.4196860324766575,9.807584322599084,-0.7671136128743483,0.3595292826334629,9.97743638509115,-0.1583099365234375,-0.2660751342773437,-0.060272216796875,-0.2229271865472559,0.2115761361471036,-0.0441016220464938,0.1237051827566966,-0.2346947079613094,0.0759306408110119,22.402854523948275,-8.545139570251179,4.013795405982902,69.31473585807468,-1.7122993050563138,-8.724572649572671,37.91676400994399,35.95192739689101,32.6931739898763,1577395437.0,-27.71769229594516,-51.09905737709217,0.009860062
671,1577395437.13,-0.4043806604003896,0.0374692559814453,9.408793539123534,-0.443920024890434,0.2353325046446262,9.912929195645958,-0.7312005879720045,0.3092510477701816,9.771535042317709,-0.2498626708984375,-0.0219345092773437,-0.304412841796875,0.051731016577744,0.5167519173971036,0.1390038467035061,0.2152579171316966,0.4061744326636905,-0.076657249813988,23.045230280907365,-11.203627436551546,3.2840144230769246,68.15468187696808,-1.7122993050563138,11.217307692307685,37.9646868541648,35.99985024111181,32.50148261299308,1577395437.0,-27.71769229594516,-51.09905737709217,0.009860062
672,1577395437.14,-0.4666299035644521,0.6432022760009765,9.997767147521971,-0.6330619560427777,0.2688513278868137,9.967995833829551,-0.6497977315266921,0.2733380228678378,9.603940926106771,0.3299713134765625,-0.0219345092773437,-0.212860107421875,0.112766172827744,0.0284706673971036,0.0779686904535061,0.0321524483816966,-0.1736595517113094,-0.015622093563988,23.045230280907365,-11.203627436551546,3.2840144230769246,68.15468187696808,2.2015276779295467,9.555484330484315,37.86884116572318,35.856081708449395,32.6931739898763,1577395437.0,-27.71769229594516,-51.09905737709217,0.009860062
673,1577395437.15,-0.6030993981933583,0.2876633294677734,9.643425301818846,-0.4906069572634808,0.4448251499082981,9.959616128019006,-0.6797252522786452,0.427764029947916,9.92356684773763,-0.0514984130859375,0.3595352172851562,-0.045013427734375,-0.512844178734756,0.5014931283346036,0.1390038467035061,0.1084463936941965,-0.2499534970238094,0.0454130626860119,21.51958785812953,-11.488465422226582,3.7401275373931626,67.96133954678365,1.7938373672018535,-0.4154558404558548,37.94072543205439,35.9040045526702,32.47752119088268,1577395437.0,-27.71769229594516,-51.09905737709217,0.009860062
674,1577395437.16,-0.4642357019042958,0.303225640258789,9.590752865295409,-0.443920024890434,0.3933498142149387,9.802795919278774,-0.688104958089192,0.3954423075358066,9.884062520345054,0.1468658447265625,-0.2355575561523437,-0.212860107421875,0.112766172827744,-0.0020469107278963,-0.2272070907964938,0.1847403390066966,0.1009986514136905,0.0148954845610119,20.95750907079032,-10.254167484301416,3.831350160256412,64.28783527327937,-2.8538321750938573,8.72457264957264,37.9646868541648,35.95192739689101,32.83694252253871,1577395437.0,-27.71769229594516,-51.09905737709217,0.009860062
675,1577395437.17,-0.4019864587402333,0.5258863946533203,9.559628243713378,-0.3888533867068403,0.1898426731016575,9.443665670255337,-0.6521919331868483,0.3164336527506504,9.556056892903646,-0.0057220458984375,-0.4491806030273437,0.031280517578125,0.082248594702744,-0.4903281607278963,-0.0441016220464938,0.2152579171316966,-0.0821068173363094,0.0148954845610119,21.760478766989184,-8.924923551151231,3.2840144230769246,67.76799721659921,2.0384515536384704,-8.724572649572671,37.91676400994399,35.99985024111181,32.45355976877228,1577395437.0,-27.71769229594516,-51.09905737709217,0.009860062
676,1577395437.18,-0.5600037683105459,0.437300933227539,9.85172084625244,-0.8102328788943401,0.185054269781345,10.09728272347799,-0.6761339497884108,0.3643176859537754,9.510567061360677,-0.2193450927734375,0.3747940063476562,-0.090789794921875,-0.4365502334222559,-0.0325644888528963,0.2000390029535061,0.0931876046316966,-0.2652122860863095,0.0148954845610119,21.760478766989184,-8.924923551151231,3.2840144230769246,67.76799721659921,2.0384515536384704,-8.724572649572671,37.91676400994399,35.856081708449395,32.50148261299308,1577395437.0,-27.71769229594516,-51.09905737709217,0.009860062
677,1577395437.19,-0.50014872680664,0.2302024896240234,9.26394433868408,-0.3852620842166059,0.4555990573790012,10.019471169522912,-0.7144411763509108,0.3284046610514316,9.838572688802085,-0.0820159912109375,-0.0677108764648437,0.031280517578125,-0.1313744521722559,0.3641640267721036,-0.0441016220464938,-0.0288827078683033,-0.1126243954613094,-0.015622093563988,21.35899391888975,-10.1592214890764,2.645456063034192,67.86466838169143,-2.4869108954389323,-7.685933048433064,38.1084553868272,35.9040045526702,32.47752119088268,1577395437.0,-27.71769229594516,-51.09905737709217,0.009860062
678,1577395437.2,-0.4666299035644521,0.4923675714111328,9.964248324279785,-0.6905227958865277,0.2880049411680637,9.455636678556118,-0.6234615132649733,0.3523466776529941,9.704497395833332,0.4520416259765625,-0.0524520874023437,-0.365447998046875,0.143283750952744,0.1505409798971036,0.1390038467035061,0.0321524483816966,0.1620338076636905,-0.076657249813988,23.205824220147136,-9.494599522501307,2.736678685897437,67.96133954678365,-2.119989615784008,4.985470085470055,37.91676400994399,35.95192739689101,32.64525114565549,1577395437.0,-27.71769229594516,-51.09905737709217,0.009860062
679,1577395437.21,-0.5145139367675771,0.6767210992431639,9.976219332580566,-0.7024938041873089,0.3191295627500949,9.800401717618618,-0.6306441182454421,0.3595292826334629,9.41958739827474,0.0553131103515625,0.2832412719726562,-0.029754638671875,-0.4975853896722559,0.4557167611471036,0.0779686904535061,0.2762930733816966,-0.5093529110863095,0.0148954845610119,21.921072706228955,-10.254167484301416,3.466459668803423,67.76799721659921,-1.8753754293473912,-8.724572649572671,37.91676400994399,35.95192739689101,32.64525114565549,1577395437.0,-27.71769229594516,-51.09905737709217,0.009860062
680,1577395437.22,-0.5815515832519526,0.1751358514404297,9.37886601837158,-0.2308360771365277,0.52024250220322,10.137984151700646,-0.7958440327962233,0.3643176859537754,10.018137813313803,-0.4024505615234375,-0.1897811889648437,-0.045013427734375,-0.1313744521722559,0.2115761361471036,0.1695214248285061,0.2152579171316966,-0.2652122860863095,0.0148954845610119,22.08166664546873,-9.684491512951336,2.736678685897437,69.31473585807468,-1.8753754293473912,-8.724572649572671,37.82091832150238,36.19154161799503,32.83694252253871,1577395437.0,-27.71769229594516,-51.09905737709217,0.009860062
681,1577395437.23,-0.3780444421386708,0.4420893365478515,9.492590597229002,-0.5624330070681683,0.3586338901426731,9.789627810147913,-0.707258571370442,0.3595292826334629,9.84695239461263,0.3604888916015625,-0.1134872436523437,-0.060272216796875,0.066989805640244,0.0284706673971036,0.0627099013910061,0.1084463936941966,0.2993629092261905,0.2132597423735119,22.2422605847085,-9.494599522501307,2.736678685897437,66.60794323549258,-2.038451553638469,-0.4154558404558544,37.772995477281576,35.8800431305598,32.57336687932428,1577395437.0,-27.71769229594516,-51.09905737709217,0.009860062
682,1577395437.24,-0.4881777185058583,0.379840093383789,10.095929415588378,-0.463073638171684,0.2257556980040012,9.72857566781393,-0.6545861348470046,0.4002307108561191,9.66140176595052,0.2689361572265625,0.5578994750976562,0.031280517578125,-0.2534447646722559,0.4557167611471036,0.0779686904535061,0.1542227608816966,-0.1431419735863094,-0.168209984188988,21.760478766989184,-10.44405947475144,3.6489049145299135,67.96133954678365,-3.261522485821551,-8.309116809116826,37.86884116572318,35.80815886422859,32.64525114565549,1577395437.0,-27.71769229594516,-51.09905737709217,0.009860062
683,1577395437.25,-0.6725312463378905,0.5594052178955078,10.115083028869629,-0.4175838066287152,0.4747526706602512,10.126013143399865,-0.7096527730305983,0.4122017191569004,9.76435243733724,-0.1888275146484375,0.1916885375976562,-0.029754638671875,0.082248594702744,0.1505409798971036,0.0474511123285061,0.0321524483816966,-0.2957298642113095,-0.168209984188988,21.599884827749413,-10.633951465201466,2.006897702991451,67.96133954678365,-2.9353702372393955,4.985470085470055,37.725072633060776,35.80815886422859,32.789019678317906,1577395437.0,-27.71769229594516,-51.09905737709217,0.009860062
684,1577395437.26,-0.407971962890624,0.1607706414794922,9.178950179748536,-0.4654678398318402,0.42447443579697,9.7740654993569,-0.7288063863118482,0.3284046610514316,9.80265966389974,-0.1430511474609375,-0.1134872436523437,-0.258636474609375,0.112766172827744,0.2726112923971036,-0.0746192001714938,-0.0899178641183033,0.0704810732886905,0.2895536876860119,21.760478766989184,-10.254167484301416,2.919123931623932,67.96133954678365,-3.0984463615304736,9.140028490028469,37.91676400994399,35.856081708449395,32.50148261299308,1577395437.0,-27.71769229594516,-51.09905737709217,0.009860062
685,1577395437.27,-0.4594472985839833,0.7269993341064452,9.873268661193846,-0.6127112419314495,0.2317412021543918,9.717801760343226,-0.686907857259114,0.3667118876139316,9.600349623616536,0.1773834228515625,0.1916885375976562,-0.029754638671875,-0.2229271865472559,0.1047646127096036,0.2915917373285061,0.2305167061941966,0.0704810732886905,-0.000363304501488,22.88463634166759,-9.874383503401363,3.466459668803423,67.96133954678365,-2.6092179886572406,0.8309116809116595,37.9646868541648,35.856081708449395,32.7171354119867,1577395437.0,-27.71769229594516,-51.09905737709217,0.009860062
686,1577395437.28,-0.6198588098144531,0.3199850518798828,9.942700509338378,-0.5851779228396528,0.3981382175352512,10.075734908536583,-0.7312005879720045,0.4241727274576816,9.91279294026693,-0.4329681396484375,0.6799697875976562,-0.151824951171875,-0.2534447646722559,0.2115761361471036,-0.0441016220464938,-0.0594002859933033,-0.5703880673363095,-0.229245140438988,23.045230280907365,-10.44405947475144,4.013795405982902,68.15468187696808,-2.8538321750938573,9.555484330484315,38.0605325426064,35.856081708449395,32.45355976877228,1577395437.0,-27.71769229594516,-51.09905737709217,0.009860062
687,1577395437.29,-0.658166036376953,0.1619677423095703,9.657790511779783,-0.4175838066287152,0.4771468723204074,9.826737935880336,-0.8054208394368483,0.3834712992350254,10.118694283040368,-0.0057220458984375,0.0696182250976562,-0.121307373046875,-0.3449974990472559,-0.1241172232278963,0.1390038467035061,0.0626700265066966,-0.0210716610863094,-0.046139671688988,23.366418159386907,-10.064275493851389,3.2840144230769246,68.73470886752138,-1.9569134914929305,6.647293447293441,38.0605325426064,35.80815886422859,32.597328301434686,1577395437.0,-27.71769229594516,-51.09905737709217,0.009860062
688,1577395437.3,-0.4726154077148427,0.4480748406982421,9.7116600491333,-0.646230065173637,0.2951875461485325,9.89856398568502,-0.668951344807942,0.3679089884440097,9.647036555989583,0.2079010009765625,-0.0524520874023437,-0.060272216796875,0.005954649390244,0.0132118783346035,0.0016747451410061,0.2457754952566966,0.2230689639136905,0.1217070079985118,23.52701209862668,-10.064275493851389,2.9191239316239352,68.73470886752138,-1.9569134914929305,6.647293447293441,37.91676400994399,36.02381166322221,32.52544403510348,1577395437.0,-27.71769229594516,-51.09905737709217,0.009860062
689,1577395437.31,-0.6054935998535146,0.4971559747314453,9.880451266174315,-0.4008243950076215,0.2209672946836887,9.757306087735804,-0.716835378011067,0.3403756693522128,9.558451094563802,-0.2803802490234375,0.0391006469726562,-0.060272216796875,-0.2839623427972559,0.5167519173971036,-0.0746192001714938,0.0016348702566966,-0.3262474423363095,-0.076657249813988,21.43929088850964,-9.684491512951334,4.3786858974359,67.76799721659921,-2.2015276779295467,4.570014245014226,37.9646868541648,35.99985024111181,32.789019678317906,1577395437.0,-27.71769229594516,-51.09905737709217,0.009860062
690,1577395437.32,-0.5576095666503896,0.2984372369384765,9.06642270172119,-0.4319490165896527,0.6399525852110325,10.087705916837365,-0.7695078145345046,0.3331930643717441,9.91279294026693,-0.1277923583984375,-0.0524520874023437,-0.121307373046875,-0.4060326552972559,0.1200234017721036,-0.1051367782964938,0.2457754952566966,-0.1126243954613094,0.1064482189360119,22.08166664546873,-10.064275493851389,2.9191239316239352,67.96133954678365,-2.6092179886572406,-8.309116809116826,37.91676400994399,35.80815886422859,32.64525114565549,1577395437.0,-27.71769229594516,-51.09905737709217,0.009860062
691,1577395437.33,-0.3708618371582021,-0.0343567938232412,9.26514143951416,-0.5181402763552777,0.1922368747618137,9.644778609708462,-0.1206791646321608,0.2422134012858066,9.771535042317709,0.1773834228515625,-0.1134872436523437,-0.029754638671875,0.234836485327744,0.1200234017721036,0.2305565810785061,0.0321524483816966,0.4366920107886905,-0.046139671688988,23.205824220147136,-9.874383503401363,4.196240651709401,67.76799721659921,-2.690756050802779,8.72457264957264,37.772995477281576,35.856081708449395,32.64525114565549,1577395437.0,-27.71769229594516,-51.09905737709217,0.009860062
692,1577395437.34,-0.5145139367675771,0.6240486627197265,9.931926601867676,-0.6414416618533245,0.3143411594297824,9.812372725919396,-0.6497977315266921,0.3619234842936191,9.563239497884114,0.1773834228515625,0.1916885375976562,0.107574462890625,-0.0855980849847559,-0.0935996451028963,0.0321923232660061,0.1694815499441966,-0.3415062313988095,-0.0919160388764881,22.72404240242782,-9.874383503401363,3.466459668803419,67.76799721659921,-2.772294112948318,8.309116809116802,38.0126096983856,35.97588881900141,32.64525114565549,1577395437.0,-27.71769229594516,-51.09905737709217,0.009860062
693,1577395437.35,-0.6916848596191405,0.1356315240478515,9.538080428771972,-0.4798330497927777,0.3837730075743137,10.161926168302209,-0.7886614278157545,0.3595292826334629,9.891245125325524,-0.2803802490234375,0.1306533813476562,-0.243377685546875,-0.1313744521722559,0.5777870736471036,0.0169335342035061,0.0931876046316966,-0.2041771298363094,-0.076657249813988,23.68760603786645,-9.304707532051282,2.9191239316239352,61.7743849808817,-2.119989615784008,7.478205128205117,37.86884116572318,35.99985024111181,32.789019678317906,1577395437.0,-27.71769229594516,-51.09905737709217,0.009860062
694,1577395437.36,-0.5145139367675771,0.2697068170166015,9.27711244781494,-0.3625171684451215,0.3263121677305637,9.833920540860802,-0.7910556294759108,0.3355872660319003,10.006166805013024,0.1773834228515625,-0.3881454467773437,0.153350830078125,0.082248594702744,-0.1851523794778963,-0.0746192001714938,-0.1204354422433033,0.3146216982886905,-0.137692406063988,22.72404240242782,-9.304707532051282,3.6489049145299135,67.76799721659921,-3.3430605479670894,-8.724572649572671,37.91676400994399,35.99985024111181,32.789019678317906,1577395437.0,-27.71769229594516,-51.09905737709217,0.009860062
695,1577395437.37,-0.503740029296874,0.4720168572998047,9.92953240020752,-0.6546097709841839,0.3263121677305637,9.551404744962367,-0.6833165547688795,0.2877032328287753,9.625488741048176,0.0400543212890625,0.1916885375976562,-0.243377685546875,0.356906797827744,0.3641640267721036,0.0474511123285061,0.3983633858816966,0.2535865420386905,0.0148954845610119,23.366418159386907,-9.304707532051282,3.6489049145299135,68.15468187696808,-2.2015276779295467,9.555484330484315,37.89280258783359,35.856081708449395,32.64525114565549,1577395437.0,-27.71769229594516,-51.09905737709217,0.009860062
696,1577395437.38,-0.667742843017578,0.561799419555664,9.827778829650878,-0.5648272087283246,0.396941116705173,10.024259572843224,-0.707258571370442,0.4169901224772129,9.760761134847009,-0.2498626708984375,0.2222061157226562,0.000762939453125,-0.1924096084222559,0.1352821908346036,0.0627099013910061,0.0779288155691966,-0.3109886532738094,-0.061398460751488,22.88463634166759,-11.01373544610152,3.466459668803423,67.96133954678365,-2.2015276779295467,7.478205128205117,38.0605325426064,35.9040045526702,32.64525114565549,1577395437.0,-27.71769229594516,-51.09905737709217,0.009860062
697,1577395437.39,-0.4331110803222646,0.025498247680664,8.889251778869628,-0.3313925468630903,0.3239179660704074,9.695056844571742,-0.7096527730305983,0.3595292826334629,9.83617848714193,-0.2498626708984375,-0.1745223999023437,-0.121307373046875,0.234836485327744,-0.3987754263528963,-0.3492774032964938,-0.0594002859933033,0.1620338076636905,0.0148954845610119,23.205824220147136,-9.874383503401363,2.371788194444441,69.70142051844356,-2.2015276779295467,-8.724572649572671,37.91676400994399,36.047773085332615,32.789019678317906,1577395437.0,-27.71769229594516,-51.09905737709217,0.009860062
698,1577395437.4,-0.3995922570800771,0.3391386651611328,9.514138412170407,-0.6570039726443402,0.3358889743711887,9.704633651212369,-0.6330383199055983,0.2805206278483066,9.558451094563802,0.0553131103515625,0.0696182250976562,0.000762939453125,0.051731016577744,0.0284706673971036,-0.0441016220464938,0.1237051827566966,0.2230689639136905,0.0759306408110119,22.563448463188045,-10.633951465201466,3.831350160256412,67.76799721659921,-2.038451553638469,9.555484330484315,37.91676400994399,35.76023602000779,32.64525114565549,1577395437.0,-27.71769229594516,-51.09905737709217,0.009860062
699,1577395437.41,-0.5623979699707026,0.4217386224365234,9.833764333801268,-0.7336184257693401,0.2401209079649387,9.93687121224752,-0.726412184651692,0.4169901224772129,9.532114876302083,-0.1430511474609375,0.3595352172851562,-0.106048583984375,-0.1008568740472559,-0.0325644888528963,0.4746972060785062,0.0321524483816966,-0.1431419735863094,-0.137692406063988,22.2422605847085,-10.633951465201466,3.466459668803423,67.76799721659921,-2.038451553638469,9.555484330484315,37.84487974361278,35.95192739689101,33.22032527630515,1577395437.0,-27.71769229594516,-51.09905737709217,0.009860062
700,1577395437.42,-0.6102820031738271,0.3080140435791015,9.57159925201416,-0.4487084282107465,0.4711613681700168,10.143969655851038,-0.7228208821614577,0.370303190104166,9.98222478841146,0.0553131103515625,-0.1745223999023437,0.153350830078125,-0.1313744521722559,0.4099403939596036,0.2152977920160061,0.1694815499441966,0.0094459170386905,0.1827421642485119,23.527012098626685,-8.735031560701206,4.196240651709401,66.60794323549258,-2.038451553638469,-1.6618233618233766,37.91676400994399,35.83212028633899,32.57336687932429,1577395437.0,-27.71769229594516,-51.09905737709217,0.009860062
701,1577395437.43,-0.4355052819824208,0.3942053033447265,9.633848495178222,-0.4774388481326215,0.1611122531797825,9.474790291837367,-0.6737397481282545,0.3092510477701816,9.766746638997397,-0.0057220458984375,0.0085830688476562,0.061798095703125,-0.1924096084222559,-0.1546348013528963,0.1084862685785061,0.1542227608816966,0.2841041201636905,0.1369657970610119,23.205824220147136,-11.393519427001571,1.6420072115384623,68.54136653733694,-2.690756050802779,9.555484330484315,38.0605325426064,35.80815886422859,32.64525114565549,1577395437.0,-27.71769229594516,-51.09905737709217,0.009860062
702,1577395437.44,-0.5767631799316396,0.4827907647705078,10.057622189025878,-0.8102328788943401,0.1922368747618137,9.88659297738424,-0.7407773946126295,0.3762886942545566,9.570422102864583,-0.1277923583984375,-0.1134872436523437,-0.060272216796875,-0.1924096084222559,0.5472694955221036,0.1084862685785061,0.0626700265066966,-0.3567650204613095,0.1064482189360119,22.88463634166759,-10.633951465201466,3.831350160256412,67.76799721659921,-2.2015276779295467,9.555484330484315,37.86884116572318,35.80815886422859,32.64525114565549,1577395437.0,-27.71769229594516,-51.09905737709217,0.009860062
703,1577395437.45,-0.6234501123046868,0.3271676568603515,9.398019631652833,-0.4259635124392621,0.5429874179747043,9.782445205167445,-0.7371860921223952,0.3164336527506504,9.869697310384115,-0.2651214599609375,0.0543594360351562,-0.167083740234375,-0.3297387099847559,-0.2309287466653963,0.1542626357660061,0.0626700265066966,-0.3262474423363095,-0.030880882626488,22.72404240242782,-11.203627436551546,2.5542334401709463,67.76799721659921,-2.2015276779295467,8.72457264957264,37.91676400994399,35.9040045526702,32.57336687932428,1577395437.0,-27.71769229594516,-51.09905737709217,0.009860062
704,1577395437.46,-0.3995922570800771,0.0997184991455078,9.516532613830565,-0.5851779228396528,0.1443528415586887,9.94405381722799,-0.726412184651692,0.3475582743326816,9.833784285481777,0.0858306884765625,-0.2355575561523437,0.061798095703125,-0.1924096084222559,-0.0325644888528963,-0.2882422470464938,0.1237051827566966,0.2535865420386905,0.2895536876860119,22.72404240242782,-8.924923551151231,2.9191239316239352,68.92805119770581,-2.2015276779295467,-3.7391025641025832,37.9646868541648,35.95192739689101,32.597328301434686,1577395437.0,-27.71769229594516,-51.09905737709217,0.009860062
705,1577395437.47,-0.4738125085449208,0.7772775689697264,9.990584542541503,-0.549264897937309,0.1323818332579075,9.695056844571742,-0.5755774800618483,0.3810770975748691,9.522538069661458,0.2384185791015625,0.0085830688476562,-0.060272216796875,0.112766172827744,0.5167519173971036,-0.2577246689214938,0.1847403390066966,-0.2957298642113095,-0.137692406063988,23.045230280907365,-10.064275493851389,2.5542334401709463,67.76799721659921,-2.8538321750938573,-8.724572649572671,37.9646868541648,35.856081708449395,32.64525114565549,1577395437.0,-27.71769229594516,-51.09905737709217,0.009860062
706,1577395437.48,-0.5384559533691395,0.3247734552001953,9.827778829650878,-0.5061692680544965,0.4723584690000949,10.07812911019674,-0.716835378011067,0.4026249125162753,9.678161177571614,-0.5550384521484375,0.2832412719726562,-0.060272216796875,0.021213438452744,-0.0630820669778963,0.2305565810785061,-0.0288827078683033,-0.6924583798363095,-0.015622093563988,23.045230280907365,-11.203627436551546,1.824452457264953,69.70142051844356,-2.2015276779295467,-8.724572649572671,37.9646868541648,35.95192739689101,32.64525114565549,1577395437.0,-27.71769229594516,-51.09905737709217,0.009860062
707,1577395437.49,-0.5336675500488276,0.2505532037353515,9.390837026672362,-0.5396880912966839,0.4053208225157199,9.883001674894006,-0.7240179829915357,0.3595292826334629,9.888850923665368,-0.0362396240234375,-0.0982284545898437,0.031280517578125,-0.0703392959222559,0.3183876595846036,0.0016747451410061,0.0168936593191966,-0.0668480282738094,0.0911894298735119,22.88463634166759,-9.874383503401363,3.466459668803423,69.70142051844356,-2.2015276779295467,-8.724572649572671,37.94072543205439,35.99985024111181,32.597328301434686,1577395437.0,-27.71769229594516,-51.09905737709217,0.009860062
708,1577395437.5,-0.4187458703613271,0.2984372369384765,9.834961434631346,-0.4008243950076215,0.2209672946836887,9.285648360685023,-0.6761339497884108,0.4145959208170566,9.62309453938802,0.2079010009765625,-0.0524520874023437,-0.090789794921875,-0.0093041396722559,-0.7344687857278964,0.0169335342035061,0.0321524483816966,-0.2346947079613094,-0.046139671688988,22.2422605847085,-11.01373544610152,3.466459668803423,67.76799721659921,-3.5061366722581666,8.72457264957264,37.86884116572318,35.99985024111181,32.64525114565549,1577395437.0,-27.71769229594516,-51.09905737709217,0.009860062
709,1577395437.51,-0.6342240197753906,0.6025008477783202,10.335349581604005,-0.5923605278201215,0.1730832614805637,10.111647933438928,-0.678528151448567,0.3044626444498691,9.690132185872397,-0.0057220458984375,0.1611709594726562,-0.182342529296875,-0.1924096084222559,0.5167519173971036,0.0779686904535061,0.0931876046316966,-0.2957298642113095,0.1064482189360119,22.2422605847085,-9.494599522501307,3.831350160256412,67.76799721659921,-2.5276799265117016,6.231837606837594,37.91676400994399,35.99985024111181,32.597328301434686,1577395437.0,-27.71769229594516,-51.09905737709217,0.009860062
710,1577395437.52,-0.5013458276367178,0.149996734008789,9.34055879180908,-0.520534478015434,0.5537613254454075,10.01587986703268,-0.735988991292317,0.4122017191569004,9.929552351888024,-0.1430511474609375,0.0238418579101562,-0.350189208984375,-0.4975853896722559,0.6998573861471036,0.1695214248285061,0.1237051827566966,-0.3567650204613095,-0.107174827938988,22.00136967584884,-10.349113479526428,4.652353766025643,67.96133954678365,-2.119989615784008,-8.309116809116826,37.67714978883997,35.95192739689101,32.64525114565549,1577395437.0,-27.71769229594516,-51.09905737709217,0.009860062
711,1577395437.53,-0.4426878869628896,0.5689820245361328,9.734404964904783,-0.4522997307009809,0.3813788059141574,9.620836593106898,-0.6665571431477858,0.351149576822916,9.721256807454427,0.3910064697265625,-0.0524520874023437,-0.060272216796875,0.036472227515244,0.1505409798971036,0.1237450576410061,0.0931876046316966,0.1315162295386905,0.1064482189360118,22.2422605847085,-9.494599522501307,3.831350160256412,68.05801071187587,1.8346063982746228,-8.516844729344749,37.772995477281576,35.78419744211819,32.789019678317906,1577395437.0,-27.71769229594516,-51.09905737709217,0.009860062
712,1577395437.54,-0.5025429284667958,0.4229357232666015,9.81341361968994,-0.5660243095584028,0.15632384985947,9.802795919278774,-0.6521919331868483,0.4385379374186191,9.66140176595052,0.0247955322265625,0.3137588500976562,0.153350830078125,-0.2534447646722559,0.1810585580221036,-0.0135840439214938,-0.0899178641183033,-0.2041771298363094,-0.107174827938988,22.08166664546873,-9.304707532051282,4.3786858974359,68.15468187696808,1.7122993050563151,11.217307692307685,38.0605325426064,35.95192739689101,32.64525114565549,1577395437.0,-27.71769229594516,-51.09905737709217,0.009860062
713,1577395437.55,-0.6701370446777343,0.1643619439697265,9.830173031311034,-0.4846214531130902,0.4771468723204074,10.276847847989709,-0.6737397481282545,0.3786828959147129,9.958282771809898,-0.0972747802734375,0.0696182250976562,0.183868408203125,-0.2229271865472559,0.1505409798971036,0.0169335342035061,0.2152579171316966,-0.1431419735863094,0.1369657970610119,22.2422605847085,-9.874383503401363,3.101569177350434,68.92805119770581,-2.8538321750938573,-8.724572649572671,37.9646868541648,35.66439033156618,32.64525114565549,1577395437.0,-27.71769229594516,-51.09905737709217,0.009860062
714,1577395437.56,-0.4642357019042958,0.3259705560302734,9.479422488098145,-0.3696997734255902,0.3430715793516574,9.965601632169395,-0.6593745381673171,0.3212220560709629,9.93912915852865,0.1010894775390625,-0.0524520874023437,-0.060272216796875,0.295871641577744,-0.0325644888528963,-0.0441016220464938,0.0931876046316966,0.3756568545386905,0.1064482189360119,22.563448463188045,-10.254167484301414,4.013795405982906,68.54136653733694,-2.8538321750938573,11.217307692307685,37.94072543205439,35.80815886422859,32.64525114565549,1577395437.0,-27.71769229594516,-51.09905737709217,0.009860062
715,1577395437.57,-0.5815515832519521,0.5929240411376953,9.957065719299315,-0.6941140983767621,0.3550425876524387,9.692662642911586,-0.6665571431477858,0.399033610026041,9.532114876302083,-0.0667572021484375,0.0696182250976562,-0.151824951171875,0.021213438452744,0.1047646127096036,0.1084862685785061,0.1847403390066966,0.0399634951636905,0.0759306408110119,22.563448463188045,-11.393519427001571,4.56113114316239,68.25135304206029,-0.366921279654924,8.516844729344715,37.9646868541648,35.97588881900141,32.54940545721389,1577395437.0,-27.71769229594516,-51.09905737709217,0.009860062
716,1577395437.58,-0.6222530114746093,0.4492719415283203,9.444706564025878,-0.4104012016482465,0.3765904025938449,10.126013143399865,-0.7431715962727858,0.3427698710123691,9.93194655354818,-0.5550384521484375,0.1001358032226562,-0.212860107421875,-0.0398217177972559,0.9439980111471036,0.1084862685785061,0.0016348702566966,-0.3567650204613095,0.0148954845610119,22.08166664546873,-10.064275493851389,2.9191239316239352,69.31473585807468,1.7122993050563151,7.893660968660963,37.91676400994399,35.856081708449395,32.64525114565549,1577395437.0,-27.71769229594516,-51.09905737709217,0.009860062
717,1577395437.59,-0.4762067102050771,-0.1229422552490224,9.064028500061037,-0.5253228813357464,0.4220802341368137,10.037427681974084,-0.7910556294759108,0.2805206278483066,9.936734956868492,-0.1277923583984375,0.0391006469726562,0.092315673828125,0.112766172827744,-0.1851523794778963,0.2610741592035062,0.2152579171316966,0.5282447451636905,-0.015622093563988,22.2422605847085,-9.114815541601256,3.831350160256412,69.31473585807468,1.875375429347392,-7.8936609686609795,37.91676400994399,35.99985024111181,32.789019678317906,1577395437.0,-27.71769229594516,-51.09905737709217,0.009860062
718,1577395437.6,-0.4714183068847646,0.5258863946533202,9.921152694396971,-0.5983460319705121,0.299975949468845,9.777656801847131,-0.6330383199055983,0.399033610026041,9.577604707845053,0.2841949462890625,-0.0219345092773437,-0.167083740234375,-0.4518090224847559,0.1352821908346036,0.0627099013910061,-0.1051766531808033,-0.0668480282738094,0.0454130626860119,22.48315149356816,-10.918789450876506,3.3752370459401737,69.31473585807468,-0.4076903107276933,9.555484330484324,37.94072543205439,35.9040045526702,32.7171354119867,1577395437.0,-27.71769229594516,-51.09905737709217,0.009860062
719,1577395437.61,-0.6438008264160155,0.2218227838134765,10.06959319732666,-0.3792765800662152,0.529819308843845,9.877016170743616,-0.7024701680501295,0.3403756693522128,9.788294453938802,-0.4329681396484375,0.3137588500976562,0.214385986328125,0.051731016577744,0.2726112923971036,0.1084862685785061,0.1237051827566966,-0.7229759579613095,0.0454130626860119,22.2422605847085,-11.01373544610152,3.466459668803423,69.31473585807468,-2.690756050802779,11.217307692307685,38.0605325426064,35.856081708449395,32.789019678317906,1577395437.0,-27.71769229594516,-51.09905737709217,0.009860062
720,1577395437.62,-0.6054935998535146,0.3822342950439453,9.33457328765869,-0.5085634697146527,0.3694077976133762,10.037427681974084,-0.7407773946126295,0.3236162577311191,9.814630672200524,-0.1277923583984375,-0.3271102905273437,0.122833251953125,-0.0398217177972559,-0.0325644888528963,-0.1051367782964938,0.1542227608816966,0.0704810732886905,0.1064482189360119,21.760478766989184,-11.583411417451597,3.2840144230769246,67.76799721659921,-2.8538321750938573,-7.8936609686609795,37.91676400994399,35.95192739689101,32.357714080330666,1577395437.0,-27.71769229594516,-51.09905737709217,0.009860062
721,1577395437.63,-0.4163516687011708,0.1739387506103515,9.375274715881346,-0.5037750663943402,0.30955275610947,9.85546835580221,-0.7144411763509108,0.3475582743326816,9.77632344563802,-0.1583099365234375,-0.2660751342773437,0.031280517578125,-0.2229271865472559,0.6083046517721036,0.2915917373285062,0.1847403390066966,0.2535865420386905,0.1674833751860119,21.278696949269868,-11.01373544610152,3.831350160256412,68.92805119770581,-2.8538321750938573,11.217307692307685,37.725072633060776,35.99985024111181,32.789019678317906,1577395437.0,-27.71769229594516,-51.09905737709217,0.009860062
722,1577395437.64,-0.5444414575195302,0.5606023187255859,9.978613534240722,-0.5588417045779339,0.3634222934629856,9.82194953256002,-0.6294470174153639,0.4133988199869785,9.625488741048176,0.0553131103515625,0.2069473266601562,0.016021728515625,-0.222927186547256,-0.0173056997903963,0.1695214248285061,0.0016348702566966,-0.2194359188988094,0.1827421642485119,22.161963615088617,-9.969329498626376,3.5576822916666684,68.73470886752139,-2.690756050802779,1.2463675213675067,37.89280258783359,35.95192739689101,32.7171354119867,1577395437.0,-27.71769229594516,-51.09905737709217,0.009860062
723,1577395437.65,-0.543244356689452,0.1643619439697265,9.260353036193846,-0.348151958484184,0.4484164523985324,9.941659615567836,-0.7599310078938796,0.3451640726725254,10.039685628255212,-0.4024505615234375,0.1306533813476562,0.061798095703125,-0.1313744521722559,-0.0020469107278963,-0.2577246689214938,0.3678458077566966,-0.2041771298363094,-0.046139671688988,21.760478766989184,-10.064275493851389,4.013795405982902,67.76799721659921,-2.690756050802779,-8.724572649572671,37.91676400994399,35.99985024111181,32.789019678317906,1577395437.0,-27.71769229594516,-51.09905737709217,0.009860062
724,1577395437.66,-0.4809951135253896,0.1835155572509765,9.729616561584471,-0.4511026298709027,0.2927933444883762,9.532251131681118,-0.6833165547688795,0.3044626444498691,9.730833614095053,0.0247955322265625,-0.2660751342773437,-0.029754638671875,0.112766172827744,0.0284706673971036,0.0779686904535061,0.0321524483816966,0.2841041201636905,0.1980009533110119,21.760478766989184,-10.064275493851389,4.013795405982902,67.76799721659921,-2.2015276779295467,-7.062749287749304,38.0605325426064,35.95192739689101,32.64525114565549,1577395437.0,-27.71769229594516,-51.09905737709217,0.009860062
725,1577395437.67,-0.5384559533691401,0.4612429498291014,9.797851308898926,-0.6689749809451214,0.280822336187595,9.884198775724084,-0.6402209248860671,0.3116452494303379,9.45071201985677,-0.2346038818359375,0.1306533813476562,-0.090789794921875,-0.2229271865472559,-0.0325644888528963,-0.1661719345464938,-0.2730233328683034,0.0399634951636905,-0.137692406063988,21.35899391888975,-10.539005469976454,3.0103465544871844,67.76799721659921,-2.2015276779295467,7.893660968660963,37.94072543205439,35.856081708449395,32.50148261299308,1577395437.0,-27.71769229594516,-51.09905737709217,0.009860062
