,timestamp,acc_x_dashboard,acc_y_dashboard,acc_z_dashboard,acc_x_above_suspension,acc_y_above_suspension,acc_z_above_suspension,acc_x_below_suspension,acc_y_below_suspension,acc_z_below_suspension,gyro_x_dashboard,gyro_y_dashboard,gyro_z_dashboard,gyro_x_above_suspension,gyro_y_above_suspension,gyro_z_above_suspension,gyro_x_below_suspension,gyro_y_below_suspension,gyro_z_below_suspension,mag_x_dashboard,mag_y_dashboard,mag_z_dashboard,mag_x_above_suspension,mag_y_above_suspension,mag_z_above_suspension,temp_dashboard,temp_above_suspension,temp_below_suspension,timestamp_gps,latitude,longitude,speed
43081,1577397488.54,-0.0060147017316118,1.1576840954292105,7.503252817442359,-2.361617159513148,-1.6188306932402814,4.365038392601942,2.542870182291666,0.7677406656901035,7.920247111002603,0.6635712414253049,-3.611494855182927,-1.4693097370426829,-2.226108457983994,-8.291104944740853,-2.3626932283727133,1.1998131161644343,-22.52596900576637,-2.3514883858816966,-0.7408638613217086,13.104254235347984,3.139060422602083,-6.9509650794807065,-47.04113881874298,-39.6385837394031,31.25548866325217,37.341689879294336,36.52700152754066,1577397487.999,-27.71824672832065,-51.116755502089504,3.647626
43082,1577397488.55,0.7194284012957308,-0.8366858874809447,8.932591208555639,1.964705240389196,1.5774285230683114,7.139918116723036,2.006569010416666,0.4325524332682285,7.88433408610026,-1.1674834460746952,-4.038740948932927,-2.018626143292683,-1.5242041611089938,-0.7532631478658537,-1.1114725252477131,0.6199791317894345,-20.81698463076637,-1.4054434640066964,-0.4445183167930248,13.42387019230769,0.1364808879392175,-7.473390859718984,-49.96191927285677,-39.05086572119728,31.25548866325217,37.58130410039836,36.33531015065744,1577397487.999,-27.71824672832065,-51.116755502089504,3.647626
43083,1577397488.56,1.0701789445086214,1.550333167694836,8.572263858702124,2.208913809725133,1.809666084103468,6.907680555687881,2.3872470743815097,-0.0822009236653642,9.543515836588542,1.1518524914253048,-5.228926495807927,-1.2099103229801829,-2.561801817358994,-2.431729944740854,-0.6842264314977133,0.3758385067894345,-15.934172130766369,1.4632088797433036,-0.9384275576741656,15.021949977106228,0.4094426638176527,-10.08551976091039,-49.96191927285677,-39.93244274850602,31.15964297481056,37.62922694461916,36.57492437176146,1577397487.999,-27.71824672832065,-51.116755502089504,3.647626
43084,1577397488.57,1.2605179764910432,3.934958021210461,9.832811032774387,0.7137348729575552,2.90022494030464,9.15463881374452,1.342178049723307,2.313197837320963,11.3188163675944,1.8232392101753048,-5.076338605182927,-2.232249190167683,-1.7836035751714938,-5.849698694740853,-2.3932108064977133,-4.659561883835565,-3.7423996698288686,-0.3525870186941964,-0.9384275576741656,15.021949977106228,0.4094426638176527,-6.428539299242429,19.041518955581463,-4.081643637950804,31.111720130589752,37.60526552250876,36.50304010543026,1577397487.999,-27.71824672832065,-51.116755502089504,3.647626
43085,1577397488.58,0.8750515092058871,-0.4991034533989135,10.613320773985327,-0.8269338953529916,-0.2852603685332501,10.515742457543348,2.274719596354166,5.692613480631509,11.473242374674475,-2.0219756335746952,-5.350996808307927,-1.6829327839176829,-0.6086768173589938,-4.201749475990853,-1.5387186189977131,-0.1124427432105654,3.810700916108631,-5.494798932756696,-0.1481727722643409,12.46502232142857,1.5012897673314385,-6.559145744302,-49.23172415932832,-6.4325157107741,31.25548866325217,37.53338125617755,36.33531015065744,1577397487.999,-27.71824672832065,-51.116755502089504,3.647626
43086,1577397488.59,1.3371324296160434,0.7602466198432729,10.199123886778295,2.436362967439977,0.8064955884979988,9.469476332055066,-0.3134123982747389,-3.766877278645833,11.449300358072914,-2.2966338366996952,-6.327559308307927,-1.4082745807926829,-1.6462744736089938,-6.154874475990853,-1.813376822122713,-2.0350501650855657,13.332185291108631,-3.8468497140066966,-0.5433001649692534,15.021949977106228,-0.1364808879392288,-9.171274645493394,-50.327016829621,-0.7022650332673206,31.25548866325217,37.58130410039836,36.38323299487824,1577397487.999,-27.71824672832065,-51.116755502089504,3.647626
43087,1577397488.6,1.4891642350359653,0.6956031750190542,9.35995620489353,1.859360367342321,0.44856244030464,9.248012678490614,2.198105143229166,2.2018674601236974,11.071016495768228,-1.5794707507621952,-5.930830792682927,-1.3777570026676829,0.6120263076410062,-4.949430140053353,-0.8215555330602133,-1.1195228213355657,15.407380603608631,-1.8326895577566964,-0.1481727722643409,15.66118189102564,0.9553662155745456,-7.081571524540275,-12.35687092614175,-7.167163233531377,31.15964297481056,37.653188366729566,36.57492437176146,1577397487.999,-27.71824672832065,-51.116755502089504,3.647626
43088,1577397488.61,-0.4417594038800493,0.5639220837104605,9.990828342344702,-0.0176937342201781,0.4377885328339364,14.181265199242567,-2.441857674153645,-3.3598629964192703,9.34000869547526,0.7551239758003049,-5.930830792682927,-1.7439679401676829,-0.5171240829839938,-11.281827600990852,-2.5457986971227133,-1.8519446963355648,16.10928490048363,0.1509530203683035,-0.1481727722643409,15.66118189102564,0.9553662155745456,-10.73855198620824,22.692494523223694,-6.579445215325552,31.20756581903136,37.53338125617755,36.52700152754066,1577397487.999,-27.71824672832065,-51.116755502089504,3.647626
43089,1577397488.62,0.4464894120379183,0.683632166718273,10.852740940000952,-1.1788815393959602,2.518349775509717,6.560521314965224,4.8029965494791655,1.339954862467447,3.4502726114908846,-0.4045439929496951,-6.571699933307927,-1.7439679401676829,0.1542626357660061,-0.9668861947408536,-1.3556131502477131,0.0401451474144345,-0.431242443266369,0.2730233328683036,-0.0493909240881123,15.341565934065931,2.3201750949667663,-10.73855198620824,22.692494523223694,-7.167163233531377,31.111720130589752,37.772995477281576,36.33531015065744,1577397487.999,-27.71824672832065,-51.116755502089504,3.647626
43090,1577397488.63,2.0266625077410434,0.8344668713081167,9.636486496641576,6.097097305818883,1.5008140699433117,9.452716920433971,2.86608740641276,12.183294181315103,8.549922147623697,-1.4421416491996952,-8.677412823932928,-1.6524152057926829,-2.958530332983994,-1.1194740853658536,-2.8814920564977133,1.9627525692894343,-16.60555884951637,-2.0463126046316966,-0.5433001649692534,15.66118189102564,1.5012897673314385,-10.477339096089098,-50.327016829621,-6.285586206222642,31.25548866325217,37.53338125617755,36.38323299487824,1577397487.999,-27.71824672832065,-51.116755502089504,3.647626
43091,1577397488.64,0.4428981095476845,3.14367437252882,8.784150705625953,-2.562730098966273,2.3723034742401863,8.128723402367568,-1.597901588948567,-6.188612257893879,8.43978887125651,-2.5255156726371952,-6.953169659870427,-2.278025557355183,-0.7765234970464938,-9.099820765053352,-1.7523416658727131,-0.8601234072730656,-18.43661353701637,-5.128587995256696,-0.642082013145482,12.145406364468858,3.412022198480529,-10.60794554114867,-17.46823672084088,-3.3469961151935266,31.08775870847935,37.50941983406715,36.38323299487824,1577397487.999,-27.71824672832065,-51.116755502089504,3.647626
43092,1577397488.65,3.2668589677019817,-0.1902514392387573,5.784216025450172,5.168147061678257,-1.8510682542754373,10.654606153832413,-0.4283340779622389,0.2505931070963534,10.324025577799478,-2.9680205554496952,-10.569502667682928,-0.9505109089176828,-2.500766661108994,-4.873136194740853,-0.9283670564977132,-3.1947181338355657,-5.100431896391369,7.108960832868304,-0.642082013145482,12.145406364468858,3.412022198480529,-9.171274645493394,19.77171406910991,-1.8777010696789656,31.39925719591458,37.62922694461916,36.52700152754066,1577397487.999,-27.71824672832065,-51.116755502089504,3.647626
43093,1577397488.66,2.6730969559832314,0.4777308239448354,10.651628000547827,0.8298536534751334,4.416951692013623,3.297224452172255,3.0097395060221346,4.854642899576823,11.61210607096354,-0.9843779773246952,-5.412031964557927,-1.1336163776676829,-3.141635801733994,-10.518888147865852,0.9026876310022868,-3.2252357119605657,8.724030994233631,3.0196053641183034,-0.2469546204405695,12.784638278388275,0.1364808879392175,-10.73855198620824,-50.327016829621,-2.4654190878847912,31.20756581903136,37.58130410039836,36.57492437176146,1577397487.999,-27.71824672832065,-51.116755502089504,3.647626
43094,1577397488.67,3.2261575394793254,0.9948783825385854,10.051880484678689,6.2359610021079455,1.3284315504120614,8.839801295433974,6.16050889078776,4.782816849772136,12.45486505533854,-0.5723906726371952,-3.5199421208079267,-2.049143721417683,-3.507846739233994,6.906648961509147,-3.3697733064977133,-3.8661048525855657,20.93106224423363,-1.8326895577566964,-0.1975636963524552,12.305214342948716,1.637770655270656,-10.73855198620824,-50.327016829621,-2.4654190878847912,31.08775870847935,37.53338125617755,36.19154161799503,1577397487.999,-27.71824672832065,-51.116755502089504,3.647626
43095,1577397488.68,0.1831272294207309,-1.2149697497856322,9.471286582090794,-0.3061950342690074,-0.1212575548125475,10.622284431420304,2.0269197245279944,2.3108036356608066,12.32677526652018,-1.5336943835746952,-3.703047589557927,-1.7744855182926829,-5.110019590796494,-8.535245569740852,-2.4847635408727133,-3.1489417666480657,36.44925072079613,-7.463182721819196,0.3457364686167981,11.506174450549446,2.3201750949667663,-7.473390859718984,-16.007846493783987,-6.579445215325552,31.20756581903136,37.43753556773595,36.45511726120945,1577397487.999,-27.71824672832065,-51.116755502089504,3.647626
43096,1577397488.69,-0.1472725996808305,2.168037196015148,13.565371420957984,1.1003984410727896,1.5558807081269053,13.905932008324598,2.1071254801432286,-7.686185396321615,11.54267422281901,1.2434052258003048,-5.686690167682927,-2.506907393292683,-4.026645567358994,-2.157071741615854,-3.3392557283727133,-3.8661048525855657,39.02798607235863,-3.9384024483816966,0.3457364686167981,11.506174450549446,2.3201750949667663,-5.514294183825433,-50.327016829621,-6.579445215325552,31.25548866325217,37.58130410039836,36.52700152754066,1577397487.999,-27.71824672832065,-51.116755502089504,3.647626
43097,1577397488.7,1.727387300221512,0.530403260468273,13.984356711485328,3.3078523717368515,1.728263227658155,9.797481959496473,1.96586758219401,1.4285403238932284,11.93053489176432,-1.6862822741996952,-5.381514386432927,-1.6524152057926829,-0.1203955673589938,-6.154874475990853,0.0787130216272866,-3.9271400088355657,41.56094505673363,2.4092538016183034,-0.5433001649692534,15.021949977106228,2.593136870845201,-6.03671996406371,-50.327016829621,-5.697868188016817,31.20756581903136,37.62922694461916,36.67077006020308,1577397487.999,-27.71824672832065,-51.116755502089504,3.647626
43098,1577397488.71,2.517473848073075,1.413863673065929,9.790912503721655,0.9423811315024772,1.3691329786347175,8.588410121117567,2.6051194254557286,3.209826359049479,10.60414717203776,-2.0067168445121952,-3.7488239567454262,-1.6524152057926829,0.7035790420160062,-2.950528772865854,-0.8062967439977133,-3.1642005557105657,44.00235130673363,0.3645760672433036,-0.4445183167930257,14.382718063186813,1.774251543209879,-10.73855198620824,-50.327016829621,-5.991727197119726,31.111720130589752,37.58130410039836,36.52700152754066,1577397487.999,-27.71824672832065,-51.116755502089504,3.647626
43099,1577397488.72,2.828720063893388,0.0491687267768667,9.90224288091892,2.093992130037633,0.2127335767792493,11.1861189223871,1.2523954874674474,3.768872446695963,8.816875632731119,-4.585452196074695,-4.862715558307927,-2.232249190167683,-3.095859434546494,-0.6769692025533537,-1.0962137361852131,-3.3320472353980657,39.19583275204613,-4.823412214006696,0.0493909240881142,13.104254235347984,2.04721331908832,-10.085519760910383,-11.626675812613312,-37.72850018023418,31.111720130589752,37.58130410039836,36.59888579387187,1577397487.999,-27.71824672832065,-51.116755502089504,3.647626
43100,1577397488.73,3.992302070729325,-0.6164193347465697,8.118562644102514,3.394043631502477,-1.1806917894316875,8.425604408226942,1.1470506144205723,-1.557029146321614,8.109389042154948,-3.8225127429496952,-2.4213093083079267,-2.049143721417683,-1.4326514267339938,-7.497647913490853,-0.8062967439977133,-2.9505775088355657,28.86563255673363,-11.232103620256696,0.0493909240881142,13.104254235347984,2.04721331908832,-10.477339096089098,-50.327016829621,-37.14078216202836,31.111720130589752,37.53338125617755,36.52700152754066,1577397487.999,-27.71824672832065,-51.116755502089504,3.647626
43101,1577397488.74,3.04419821330745,1.4354114880073354,11.709865134336887,0.8490072667563834,3.5837695142792487,11.526095558129288,-1.5631856648763014,-2.6894865315755205,7.113401151529947,0.2363251476753048,-0.7733600895579268,-1.7134503620426829,-2.592319395483994,-0.3260170541158537,-1.0504373689977131,-2.7064368838355657,18.97793724423363,-7.417406354631696,-1.0372094058503931,14.063102106227102,1.2283279914529803,-8.648848865255117,21.2321042961668,-37.43464117113126,31.063797286368946,37.725072633060776,36.33531015065744,1577397487.999,-27.71824672832065,-51.116755502089504,3.647626
43102,1577397488.75,2.1499638932390903,1.4258346813667104,10.17039346685642,4.38763732046732,0.964512898068312,9.0792214614496,2.041284934488932,-2.0095332600911457,7.166073588053385,-0.9538603991996952,0.0048381526295732,-2.690012862042683,-3.690952207983994,0.0401938833841466,-1.8744119783727131,-3.7440345400855657,2.528962634858632,0.2425057547433033,-0.7902547854098223,14.22291008470696,1.091847103513763,-7.081571524540275,26.708567647630154,0.0323824894899595,31.159642974810552,37.62922694461916,36.50304010543026,1577397487.999,-27.71824672832065,-51.116755502089504,3.647626
43103,1577397488.76,2.550992671315263,0.8775625011909292,10.673175815489234,0.2696104649985709,0.7226985303925301,6.033796949730849,2.686522281901041,5.106034073893229,8.925811808268229,-3.3037139148246952,-1.536299542682927,-2.628977705792683,0.3984032607660062,-4.812101038490853,-2.8204569002477133,-2.9505775088355657,-12.729826427641369,3.721509660993304,-1.0372094058503931,14.063102106227102,0.1364808879392175,-9.563093980672102,31.81993344232929,-7.020233728979919,31.20756581903136,37.725072633060776,36.479078683319855,1577397487.999,-27.71824672832065,-51.116755502089504,3.647626
43104,1577397488.77,2.2684768754168245,-0.6068425281059447,10.67557001714939,2.477064395662633,-0.4767965013457501,6.069709974633193,4.101495463053385,5.161100712076823,10.82680792643229,-6.477542039824695,-3.0621784489329267,-2.781565596417683,-5.399936582983994,4.892488805259147,-1.5692361971227131,-1.8824622744605648,-9.586515880766369,-2.8397696358816966,-1.0372094058503931,14.063102106227102,0.1364808879392175,-9.563093980672102,33.28032366938618,-3.2000666106420685,31.20756581903136,37.58130410039836,36.52700152754066,1577397487.999,-27.71824672832065,-51.116755502089504,3.647626
43105,1577397488.78,3.022650398366044,1.2654231701362415,5.709995773985328,2.350171707674352,0.3132900465058114,12.177318409691786,0.2492249918619788,0.6552131876627597,10.886662967936196,-4.463381883574695,-2.4823444645579267,-2.537424971417683,-6.071323301733994,-6.002286585365853,-3.1561502596227133,-2.7369544619605657,-4.978361583891369,-4.060472760881696,-0.642082013145482,15.341565934065931,1.774251543209873,-10.216126205969957,-50.327016829621,-7.167163233531377,31.20756581903136,37.53338125617755,36.28738730643664,1577397487.999,-27.71824672832065,-51.116755502089504,3.647626
43106,1577397488.79,2.5162767472429968,2.3392226147163195,11.073007492735329,1.6127575963462268,1.5618662122772964,8.884094026146865,1.3852736796061196,-0.9836178487141924,9.532741929117837,-0.8012725085746952,-0.5139606754954268,-2.201731612042683,-3.050083067358994,1.7491782583841464,-0.3943094393102132,-3.5151527041480657,-1.682463146391369,-3.419603620256696,-0.4939092408811389,14.542526041666664,1.091847103513769,-6.167326409123287,25.97837253410171,-5.257079674362449,31.23152724114176,37.60526552250876,36.550962949651066,1577397487.999,-27.71824672832065,-51.116755502089504,3.647626
43107,1577397488.8,3.6595080399676063,-0.6427555530082885,8.832034738829078,4.31102286734232,-0.1775212938262188,8.82304188381288,2.6530034586588536,0.6145117594401035,9.55788104654948,-3.4257842273246952,-0.0104206364329267,-1.5913800495426829,-6.223911192358994,-6.795743616615853,0.0176778653772866,-3.9271400088355657,-4.429045177641369,0.1509530203683035,-0.642082013145482,12.145406364468858,2.3201750949667663,-6.428539299242429,25.97837253410171,-5.844797692568268,31.01587444214814,37.38961272351514,36.52700152754066,1577397487.999,-27.71824672832065,-51.116755502089504,3.647626
43108,1577397488.81,2.1703146073504183,-0.3003847156059447,11.877459250547828,2.062867508455602,2.9349408643769053,10.606722120629286,1.6139199381510412,2.5202962809244798,10.92257599283854,-3.5173369616996952,-0.5902546208079268,-2.140696455792683,-3.813022520483994,0.7726157583841463,-0.2569803377477133,-2.6759193057105657,-9.525480724516369,-1.1002676827566964,-0.642082013145482,12.145406364468858,2.3201750949667663,-10.08551976091039,-49.96191927285677,-4.375502647053719,31.20756581903136,37.43753556773595,36.28738730643664,1577397487.999,-27.71824672832065,-51.116755502089504,3.647626
43109,1577397488.82,0.6164777299090122,0.6596901501167105,11.341158078672828,2.6518411168540394,0.2678002149628426,10.439128004418349,3.7687014322916657,1.8690734293619784,11.296071451822916,-1.3200713366996952,-1.017500714557927,-1.8355206745426829,1.8937645888910064,1.6881431021341464,-2.6373514314977133,-1.5467689150855657,-12.455168224516369,-3.0228751046316966,-0.642082013145482,16.620029761904764,2.3201750949667663,-10.216126205969957,-50.327016829621,-4.522432151605171,31.20756581903136,37.53338125617755,36.52700152754066,1577397487.999,-27.71824672832065,-51.116755502089504,3.647626
43110,1577397488.83,1.0007470963640903,0.9936812817085072,11.934920090391577,1.9431574254477892,0.3492030714081551,7.562494709740615,3.013330808512369,1.5614185160319003,8.751035087076822,-0.7554961413871951,-2.558638409870427,-2.293284346417683,-5.110019590796494,-3.942350061928354,-1.7676004549352131,-1.2263343447730657,-16.31564185732887,-2.8550284249441966,-0.4445183167930257,12.784638278388272,2.04721331908832,-8.126423085016835,17.58112872852457,-5.69786818801682,31.18360439692096,37.55734267828795,36.33531015065744,1577397487.999,-27.71824672832065,-51.116755502089504,3.647626
43111,1577397488.84,1.1408078934832309,1.8567909801948357,10.007587753965796,0.5880392857993522,0.0762640821503426,6.768816859398818,0.9914275065104164,-1.449290071614583,8.102206437174479,-4.463381883574695,-3.886153058307927,-1.9270734089176829,-3.935092832983994,-5.971769007240853,0.2313009122522866,-2.6148841494605657,-18.92489478701637,0.3340584891183036,-0.5433001649692534,13.104254235347984,1.5012897673314385,-10.73855198620824,16.850933614996126,-4.2285731425022615,31.20756581903136,37.58130410039836,36.57492437176146,1577397487.999,-27.71824672832065,-51.116755502089504,3.647626
43112,1577397488.85,2.5198680497332315,-0.5565642932426635,4.793016538145484,2.706907755037633,-0.6396022142363751,8.384902980004286,-1.989353560384114,0.7270392374674473,6.055164017740885,-8.796877977324694,-4.649092511432927,-1.1030987995426829,-1.6767920517339938,-0.6922279916158537,-0.5316385408727133,-2.1876380557105657,-22.61752174014137,1.5242440359933036,0.0493909240881142,14.382718063186816,3.139060422602083,-10.607945541148668,17.21603117176034,-4.081643637950798,31.111720130589752,37.62922694461916,36.38323299487824,1577397487.999,-27.71824672832065,-51.116755502089504,3.647626
43113,1577397488.86,2.536627461354325,4.696314149140147,9.337211289122044,1.3134823888266958,1.5486981031464364,6.163083839379286,2.691310685221353,1.8714676310221348,7.740681986490885,-0.5571318835746951,-5.534102277057927,-1.1336163776676829,-4.972690489233994,-6.612638147865853,-0.8673319002477133,-1.5467689150855657,-26.21859595889137,0.0288827078683035,0.0493909240881142,14.382718063186816,3.139060422602083,-10.216126205969957,19.77171406910991,-7.167163233531377,31.30341150747297,37.38961272351514,36.57492437176146,1577397487.999,-27.71824672832065,-51.116755502089504,3.647626
43114,1577397488.87,3.634368922535966,2.357179127167492,7.968925040342749,2.735638174959508,2.9684596876190925,7.216532569848036,1.81263867594401,1.544659104410807,7.525203837076822,0.2210663586128048,-11.897017316120428,-2.415354658917683,-4.057163145483994,0.0707114615091463,0.4449239591272866,-3.8203284853980657,-27.57662818545387,-2.4888174874441966,-0.3951273927049104,14.22291008470696,2.7296177587844186,-8.779455310314688,25.248177420573263,-44.634186894152606,31.15964297481056,37.46149698984635,36.479078683319855,1577397487.999,-27.71824672832065,-51.116755502089504,3.647626
43115,1577397488.88,2.227775447194168,-1.5070623523246949,11.592549252989231,2.7811280065024766,0.2486466016815926,10.745585816918348,3.213246647135416,0.964065201822916,8.858774161783854,-10.444827196074694,2.8582317073170733,-2.537424971417683,-7.108920957983994,-4.293302210365853,-0.0128397127477133,-4.598526727585566,-28.59896705264137,-2.3820059640066966,-0.3457364686167981,13.743486149267396,0.9553662155745456,-10.477339096089098,26.34347009086593,-44.78111639870406,31.20756581903136,37.341689879294336,36.52700152754066,1577397487.999,-27.71824672832065,-51.116755502089504,3.647626
43116,1577397488.89,0.9899731888933871,-1.0856828601371948,8.762602890684546,1.2488389440024772,-0.7353702806426251,8.540526087914444,-0.4019978597005201,-0.8866526814778642,8.952148026529947,-6.080813524199695,8.839677019817072,-2.018626143292683,-1.7988623642339938,-2.004483850990854,-0.6537088533727133,-5.300431024460566,-25.36410377139137,1.5852791922433036,-0.3457364686167981,11.825790407509151,3.139060422602083,-9.824306870791244,18.67642139881724,-6.4325157107741,31.30341150747297,37.58130410039836,36.33531015065744,1577397487.999,-27.71824672832065,-51.116755502089504,3.647626
43117,1577397488.9,1.1647499100847931,1.7753881237495228,10.88625976324314,1.8210531407798207,-0.7042456590605939,10.62348153225038,0.0576888590494787,0.9209695719401034,11.126083133951822,-3.0595732898246952,7.954667254192073,-1.5913800495426829,-7.871860411108994,-2.981046350990854,-3.5528787752477133,-3.7745521182105657,-26.15756080264137,2.1956307547433034,-0.3457364686167981,11.825790407509151,3.139060422602083,-9.95491331585082,18.31132384205301,-6.873304224428462,31.01587444214814,37.58130410039836,36.28738730643664,1577397487.999,-27.71824672832065,-51.116755502089504,3.647626
43118,1577397488.91,1.341920832936356,2.5798398815620227,11.440517447569311,1.2356708348716174,2.8714945203827646,10.2284382583246,2.802641062418619,4.3398895426432285,10.375500913492838,-0.0535918445121952,-0.7275837223704269,-2.247507979230183,-3.767246153296494,-0.2649818978658536,0.2160421231897866,-3.1489417666480657,-24.57064674014137,0.6697518484933035,-0.2469546204405694,15.341565934065931,2.866098646723642,-7.995816639957265,-49.96191927285677,-7.020233728979919,31.30341150747297,37.58130410039836,36.45511726120945,1577397487.999,-27.71824672832065,-51.116755502089504,3.647626
43119,1577397488.92,1.9045582230730749,-1.3705928576957884,9.073849106504856,1.0357549962485708,-0.8718397752715313,9.926768849144912,1.9323487589518225,2.546632499186198,9.612947684733072,-8.735842821074694,-2.1466511051829267,-1.8965558307926829,-3.690952207983994,-4.384854944740853,0.1397481778772866,-3.0421302432105657,-25.91342017764137,-5.586351667131696,-0.642082013145482,12.784638278388275,0.6824044396960991,-9.563093980672102,-49.96191927285677,-7.020233728979919,31.111720130589752,37.58130410039836,36.38323299487824,1577397487.999,-27.71824672832065,-51.116755502089504,3.647626
43120,1577397488.93,2.230169648854325,-1.2173639514457886,7.946180124571265,0.930410123201696,-0.8048021287871564,9.452716920433971,2.9522786661783846,-1.5067509114583328,9.184385587565105,-9.315676805449694,-4.740645245807927,-2.476389815167683,-2.866977598608994,-0.3565346322408537,0.4144063810022866,-2.0350501650855657,-26.40170142764137,-4.914964948381696,-0.8396457094979372,12.784638278388275,3.9579457502374105,-8.648848865255117,-50.327016829621,-7.167163233531377,31.20756581903136,37.58130410039836,36.28738730643664,1577397487.999,-27.71824672832065,-51.116755502089504,3.647626
43121,1577397488.94,1.993143684498856,0.9206581310737416,6.866395175840796,4.035689676424352,2.384274482540968,7.678613490258193,0.194158353678385,-3.9632018147786456,11.44690615641276,-3.6088896960746952,-7.822920636432927,-1.8355206745426829,-4.545444395483994,-0.3870522103658537,-4.163230337747713,-2.6148841494605657,-19.01644752139137,0.8528573172433036,-0.8396457094979372,12.784638278388275,3.9579457502374105,-8.126423085016839,25.61327497733748,-6.285586206222642,31.111720130589752,37.58130410039836,36.38323299487824,1577397487.999,-27.71824672832065,-51.116755502089504,3.647626
43122,1577397488.95,0.9720166764422152,0.9876957775581168,11.125679929258764,0.7855609227622428,0.400678407101515,9.51975456691835,2.9103801371256504,-2.3147939717610675,13.047429966227211,2.5404022961128048,-0.1324909489329266,-2.110178877667683,-2.622836973608994,-4.522184046303353,-2.1795877596227133,-4.552750360398066,5.519685291108631,6.437574114118304,-0.8890366335860513,12.94444625686813,2.456655982905978,-10.60794554114867,24.88307986380904,1.3547480304530597,31.135681552700152,37.60526552250876,36.43115583909905,1577397487.999,-27.71824672832065,-51.116755502089504,3.647626
43123,1577397488.96,1.2796715897722934,-0.7385236194145385,9.681976328184543,0.4874828160727896,-2.861421354861375,10.965852369652724,2.6458208536783845,9.346165214029948,9.835608439127602,-4.066653367949695,-3.703047589557927,-2.171214033917683,-3.385776426733994,-5.483487757240853,-1.2335428377477131,-3.3778236025855657,23.34195091610863,0.5171639578683036,-0.0493909240881123,12.784638278388275,1.774251543209873,-9.171274645493394,23.422689636752136,-5.991727197119726,31.20756581903136,37.725072633060776,36.57492437176146,1577397487.999,-27.71824672832065,-51.116755502089504,3.647626
43124,1577397488.97,1.6651380570574497,-0.637967149687976,8.86794776373142,0.0661033238852896,-0.0362633958770001,10.22125565334413,3.500550846354166,8.113151359049478,11.990389933268228,-6.080813524199695,-4.679610089557927,-1.6218976276676829,-5.857700254858994,-3.896573694740854,-0.8978494783727133,-2.8590247744605657,30.97134544735863,-14.070238385881696,-1.2347731022028483,13.42387019230769,0.1364808879392175,-9.171274645493394,23.422689636752136,-5.991727197119726,31.111720130589752,37.62922694461916,36.67077006020308,1577397487.999,-27.71824672832065,-51.116755502089504,3.647626
43125,1577397488.98,3.185456111256669,3.5997697887885853,9.6460633032822,3.034913382479039,3.842343293576125,11.76671282497499,0.4024538981119787,-2.799619807942708,9.247831931559244,-2.6628447741996952,-10.813643292682928,-2.079661299542683,-2.302402403296494,-2.0350014291158534,-1.0199197908727131,-3.2710120791480657,28.02639915829613,-8.836473737444196,-1.2347731022028483,13.42387019230769,0.1364808879392175,-9.759003648261462,-18.015883055987224,-0.6288002809915918,31.20756581903136,37.46149698984635,36.40719441698865,1577397487.999,-27.71824672832065,-51.116755502089504,3.647626
43126,1577397488.99,2.106868263356278,2.025582197235851,10.518749808409156,2.26876885122904,1.294912727169874,8.322653736840223,-0.3014413899739577,-2.105301326497395,6.5100623331705725,-2.9069853991996952,3.346512957317073,-2.781565596417683,0.0627099013910061,-0.2039467416158536,-0.1349100252477133,-4.476456415085566,15.285310291108631,2.4702889578683034,-0.6914729372335946,14.22291008470696,1.091847103513769,-10.08551976091039,14.295250717646557,0.0323824894899568,31.15964297481056,37.53338125617755,36.57492437176146,1577397487.999,-27.71824672832065,-51.116755502089504,3.647626
43127,1577397489.0,1.5047265458269807,-2.5006560412895382,8.748237680723609,0.2600336583579459,-0.7904369188262189,10.238015064965223,-0.1410298787434889,-0.3072558797200517,6.574705777994791,-4.036135789824695,-1.597334698932927,-2.201731612042683,-2.714389707983994,-4.476407679115853,-2.2101053377477133,-3.5609290713355657,4.360017322358631,6.559644426618304,0.0493909240881142,13.104254235347984,2.593136870845201,-10.607945541148668,17.21603117176034,-2.0246305742304176,31.111720130589752,37.58130410039836,36.33531015065744,1577397488.999,-27.71825042601516,-51.11680045993364,3.721591
43128,1577397489.01,2.187074018971512,-1.2604595813286008,8.67641163091892,2.0365312901938832,2.539897590451124,10.075209352074598,2.413583292643229,6.322288517252604,8.176426688639323,-3.6394072741996952,-2.3907917301829267,-2.293284346417683,-1.1885108017339938,1.4745200552591464,-1.5082010408727131,-1.7603919619605657,-11.173429943266369,-3.2364981515066966,-0.8396457094979372,15.980797847985349,1.774251543209873,-10.216126205969957,-50.327016829621,-6.579445215325552,31.20756581903136,37.43753556773595,36.52700152754066,1577397488.999,-27.71825042601516,-51.11680045993364,3.721591
43129,1577397489.02,1.7872423417254184,2.311689295624523,10.766549680235329,3.4108030431235705,1.25899970226753,5.7273391372308495,2.284296402994791,3.877808622233073,11.047074479166666,1.1671112804878048,0.0811320979420733,-2.537424971417683,-0.9748877548589938,0.3453696646341463,-1.2335428377477131,0.0401451474144345,-9.464445568266369,-7.264818464006696,-0.7902547854098229,14.862141998626372,2.7296177587844186,-10.216126205969957,-50.327016829621,-5.110150169810997,31.25548866325217,37.58130410039836,36.479078683319855,1577397488.999,-27.71825042601516,-51.11680045993364,3.721591
43130,1577397489.03,1.7800597367449496,0.9015045177924916,10.85992354498142,0.6838073522056022,0.3180784498261239,9.51975456691835,1.3397838480631503,-2.7864516988118484,10.389866123453777,-2.2966338366996952,-1.963545636432927,-2.934153487042683,-0.5171240829839938,-2.7063881478658534,-1.3708719393102131,-2.1418616885230657,-2.369108654203869,-2.748216901506696,-0.5433001649692534,13.104254235347984,0.4094426638176527,-5.383687738765862,-48.50152904579988,-38.46314770299146,31.20756581903136,37.653188366729566,36.550962949651066,1577397488.999,-27.71825042601516,-51.11680045993364,3.721591
43131,1577397489.04,1.784848140065262,-1.049769835234851,9.59578506841892,2.3286238927329457,-2.035421782107469,11.468634718285536,0.0840250773111975,2.769293253580729,9.682379532877604,-4.127688524199695,-2.7570026676829267,-2.628977705792683,-1.1885108017339938,-0.8753334603658537,-1.6302713533727131,-1.9434974307105648,-5.222502208891369,0.5781991141183036,-0.2469546204405695,13.42387019230769,3.412022198480529,-5.383687738765862,-48.50152904579988,-38.46314770299146,31.111720130589752,37.62922694461916,36.38323299487824,1577397488.999,-27.71825042601516,-51.11680045993364,3.721591
43132,1577397489.05,1.7345699052019807,-1.3179204211723508,9.693947336485326,1.5720561681235707,2.2525933912323737,8.03774373928163,3.514916056315103,-0.4652731892903642,10.02235616861979,-4.341311571074695,-2.5738971989329267,-1.8050030964176829,-0.8528174423589938,-6.368497522865853,-0.9588846346227132,-1.0890052432105657,-2.597990490141369,0.2730233328683036,-0.4445183167930248,10.866942536630033,3.412022198480529,-10.73855198620824,-50.327016829621,-7.167163233531377,31.111720130589752,37.725072633060776,36.19154161799503,1577397488.999,-27.71825042601516,-51.11680045993364,3.721591
43133,1577397489.06,1.19228322917659,-0.1591268176567264,11.531497110655248,2.6518411168540394,1.266182307247999,8.377720375023818,3.639414542643229,5.304752811686197,7.230717032877604,1.4722870617378048,-2.7264850895579267,-1.8507794636051829,0.5509911513910062,-0.2954994759908537,-1.3556131502477131,-0.6312415713355655,-8.304777599516369,-4.152025495256696,-0.4445183167930248,10.866942536630033,3.412022198480529,-6.428539299242429,25.97837253410171,-38.757006712094366,31.15964297481056,37.341689879294336,36.33531015065744,1577397488.999,-27.71825042601516,-51.11680045993364,3.721591
43134,1577397489.07,0.7744950394793246,1.009243592499523,8.290945163633765,1.5636764623130237,0.4689131544159682,7.727694624291396,2.400415183512369,-0.6304731038411455,9.462112980143228,-0.8012725085746951,-4.404951886432927,-2.598460127667683,-3.736728575171494,-7.5281654916158525,-3.507102408060213,-0.0056312197730654,-15.29330299014137,-5.357469831194196,-0.642082013145482,14.063102106227102,2.866098646723648,-6.559145744302,25.61327497733748,-35.965346125616705,31.25548866325217,37.60526552250876,36.35927157276784,1577397488.999,-27.71825042601516,-51.11680045993364,3.721591
43135,1577397489.08,0.3770575638933871,5.144029859589367,9.67239952154392,1.6654300328696643,5.3889975660370615,9.73523271633241,-0.7395802937825514,0.130883024088541,7.781383414713541,1.1518524914253048,-2.2382038395579267,-2.903635908917683,0.3068505263910062,-1.2415443978658536,-2.7289041658727133,-1.5162513369605657,-10.807219005766369,3.1721932547433034,-0.3457364686167981,14.382718063186816,3.139060422602083,-9.95491331585082,26.34347009086593,-2.4654190878847912,31.111720130589752,37.43753556773595,36.52700152754066,1577397488.999,-27.71825042601516,-51.11680045993364,3.721591
43136,1577397489.09,1.746540913502762,4.693919947479992,10.419390439512672,0.8921028966391958,0.9645128980683112,10.065632545433974,1.6737749796549477,4.857037101236979,10.522744315592446,-0.5571318835746951,-4.862715558307927,-2.567942549542683,-2.256626036108994,-5.208829554115853,-1.5082010408727131,-1.6078040713355657,-11.814299083891369,4.362378801618304,-0.3457364686167981,12.46502232142857,2.04721331908832,-10.73855198620824,25.61327497733748,-6.873304224428462,31.063797286368946,37.58130410039836,36.57492437176146,1577397488.999,-27.71825042601516,-51.11680045993364,3.721591
43137,1577397489.1,3.011876490895341,-3.721698887969226,9.088214316465796,1.7492270909751333,-3.409693535037156,7.9814800002679585,2.247186277262369,2.2868616190592443,8.440985972086589,-6.202883836699694,-3.9929645817454262,-2.323801924542683,1.4512597060785062,-3.560880335365854,-0.5316385408727132,-0.4328773135230656,-9.662809826078869,-4.457201276506696,-0.3457364686167981,12.46502232142857,2.04721331908832,-10.60794554114867,-48.8666266025641,-4.816291160708081,31.30341150747297,37.55734267828795,36.43115583909905,1577397488.999,-27.71825042601516,-51.11680045993364,3.721591
43138,1577397489.11,1.8566741898699493,-1.9547780627739133,6.088279636290015,1.8282357457602896,1.0914055860565923,10.204496241723035,2.04248203531901,1.3208012491861971,10.369515409342446,-3.6394072741996952,-3.855635480182927,-1.2862042682926829,-3.538364317358994,-5.208829554115853,-3.735984243997713,2.3289635067894343,-14.591398693266369,-9.523119245256696,-0.3457364686167981,13.743486149267396,2.04721331908832,-10.607945541148668,31.81993344232929,-4.375502647053719,31.111720130589752,37.43753556773595,36.52700152754066,1577397488.999,-27.71825042601516,-51.11680045993364,3.721591
43139,1577397489.12,1.3203730179949495,2.1393067760932727,10.83598152837986,2.580015067049352,2.207103559689405,8.775157850609755,1.982626993815104,-6.2448759969075525,11.181149772135416,5.607418897675305,-4.465987042682927,-1.1641339557926829,3.663784120141006,-0.3870522103658537,-2.1490701814977133,0.9556724911644344,-11.814299083891369,-2.0157950265066966,0.2469546204405714,15.66118189102564,2.593136870845201,-4.077623288170164,20.86700673940258,-7.020233728979919,31.01587444214814,37.725072633060776,36.57492437176146,1577397488.999,-27.71825042601516,-51.11680045993364,3.721591
43140,1577397489.13,1.267700581471512,5.953270020722179,12.066601181700172,1.3182707921470085,2.23583397961128,7.987465504418349,0.5844132242838538,-1.0542467976888017,11.820401615397133,12.443356397675306,-5.137373761432927,-0.7063702839176829,-1.0054053329839938,-7.039884241615853,-1.965964712747713,0.1622154599144345,-3.544035412016369,8.634839739118304,-0.8396457094979372,12.784638278388275,-0.409442663817664,-5.2530812937062965,16.850933614996126,-4.2285731425022615,31.111720130589752,37.58130410039836,36.38323299487824,1577397488.999,-27.71825042601516,-51.11680045993364,3.721591
43141,1577397489.14,1.5478221757097934,0.3556265392768672,9.553886539366188,0.1151844579184927,-1.458419182009813,8.471094239769911,1.7228561136881506,7.130331577555338,9.201144999186198,-7.652468797637193,-8.189131573932926,-1.4387921589176829,0.9629784560785062,-6.7041908822408525,0.9789815763147868,-4.751114618210565,1.979646228608631,3.233228410993304,-0.8396457094979372,12.784638278388275,-0.409442663817664,-5.514294183825433,19.041518955581463,-5.404009178913907,31.063797286368946,37.48545841195675,36.67077006020308,1577397488.999,-27.71825042601516,-51.11680045993364,3.721591
43142,1577397489.15,3.286012580983232,-2.871757298613757,4.673306455137672,1.2248969274009145,-2.145555058474656,10.223649855004286,0.7998913736979163,-1.633643599446614,12.100523209635416,-10.048098680449694,-5.076338605182927,-0.1875714557926828,-0.6697119736089938,-5.849698694740853,-1.935447134622713,-0.8448646182105655,8.968171619233631,-10.286058698381696,-0.4445183167930248,14.063102106227102,-3.139060422602094,-10.216126205969957,-50.327016829621,-3.3469961151935266,31.20756581903136,37.43753556773595,36.57492437176146,1577397488.999,-27.71825042601516,-51.11680045993364,3.721591
43143,1577397489.16,1.6052830155535434,1.2247217419135854,13.625226462461889,4.971822525545446,3.964447578244093,10.075209352074598,1.7384184244791665,-1.9640434285481765,9.768570792643228,2.6166962414253048,-4.771162823932927,0.6058855754573171,-2.500766661108994,-0.2954994759908537,0.1397481778772866,-8.748917352585565,10.707673572358631,-9.187425885881696,0.1481727722643429,14.70233402014652,0.6824044396960991,-10.73855198620824,-50.327016829621,-3.934714133399346,31.20756581903136,37.58130410039836,36.52700152754066,1577397488.999,-27.71825042601516,-51.11680045993364,3.721591
43144,1577397489.17,3.289603883473466,3.0862135326850697,12.510725589659156,3.518542117830602,0.5311623975800301,11.04486102443788,1.2619722941080724,-6.8458206136067705,10.460495072428383,6.233029249237806,-0.2850788395579275,-1.0115460651676829,-1.1579932236089938,-0.0513588509908536,2.0623555997522867,-2.6148841494605657,10.646638416108631,-0.0626700265066964,-0.5433001649692533,14.702334020146518,0.6824044396961049,-10.73855198620824,14.660348274410776,-7.167163233531377,31.15964297481056,37.53338125617755,36.67077006020308,1577397488.999,-27.71825042601516,-51.11680045993364,3.721591
43145,1577397489.18,2.4025521683855744,1.3085188000190542,13.033858652403296,1.673809738680211,0.9297969739960462,14.18725070339296,-0.0871603413899738,1.3854446940104166,8.961724833170573,-2.7849150866996952,5.482743426067073,-0.2791241901676828,-2.500766661108994,-2.4775063119283534,0.3991475919397867,-3.1489417666480657,2.208528064546131,9.794507707868304,-0.7408638613217086,13.743486149267396,1.5012897673314385,-10.477339096089098,18.31132384205301,-7.167163233531377,31.01587444214814,37.53338125617756,36.52700152754066,1577397488.999,-27.71825042601516,-51.11680045993364,3.721591
43146,1577397489.19,2.962795356862138,-3.1853977160942257,7.03638349371189,0.8490072667563834,-1.1711149827910623,9.036125831566784,2.6242730387369786,4.861825504557292,10.204315494791665,-14.656252977324694,-11.546065167682928,-0.2180890339176828,1.3444481826410062,-2.248624475990854,0.8416524747522867,-0.8143470400855655,1.003083728608631,-4.152025495256696,-0.1481727722643409,13.104254235347984,2.593136870845201,-10.73855198620824,-48.8666266025641,-6.873304224428462,31.20756581903136,37.58130410039836,36.52700152754066,1577397488.999,-27.71825042601516,-51.11680045993364,3.721591
43147,1577397489.2,2.0122972977801057,-0.5374106799614136,9.222289609434544,2.184971793123571,1.405046003537061,8.009013319359756,3.560405887858072,1.4452997355143222,11.023132462565105,-2.0830107898246952,8.290360613567072,0.1176043254573171,-1.4936865829839938,5.624910680259147,-1.1725076814977131,-0.7533118838355655,0.3011794317336309,-8.851732526506696,0.2469546204405714,16.300413804945048,2.04721331908832,-5.906113519004145,-48.50152904579988,-39.93244274850602,31.20756581903136,37.38961272351514,36.57492437176146,1577397488.999,-27.71825042601516,-51.11680045993364,3.721591
43148,1577397489.21,2.650352040211746,2.778558619354992,12.194690970518533,2.117934146639196,1.9820486036347176,12.036060511742567,1.132685404459635,-2.4500663655598958,9.529150626627604,1.8079804211128048,-1.719405011432927,-0.0960187214176828,-3.141635801733994,6.235262242759147,1.7876973966272869,-2.2486732119605657,3.444489978608631,-4.823412214006696,-0.9384275576741652,13.743486149267396,2.593136870845207,-8.126423085016839,24.152884750280595,-40.07937225305747,31.039835864258546,37.62922694461916,36.38323299487824,1577397488.999,-27.71825042601516,-51.11680045993364,3.721591
43149,1577397489.22,1.813578559987137,0.1090237682807729,9.727466159727514,3.170185776277868,1.2997011304901864,9.112740284691789,2.174163126627604,-1.1895191914876304,10.0163706644694,0.0227021008003048,12.959550066692072,-0.0044659870426828,-1.5547217392339938,1.2608970083841462,1.3299337247522869,-2.3860023135230657,6.221589587983631,3.721509660993304,-0.642082013145482,13.42387019230769,2.866098646723648,-9.954913315850815,-14.912553823491322,-6.579445215325551,31.20756581903136,37.50941983406716,36.407194416988645,1577397488.999,-27.71825042601516,-51.11680045993364,3.721591
43150,1577397489.23,2.337908723561356,-1.617195628691882,12.32278075933689,0.3629843297446646,-1.4751785936309063,10.439128004418349,1.29549111735026,0.7509812540690097,12.35191438395182,-6.721682664824695,1.027177019817073,0.3922625285823171,0.3678856826410062,-0.7837807259908537,1.5740743497522869,-3.1336829775855657,10.646638416108631,5.522046770368304,0.1481727722643429,14.063102106227102,0.1364808879392175,-10.73855198620824,-49.59682171609254,-5.404009178913907,31.111720130589752,37.58130410039836,36.479078683319855,1577397488.999,-27.71825042601516,-51.11680045993364,3.721591
43151,1577397489.24,2.7760476273699504,0.0252267101753042,7.95575693121189,2.869713467928258,-0.3953936449004376,6.4599648452386615,2.7344063151041658,5.410097684733072,10.994402042643229,-1.9609404773246952,2.0647746760670733,0.4227801067073171,0.7035790420160062,3.152986852134146,0.0481954435022866,-2.0960853213355657,13.362702869233631,-2.4735586983816966,-1.135991254026621,14.382718063186816,1.5012897673314385,-6.428539299242429,-49.96191927285677,-2.9062076015391587,31.25548866325217,37.62922694461916,36.57492437176146,1577397488.999,-27.71825042601516,-51.11680045993364,3.721591
43152,1577397489.25,1.8734336014910435,1.0283972057807729,10.94970610723728,2.4626991857016955,1.103376594357374,7.132735511742568,2.128673295084635,-1.5618175496419264,12.39740421549479,-1.4268828601371952,2.0952922541920733,0.3159685832698171,-4.575961973608994,1.5660727896341464,1.3604513028772869,-2.6454017275855657,25.14248802548363,-5.128587995256696,-0.7902547854098239,12.305214342948714,1.63777065527065,-6.297932854182853,-50.327016829621,-7.167163233531377,31.15964297481056,37.38961272351514,36.52700152754066,1577397488.999,-27.71825042601516,-51.11680045993364,3.721591
43153,1577397489.26,2.313966706959793,1.1959913219917104,10.354746994688451,2.854151157137242,2.8726916212128426,11.066408839379289,3.139026395670572,-2.5613967427571613,10.879480362955729,-1.2895537585746952,2.1563274104420733,-0.8284405964176829,-2.943271543921494,1.7949546255716464,0.6432882169397868,-4.720597040085566,38.55496361142113,2.729688371930804,-0.642082013145482,10.866942536630033,1.2283279914529803,-6.297932854182853,-13.817261153198654,-6.873304224428464,31.20756581903136,37.46149698984635,36.45511726120945,1577397488.999,-27.71825042601516,-51.11680045993364,3.721591
43154,1577397489.27,1.7058394852801058,-0.1830688342582885,10.029135568907202,2.285528262850133,0.3276552564667488,8.530949281273818,3.201275638834635,7.770780521647135,9.229875419108073,-3.3647490710746952,1.210282488567073,-1.0420636432926829,-2.928012754858994,1.4440024771341464,-0.5621561189977133,-3.1031653994605657,34.81656029110863,-2.3209708077566966,-0.3457364686167981,11.825790407509151,-0.6824044396961103,-10.73855198620824,-50.327016829621,-5.110150169810997,31.25548866325217,37.38961272351514,36.52700152754066,1577397488.999,-27.71825042601516,-51.11680045993364,3.721591
43155,1577397489.28,1.8159727616472932,0.8871393078315541,11.951679502012672,1.816264737459508,0.7203043287323738,12.081550343285535,1.2547896891276038,5.158706510416666,10.166008268229165,-2.3271514148246952,-0.2545612614329268,-0.4317120807926828,-5.949252989233994,-4.690030725990853,-0.9283670564977132,-1.9434974307105648,29.68960716610863,-6.410326276506696,-0.7408638613217086,14.382718063186816,2.04721331908832,-6.297932854182853,-50.327016829621,-7.167163233531377,31.20756581903136,37.43753556773595,36.57492437176146,1577397488.999,-27.71825042601516,-51.11680045993364,3.721591
43156,1577397489.29,2.5509926713152624,0.2203541454780391,11.569804337217748,1.7396502843345083,-0.2553328477812975,12.857271681176162,-1.2663046590169265,-7.365362373860677,13.298821140543618,-3.1969023913871952,1.240800066692073,-0.5537823932926829,-0.0898779892339938,3.732820836509146,0.3381124356897867,-3.3930823916480657,30.80349876767113,1.7836434500558038,-0.5433001649692534,15.341565934065931,0.9553662155745508,-10.607945541148668,23.057592079987923,-7.020233728979919,31.23152724114176,37.413574145625546,36.550962949651066,1577397488.999,-27.71825042601516,-51.11680045993364,3.721591
43157,1577397489.3,3.6619022416277622,-2.3665807483207884,9.693947336485326,6.30299864859232,0.3563856763886238,12.905155714379289,4.214022941080728,4.19863164469401,9.385498527018228,-0.4045439929496951,2.1258098323170733,-0.1875714557926828,-1.3716162704839938,4.831453649009147,-0.8368143221227133,-2.8285071963355657,35.21328880673363,14.707837785993304,-0.2469546204405695,15.341565934065931,-1.501289767331427,-10.607945541148668,-47.04113881874298,-7.020233728979919,31.25548866325217,37.43753556773595,36.38323299487824,1577397488.999,-27.71825042601516,-51.11680045993364,3.721591
43158,1577397489.31,2.6802795609637005,-0.5350164783012573,11.551847824766575,3.1618060704673203,1.0004259229706551,12.275480677758193,2.389641276041666,14.053165677897136,13.438881937662758,1.9758271008003048,2.9192668635670733,-0.8894757526676829,4.823452088891006,0.8031333365091463,-0.3790506502477133,0.8336021786644345,32.98550560360863,1.0054452078683036,-0.642082013145482,11.506174450549446,2.866098646723648,-10.607945541148668,-47.04113881874298,-7.020233728979919,31.20756581903136,37.725072633060776,37.05415281396951,1577397488.999,-27.71825042601516,-51.11680045993364,3.721591
43159,1577397489.32,0.3495242448015907,-0.2273615649711796,11.319610263731422,-0.0057227259193968,0.7442463453339363,9.376102467308971,0.577230619303385,12.075555106608071,15.210591166178384,5.241207960175305,4.460404558879573,-0.7063702839176829,2.900844667016006,4.984041539634147,-2.9730447908727133,3.6412193661644334,35.03018333798363,-17.549242292131698,-0.2963455445286828,15.181757955586075,2.456655982905984,-10.477339096089098,-48.8666266025641,-6.873304224428462,31.15964297481056,37.58130410039836,36.38323299487824,1577397488.999,-27.71825042601516,-51.11680045993364,3.721591
43160,1577397489.33,2.3857927567644808,0.8560146862495229,12.66754579839939,3.9423158116782577,0.2546321058319837,11.630243330346085,2.983403287760416,-7.531759389241536,7.606606693522135,4.661373975800305,3.0108195979420733,-1.3777570026676829,-2.699130918921494,3.961702672446647,-2.2558817049352133,2.1153404599144343,31.27652122860863,-14.573778424944194,0.642082013145482,15.021949977106228,1.5012897673314385,-10.346732651029528,-14.912553823491317,-4.228573142502259,31.20756581903136,37.50941983406716,35.95192739689101,1577397488.999,-27.71825042601516,-51.11680045993364,3.721591
43161,1577397489.34,3.501490730397294,-0.6810627795707885,11.494386984922826,0.1714481969321646,1.5917937330292489,8.978664991723035,4.642585038248697,-10.82977217610677,12.46683606363932,0.4499481945503049,3.4991008479420733,-1.4998273151676829,4.915004823266006,-2.920011194740854,-1.7828592439977131,2.6646568661644343,11.775788806733631,13.212476457868304,0.642082013145482,15.021949977106228,1.5012897673314385,-10.477339096089098,25.61327497733748,-6.579445215325552,31.063797286368946,37.38961272351514,36.57492437176146,1577397488.999,-27.71825042601516,-51.11680045993364,3.721591
43162,1577397489.35,1.9500480546160432,-0.7193700061332885,10.258978928282202,2.613533890291539,-1.0322512865020002,10.941910353051162,1.1398680094401037,8.94154513346354,4.544422770182291,2.3420380383003048,2.1868449885670733,-0.8589581745426829,9.645229432641006,8.646150914634147,-3.0035623689977133,1.5660240536644343,-5.130949474516369,20.933423723493306,-0.3457364686167981,13.743486149267396,2.04721331908832,-10.477339096089098,32.915226112621944,-39.19779522574874,31.20756581903136,37.53338125617755,36.479078683319855,1577397488.999,-27.71825042601516,-51.11680045993364,3.721591
43163,1577397489.36,0.9744108781023716,1.5239969494331167,11.506357993223608,0.8537956700766959,1.847973310665968,10.518136659203504,3.282678495279947,12.214418802897136,8.341626603190104,7.697872999237806,2.5377971370045733,-0.7826642292301829,3.633266542016006,-5.178311975990853,-1.874411978372713,5.106063116164434,-16.69711158389137,2.8975350516183034,0.1975636963524572,15.18175795558608,3.275541310541306,-4.208229733229735,-50.327016829621,-5.991727197119726,31.25548866325217,37.43753556773595,36.38323299487824,1577397488.999,-27.71825042601516,-51.11680045993364,3.721591
43164,1577397489.37,-0.6093535200909868,-1.3610160510551634,12.411366220762671,2.020968979402868,-0.7593122972441881,9.061264948998426,2.1430385050455723,4.517060465494791,12.624853373209634,5.943112257050305,2.6446086604420733,-0.8284405964176829,3.740078065453506,5.289217320884147,-1.1725076814977131,6.647200811476934,-2.659025646391369,-14.421190534319196,0.1481727722643429,14.063102106227102,1.774251543209873,-6.950965079480703,-50.327016829621,-4.228573142502259,31.39925719591458,37.53338125617756,36.38323299487824,1577397488.999,-27.71825042601516,-51.11680045993364,3.721591
43165,1577397489.38,2.457618806569169,-1.885346214629382,9.919002292540014,1.9240038121665397,1.3380083570526864,11.23639715725038,3.615472526041666,-12.10588166097005,9.85715625406901,6.065182569550305,1.179764910442073,-1.4998273151676829,5.220180604516006,1.3219321646341464,-2.8509744783727133,5.533309209914434,-13.218107677641369,-3.8468497140066966,0.1481727722643429,14.063102106227102,1.774251543209873,-10.73855198620824,21.2321042961668,-2.171560078781876,31.20756581903136,37.725072633060776,36.57492437176146,1577397488.999,-27.71825042601516,-51.11680045993364,3.721591
43166,1577397489.39,0.2549532792254184,1.095434852265148,14.202229062559546,4.318205472322789,1.1871736524628425,10.12548758693788,-4.927038997395833,4.153141813151041,7.50126182047526,6.309323194550305,-0.6512897770579268,-1.4387921589176829,9.004360292016006,1.9017661490091464,-1.874411978372713,4.068465459914434,-14.225187755766369,4.270826067243304,0.3457364686167981,12.784638278388275,1.774251543209873,-6.428539299242429,27.438762761158607,-41.9894558122264,31.25548866325217,37.43753556773595,36.38323299487824,1577397488.999,-27.71825042601516,-51.11680045993364,3.721591
43167,1577397489.4,1.911740828053544,1.127756574677257,9.38030691900486,0.0134308873618521,-1.412929350466844,5.557350819359756,-0.4187572713216139,3.5761392130533856,10.96088321940104,2.5709198742378048,-1.536299542682927,-2.049143721417683,3.846889588891006,-7.924894007240853,-3.674949087747713,7.211776006789434,-13.645353771391369,2.4702889578683034,-0.2963455445286839,13.583678170787543,1.3648088793922093,-8.25702953007641,28.89915298821549,-7.020233728979919,31.20756581903136,37.43753556773595,36.38323299487824,1577397488.999,-27.71825042601516,-51.11680045993364,3.721591
43168,1577397489.41,1.7417525101824496,3.243033741425304,11.34594648199314,0.8083058385337272,1.48884306164253,10.439128004418349,1.1662042277018223,0.7689377665201824,7.447392283121744,6.400875928925305,0.3557903010670732,0.2091570598323171,3.831630799828506,2.008577672446646,-3.003562368997713,4.358382452101934,-10.273161388578869,6.361280168805804,0.0493909240881142,12.46502232142857,0.9553662155745456,-7.34278441465942,25.61327497733749,-6.285586206222639,31.20756581903136,37.58130410039836,36.59888579387187,1577397488.999,-27.71825042601516,-51.11680045993364,3.721591
43169,1577397489.42,2.1056711625262,1.8663677868354605,10.735425058653297,-0.3002095301186165,-1.0777411180449687,8.693754994164443,2.1621921183268227,4.75408642985026,9.521968021647137,6.461911085175305,3.0718547541920733,-0.9199933307926828,5.433803651391006,1.1083091177591464,-0.7147440096227133,5.197615850539434,-18.89437720889137,-6.074632917131696,0.0493909240881142,12.46502232142857,0.9553662155745456,-9.693700425731672,30.724640772036604,2.5301840668647047,31.25548866325217,37.43753556773595,36.38323299487824,1577397488.999,-27.71825042601516,-51.11680045993364,3.721591
43170,1577397489.43,2.651549141041825,-1.0737118518364137,8.908649191954076,2.735638174959508,-0.1440024705840313,7.987465504418349,3.677721769205729,3.6671188761393223,8.188397696940104,4.051022413300305,-3.0621784489329267,-0.8589581745426829,3.999477479516006,0.9252036490091464,-0.8978494783727133,4.892440069289434,-29.17880103701637,-8.851732526506696,-0.5433001649692534,15.021949977106228,1.5012897673314385,-9.693700425731672,30.724640772036604,2.5301840668647047,31.01587444214814,37.62922694461916,35.71231317578698,1577397488.999,-27.71825042601516,-51.11680045993364,3.721591
43171,1577397489.44,1.322767219655106,-0.3925614795219604,10.379886112120094,2.812252628084508,2.4010338941620613,6.797547279320693,1.9012241373697911,3.082933671061198,9.682379532877604,3.3491181164253048,1.179764910442073,-1.7744855182926829,4.823452088891006,2.756258336509146,-1.1419901033727131,6.540389288039434,-34.45834205264137,-10.713304792131696,-0.642082013145481,12.145406364468862,0.4094426638176583,-6.559145744302,27.073665204394377,-4.816291160708081,31.15964297481056,37.58130410039836,36.33531015065744,1577397488.999,-27.71825042601516,-51.11680045993364,3.721591
43172,1577397489.45,0.9636369706316684,1.1026174572456169,7.68760634527439,1.5696619664634146,-0.3103994859648912,8.386100080834364,-0.0763864339192702,-9.85293789876302,12.867864841715496,4.722409132050305,0.6914836604420732,-1.2251691120426829,-0.3035010361089938,-1.8061195931783536,-4.620994009622713,2.634139288039434,-9.49496314639137,6.162915910993304,-0.1481727722643409,13.104254235347984,3.139060422602083,-6.167326409123287,21.232104296166803,-3.640855124296437,31.30341150747297,37.58130410039836,36.52700152754066,1577397488.999,-27.71825042601516,-51.11680045993364,3.721591
43173,1577397489.46,1.133625288502762,2.694761561249523,10.393054221250951,-0.4989282679115853,3.526308674435499,8.641082557641004,2.2268355631510413,-3.469996272786458,18.75400962320964,7.407956007050305,2.4920207698170733,-1.1030987995426829,0.4594384170160062,4.221102086509147,-2.5763162752477133,-0.5702064150855655,28.37735130673363,29.508863176618306,-0.1481727722643409,13.104254235347984,3.139060422602083,-9.693700425731672,14.660348274410776,2.8240430759676203,31.20756581903136,37.725072633060776,36.57492437176146,1577397488.999,-27.71825042601516,-51.11680045993364,3.721591
43174,1577397489.47,2.8167490555926067,1.7825707287299917,13.33792226324314,5.551219327303258,-1.9300769090605936,9.732838514672254,4.199657731119791,14.666081302897137,10.228257511393227,6.461911085175305,2.2173625666920733,-0.6758527057926829,0.8866845107660062,7.150789586509147,0.1702657560022866,0.8336021786644345,35.94571068173363,13.609204973493304,-0.1481727722643409,13.104254235347984,3.139060422602083,-9.693700425731672,17.58112872852457,-6.579445215325552,31.063797286368946,37.58130410039836,36.38323299487824,1577397488.999,-27.71825042601516,-51.11680045993364,3.721591
43175,1577397489.48,3.1830619095965127,-2.783171837187976,10.092581912901345,1.7504241918052117,-0.1224546556426254,9.858534101830458,3.030090220133463,17.18238724772135,8.768991599527995,-2.2966338366996952,2.0647746760670733,-0.7063702839176829,3.984218690453506,1.7949546255716464,0.4144063810022867,6.692977178664435,33.35171654110863,-31.93828037806919,-0.3951273927049114,15.18175795558608,1.63777065527065,-9.49779075814232,17.76367750690668,-3.86124938112362,31.135681552700152,37.60526552250876,36.35927157276784,1577397488.999,-27.71825042601516,-51.11680045993364,3.721591
43176,1577397489.49,1.8375205765886995,1.6484954357612416,15.198216953184543,5.694871426912632,6.892556208615186,11.590739002953503,-0.6150818074544264,-18.70430143636068,-5.401090926106771,9.208493116425306,2.2173625666920733,-0.5537823932926829,3.572231385766006,8.310457555259147,-3.613913931497713,4.587264288039434,-15.842619396391369,-17.030443464006698,-0.8396457094979372,14.063102106227102,1.774251543209873,-10.73855198620824,11.009372706768549,-4.816291160708081,31.01587444214814,37.62922694461916,36.38323299487824,1577397488.999,-27.71825042601516,-51.11680045993364,3.721591
43177,1577397489.5,-0.3268377241925493,6.238180018280773,14.884576535704078,2.2759514562095085,1.2326634840058115,5.226950990258193,-5.571079243977865,-2.208251997884114,-4.697195638020832,11.527829053925306,4.475663347942073,-2.232249190167683,8.119350526391006,-3.347257288490854,-2.5763162752477133,3.8243248349144334,-57.28549049014137,7.658277239118304,-0.8396457094979372,14.063102106227102,1.774251543209873,-10.73855198620824,16.850933614996126,-4.522432151605171,31.111720130589752,37.58130410039836,36.33531015065744,1577397488.999,-27.71825042601516,-51.11680045993364,3.721591
43178,1577397489.51,-0.3651449507550492,1.5299824535835074,3.828153269102515,-6.00559208627096,-2.0114797655059062,1.2621530410394424,-1.5727624715169266,-1.9736202351888013,-1.5153016316731764,1.6706513195503048,3.254960222942073,-0.5537823932926829,9.065395448266006,-6.643155725990853,-0.8368143221227133,5.930037725539434,-94.36434791201636,18.705640520368306,-0.5433001649692534,13.10425423534798,1.228327991452986,-10.73855198620824,19.77171406910991,-37.72850018023418,31.135681552700152,37.725072633060776,36.52700152754066,1577397488.999,-27.71825042601516,-51.11680045993364,3.721591
43179,1577397489.52,-0.3268377241925493,1.248663758515148,4.496135532286109,0.8789347875083365,-2.5417954332305164,7.562494709740615,5.038825413004557,6.614381119791666,8.18480639444987,-7.820315477324695,-14.628340558307928,0.0260515910823171,3.358608338891006,1.1693442740091466,1.2688985685022869,5.914778936476934,-104.55721900576636,14.692578996930806,-0.1481727722643409,15.66118189102564,2.04721331908832,-10.73855198620824,-15.277651380255548,-39.6385837394031,31.25548866325217,37.50941983406716,36.38323299487824,1577397488.999,-27.71825042601516,-51.11680045993364,3.721591
43180,1577397489.53,1.1982687333269808,-3.8126785510551633,3.119469577696265,-2.1844462366615853,1.2901243238495614,-1.4839962631597752,5.281836881510416,7.026183805338541,20.65021733805339,0.2058075695503048,-5.167891339557927,1.2772722942073171,6.044155213891006,-13.692716272865852,1.0552755216272869,5.472274053664434,-51.21249244326637,-8.149828229631696,-0.4445183167930248,14.70233402014652,1.774251543209873,-10.08551976091039,-49.23172415932832,-39.344724730300186,31.111720130589752,37.58130410039836,36.479078683319855,1577397488.999,-27.71825042601516,-51.11680045993364,3.721591
43181,1577397489.54,1.2150281449480749,-1.1575089099418825,9.59578506841892,5.196877481600133,-3.565316642947312,10.613904725609755,6.0599524210611975,4.086104166666667,21.93829783121745,6.065182569550305,-3.4283893864329267,0.8195086223323171,1.7716942763910062,14.688631383384148,-1.1725076814977131,2.9698326474144343,-18.86385963076637,-15.931810651506696,-0.4445183167930248,14.70233402014652,1.774251543209873,-10.73855198620824,-50.327016829621,-5.991727197119726,31.111720130589752,37.58130410039836,36.479078683319855,1577397488.999,-27.71825042601516,-51.11680045993364,3.721591
43182,1577397489.55,1.139610792653153,4.110931843231945,14.618820151426734,3.0684322057212268,3.037891535763624,11.097533460961316,-1.8983738972981763,-7.403669600423177,12.462047660319008,6.339840772675305,-2.9858845036204267,-0.5232648151676829,-2.165073301733994,-19.03329244474085,0.3228536466272866,1.2608482724144343,-0.461760021391369,-7.264818464006696,-0.2963455445286828,12.305214342948714,1.091847103513763,-10.73855198620824,-50.327016829621,-5.991727197119726,31.15964297481056,37.58130410039836,36.38323299487824,1577397488.999,-27.71825042601516,-51.11680045993364,3.721591
43183,1577397489.56,1.3874106644793245,1.174443507050304,13.45284394293064,2.37052242178568,5.785237940792921,12.004935890160535,-0.4319253804524738,-1.8419391438802089,7.084670731608073,-4.768557664824695,-8.646895245807928,-1.5303448932926829,1.7869530654535062,1.1388266958841484,-2.927268423685213,0.6199791317894344,-4.932585216703869,8.878980364118304,0.2469546204405714,11.18655849358974,2.04721331908832,-8.583545642725333,-15.82529771540188,-6.212121453946914,31.25548866325217,37.53338125617756,36.479078683319855,1577397488.999,-27.71825042601516,-51.11680045993364,3.721591
43184,1577397489.57,0.903781929127762,0.7363046032417104,9.732254563047826,-4.456543612149867,-6.040921159548875,8.157453822289442,-0.7730991170247389,8.568049674479166,8.585835172526041,-0.6486846179496951,-3.1537311833079267,-0.1265362995426828,3.572231385766006,-22.97006002286585,-0.5011209627477133,0.7725670224144345,-21.64095924014137,10.252271379743304,-0.4445183167930248,13.42387019230769,1.774251543209873,-5.383687738765862,-49.96191927285677,-5.844797692568268,31.25548866325217,37.38961272351514,36.38323299487824,1577397488.999,-27.71825042601516,-51.11680045993364,3.721591
43185,1577397489.58,3.156725691334794,-0.939636558867664,9.019979569151342,1.947945828768102,1.428988020138624,7.700161305199599,-0.3876326497395826,3.3462958536783853,9.488449198404949,-2.6475859851371952,-3.7183063786204262,-0.0044659870426828,4.457241151391006,-9.755948694740852,2.9473653653772867,3.3665611630394343,-14.316740490141369,-10.713304792131696,-0.1975636963524553,12.94444625686813,1.3648088793922093,-6.428539299242429,-49.96191927285677,-7.020233728979919,31.11172013058975,37.62922694461916,36.38323299487824,1577397488.999,-27.71825042601516,-51.11680045993364,3.721591
43186,1577397489.59,3.42727047893245,-0.7983786609184448,2.619081430723609,1.7827459142173208,0.7370637403534676,2.772894288598036,-0.4714297078450514,-9.43155840657552,10.201921293131509,1.5790985851753048,7.466386004192073,0.5143328410823171,0.6730614638910062,7.883211461509147,0.8721700528772867,0.7420494442894345,-4.734220958891369,-6.868089948381696,0.0493909240881142,15.66118189102564,3.139060422602083,-10.346732651029528,-49.96191927285677,-7.020233728979919,31.20756581903136,37.53338125617755,36.479078683319855,1577397488.999,-27.71825042601516,-51.11680045993364,3.721591
43187,1577397489.6,2.943641743580888,3.930169617890148,8.144898862364233,1.9048501988852893,1.7522052442597176,10.091968763695691,-0.8592903767903639,-0.587377473958333,8.961724833170573,7.255368116425305,-7.151533917682927,0.3007097942073171,1.7716942763910062,0.9557212271341464,-1.4471658846227131,-1.1500403994605657,5.763825916108631,4.637037004743304,0.0493909240881142,11.18655849358974,2.593136870845201,-10.346732651029528,-49.96191927285677,-6.4325157107741,31.111720130589752,37.58130410039836,36.479078683319855,1577397488.999,-27.71825042601516,-51.11680045993364,3.721591
43188,1577397489.61,2.2050305314226843,2.909042609833508,9.7885183020615,0.0349787023032584,7.084092341427687,5.5405914077386615,0.9914275065104164,4.959987772623697,10.989613639322917,5.317501905487806,1.561234637004573,-0.7063702839176828,-4.636997129858994,-3.866056116615854,1.0857930997522869,-3.0116126650855657,15.468415759858631,2.8059823172433034,0.1481727722643428,12.465022321428568,2.866098646723642,-7.603997304778556,-50.327016829621,-7.167163233531377,31.23152724114176,37.772995477281576,36.33531015065744,1577397488.999,-27.71825042601516,-51.11680045993364,3.721591
43189,1577397489.62,0.0227157181902621,-4.729657786895007,9.466498178770482,2.4399542699302117,-4.215342393679735,8.212520460473037,2.3489398478190098,1.5099431803385417,10.435355954996744,-5.165286180449695,15.706132097942072,0.3922625285823171,-2.119296934546494,3.5039390005716475,1.0857930997522869,-3.9576575869605657,37.04434349423363,0.0746590750558034,0.2469546204405714,13.743486149267396,0.9553662155745456,-5.971416741533927,-50.14446805123889,-7.0936984812556485,31.20756581903136,37.58130410039836,36.52700152754066,1577397488.999,-27.71825042601516,-51.11680045993364,3.721591
43190,1577397489.63,3.817525349537919,0.8703798962104604,5.834494260313453,2.716484561678258,1.6372835645722177,6.230121485863662,3.677721769205729,4.131593998209636,9.347191300455728,-10.048098680449694,3.0413371760670733,-0.1875714557926828,-3.751987364233994,1.1998618521341464,-0.7452615877477133,-1.6383216494605657,35.76260521298363,-7.661546979631696,-0.642082013145482,11.506174450549446,0.6824044396960991,-10.477339096089098,11.009372706768549,-5.697868188016817,31.01587444214814,37.53338125617755,36.52700152754066,1577397488.999,-27.71825042601516,-51.11680045993364,3.721591
43191,1577397489.64,2.483955024830888,1.8950982067573356,10.153634055235328,3.789086905428258,4.270905390744092,10.249986073266005,1.0417057413736974,-4.018268452962239,9.24424062906901,1.0602997570503048,0.4168254573170732,1.2772722942073171,-0.6391943954839938,9.622713414634148,0.9026876310022868,-1.1500403994605657,27.24820091610863,-5.067552839006696,0.4445183167930267,12.46502232142857,3.684983974358964,-9.693700425731672,13.930153160882334,-0.1145470150614951,31.30341150747297,37.38961272351514,36.52700152754066,1577397488.999,-27.71825042601516,-51.11680045993364,3.721591
43192,1577397489.65,0.2094634476824501,3.0838193310249133,11.559030429747049,0.9758999547446646,0.9549360914276864,6.596434339867568,-0.3517196248372389,-4.5018971883138015,5.741523600260416,1.2586640148628048,4.689286394817073,-0.1417950886051828,-0.3340186142339938,-0.0208412728658536,-0.7757791658727133,-2.8285071963355657,16.50601341610863,3.843579973493304,0.4445183167930267,12.46502232142857,3.684983974358964,-9.693700425731672,13.930153160882334,-0.1145470150614951,31.20756581903136,37.62922694461916,36.38323299487824,1577397488.999,-27.71825042601516,-51.11680045993364,3.721591
43193,1577397489.66,-0.0922059614972368,-1.5525521838676632,9.701129941465796,-0.8305251978432253,-1.1232309495879378,6.871767530785537,1.7695430460611978,0.1009555033365884,12.39740421549479,-7.240481492949695,-3.977705792682927,0.8805437785823171,-2.805942442358994,-2.3859535775533534,2.1539083341272867,-3.5456702822730657,21.15994408017113,3.797803606305804,-0.2469546204405695,14.063102106227102,3.412022198480529,-9.954913315850812,19.40661651234568,-4.081643637950804,31.111720130589752,37.58130410039836,36.479078683319855,1577397488.999,-27.71825042601516,-51.11680045993364,3.721591
43194,1577397489.67,-0.3076841109112992,-2.122372178984851,9.954915317442358,1.8545719640220084,-2.286812956423875,9.376102467308971,3.558011686197916,-3.0653761922200515,14.904133353678384,-4.280276414824695,-1.200606183307927,1.4603777629573171,-2.287143614233994,2.634188024009146,1.9402852872522869,-4.690079461960566,43.69717552548363,3.2027108328683034,-0.7408638613217086,12.46502232142857,3.684983974358964,-9.693700425731672,23.422689636752136,-5.404009178913907,31.20756581903136,37.43753556773595,36.38323299487824,1577397488.999,-27.71825042601516,-51.11680045993364,3.721591
43195,1577397489.68,1.5957062089129184,-1.4711493274223508,11.908583872129858,4.46425177359232,-0.7617064989043438,9.203719947777724,6.615407206217448,5.27123398844401,13.896174454752602,-4.432864305449695,-1.444746808307927,1.4908953410823171,1.0392724013910062,-3.316739710365854,2.3980489591272867,-1.9434974307105648,48.97671654110863,-3.8773672921316966,-0.7408638613217086,11.18655849358974,1.5012897673314385,-4.991868403587155,-50.327016829621,-4.816291160708081,30.92002875370653,37.53338125617755,36.28738730643664,1577397488.999,-27.71825042601516,-51.11680045993364,3.721591
43196,1577397489.69,1.1455962968035434,0.1317686840522579,14.00829872808689,1.0189955846274772,2.23583397961128,10.683336573754286,5.133396378580729,8.127516569010416,11.082987504069008,2.1131562023628048,-2.9858845036204267,1.2925310832698171,-1.6767920517339938,-5.605558069740853,1.7266622403772869,-2.4928138369605657,53.12710716610863,-11.140550885881696,-0.7408638613217086,11.18655849358974,1.5012897673314385,-4.991868403587155,-50.327016829621,-4.816291160708081,31.27945008536257,37.43753556773595,36.19154161799503,1577397488.999,-27.71825042601516,-51.11680045993364,3.721591
43197,1577397489.7,1.9500480546160432,1.3971042614448357,16.819091477110327,2.3370035985434923,1.2769562147187026,12.520886347924208,0.8214391886393231,-7.370150777180989,11.706677036539713,1.4265106945503048,-6.571699933307927,1.2162371379573171,-1.9667090439214936,-8.809903772865853,-0.3790506502477132,-1.0127112978980657,57.97940208798363,-2.275194440569196,0.3457364686167981,12.784638278388275,0.6824044396960991,-9.759003648261462,-10.713931920702755,-23.255943981915784,31.20756581903136,37.62922694461916,36.479078683319855,1577397488.999,-27.71825042601516,-51.11680045993364,3.721591
43198,1577397489.71,1.6052830155535434,6.389014722870617,8.532759531309546,-1.7965855677162728,2.61890624523628,6.457570643578506,-5.870354451497396,-0.4892152058919267,-2.209620113118489,0.7246063976753049,-1.109053448932927,2.070729325457317,-0.8528174423589938,-0.5701576791158537,0.3533712247522866,-5.758194696335566,35.15225365048363,15.959058489118304,-0.1481727722643409,14.382718063186816,1.5012897673314385,-8.648848865255117,25.61327497733748,-41.25480828946912,31.20756581903136,37.62922694461916,36.33531015065744,1577397488.999,-27.71825042601516,-51.11680045993364,3.721591
43199,1577397489.72,5.0936348344012,0.4657598156440542,2.166577316954077,3.417985648104039,-2.4759548875762185,10.980217579613662,-2.1306114583333327,-1.3607046101888016,1.8078502726236976,-16.609377977324694,-13.956953839557928,-1.1336163776676829,1.6496239638910062,-5.880216272865853,1.8182149747522869,-4.537491571335566,9.853181384858631,16.599927629743302,0.2469546204405714,15.66118189102564,1.5012897673314385,-7.865210194897692,25.61327497733748,-35.377628107410885,31.111720130589752,37.43753556773595,36.38323299487824,1577397488.999,-27.71825042601516,-51.11680045993364,3.721591
43200,1577397489.73,4.132362867848466,-1.2425030688774297,4.189677719786109,-3.1684631189858043,0.0451394605683113,6.234909889183975,4.242753361002603,14.95099130045573,2.0305110270182287,-0.5876494616996952,-8.341719464557926,2.696339677019817,1.1613427138910062,-4.476407679115853,2.8863302091272867,-0.0819251650855654,-17.27694556826637,-6.471361432756696,-0.4445183167930248,14.063102106227102,1.774251543209873,-7.865210194897692,25.61327497733748,-35.377628107410885,31.063797286368946,37.43753556773595,36.52700152754066,1577397488.999,-27.71825042601516,-51.11680045993364,3.721591
43201,1577397489.74,4.552545259205888,-2.701768980742663,12.832745712950173,5.231593405672398,-2.3502593004180152,13.98853196559999,2.529702073160806,-3.618436775716146,15.148341923014325,4.142575147675305,2.0037395198170733,1.9486590129573167,-1.2800635361089938,-0.2802406869283516,2.901588998189787,-0.7533118838355656,-12.59249732607887,-12.773241315569194,-0.1481727722643409,15.021949977106228,3.139060422602083,-7.865210194897691,23.787787193516365,3.5586905987248967,31.111720130589752,37.653188366729566,36.33531015065744,1577397488.999,-27.71825042601516,-51.11680045993364,3.721591
43202,1577397489.75,3.784006526295732,2.7474339977729603,11.513540598204075,4.854506644197789,5.0298673170136246,9.452716920433971,-1.903162300618489,-12.03644981282552,18.861748697916667,2.9218720226753048,7.313798113567073,0.6669207317073171,-2.866977598608994,4.434725133384147,1.2994161466272869,-5.269913446335566,24.86782982235863,15.165601457868304,0.0493909240881142,14.382718063186816,3.139060422602083,-9.693700425731672,38.75678702084953,-5.697868188016817,31.01587444214814,37.43753556773595,36.33531015065744,1577397488.999,-27.71825042601516,-51.11680045993364,3.721591
43203,1577397489.76,3.0034967850847942,4.2078970104682725,18.77994263677829,7.907113760897007,4.299635810665968,15.893119386254286,-0.7659165120442701,8.055690519205728,15.567327213541663,-0.5571318835746951,0.3557903010670732,0.6058855754573171,-3.599399473608994,-2.248624475990854,-1.904929556497713,-8.047013055710565,43.75821068173363,24.717603410993306,0.7408638613217106,14.70233402014652,1.774251543209873,-6.03671996406371,29.99444565850816,-7.167163233531377,31.20756581903136,37.53338125617755,36.28738730643664,1577397488.999,-27.71825042601516,-51.11680045993364,3.721591
43204,1577397489.77,2.729360694996903,-0.4236861011039921,7.085464627745093,0.0301902989829459,2.202315156369093,14.70320116115663,-2.04920860188802,11.460245279947916,11.29846565348307,-8.491702196074694,4.201005144817073,0.0413103801448171,2.046352479516006,0.7420981802591463,1.9402852872522869,-6.093888055710566,53.76797630673363,6.803785051618304,-0.642082013145482,16.620029761904764,1.774251543209873,-6.03671996406371,29.99444565850816,-7.167163233531377,31.063797286368946,37.58130410039836,36.33531015065744,1577397488.999,-27.71825042601516,-51.11680045993364,3.721591
43205,1577397489.78,2.227775447194168,-2.2995431018364134,9.756196579649387,1.8234473424399769,-2.955992320437548,11.86128379055116,3.4311189982096346,10.78148910929362,5.0639645304361975,-5.745120164824695,6.459305926067073,0.1481219035823171,-4.942172911108994,5.869051305259148,0.5364766935022867,-0.3108070010230656,25.55447533017113,-20.78410557338169,-0.3457364686167981,11.18655849358974,3.684983974358964,-8.387635975135975,18.31132384205301,-0.9961240423702318,30.92002875370653,37.55734267828796,36.359271572767845,1577397488.999,-27.71825042601516,-51.11680045993364,3.721591
43206,1577397489.79,2.850267878834794,1.976501063202648,12.064206980040014,1.0118129796470083,3.34674354992378,8.959511378441785,-0.0620212239583327,-15.50804222005208,-3.23673262532552,0.1142548351753048,6.917069597942073,-0.3096417682926828,11.201625917016006,11.209627477134148,3.740822396627287,0.1622154599144345,-29.11776588076637,-9.706224714006696,0.4445183167930267,13.743486149267396,2.04721331908832,-9.693700425731672,16.120738501467667,-4.816291160708081,31.111720130589752,37.38961272351514,36.57492437176146,1577397488.999,-27.71825042601516,-51.11680045993364,3.721591
43207,1577397489.8,2.1308102799578403,2.554700764130382,7.868368570616186,5.110686221834508,-2.2078043016387188,-1.4217470199957127,1.975444388834635,-10.14024209798177,0.98903330485026,0.0379608898628047,4.445145769817073,0.5448504192073171,-0.6086768173589938,10.294100133384148,2.3675313810022867,-1.2415931338355657,-63.66366431826637,9.886060442243304,-0.5433001649692534,13.104254235347982,0.4094426638176581,-9.693700425731672,16.120738501467667,-4.816291160708081,31.20756581903136,37.43753556773595,36.38323299487824,1577397488.999,-27.71825042601516,-51.11680045993364,3.721591
43208,1577397489.81,-1.1624141035870803,-1.0952596667778198,6.990893662168921,-0.1302212122475228,4.724606605343702,8.949934571801162,0.7364450297037762,-1.8239826314290364,13.430502231852213,-5.928225633574695,2.6446086604420733,-0.2180890339176828,-4.057163145483994,-2.7216469369283525,-0.8520731111852132,-2.7216956728980657,-35.87740943545387,10.114942278180804,-1.4323367985553048,10.866942536630033,-0.409442663817664,-9.954913315850812,19.04151895558146,-7.020233728979919,31.25548866325217,37.58130410039836,36.52700152754066,1577397488.999,-27.71825042601516,-51.11680045993364,3.721591
43209,1577397489.82,0.7744950394793246,-0.3865759753715698,8.065890207579077,1.2991171788657585,-6.29949493884575,5.808741993676161,7.094247538248697,-1.0398815877278642,21.43551548258464,-4.280276414824695,3.1939250666920733,-1.1336163776676829,-6.376499082983994,-3.072599085365854,0.9637227872522868,-5.788712274460566,20.25967552548363,19.468579973493306,-0.2469546204405695,14.70233402014652,2.866098646723648,-9.563093980672102,20.13681162587413,-4.669361656156629,31.063797286368946,37.772995477281576,36.28738730643664,1577397488.999,-27.71825042601516,-51.11680045993364,3.721591
43210,1577397489.83,0.3004431107683872,-1.1239900866996948,14.764866452696264,-4.001645296720179,4.007543208126905,10.60432791896913,3.443090006510416,4.866613907877604,16.13954141031901,1.2739228039253048,1.118729754192073,-0.1875714557926828,-5.064243223608994,-6.704190882240853,-0.9894022127477132,-6.215958368210566,34.02310325985863,12.022290910993304,-0.0493909240881123,14.063102106227102,2.866098646723648,-10.607945541148668,15.755640944703456,-6.726374719877009,31.20756581903136,37.38961272351514,36.28738730643664,1577397488.999,-27.71825042601516,-51.11680045993364,3.721591
43211,1577397489.84,1.3658628495379188,0.0312122143256954,14.287223221495092,8.972533499666538,3.420963801388624,13.652146632348035,-3.078715315755208,16.64848027750651,10.256987931315102,-2.0067168445121952,1.347611590129573,-0.5385236042301829,-3.874057676733994,8.676668492759147,0.8111348966272867,-2.9505775088355657,39.33316185360863,-7.478441510881696,-0.1975636963524552,14.862141998626374,2.456655982905984,-10.607945541148668,15.755640944703456,-6.726374719877009,31.183604396920963,37.58130410039836,36.33531015065744,1577397488.999,-27.71825042601516,-51.11680045993364,3.721591
43212,1577397489.85,1.954836457936356,-2.488685032988757,9.727466159727514,-0.5276586878334603,-2.556160643191453,11.407582575951553,1.399638889567057,-1.902991286214192,13.200658872477211,-8.064456102324694,0.9966594416920732,1.0331316692073171,6.395107362328506,-7.7723061166158525,0.0787130216272868,0.6352379208519344,30.07107689267113,-25.621141706194194,-0.2469546204405695,15.341565934065931,2.866098646723648,-10.15082298344017,21.41465307454892,-25.60681605473908,31.20756581903136,37.48545841195676,36.45511726120945,1577397488.999,-27.71825042601516,-51.11680045993364,3.721591
43213,1577397489.86,2.5055028397722943,4.614911292694835,10.52234111089939,6.97337511343607,4.390615473751905,17.93537340236757,-3.212790608723957,-10.10193487141927,4.987350077311198,-0.7097197741996951,3.621171160442073,-0.0655011432926828,2.656704042016006,14.475008336509148,2.1539083341272867,-0.1734778994605654,18.48965599423363,-3.4806387765066966,0.0493909240881142,14.382718063186816,2.04721331908832,-23.276770711926964,16.850933614996126,-5.991727197119726,31.01587444214814,37.43753556773595,36.28738730643664,1577397488.999,-27.71825042601516,-51.11680045993364,3.721591
43214,1577397489.87,3.1016590531512005,4.033120289276867,12.634026975157202,2.2184906163657585,5.542226472287061,9.242027174340222,-1.405168355305989,2.788446866861979,1.9730501871744788,5.332760694550305,-6.510664777057927,-1.1946515339176829,3.389125917016006,-3.927091272865854,1.2688985685022869,0.3758385067894345,-16.45297095889137,13.029370989118304,-0.2469546204405695,12.145406364468858,2.866098646723648,-10.73855198620824,22.692494523223694,-7.167163233531377,31.20756581903136,37.58130410039836,36.57492437176146,1577397488.999,-27.71825042601516,-51.11680045993364,3.721591
43215,1577397489.88,1.4077613785906535,-0.7612685351860233,9.471286582090796,3.456292874666539,-1.183085991091844,5.569321827660537,5.636178727213541,9.91359100748698,6.950595438639322,-2.723879930449695,8.015702410442072,-1.8660382526676829,11.354213807641006,7.944246617759147,-1.2640604158727131,0.8946373349144345,-28.47689674014137,13.334546770368304,-0.2963455445286828,14.222910084706957,2.183694207027532,-10.73855198620824,22.692494523223694,-7.167163233531377,31.20756581903136,37.58130410039836,36.57492437176146,1577397488.999,-27.71825042601516,-51.11680045993364,3.721591
43216,1577397489.89,3.060957624928544,-6.700085753203601,2.8944146216415776,0.6083899999106802,-6.022964647097703,4.977954017601943,4.194869327799479,3.8155593790690094,9.448944871012367,-12.825198289824694,1.332352801067073,-1.2251691120426829,0.4746972060785062,-0.6769692025533536,0.2618184903772869,1.7186119442894343,-27.77499244326637,-0.0626700265066961,-0.5433001649692534,13.104254235347984,3.139060422602083,-6.428539299242426,31.454835885565064,-5.991727197119726,31.20756581903136,37.53338125617756,36.57492437176146,1577397488.999,-27.71825042601516,-51.11680045993364,3.721591
43217,1577397489.9,0.0562345414324496,-3.8438031726371946,6.840058957579077,2.156241373201696,2.6404540601776865,8.377720375023818,1.0680419596354165,-3.582523750813801,15.866602421061195,-1.0454131335746952,-1.780440167682927,0.1786394817073171,-3.660434629858994,3.946443883384146,-3.3697733064977133,2.1458580380394343,-9.952726818266369,-11.995043073381696,0.3457364686167981,14.063102106227102,1.774251543209873,-4.991868403587155,-50.327016829621,-7.167163233531377,31.25548866325217,37.53338125617755,36.52700152754066,1577397488.999,-27.71825042601516,-51.11680045993364,3.721591
43218,1577397489.91,-1.8734919966534864,3.932563819550304,13.89337704839939,4.404396732088414,-0.8095905321074689,12.665735548363662,0.615537845865885,-14.207990718587238,13.944058487955727,10.886959913300306,0.1421672541920732,1.1246844035823171,-1.9209326767339936,-3.164151819740854,-0.2264627596227133,-0.5396888369605655,-2.201261974516369,0.3645760672433036,-0.2469546204405695,15.341565934065931,2.3201750949667663,-5.514294183825433,-50.327016829621,-7.167163233531377,31.111720130589752,37.58130410039836,36.52700152754066,1577397488.999,-27.71825042601516,-51.11680045993364,3.721591
43219,1577397489.92,2.011100196950028,8.091292103241711,15.638750058653295,3.508965311189977,8.32069749889839,11.72361719509218,1.150641916910807,5.588465708414713,12.891806858317056,8.704953077362806,3.682206316692073,0.0718279582698171,-2.149814512671494,-1.3483559213033538,3.054176888814787,-0.6159827822730655,6.526765369233631,16.187940325055806,0.1481727722643429,13.7434861492674,2.04721331908832,-5.383687738765865,-12.35687092614176,-2.465419087884791,31.35133435169377,37.50941983406716,36.479078683319855,1577397488.999,-27.71825042601516,-51.11680045993364,3.721591
43220,1577397489.93,0.4919792435808871,-2.517415452910632,7.747461386778296,6.614244864412632,-4.793542094607468,9.866913807641003,1.4630852335611977,11.39320763346354,12.667949003092446,-15.846438524199694,-10.752608136432928,-0.5232648151676829,15.352016542016006,3.152986852134146,2.1539083341272867,0.9861900692894344,18.45913841610863,2.7449471609933034,0.4445183167930267,15.021949977106228,2.04721331908832,-6.428539299242429,-49.96191927285677,2.383254562313253,31.30341150747297,37.58130410039836,36.52700152754066,1577397488.999,-27.71825042601516,-51.11680045993364,3.721591
43221,1577397489.94,1.353891841237137,-12.228297386504378,2.973423276426734,-4.796520247892054,-7.704891313357469,8.83501289211366,-0.3804500447591139,1.5650098185221346,13.161154545084631,-15.297122117949694,-5.717207745807927,1.5824480754573171,-1.7378272079839938,-13.204435022865852,-4.651511587747713,4.556746709914434,16.65860130673363,-12.635912214006696,-1.135991254026621,16.300413804945048,2.593136870845201,-6.559145744302,-50.327016829621,2.2363250577617952,31.111720130589752,37.58130410039836,36.38323299487824,1577397488.999,-27.71825042601516,-51.11680045993364,3.721591
43222,1577397489.95,0.6906979813738559,-1.0425872302543822,12.119273618223607,5.223213699861852,4.735380512814405,10.695307582055069,0.3018974283854163,11.180123685709637,8.82286113688151,-2.0219756335746952,-3.855635480182927,-1.1336163776676829,4.213100526391006,7.852693883384147,-2.7594217439977133,7.486434209914434,15.834626697358631,-13.398851667131696,-0.7408638613217086,12.46502232142857,0.9553662155745456,-6.559145744302,-50.327016829621,2.2363250577617952,31.20756581903136,37.58130410039836,36.28738730643664,1577397488.999,-27.71825042601516,-51.11680045993364,3.721591
43223,1577397489.96,1.7740742325945589,3.004810676239757,13.448055539610326,2.6865570409263047,1.802483479123,8.837407093773818,-2.629802504475911,-7.196571156819662,8.855182859293619,24.39098823361281,-12.720991925495428,-1.2251691120426829,9.095913026391006,-3.4082924447408534,-1.6607889314977131,3.6107017880394334,12.386140369233631,-1.2528555733816962,9.43689570931383e-16,12.944446256868126,1.3648088793922095,-10.085519760910383,-20.38901717495468,-2.465419087884791,31.20756581903136,37.43753556773594,36.38323299487825,1577397488.999,-27.71825042601516,-51.11680045993364,3.721591
43224,1577397489.97,2.668308552662919,-0.321932530547351,11.254966818907205,2.347777506014196,0.0786582838104988,14.77981561428163,-2.542414143880208,0.542685709635416,8.212339713541667,2.1894501476753048,17.170975847942074,-0.7063702839176829,2.382045838891006,5.136629430259147,-1.813376822122713,4.465193975539434,1.552400134858631,12.754712785993304,0.2469546204405714,13.743486149267396,-0.1364808879392288,-8.126423085016839,-49.59682171609254,-5.991727197119726,31.111720130589752,37.58130410039836,36.52700152754066,1577397488.999,-27.71825042601516,-51.11680045993364,3.721591
43225,1577397489.98,-0.1688204146222368,1.155289893769054,13.898165451719702,0.2432742467368521,-1.0609817064238751,9.299488014183972,2.427948502604166,5.675854069010416,13.900962858072914,4.051022413300305,5.848954363567073,0.2701922160823171,6.166225526391006,-4.537442835365853,-0.4400858064977133,5.167098272414434,-3.299894787016369,4.331861223493304,0.3457364686167981,15.341565934065931,3.9579457502374105,-7.995816639957263,-49.23172415932832,-38.757006712094366,31.447180040135382,37.58130410039836,36.38323299487824,1577397488.999,-27.71825042601516,-51.11680045993364,3.721591
43226,1577397489.99,4.503464125172685,-3.59121489749071,8.393895835020484,5.632622183748571,1.093799787716749,11.617075221215224,0.41442490641276,0.5187436930338535,11.952082706705728,1.7622040539253048,-7.456709698932928,-0.8284405964176829,-0.1509131454839938,9.500643102134148,-5.689109243997713,6.754012334914434,5.061921619233631,-1.8632071358816964,-0.2963455445286828,14.542526041666669,2.7296177587844244,-10.08551976091039,-48.50152904579988,-39.05086572119728,31.11172013058975,37.62922694461916,36.28738730643664,1577397488.999,-27.71825042601516,-51.11680045993364,3.721591
43227,1577397490.0,1.277277388112137,1.880732996796398,10.36911220464939,0.7628160069907581,1.3595561719940932,13.740732093773817,-1.0244902913411458,3.57973051554362,14.66471318766276,16.258053663300306,26.53987233231708,-1.9881085651676829,10.026699159203506,-1.3330971322408536,-4.987204947122713,8.005233038039435,9.853181384858631,-1.0392325265066966,-0.9384275576741656,15.021949977106228,1.5012897673314385,-5.579597406355221,-11.4441270342312,-22.227437450055596,31.20756581903136,37.653188366729566,36.50304010543026,1577397489.999,-27.718252875263698,-51.116849625823264,4.21626
43228,1577397490.01,2.1176421708269806,2.2973240856635853,12.193493869688451,1.5433257482016958,-3.5796818529082497,14.162111585961318,-1.2830640706380203,1.4381171305338534,12.43571144205729,13.175778272675306,4.902909441692073,-0.3706769245426828,3.236538026391006,6.204744664634147,-5.322898306497713,8.646102178664435,22.64004661923363,5.247388567243304,-0.9384275576741656,15.021949977106228,1.5012897673314385,-6.559145744302,27.073665204394377,-4.816291160708081,31.39925719591458,37.62922694461916,36.19154161799503,1577397489.999,-27.718252875263698,-51.116849625823264,4.21626
43229,1577397490.02,2.242140657155106,-1.0042800036918822,10.610926572325171,2.4196035558188838,-1.1687207811309064,12.938674537621472,2.3728818644205725,8.398061356608071,8.49724971110026,9.727291944550306,6.703446551067073,0.6669207317073171,9.828334901391006,6.754061070884147,-1.7523416658727131,11.179061163039435,10.768708728608631,-5.861009870256696,0.7408638613217106,14.063102106227102,2.866098646723648,-6.559145744302,35.10581145320729,-44.48725738960115,31.063797286368946,37.58130410039836,36.33531015065744,1577397489.999,-27.718252875263698,-51.116849625823264,4.21626
43230,1577397490.03,4.325096101491044,-1.914076634551257,9.970477628233374,4.94309210562357,-2.6650968187285624,10.2284382583246,-0.0739922322591139,6.4587580118815096,6.737511490885416,5.943112257050305,8.183549090129572,-0.2486066120426828,12.452846620141006,14.719148961509148,-0.2569803377477133,11.545272100539435,0.2706618536086309,-14.344896589006696,-0.2469546204405686,14.702334020146518,3.4120221984805235,-6.559145744302,35.10581145320729,-43.89953937139533,31.08775870847935,37.38961272351514,36.81453859286549,1577397489.999,-27.718252875263698,-51.116849625823264,4.21626
43231,1577397490.04,2.0386335160418247,1.7251098888862415,6.265450559141578,1.5205808324302112,2.5937671278046395,5.234133595238662,-2.9542168294270827,-1.178745284016927,3.3700668558756512,8.750729444550306,7.344315691692073,0.3312273723323171,11.323696229516006,8.142610875571648,-1.9507059236852131,12.247176397414435,-23.80770728701637,-3.4348624093191966,0.4445183167930267,15.021949977106228,1.5012897673314385,-10.085519760910389,-11.991773369377537,-24.50484477060315,30.92002875370653,37.55734267828796,36.57492437176147,1577397489.999,-27.718252875263698,-51.116849625823264,4.21626
43232,1577397490.05,-0.3507797407941118,4.581392469452648,8.08983222418064,0.1451119786704459,1.926981965451124,9.495812550316783,-1.3788321370442702,-6.632736665852865,-0.3636906331380202,15.434079053925306,5.787919207317073,0.7279558879573171,8.607631776391006,5.197664586509147,-2.2101053377477133,10.965438116164435,-55.11874244326637,1.5852791922433036,-0.1481727722643409,11.18655849358974,2.04721331908832,-6.428539299242429,23.057592079987923,3.558690598724898,31.20756581903136,37.43753556773595,36.52700152754066,1577397489.999,-27.718252875263698,-51.116849625823264,4.21626
43233,1577397490.06,1.2102397416277622,1.1481072887885857,9.643669101622043,-1.291409017423304,-1.9157116990996563,3.0554100844964736,1.5013924601236974,-1.0255163777669267,0.7544015421549476,11.558346632050306,4.109452410442073,0.5143328410823171,13.978725526391006,10.538240758384148,-0.5621561189977133,11.240096319289435,-77.06088111514137,11.259351457868304,-0.1481727722643409,11.18655849358974,2.04721331908832,-6.428539299242429,23.057592079987923,3.558690598724898,31.20756581903136,37.58130410039836,36.28738730643664,1577397489.999,-27.718252875263698,-51.116849625823264,4.21626
43234,1577397490.07,1.3503005387469027,0.2598584728706172,7.528391934874,2.570438260408727,1.5510923048065928,1.18075018459413,6.668079642740885,2.635217960611979,2.013751615397135,8.033566358612806,5.498002215129573,1.4451189738948171,4.548793885766006,5.991121617759147,-0.6537088533727133,11.453719366164435,-100.46786353701636,9.336744035993304,0.0987818481762295,14.862141998626374,2.183694207027532,-5.383687738765862,23.057592079987923,3.558690598724898,31.20756581903136,37.62922694461916,36.52700152754066,1577397489.999,-27.718252875263698,-51.116849625823264,4.21626
43235,1577397490.08,-0.6476607466534868,2.060298121308117,8.305310373594702,1.2871461705649767,1.1356983167694836,4.31595725856874,4.093115757242838,2.477200651041666,6.86919258219401,5.760006788300305,0.9966594416920732,0.8195086223323171,10.286098573266006,1.2914145865091464,-1.2030252596227131,12.598128545851935,-103.51962134951636,5.064283098493304,0.2469546204405714,14.382718063186816,2.04721331908832,-7.538694082248767,29.081701766597604,-6.359050958498368,31.30341150747297,37.46149698984635,36.50304010543026,1577397489.999,-27.718252875263698,-51.116849625823264,4.21626
43236,1577397490.09,0.0777823563738559,-1.3538334460746946,3.413956381895484,-2.38555917611471,-4.673832011599656,3.6372010879144425,3.0672003458658845,2.572968717447917,8.475701896158853,1.8232392101753048,-0.1019733708079267,1.4908953410823171,1.9853173232660064,-3.957608850990854,-2.9425272127477133,11.056990850539435,-87.77255103701637,-1.9242422921316964,-0.2469546204405695,13.42387019230769,2.866098646723648,-10.73855198620824,14.660348274410776,2.2363250577617952,31.063797286368946,37.38961272351514,36.38323299487824,1577397489.999,-27.718252875263698,-51.116849625823264,4.21626
43237,1577397490.1,1.0043383988543246,-0.8366858874809447,5.769850815489233,1.4068562535727895,3.0738045606659674,5.971547706566787,-0.3684790364583327,-2.0502346883138016,11.719845145670572,3.4711884289253048,-2.5738971989329267,1.8876238567073167,4.853969667016006,-6.765226038490853,-1.4776834627477131,8.340926397414435,-72.26962134951637,0.6392342703683036,-0.2469546204405695,13.42387019230769,2.866098646723648,-10.216126205969957,14.660348274410776,2.2363250577617952,30.92002875370653,37.43753556773595,36.52700152754066,1577397489.999,-27.718252875263698,-51.116849625823264,4.21626
43238,1577397490.11,-0.0311538191632529,3.2394424389350696,8.687185538389624,-0.8724237268959604,1.907828352169874,6.85620521999452,1.0417057413736974,-6.161078938802083,7.401902451578776,6.370358350800305,-2.4365680973704267,1.4603777629573171,7.524257752953506,0.9252036490091464,0.8111348966272867,5.762191045851934,-65.95248267764137,2.363477434430804,9.43689570931383e-16,12.62483029990842,1.63777065527065,-10.60794554114867,14.295250717646557,-6.873304224428464,31.063797286368946,37.67714978883997,36.52700152754066,1577397489.999,-27.718252875263698,-51.116849625823264,4.21626
43239,1577397490.12,0.3076257157488559,4.066639112519054,8.460933481504858,1.756409695955602,2.4561005323456557,9.728050111351942,2.708070096842447,4.114834586588541,14.209814872233071,5.790524366425305,-0.0104206364329267,0.4532976848323171,1.5275536513910062,-4.476407679115853,0.5669942716272867,5.319686163039434,-57.10238502139137,15.135083879743304,0.1481727722643429,13.42387019230769,1.2283279914529803,-10.216126205969957,19.77171406910991,-5.991727197119726,31.20756581903136,37.43753556773595,36.52700152754066,1577397489.999,-27.718252875263698,-51.116849625823264,4.21626
43240,1577397490.13,-0.9038403242902056,3.934958021210461,10.507975900938453,-0.3552761683022103,4.18950253429878,8.13351180568788,1.7719372477213535,9.42756807047526,17.669436271158855,3.3796356945503048,-4.862715558307927,1.5519304973323171,-0.0288428329839938,-7.802823694740853,-0.0433572908727133,3.5191490536644343,-29.17880103701637,6.864820207868304,-0.0493909240881123,15.341565934065931,2.866098646723648,-10.216126205969957,19.77171406910991,-5.991727197119726,31.25548866325217,37.58130410039836,36.479078683319855,1577397489.999,-27.718252875263698,-51.116849625823264,4.21626
43241,1577397490.14,-0.4920376387433305,2.388303748749523,8.901466586973607,-1.2363423792397104,-5.384909904666063,11.059226234398816,3.519704459635416,3.3199596354166667,16.283193509928385,-0.2214385241996951,-7.029463605182927,0.9110613567073172,6.868129823266006,-2.035001429115854,1.1468282560022869,1.5355064755394343,-2.567472912016369,-1.5885489327566964,-0.0493909240881123,15.341565934065931,2.866098646723648,-10.216126205969957,19.77171406910991,-7.167163233531377,31.111720130589752,37.53338125617755,36.33531015065744,1577397489.999,-27.718252875263698,-51.116849625823264,4.21626
43242,1577397490.15,1.6244366288347931,-4.501011528350085,9.996813846495092,3.118710440584508,-2.9128966905547347,6.388138795433974,2.538081778971354,0.875479740397135,11.38226271158854,-4.844851610137195,-7.639815167682928,2.772633622332317,-1.4784277939214938,-4.308560999428353,1.1468282560022869,2.2679283505394343,19.71035911923363,-6.654466901506696,0.2469546204405704,12.784638278388275,3.684983974358976,-10.477339096089098,19.40661651234569,-20.978536661368217,30.99191302003774,37.55734267828795,36.50304010543026,1577397489.999,-27.718252875263698,-51.116849625823264,4.21626
43243,1577397490.16,-0.0491103316144243,4.116917347382335,10.531917917540015,-1.521252376798304,10.182189289669871,11.344136231957412,-3.3971441365559887,2.987165604654948,13.108482108561196,5.393795850800305,-7.548262433307927,2.650563309832317,0.4289208388910062,-14.242032679115852,0.5669942716272867,2.7562096005394343,27.33975365048363,6.162915910993304,-0.7408638613217086,13.104254235347984,0.4094426638176527,-5.514294183825433,-50.327016829621,-39.49165423485165,31.25548866325217,37.53338125617755,36.33531015065744,1577397489.999,-27.718252875263698,-51.116849625823264,4.21626
43244,1577397490.17,-0.8751099043683306,11.213331068085465,10.153634055235328,-2.9218603479897105,9.937980720333936,12.522083448754286,-1.4937538167317703,-3.079741402180989,6.347256620279947,20.805172803925306,2.1563274104420733,2.711598466082317,-0.9443701767339938,-5.361417444740853,-2.7899393221227133,-1.5467689150855657,38.81436302548363,5.644117082868304,-0.642082013145482,12.784638278388275,4.503869301994293,-5.514294183825433,-50.327016829621,-39.49165423485165,31.20756581903136,37.725072633060776,36.19154161799503,1577397489.999,-27.718252875263698,-51.116849625823264,4.21626
43245,1577397490.18,3.739713795582841,-0.5170599658500858,6.34685341558689,2.235250027986852,-3.335473283572312,8.87332011867616,1.50618086344401,-0.8818642781575518,5.995308976236979,-9.697146532012193,-16.18473704268293,0.8195086223323171,4.945522401391006,-7.619718225990853,3.3135763028772867,-4.049210321335566,42.26284935360863,11.961255754743304,-0.49390924088114,14.222910084706957,4.640350189933516,-10.73855198620824,24.152884750280595,-40.07937225305747,31.15964297481056,37.62922694461916,36.38323299487824,1577397489.999,-27.718252875263698,-51.116849625823264,4.21626
43246,1577397490.19,6.467906587330887,-8.134212547637194,2.8656842017197026,1.8569661656821643,-4.719321843142625,4.720577339135146,4.843697977701822,6.838238975016276,3.00016269938151,-14.747805711699694,22.96931569169208,2.864186356707317,-2.531284239233994,1.2608970083841475,4.427467904439787,0.6352379208519344,16.47549583798363,-10.682787214006696,0.3457364686167981,15.341565934065931,1.2283279914529803,-8.64884886525512,-13.087066039670203,-23.476338238742965,31.20756581903136,37.60526552250876,36.479078683319855,1577397489.999,-27.718252875263698,-51.116849625823264,4.21626
43247,1577397490.2,4.638736518971513,1.344431824921398,5.238338046934547,5.745149661775914,5.171125214962843,20.964038502465225,-0.9718178548177075,-5.483519868977865,8.86116836344401,4.813961866425305,4.994462176067073,3.749196122332317,-3.019565489233994,-3.377774866615854,2.2759786466272867,1.9932701474144343,-18.19247291201637,-6.868089948381696,-0.0493909240881123,14.063102106227102,2.3201750949667663,-6.559145744302,-50.327016829621,-1.8777010696789656,31.111720130589752,37.58130410039836,36.52700152754066,1577397489.999,-27.718252875263698,-51.116849625823264,4.21626
43248,1577397490.21,0.5925357133074496,7.399367823456554,14.223776877500953,-0.5468123011147104,9.643493916134718,11.904379420433974,-2.650153218587239,-4.911305672200521,8.224310721842448,11.771969678925306,-16.673018292682926,1.0636492473323171,13.185268495141006,-0.9668861947408536,1.5435567716272869,0.6199791317894345,-23.22787330264137,12.724195207868304,0.1481727722643429,14.063102106227102,2.3201750949667663,-6.559145744302,21.2321042961668,0.4731710031443245,31.111720130589752,37.725072633060776,36.38323299487824,1577397489.999,-27.718252875263698,-51.116849625823264,4.21626
43249,1577397490.22,-1.0965735579327835,2.4744950085151483,10.601349765684546,2.2807398595298207,1.2494228956269051,8.320259535180067,0.6658160807291663,2.438893424479166,10.599358768717446,11.039547803925306,13.157914324504574,2.147023270769817,1.4665184951410062,2.725740758384146,2.0928731778772867,-1.9740150088355648,-11.203947521391369,18.247876848493306,0.0493909240881152,14.702334020146516,2.866098646723648,-8.387635975135975,23.422689636752136,-5.991727197119726,31.11172013058975,37.725072633060776,36.479078683319855,1577397489.999,-27.718252875263698,-51.116849625823264,4.21626
43250,1577397490.23,0.3962111771746371,-8.292229857207507,6.222354929258765,1.9623110387290392,-2.298783964724656,4.288423939476942,5.16452100016276,6.555723179117837,12.653583793131508,-26.16137993044969,-21.46427805830793,2.070729325457317,-0.4103125595464938,-2.8894936166158525,1.406227670064787,0.6810142880394343,0.9267897832961308,4.514966692243304,-0.0493909240881123,13.42387019230769,1.774251543209873,-6.820358634421133,-11.626675812613303,-5.991727197119726,31.20756581903136,37.50941983406716,36.40719441698865,1577397489.999,-27.718252875263698,-51.116849625823264,4.21626
43251,1577397490.24,1.823155366627762,3.0969874401557727,6.358824423887671,4.562414041658727,0.3875102979706551,8.523766676293349,3.1438147989908845,8.587203287760415,7.278601066080728,-7.484622117949695,-6.724287823932927,0.6058855754573171,4.457241151391006,-13.723233850990852,-2.0575174471227133,3.1529381161644343,-1.835051037016369,-10.621752057756696,-0.2469546204405695,12.784638278388275,0.6824044396960991,-10.477339096089098,-50.327016829621,-5.991727197119726,31.063797286368946,37.62922694461916,36.57492437176146,1577397489.999,-27.718252875263698,-51.116849625823264,4.21626
43252,1577397490.25,-0.0874175581769243,2.915028113983898,12.167157651426733,-4.652868148282679,2.1520369215058115,7.3242716445550675,-1.816971040852864,-2.636814095052083,9.452536173502605,3.8373993664253048,-6.937910870807927,1.0026140910823171,-3.233188536108994,-14.394620569740852,0.3228536466272866,1.0472252255394343,2.681550525483631,-9.462084089006696,0.4445183167930267,13.104254235347984,2.593136870845201,-10.73855198620824,-50.327016829621,-5.991727197119726,31.20756581903136,37.58130410039836,36.52700152754066,1577397489.999,-27.718252875263698,-51.116849625823264,4.21626
43253,1577397490.26,2.5557810746355747,2.871932484101085,7.686409244444312,-1.1262091028725227,2.1807673414276865,14.267456459008192,-4.0938568196614575,-12.697249471028645,8.217128116861979,-0.6944609851371951,-3.4589069645579267,1.5519304973323171,6.227260682641006,-2.645352991615854,1.2994161466272869,-1.7909095400855657,4.756745837983631,4.514966692243304,0.2469546204405704,14.702334020146516,2.593136870845201,-10.73855198620824,22.692494523223694,-5.991727197119726,31.08775870847935,37.62922694461916,36.19154161799503,1577397489.999,-27.718252875263698,-51.116849625823264,4.21626
43254,1577397490.27,3.6188066117449504,1.4809013195503042,8.178417685606421,3.939921610018102,0.0092264356659681,2.918940589867568,5.412320871988932,1.7792908671061198,8.31768458658854,-0.8012725085746951,-4.710127667682927,1.6740008098323171,-2.912753965796494,2.329012242759146,4.519020638814787,-2.7064368838355657,6.206330798921131,10.435376848493304,-0.0493909240881123,14.70233402014652,3.9579457502374105,-10.673248763678457,-17.28568794245877,-7.0936984812556485,31.39925719591458,37.53338125617755,36.28738730643664,1577397489.999,-27.718252875263698,-51.116849625823264,4.21626
43255,1577397490.28,4.803936433522294,-0.0082921130668822,7.800133823301734,3.338976993318883,4.1128880811737805,6.740086439476943,2.746377323404947,12.53045342203776,12.572180936686197,-1.9304228991996952,-25.73673899580793,1.8571062785823167,0.1237450576410061,-6.765226038490853,2.3980489591272867,-1.9740150088355648,21.90762474423363,-1.4969961983816964,0.7408638613217106,14.063102106227102,4.503869301994293,-9.563093980672102,-49.96191927285677,-7.020233728979919,31.20756581903136,37.58130410039836,36.33531015065744,1577397489.999,-27.718252875263698,-51.116849625823264,4.21626
43256,1577397490.29,4.167078791920732,2.3906979504096797,8.695565244200171,5.180118069979039,8.32668300304878,17.152469459496473,0.2204945719401038,-3.0342515706380206,15.272840409342448,0.6330536633003049,-8.433272198932928,0.5143328410823171,-7.078403379858994,2.786775914634146,-3.919089712747713,-2.4012611025855657,25.23404075985863,-6.593431745256696,0.0493909240881142,15.66118189102564,-0.1364808879392288,-8.779455310314688,-49.23172415932832,-1.7307715651275075,31.20756581903136,37.62922694461916,36.52700152754066,1577397489.999,-27.718252875263698,-51.116849625823264,4.21626
43257,1577397490.3,1.3299498246355743,-0.6786685779106326,10.767746781065403,1.841403854891149,-2.8111431199980936,6.285188124047254,3.496959543863932,-0.145647267659505,10.32881398111979,-1.9609404773246952,9.556840105754572,-0.5842999714176828,0.2610741592035062,-0.3412758431783537,0.6890645841272867,-3.8203284853980657,34.96914818173363,-2.4888174874441966,0.0987818481762285,15.18175795558608,0.8188853276353222,-10.477339096089098,-48.8666266025641,-2.4654190878847912,31.15964297481056,37.50941983406716,36.43115583909905,1577397489.999,-27.718252875263698,-51.116849625823264,4.21626
43258,1577397490.31,-0.9565127608136432,-2.8406326770317256,9.923790695860328,-1.5380117884193978,-1.4751785936309063,13.257103358422254,1.2619722941080724,-5.117207014973959,8.138119462076823,-5.653567430449695,-4.343916730182927,0.9720965129573172,0.3984032607660062,-3.835538538490854,0.4449239591272866,-1.6383216494605657,30.17788841610863,3.0501229422433034,-0.3457364686167981,15.66118189102564,3.139060422602083,-6.297932854182853,-48.8666266025641,-7.167163233531377,31.20756581903136,37.725072633060776,36.33531015065744,1577397489.999,-27.718252875263698,-51.116849625823264,4.21626
43259,1577397490.32,2.0793349442644806,2.7570108044135853,10.615714975645483,0.7149319737876334,2.3435730543183118,11.27470438381288,0.8429870035807288,2.477200651041666,4.309791007486979,-6.080813524199695,-3.886153058307927,-0.3096417682926828,-4.148715879858994,-1.0279213509908536,1.0552755216272869,-2.1876380557105657,18.91690208798363,4.209790910993304,-0.0493909240881123,15.980797847985349,2.866098646723648,-5.514294183825433,-50.327016829621,-5.991727197119726,31.111720130589752,37.62922694461916,36.33531015065744,1577397489.999,-27.718252875263698,-51.116849625823264,4.21626
43260,1577397490.33,2.7185867875262004,5.996365650604992,9.380306919004855,4.162582364412633,3.353926154904249,6.134353419457412,-0.3158065999348952,6.42045078531901,4.240359159342448,0.1752899914253048,-5.198408917682927,1.5214129192073171,-2.470249082983994,-5.758145960365853,2.7337423185022867,-2.7674720400855657,1.430329822358631,1.1885506766183036,0.0493909240881142,13.743486149267396,4.776831077872739,-10.346732651029528,-48.50152904579988,-2.318489583333339,31.20756581903136,37.725072633060776,36.57492437176146,1577397489.999,-27.718252875263698,-51.116849625823264,4.21626
43261,1577397490.34,3.818722450367997,0.3795685558784298,7.231510929014624,2.125116751619664,0.9357824781464368,8.290332014428115,0.7843290629069011,-4.09488290608724,6.896725901285807,-4.585452196074694,-8.158613995807928,0.5448504192073171,1.4512597060785062,4.709383336509147,2.7032247403772867,-4.323868524460566,-15.27804420107887,-2.3972647530691966,-0.0493909240881133,14.063102106227106,4.230907526115852,-7.342784414659413,27.80386031792282,-22.44783170688278,31.27945008536257,37.36565130140474,36.43115583909905,1577397489.999,-27.718252875263698,-51.116849625823264,4.21626
43262,1577397490.35,3.901322407643388,0.2215512463081167,5.073138132383765,5.635016385408727,3.0067669141815925,4.135195033226943,3.060017740885416,-0.683145540364583,9.782936002604163,-8.125491258574694,-0.6818073551829268,-0.5842999714176829,-15.196079161108994,2.329012242759146,1.3909688810022869,-5.544571649460566,-8.457365490141369,3.4773690359933034,0.3457364686167981,15.980797847985349,1.774251543209873,-5.514294183825433,28.534055431451264,-38.90393621664583,31.111720130589752,37.58130410039836,36.28738730643664,1577397489.999,-27.718252875263698,-51.116849625823264,4.21626
43263,1577397490.36,2.720980989186357,2.962912147187023,10.19672968511814,2.3142586827720084,2.511167170529249,9.840577589379286,3.8812289103190096,0.628876969401041,11.717450944010414,0.5720185070503049,1.332352801067073,-1.4387921589176829,-8.970493223608994,-3.499845179115854,2.0318380216272867,-6.338028680710566,4.787263416108631,1.1275155203683036,-0.1481727722643409,17.57887763278388,2.593136870845201,-5.514294183825433,-50.327016829621,-34.20219207099924,31.01587444214814,37.53338125617755,36.38323299487824,1577397489.999,-27.718252875263698,-51.116849625823264,4.21626
43264,1577397490.37,0.4225473954363559,0.6860263683784298,13.1595542395615,-0.3313341517006478,0.7562173536347175,9.028943226586316,1.8772821207682289,5.857813395182291,12.644006986490885,-1.2895537585746952,18.10176198075457,-0.0502423542301828,4.670864198266006,3.915926305259146,-2.6983865877477133,-5.330948602585566,11.653718494233631,0.8223397391183036,-0.4445183167930248,15.341565934065931,2.866098646723648,-5.906113519004145,24.517982307044807,-6.138656701671178,31.11172013058975,37.53338125617755,36.38323299487824,1577397489.999,-27.718252875263698,-51.116849625823264,4.21626
43265,1577397490.38,-0.3459913374737993,2.780952821015148,17.575659201719702,0.8059116368735714,0.10379740124214,9.965076075707412,2.460270225016276,1.1220825113932291,11.097352714029943,-5.714602586699695,-1.536299542682927,0.9110613567073172,-9.992832090796496,0.6200278677591466,2.7642598966272867,-6.597428094773066,7.716950916108631,-1.2833731515066966,-0.4445183167930248,15.341565934065931,2.866098646723648,-7.473390859718984,28.534055431451268,-0.7022650332673206,31.20756581903136,37.46149698984635,36.38323299487825,1577397489.999,-27.718252875263698,-51.116849625823264,4.21626
43266,1577397490.39,1.717810493580887,-0.0130805163871947,13.098502097227517,4.804228409334508,0.6724202955292489,5.674666700707411,3.775884037272135,-1.0159395711263015,8.423029459635416,-14.167971727324694,-9.898115948932928,0.1176043254573171,-2.531284239233994,10.202547399009148,4.839455209127287,-6.276993524460566,4.482087634858631,2.5008065359933034,-0.1481727722643409,15.021949977106228,0.9553662155745456,-10.73855198620824,27.803860317922823,-4.816291160708081,31.30341150747297,37.58130410039836,36.28738730643664,1577397489.999,-27.718252875263698,-51.116849625823264,4.21626
43267,1577397490.4,1.4281120927019808,-2.35939814334032,8.001246762754858,2.223279019686071,-0.4767965013457501,9.016972218285536,2.679339676920572,0.5785987345377598,11.29367725016276,-11.909670946074694,1.210282488567073,1.0636492473323171,-6.010288145483994,-2.340177210365854,2.5201192716272867,-5.178360711960566,8.052644275483631,3.813062395368304,0.7408638613217106,13.42387019230769,1.774251543209873,-10.73855198620824,31.454835885565064,-6.579445215325552,31.111720130589752,37.341689879294336,36.28738730643664,1577397489.999,-27.718252875263698,-51.116849625823264,4.21626
43268,1577397490.41,1.170735414235184,2.9293933239448355,8.13532205572361,-0.1350096155678343,2.092181880001905,6.172660646019912,-0.4857949178059889,5.268839786783854,9.40225793863932,-8.156008836699694,-2.8180378239329267,0.0718279582698171,-9.367221739233994,-5.666593225990853,0.7195821622522867,-7.131485711960566,13.332185291108631,1.0664803641183036,-0.0493909240881123,14.063102106227102,2.866098646723648,-5.383687738765862,24.517982307044807,-5.844797692568268,31.20756581903136,37.53338125617755,36.28738730643664,1577397489.999,-27.718252875263698,-51.116849625823264,4.21626
43269,1577397490.42,1.3275556229754184,2.630118116425304,11.233419003965796,-0.3002095301186165,0.418634919552687,9.67896897731874,1.0680419596354165,1.1520100321451816,7.850815262858072,-3.7309600085746952,0.4168254573170732,1.7045183879573171,-5.857700254858994,-2.5690590463033534,2.230202279439787,-8.077530633835565,16.99429466610863,-2.7329581124441966,-0.0493909240881123,14.063102106227102,2.866098646723648,-10.73855198620824,16.850933614996126,2.2363250577617952,31.063797286368946,37.58130410039836,36.28738730643664,1577397489.999,-27.718252875263698,-51.116849625823264,4.21626
43270,1577397490.43,4.607611897389481,-0.9970973987114136,10.02434716558689,0.9256217198813832,-4.482295878787156,10.913179933129287,4.771871927897134,-2.8594748494466145,10.819625321451822,-7.118411180449695,-4.984785870807927,2.528492997332317,-6.223911192358994,1.1083091177591464,7.738625131002287,-8.352188836960565,12.843904041108631,2.1651131766183034,0.1481727722643429,15.980797847985349,1.2283279914529803,-10.73855198620824,13.930153160882334,2.5301840668647047,31.111720130589752,37.62922694461916,36.479078683319855,1577397489.999,-27.718252875263698,-51.116849625823264,4.21626
43271,1577397490.44,0.8989935258074496,-2.955554356719226,11.379465305235328,4.308628665682164,0.7442463453339363,12.15577059475038,0.9363608683268224,-4.133190132649739,14.494724869791664,-8.949465867949694,10.060380144817072,2.406422684832317,-5.705112364233994,-3.652433069740854,5.236183724752287,-10.152725946335565,12.325105212983631,6.407056535993304,0.2469546204405714,15.66118189102564,3.139060422602083,-9.95491331585082,18.31132384205301,-5.404009178913907,31.063797286368946,37.725072633060776,36.479078683319855,1577397489.999,-27.718252875263698,-51.116849625823264,4.21626
43272,1577397490.45,0.0466577347918251,-1.8937259204399293,13.710220621397436,0.971111551424352,-1.374622123904344,14.970154646264051,1.7815140543619783,2.8518932108561192,15.890544437662758,-10.811038133574694,-0.4681843083079268,2.177540848894817,-0.7002295517339938,-3.972867640053354,3.237282357564787,-6.963639032273065,23.37246849423363,2.6686532156808034,-0.0493909240881123,13.42387019230769,2.866098646723648,-10.085519760910383,16.485836058231897,-7.020233728979919,31.20756581903136,37.48545841195676,36.71869290442388,1577397489.999,-27.718252875263698,-51.116849625823264,4.21626
43273,1577397490.46,1.555004780690262,2.6061760998237418,15.473550144102514,5.800216299959508,4.946070258908155,14.985716957055068,4.5228749552408845,5.510654154459635,17.0373670328776,-0.6486846179496951,-3.3673542301829267,2.192799637957317,-3.080600645483994,-0.9363686166158536,3.2525411466272867,-4.781632196335566,34.81656029110863,0.7307870047433036,-0.0493909240881123,13.42387019230769,2.866098646723648,-9.693700425731672,16.120738501467667,-5.991727197119726,31.20756581903136,37.43753556773595,36.38323299487824,1577397489.999,-27.718252875263698,-51.116849625823264,4.21626
43274,1577397490.47,0.2453764725847934,2.723491981171398,16.665862570860327,4.153005557772008,5.479977229123,14.552366456566784,0.1486685221354163,-0.6975107503255205,11.659990104166663,1.2739228039253048,-3.2452839176829267,1.5519304973323171,-2.226108457983994,-12.868741663490852,4.839455209127287,-4.354386102585566,34.75552513485863,6.651197160993304,-0.642082013145482,13.42387019230769,3.412022198480529,-9.95491331585082,18.31132384205301,-5.404009178913907,31.111720130589752,37.58130410039836,36.479078683319855,1577397489.999,-27.718252875263698,-51.116849625823264,4.21626
43275,1577397490.48,-1.195932926829268,-0.4320658069145385,13.462420749571264,-2.052765145352992,-2.3562448045684063,5.531014601098037,-0.7850701253255201,-1.0446699910481767,5.423094779459635,-5.623049852324695,-5.228926495807927,1.5214129192073171,7.539516542016006,3.244539586509146,0.1702657560022866,-4.476456415085566,13.942536853608631,6.803785051618304,-0.1481727722643409,14.382718063186816,3.139060422602083,-9.95491331585082,-48.13643148903565,-5.404009178913907,31.20756581903136,37.58130410039836,36.479078683319855,1577397489.999,-27.718252875263698,-51.116849625823264,4.21626
43276,1577397490.49,1.3933961686297152,-2.0242099109184446,5.465787204649391,-1.8468638025795543,-2.4376476610137194,8.307091426049208,-0.4582615987141926,4.90132983194987,2.6362440470377595,-11.345095750762194,-6.998946027057927,1.9791765910823167,-3.156894590796494,-7.2840248666158525,0.9026876310022868,-3.988175165085565,0.2096266973586313,-3.663744245256696,-0.5433001649692534,15.021949977106228,3.139060422602083,-8.45293919766576,23.97033597189848,-41.181343537193385,31.25548866325217,37.50941983406716,36.35927157276784,1577397489.999,-27.718252875263698,-51.116849625823264,4.21626
43277,1577397490.5,3.2261575394793254,6.015519263886242,1.0029953101181397,1.4451634801352895,4.716226899533155,7.161465931664443,0.4575205362955725,-0.1923342000325517,4.922706632486979,5.088620069550305,-12.949873761432928,3.535573075457317,0.0627099013910061,-0.2954994759908537,4.869972787252287,-1.4246986025855657,-23.74667213076637,3.996167864118304,-0.5433001649692534,15.021949977106228,3.139060422602083,-9.693700425731672,22.692494523223694,-39.78551324395456,31.20756581903136,37.43753556773595,36.479078683319855,1577397489.999,-27.718252875263698,-51.116849625823264,4.21626
43278,1577397490.51,2.313966706959793,4.564633057831554,12.928513779356422,3.9878056432212263,-0.2756835618926251,10.951487159691789,0.7256711222330725,-6.309519441731771,12.181926066080727,16.013913038300306,-20.76237376143293,2.742116044207317,2.290493104516006,-0.0513588509908536,6.884132943502287,-3.4693763369605657,-16.45297095889137,9.153638567243304,-0.4445183167930248,14.063102106227102,0.6824044396960991,-22.754344931688685,-48.13643148903565,-1.8777010696789656,31.111720130589752,37.38961272351514,36.479078683319855,1577397489.999,-27.718252875263698,-51.116849625823264,4.21626
43279,1577397490.52,2.0529987260027625,-4.675788249541492,13.536641001036108,1.220108524080602,-0.1559734788848126,10.731220606957413,0.8310159952799475,3.8538666056315103,21.725213883463542,0.1447724133003047,14.576981707317074,2.345387528582317,0.3068505263910062,-7.284024866615853,3.862892709127287,-2.7064368838355657,8.876618884858631,9.977613176618304,-0.4445183167930257,14.382718063186813,1.5012897673314267,-6.559145744302,24.152884750280595,-6.285586206222642,31.23152724114176,37.725072633060776,36.57492437176146,1577397489.999,-27.718252875263698,-51.116849625823264,4.21626
43280,1577397490.53,1.7633003251238557,-4.533333250762194,11.860699838926733,4.126669339510289,-2.240126024050828,14.608630195580458,1.3996388895670568,0.8120333964029951,14.552185709635417,-9.773440477324694,-2.5433796208079267,2.314869950457317,5.784755799828506,1.4440024771341466,0.0481954435022868,-0.0056312197730656,30.16262962704613,6.803785051618304,-0.5433001649692534,13.743486149267396,3.684983974358964,-6.559145744302,24.152884750280595,-6.285586206222642,31.111720130589752,37.48545841195675,36.33531015065744,1577397489.999,-27.718252875263698,-51.116849625823264,4.21626
43281,1577397490.54,1.2389701615496371,1.7322924938667104,12.011534543516577,3.918373795076696,3.7609404371308113,8.636294154320693,1.4367490152994788,5.630364237467448,14.782029069010417,5.058102491425305,-0.5292194645579268,1.1552019817073171,-3.141635801733994,-7.772306116615853,-2.2711404939977133,5.319686163039434,26.97354271298363,-4.182543073381696,-0.5433001649692534,13.743486149267396,3.684983974358964,-5.514294183825433,-47.406236375507206,-6.285586206222642,31.25548866325217,37.38961272351514,36.57492437176146,1577397489.999,-27.718252875263698,-51.116849625823264,4.21626
43282,1577397490.55,-1.971654264719893,3.298100379608898,19.51735674810642,0.0445555089438834,1.6205241529511238,14.317734693871474,0.5652596110026037,7.349401029459635,9.203539200846354,16.502194288300306,-4.984785870807927,1.7655535442073171,10.621791932641006,-3.103116663490854,0.4449239591272866,7.120223272414434,19.71035911923363,-15.504564557756696,-0.2469546204405695,12.145406364468858,1.2283279914529803,-6.559145744302,-48.8666266025641,-6.579445215325552,31.20756581903136,37.43753556773595,36.479078683319855,1577397489.999,-27.718252875263698,-51.116849625823264,4.21626
