,timestamp,acc_x_dashboard,acc_y_dashboard,acc_z_dashboard,acc_x_above_suspension,acc_y_above_suspension,acc_z_above_suspension,acc_x_below_suspension,acc_y_below_suspension,acc_z_below_suspension,gyro_x_dashboard,gyro_y_dashboard,gyro_z_dashboard,gyro_x_above_suspension,gyro_y_above_suspension,gyro_z_above_suspension,gyro_x_below_suspension,gyro_y_below_suspension,gyro_z_below_suspension,mag_x_dashboard,mag_y_dashboard,mag_z_dashboard,mag_x_above_suspension,mag_y_above_suspension,mag_z_above_suspension,temp_dashboard,temp_above_suspension,temp_below_suspension,timestamp_gps,latitude,longitude,speed
1093,1577399016.33,-0.046862117860375,-0.0008175322742,9.826270774580792,-0.0270953553734749,-0.0607309689405482,9.815409274366427,0.04140217017197,0.0404094524104412,9.816226806640625,0.0634542325647865,0.0796434355945121,0.1149991663490854,0.1747317430449695,0.117604325457317,-0.0826207602896341,-0.1036481159489328,-0.1585425400152439,0.1470054068216463,0.7933293269230788,-0.5112566773504303,-1.4277922309172344,-1.2181413338264289,-3.665943431568431,0.9822848425612848,29.69799622607601,40.21706053254261,40.02536915565939,1577399016.0,-27.717759114202675,-51.098995332679365,0.02012061
1094,1577399016.34,-0.0145403954482656,-0.0271537505359183,9.855001194502666,-0.0247011537133186,-0.0703077755811732,9.751962930372285,0.0246427585508762,0.0487891582209881,9.787496386718749,-0.1349100252477134,0.3085252715320121,0.2218106897865854,-0.0541500928925304,0.102345536394817,0.1157434975228658,-0.1189069050114328,-0.0975073837652439,-0.0971352181783536,0.7933293269230788,-0.5112566773504303,-1.4277922309172344,0.2199750369822478,-2.5661604020979016,0.9822848425612852,29.62611195974481,40.408751909425824,40.097253421990594,1577399016.0,-27.717759114202675,-51.098995332679365,0.02012061
1095,1577399016.35,-0.0552418236709219,-0.0008175322741997,9.81429976628001,-0.0007591371117569,-0.0535483639600794,9.745977426221891,0.0246427585508762,0.0260442424495037,10.371681591796875,-0.1654276033727134,0.1559373809070121,0.0387052210365854,-0.2525143507050305,0.056569169207317,-0.2046910727896341,-0.0120953815739328,0.146633241234756,0.0859702505716463,-2.027397168803418,0.3067540064102557,-1.4277922309172344,0.4254202328120589,-2.5661604020979016,1.2772744082840235,29.4823434270824,40.26498337676341,40.1691376883218,1577399016.0,-27.717759114202675,-51.098995332679365,0.02012061
1096,1577399016.36,-0.0480592186904531,0.0087592743664244,9.888520017744854,-0.0127301454125374,-0.0559425656202357,9.777102047803924,0.0198543552305637,-0.0242339924137764,9.923965881347655,-0.1654276033727134,0.0338670684070121,-0.0833650914634145,-0.0999264600800304,0.026051591082317,0.0394495522103658,-0.2257184284489328,-0.0364722275152439,-0.0666176400533536,-0.4407385149572604,-0.7157593482906008,-0.0751469595219649,0.4254202328120589,-2.5661604020979016,1.2772744082840235,29.72195764818641,40.360829065205024,40.26498337676341,1577399016.0,-27.717759114202675,-51.098995332679365,0.02012061
1097,1577399016.37,-0.0600302269912344,-0.0056059355945121,9.747262119795636,-0.0175185487328499,-0.0391831539991419,9.827380282667209,0.0174601535704075,-0.0098687824528389,9.82580361328125,-0.0586160799352133,0.0949022246570121,0.0387052210365854,-0.0694088819550304,0.087086747332317,0.0699671303353658,-0.0426129596989328,0.085598084984756,-0.0055824838033536,0.6170339209401732,-0.3067540064102557,-1.277498311873317,-1.629031725486053,-4.032537774725275,1.2772744082840235,29.626111959744808,40.21706053254261,40.02536915565939,1577399016.0,-27.717759114202675,-51.098995332679365,0.02012061
1098,1577399016.38,-0.0360882103896719,-0.0127885405749808,9.78317514469798,0.0076205686987902,-0.05953386811047,9.732809317091034,0.0725267917540012,0.0080877299983324,9.87727894897461,0.0481954435022865,0.0033494902820121,-0.0528475133384145,0.0374026414824695,0.071827958269817,-0.0215856040396341,-0.1341656940739328,-0.0517310165777439,0.0096763052591463,0.6170339209401732,-0.3067540064102557,-1.277498311873317,-2.450812508805297,-2.5661604020979016,0.6872952768385466,29.5302662713032,40.38479048731543,40.02536915565939,1577399016.0,-27.717759114202675,-51.098995332679365,0.02012061
1099,1577399016.39,-0.0624244286513906,0.0015766693859557,9.768809934737044,-0.0366721620140999,-0.0966439938428919,9.817803476026585,0.0270369602110325,0.0691398723323162,9.81862100830078,-0.1349100252477134,0.2474901152820121,0.0387052210365854,-0.1914791944550304,0.117604325457317,0.0699671303353658,-0.0731305378239328,0.2687035537347561,0.1775229849466463,0.0881477029914492,-1.738272702991453,-0.2254408785658824,-3.2725932921245406,-1.099783029470529,0.6872952768385466,29.67403480396561,40.408751909425824,39.97744631143858,1577399016.0,-27.717759114202675,-51.098995332679365,0.02012061
1100,1577399016.4,-0.0193287987685781,-0.0032117339343558,9.749656321455792,0.0040292662085553,-0.0320005490186732,9.79386145942502,0.070132590093845,0.0236500407893475,9.797073193359374,-0.1654276033727134,-0.2713087128429878,-0.2054354039634145,-0.0388913038300304,0.117604325457317,-0.0521031821646341,-0.0120953815739328,0.207668397484756,-0.1581703744283537,-0.2644431089743548,1.942775373931624,0.0751469595219524,-1.4235865296562409,-1.649674544205794,-0.9351473346365172,29.5302662713032,40.408751909425824,40.0732919998802,1577399016.0,-27.717759114202675,-51.098995332679365,0.02012061
1101,1577399016.41,-0.0348911095595938,0.0171389801769713,9.817891068770244,-0.0558257752953499,-0.0176353390577357,9.769919442823456,0.0821035983946262,-0.0026861774723702,9.842563024902343,-0.0891336580602134,0.0186082793445121,0.0692227991615854,-0.0694088819550304,-0.0349835651676829,-0.3572789634146341,-0.1646832721989328,0.085598084984756,-0.0666176400533536,-0.3525908119658112,0.818010683760684,-0.4508817571317585,-1.629031725486053,-2.5661604020979016,0.6872952768385466,29.626111959744808,40.60044328630904,40.1691376883218,1577399016.0,-27.717759114202675,-51.098995332679365,0.02012061
1102,1577399016.42,-0.0265114037490469,0.0087592743664244,9.864578001143292,-0.0187156495629285,-0.05953386811047,9.75555423286252,0.0665412876036106,0.004496427508098,9.82460651245117,-0.1043924471227134,-0.1492384003429878,0.0692227991615854,-0.0388913038300304,0.102345536394817,-0.1436559165396341,0.0031634074885671,-0.0059546493902439,0.1164878286966463,-0.6170339209401661,0.3067540064102557,-0.5260287166537173,0.1172524390673429,-1.7413231299950045,2.530980062605664,29.67403480396561,40.28894479887381,40.00140773354899,1577399016.0,-27.717759114202675,-51.098995332679365,0.02012061
1103,1577399016.43,-0.0480592186904531,-0.0271537505359183,9.771204136397198,-0.0079417420922249,-0.0607309689405482,9.734006417921112,0.0270369602110325,-0.0074745807926827,9.830592016601562,-0.0128397127477134,-0.0882032440929878,-0.0833650914634145,0.4799075242949695,-0.2486066120426829,-0.3572789634146341,0.1404925090510671,-0.1280249618902439,-0.0666176400533536,-1.4985109508547012,-2.351780715811969,-0.6763226356976347,-1.4235865296562409,-2.3828632305194803,0.8347900596999165,29.62611195974481,40.408751909425824,39.97744631143858,1577399016.0,-27.717759114202675,-51.098995332679365,0.02012061
1104,1577399016.44,-0.0169345971084219,-0.005605935594512,9.828664976240947,-0.0318837586937874,-0.0607309689405482,9.74837162788205,0.06055578345322,-0.0026861774723702,9.787496386718749,0.1702657560022865,0.0338670684070121,-0.0223299352134145,-0.0999264600800304,0.239674637957317,-0.0826207602896341,-0.2867535846989328,-0.0975073837652439,-0.0055824838033536,-0.7933293269230717,1.738272702991453,-1.578086149961158,-3.067148096294731,-2.3828632305194803,2.604727454036349,29.4823434270824,40.360829065205024,40.1691376883218,1577399016.0,-27.717759114202675,-51.098995332679365,0.02012061
1105,1577399016.45,-0.0312998070693594,0.0051679718761905,9.802328757979229,-0.0019562379418347,-0.0379860531690638,9.713655703809785,0.0569644809629856,-0.0062774799626051,9.804255798339844,0.0481954435022865,-0.1339796112804878,0.1149991663490854,0.0679202196074695,-0.0197247761051829,-0.2199498618521341,-0.2409772175114328,-0.1280249618902439,-0.0818764291158536,-0.2644431089743584,-0.1022513354700873,-0.8266165547415584,-1.4235865296562409,-3.299349088411588,1.2772744082840244,29.721957648186415,40.1691376883218,40.26498337676341,1577399016.0,-27.717759114202675,-51.098995332679365,0.02012061
1106,1577399016.46,-0.0193287987685781,0.0374896942882994,9.742473716475324,-0.0055475404320686,-0.0296063473585169,9.724429611280486,0.0533731784727512,0.0044964275080975,9.732429748535155,-0.2264627596227134,-0.1492384003429878,-0.2054354039634145,0.0831790086699695,-0.0044659870426829,-0.0826207602896341,-0.2257184284489328,0.2687035537347561,-0.0666176400533536,-0.6170339209401661,-0.5112566773504303,-1.4277922309172344,-1.2181413338264289,-3.299349088411588,0.6872952768385466,29.72195764818641,40.408751909425824,39.97744631143858,1577399016.0,-27.717759114202675,-51.098995332679365,0.02012061
1107,1577399016.47,-0.0145403954482656,0.0398838959484557,9.75683892643626,-0.0175185487328499,-0.0343947506788294,9.724429611280486,0.0629499851133762,0.0140732341487225,9.698910925292967,0.0787130216272865,0.2169725371570121,-0.0833650914634145,0.2662844774199695,0.209157059832317,-0.1131383384146341,-0.0120953815739328,-0.1280249618902439,-0.2497231088033537,1.3222155448717956,-0.7157593482906008,-0.9769104737854758,-1.2181413338264289,-3.299349088411588,0.6872952768385466,29.43442058286159,40.21706053254261,40.84005750741306,1577399016.0,-27.717759114202675,-51.098995332679365,0.02012061
1108,1577399016.48,-0.0289056054092031,0.0398838959484557,9.816693967940166,-0.0247011537133186,-0.0248179440382044,9.743583224561736,0.0150659519102512,0.0260442424495037,9.809044201660155,0.3533712247522865,-0.0576856659679878,-0.0528475133384145,-0.0388913038300304,-0.1570538776676829,-0.0521031821646341,-0.1646832721989328,-0.0364722275152439,0.2080405630716463,-0.6170339209401661,-0.1022513354700852,-0.8266165547415584,-1.629031725486053,-4.032537774725275,1.867253539729502,29.72195764818641,40.0732919998802,40.1691376883218,1577399016.0,-27.717759114202675,-51.098995332679365,0.02012061
1109,1577399016.49,-0.0097519921279531,0.0075621735363468,9.77000703556712,-0.0127301454125378,-0.0415773556592982,9.781890451124235,0.0258398593809543,-0.0038832783024488,9.757568865966796,0.1855245450647865,0.1864549590320121,-0.0223299352134145,0.1442141649199695,0.224415848894817,-0.0215856040396341,-0.0731305378239328,-0.0212134384527439,-0.2497231088033537,0.9696247329059844,-0.9202620192307712,-0.3757347976097998,0.219975036982249,-3.1160519168331664,2.16224310545224,29.65007338185521,40.21706053254261,39.73783209033456,1577399016.0,-27.717759114202675,-51.098995332679365,0.02012061
1110,1577399016.5,-0.0145403954482656,-0.015182742235137,9.749656321455792,-0.0223069520531624,-0.0200295407178919,9.71724700630002,-0.016058669671779,0.018861637469035,9.79946739501953,0.0176778653772865,-0.2102735565929878,0.0692227991615854,-0.2219967725800304,-0.0349835651676829,-0.1436559165396341,-0.0120953815739328,0.024562928734756,-0.1581703744283537,0.9696247329059844,0.5112566773504262,-0.3757347976097998,-0.6018057463369949,-2.0162688873626373,3.1947065854818257,29.86572618084883,40.26498337676341,40.1691376883218,1577399016.0,-27.717759114202675,-51.098995332679365,0.02012061
1111,1577399016.51,-0.0672128319717031,0.0350954926281432,9.759233128096415,-0.0558257752953499,-0.0080585324171107,9.757948434522676,0.06055578345322,0.0404094524104412,9.758765966796874,0.0481954435022865,0.0338670684070121,0.0997403772865854,-0.2830319288300305,0.178639481707317,-0.0215856040396341,-0.2257184284489328,0.024562928734756,0.0859702505716463,0.6170339209401732,0.9202620192307712,0.2254408785658761,-0.8072509421668069,-4.032537774725275,3.3422013683431966,29.67403480396561,40.360829065205024,40.0732919998802,1577399016.0,-27.717759114202675,-51.098995332679365,0.02012061
1112,1577399016.52,-0.0336940087295156,0.0027737702160343,9.779583842207744,-0.0462489686547249,-0.0200295407178919,9.791467257764864,0.04140217017197,0.0021022258479412,9.835380419921874,-0.0738748689977134,0.0338670684070121,0.0387052210365854,-0.0388913038300304,0.148121903582317,-0.0215856040396341,-0.1952008503239328,0.024562928734756,-0.0971352181783536,0.5288862179487204,-0.2045026709401725,-0.9017635142635172,-2.450812508805297,-3.299349088411588,0.6872952768385466,29.67403480396561,40.408751909425824,40.1691376883218,1577399016.0,-27.717759114202675,-51.098995332679365,0.02012061
1113,1577399016.53,-0.0408766137099844,-0.005605935594512,9.74486791813548,-0.0582199769555061,-0.0355918515089075,9.70288179633908,0.0234456577207981,-0.0278252949040113,9.758765966796874,0.1702657560022865,0.2169725371570121,-0.0833650914634145,0.1899905321074695,0.102345536394817,-0.0063268149771341,-0.1189069050114328,0.070339295922256,0.0554526724466463,-1.3222155448717956,-0.1022513354700852,-0.8266165547415584,-2.245367312975486,-2.016268887362637,1.1297796254226549,29.62611195974481,40.33686764309461,40.456674753646624,1577399016.0,-27.717759114202675,-51.098995332679365,0.02012061
1114,1577399016.54,-0.0360882103896719,0.0207302826672057,9.79035774967845,-0.0031533387719124,-0.0439715573194544,9.71724700630002,0.0294311618711887,0.00928483082841,9.873687646484374,-0.1654276033727134,0.1559373809070121,0.0692227991615854,0.1442141649199695,0.117604325457317,-0.0826207602896341,-0.2867535846989328,0.2992211318597561,0.0249350943216463,-1.3222155448717956,-0.1022513354700852,-0.8266165547415584,-1.4235865296562409,-3.1160519168331664,1.7197587568681325,29.67403480396561,40.360829065205024,40.1691376883218,1577399016.0,-27.717759114202675,-51.098995332679365,0.02012061
1115,1577399016.55,-0.0312998070693594,-0.0103943389148245,9.82148237126048,-0.0175185487328499,-0.0152411373975794,9.724429611280486,0.00309494360947,0.0140732341487225,9.785102185058593,-0.3485330721227134,-0.0271680878429878,0.1912931116615854,-0.0999264600800304,0.239674637957317,-0.1436559165396341,0.1404925090510671,-0.0669898056402439,-0.1581703744283537,-0.4407385149572604,1.3292673611111123,-0.3757347976097998,-1.4235865296562409,-3.1160519168331664,1.7197587568681325,29.5302662713032,40.1691376883218,40.02536915565939,1577399016.0,-27.717759114202675,-51.098995332679365,0.02012061
1116,1577399016.56,-0.0516505211806875,0.0051679718761905,9.77000703556712,-0.0127301454125374,-0.0200295407178919,9.734006417921112,0.0054891452696262,0.0116790324885662,9.756371765136718,-0.1654276033727134,0.0796434355945121,0.1302579554115854,0.0831790086699695,0.148121903582317,-0.1741734946646341,-0.0426129596989328,-0.0975073837652439,-0.0361000619283536,-1.0577724358974334,0.6135080128205136,0.6011756761756698,0.4254202328120589,-3.299349088411588,1.2772744082840235,29.721957648186415,40.21706053254261,39.97744631143858,1577399016.0,-27.717759114202675,-51.098995332679365,0.02012061
1117,1577399016.57,-0.0432708153701406,0.0183360810070494,9.816693967940166,0.0016350645483995,-0.0439715573194544,9.73520351875119,0.0150659519102512,0.0116790324885662,9.809044201660155,-0.4095682283727134,-0.0882032440929878,0.1302579554115854,-0.1457028272675304,0.010792802019817,-0.0826207602896341,-0.2714947956364328,-0.0975073837652439,-0.1429115853658536,-0.7933293269230717,-1.5337700320512828,-0.3757347976097998,-3.067148096294731,-3.849240603146853,1.1297796254226546,29.817803336628028,40.26498337676341,40.121214844101,1577399016.0,-27.717759114202675,-51.098995332679365,0.02012061
1118,1577399016.58,-0.0480592186904531,-0.0008175322741997,9.811905564619854,-0.0318837586937874,-0.0727019772413294,9.738794821241424,0.02224855689072,0.0404094524104412,9.830592016601562,-0.0128397127477134,0.4305955840320121,0.1607755335365854,0.2662844774199695,0.209157059832317,-0.3267613852896341,-0.3172711628239328,-0.0669898056402439,-0.0971352181783536,-0.7933293269230717,-1.5337700320512828,-0.3757347976097998,0.219975036982249,-2.3828632305194803,3.1947065854818257,29.72195764818641,40.408751909425824,40.0732919998802,1577399016.0,-27.717759114202675,-51.098995332679365,0.02012061
1119,1577399016.59,-0.0360882103896719,-0.0032117339343558,9.807117161299542,-0.0582199769555061,-0.0894613888624232,9.738794821241424,-0.0112702663514665,-0.0002919758122141,9.809044201660155,0.3228536466272865,0.0338670684070121,0.0997403772865854,-0.3745846632050305,0.056569169207317,-0.1436559165396341,0.0489397746760671,-0.0059546493902439,-0.1276527963033537,-0.7933293269230717,-1.5337700320512828,-0.3757347976097998,-1.629031725486053,-3.299349088411588,3.0472118026204567,29.62611195974481,40.408751909425824,40.02536915565939,1577399016.0,-27.717759114202675,-51.098995332679365,0.02012061
1120,1577399016.6,-0.03728531121975,-0.0080001372546683,9.792751951338603,-0.0318837586937874,-0.0918555905225794,9.815409274366424,0.0018978427793923,0.0140732341487225,9.81263550415039,-0.0128397127477134,0.2627489043445121,0.1149991663490854,0.0068850633574695,-0.0807599323551829,0.0089319740853658,-0.1646832721989328,-0.0669898056402439,-0.0666176400533536,0.3525908119658112,0.2045026709401705,-0.1502939190439237,-2.245367312975486,-3.665943431568431,0.8347900596999157,29.62611195974481,40.38479048731543,40.0732919998802,1577399016.0,-27.717759114202675,-51.098995332679365,0.02012061
1121,1577399016.61,-0.0576360253310781,-0.0271537505359183,9.840635984541729,-0.0677967835961311,-0.0631251706007044,9.669362973096892,-0.0040876613709977,0.0021022258479412,9.830592016601562,-0.0433572908727134,0.2169725371570121,0.0387052210365854,0.1442141649199695,-0.0960187214176829,-0.0826207602896341,0.1099749309260671,-0.1890601181402439,-0.0055824838033536,-1.3222155448717956,0.3067540064102557,0.3757347976097936,1.6580914077909268,-3.299349088411588,3.0472118026204567,29.62611195974481,40.408751909425824,40.1691376883218,1577399016.0,-27.717759114202675,-51.098995332679365,0.02012061
1122,1577399016.62,-0.0863664452529531,-0.0175769438952933,9.780780943037824,-0.0294895570336311,-0.1134034054639857,9.853716500928927,0.0078833469297825,0.0140732341487225,9.878476049804688,-0.2874979158727134,0.1254198027820121,0.0692227991615854,0.2662844774199695,-0.0655011432926829,-0.0215856040396341,0.1099749309260671,-0.2195776962652439,-0.1886879525533537,-1.3222155448717956,0.3067540064102557,0.3757347976097936,3.5070981702592268,-2.3828632305194803,3.1947065854818257,29.72195764818641,40.1691376883218,40.1691376883218,1577399016.0,-27.717759114202675,-51.098995332679365,0.02012061
1123,1577399016.63,-0.0696070336318594,-0.0175769438952934,9.816693967940166,-0.0558257752953499,-0.0535483639600794,9.738794821241424,0.012671750250095,-0.0194455890934639,9.813832604980467,-0.0586160799352134,0.1711961699695121,0.1302579554115854,0.0526614305449695,0.239674637957317,-0.1741734946646341,-0.1036481159489328,-0.1280249618902439,0.1164878286966463,-0.705181623931626,-0.2045026709401725,0.1502939190439143,3.5070981702592268,-2.3828632305194803,3.1947065854818257,29.62611195974481,40.408751909425824,40.21706053254261,1577399016.0,-27.717759114202675,-51.098995332679365,0.02012061
1124,1577399016.64,-0.0384824120498281,-0.005605935594512,9.80232875797923,-0.0486431703148811,-0.0415773556592982,9.76034263618283,0.0186572544004856,0.0368181499202069,9.823409411621093,0.1092305997522865,0.0338670684070121,0.0387052210365854,0.0679202196074695,-0.0502423542301829,-0.0673619712271341,-0.0426129596989328,-0.0669898056402439,0.0707114615091463,-1.6748063568376068,-0.1022513354700852,0.3757347976097936,0.2199750369822478,-2.1995660589410586,1.2772744082840244,29.62611195974481,40.31290622098422,40.121214844101,1577399016.0,-27.717759114202675,-51.098995332679365,0.02012061
1125,1577399016.65,-0.0791838402724844,0.0015766693859557,9.82148237126048,-0.0701909852562874,-0.0296063473585169,9.762736837842986,0.0270369602110325,-0.0002919758122141,9.789890588378906,-0.1349100252477134,0.0949022246570121,-0.0223299352134145,0.1747317430449695,-0.0655011432926829,-0.1131383384146341,-0.0120953815739328,-0.1585425400152439,-0.0666176400533536,-1.14592013888889,-1.1247646901709418,2.028967907092904,-2.450812508805297,-1.099783029470529,0.6872952768385466,29.817803336628028,40.360829065205024,39.97744631143858,1577399016.0,-27.717759114202675,-51.098995332679365,0.02012061
1126,1577399016.66,-0.0336940087295156,-0.0080001372546683,9.840635984541729,-0.0462489686547249,-0.0607309689405482,9.801044064405486,0.00309494360947,-0.0266281940739327,9.797073193359374,-0.0738748689977134,0.0949022246570121,0.2218106897865854,-0.1609616163300304,0.026051591082317,-0.2352086509146341,-0.0731305378239328,-0.2500952743902439,-0.2802406869283537,-0.6170339209401661,-0.5112566773504303,-1.1272043928293995,-2.0399221171456747,-4.032537774725275,1.867253539729502,29.67403480396561,40.408751909425824,40.0732919998802,1577399016.0,-27.717759114202675,-51.098995332679365,0.02012061
1127,1577399016.67,-0.0420737145400625,0.0063650727062687,9.797540354658915,-0.0079417420922249,-0.0511541622999232,9.803438266065642,0.0102775485899387,0.038015250750285,9.835380419921874,-0.0280985018102134,0.0491258574695121,0.1607755335365854,-0.0999264600800304,0.117604325457317,-0.0215856040396341,-0.0120953815739328,-0.1890601181402439,-0.0361000619283536,0.705181623931626,-2.05391259555654e-15,-0.3005878380878443,-2.0399221171456747,-1.099783029470529,1.867253539729502,29.626111959744808,40.360829065205024,40.21706053254261,1577399016.0,-27.717759114202675,-51.098995332679365,0.02012061
1128,1577399016.68,-0.0504534203506094,-0.0127885405749808,9.768809934737044,-0.047446069484803,-0.0619280697706263,9.70288179633908,0.0473876743223606,-0.0026861774723707,9.82460651245117,-0.0738748689977134,0.4000780059070121,0.0081876429115854,0.0374026414824695,0.193898270769817,0.0699671303353658,0.1099749309260671,-0.1127661728277439,0.0249350943216463,-0.2644431089743548,1.942775373931624,0.9769104737854758,-1.3208639317413358,-3.5742948457792205,1.6460113654374475,29.62611195974481,40.26498337676341,40.02536915565939,1577399016.0,-27.717759114202675,-51.098995332679365,0.02012061
1129,1577399016.69,-0.0217230004287344,-0.0223653472156058,9.787963548018292,-0.0701909852562874,-0.0703077755811732,9.772313644483612,0.00309494360947,0.0068906291682537,9.789890588378906,0.2313009122522865,0.2169725371570121,-0.0528475133384145,-0.0999264600800304,-0.0044659870426829,-0.0215856040396341,0.1404925090510671,-0.2500952743902439,0.0554526724466463,0.4407385149572675,0.3067540064102557,0.3757347976097936,-1.629031725486053,-2.5661604020979016,1.867253539729502,29.5302662713032,40.60044328630904,39.97744631143858,1577399016.0,-27.717759114202675,-51.098995332679365,0.02012061
1130,1577399016.7,-0.0289056054092031,-0.024759548875762,9.80232875797923,-0.0366721620140999,-0.0655193722608607,9.731612216260956,0.04140217017197,-0.0409934040348702,9.801861596679688,0.2007833341272865,0.0949022246570121,0.0081876429115854,-0.0999264600800304,0.117604325457317,0.0699671303353658,0.0794573528010671,-0.3416480087652439,0.1775229849466463,-1.6748063568376068,-0.5112566773504303,0.6763226356976285,-2.861702900464919,-2.5661604020979016,1.867253539729502,29.67403480396561,40.408751909425824,40.1691376883218,1577399016.0,-27.717759114202675,-51.098995332679365,0.02012061
1131,1577399016.71,-0.0588331261611563,-0.004408834764434,9.740079514815166,-0.0797677918969124,-0.0583367672803919,9.80822666938596,0.012671750250095,-0.0553586139958077,9.773131176757811,0.1244893888147865,-0.1644971894054878,-0.0681063024009145,-0.2219967725800304,0.087086747332317,-0.2657262290396341,-0.0426129596989328,-0.0364722275152439,-0.3107582650533537,-1.0577724358974336,-0.409005341880343,0.3005878380878318,-2.861702900464919,-2.5661604020979016,0.6872952768385466,29.62611195974481,40.50459759786743,40.1691376883218,1577399016.0,-27.717759114202675,-51.098995332679365,0.02012061
1132,1577399016.72,-0.0935490502334219,-0.0510957671374808,9.843030186201885,-0.0498402711449592,-0.107417901313595,9.663377468946502,-0.0040876613709982,-0.1415498737614327,9.74799205932617,-0.2264627596227134,0.0643846465320121,0.0997403772865854,-0.0388913038300304,0.148121903582317,-0.052103182164634,-0.1646832721989328,0.070339295922256,-0.3565346322408537,-0.6170339209401661,-0.9202620192307712,-1.1272043928293995,0.1172524390673429,-2.474511816308691,1.3510217997147085,29.62611195974481,40.360829065205024,40.16913768832181,1577399016.0,-27.717759114202675,-51.098995332679365,0.02012061
1133,1577399016.73,-0.0456650170302969,-0.0702493804187308,9.732896909834698,-0.0294895570336311,-0.1301628170850794,9.674151376417203,0.02224855689072,-0.1750686970036202,9.744400756835937,-0.1959451814977134,0.4611131621570121,0.2828458460365854,0.2662844774199695,0.117604325457317,-0.2352086509146341,-0.1036481159489328,-0.2500952743902439,-0.4328285775533537,0.9696247329059844,-0.7157593482906008,-0.6763226356976347,0.6308654286418709,-3.849240603146853,-2.115105597527472,29.62611195974481,40.408751909425824,39.97744631143858,1577399016.0,-27.717759114202675,-51.098995332679365,0.02012061
1134,1577399016.74,0.011795822813452,-0.1324986235827933,9.723320103194077,0.0327596861304303,-0.1828352536085169,9.750765829542203,-0.0376064846131852,-0.1630976887028389,9.7683427734375,0.0787130216272865,0.0033494902820121,-0.1444002477134145,-0.1914791944550304,-0.1875714557926829,0.0089319740853658,-0.1341656940739328,0.085598084984756,-0.5243813119283537,0.2644431089743619,-0.3067540064102557,0.526028716653711,-0.396360550507185,-1.099783029470529,0.6872952768385466,29.5302662713032,40.408751909425824,39.97744631143858,1577399016.0,-27.717759114202675,-51.098995332679365,0.02012061
1135,1577399016.75,0.0058103186630614,-0.1624261443347464,9.771204136397198,0.0962060301245709,-0.2163540768507044,9.739991922071502,0.0390079685118137,-0.0637383198063546,9.79946739501953,-0.0280985018102134,0.0643846465320121,-0.0528475133384145,0.0526614305449695,-0.1112775104801829,-0.1741734946646341,-0.2562360065739328,0.024562928734756,-0.4938637338033537,0.2644431089743619,0.7157593482905987,0.526028716653711,-0.8072509421668069,-1.099783029470529,0.9822848425612848,29.55422769341361,40.21706053254261,39.92952346721778,1577399016.0,-27.717759114202675,-51.098995332679365,0.02012061
1136,1577399016.76,0.040526242735327,-0.1468638335437307,9.759233128096415,0.0830379209937116,-0.1612874386671107,9.71485280463986,0.0246427585508762,-0.0481760090153389,9.78031378173828,0.0481954435022865,0.1559373809070121,-0.1444002477134145,-0.1609616163300304,-0.1570538776676829,-0.1131383384146341,-0.1036481159489328,-0.1585425400152439,-0.3107582650533537,-0.6170339209401661,1.1247646901709418,0.0751469595219524,-0.8072509421668069,-1.099783029470529,0.9822848425612848,29.72195764818641,40.360829065205024,40.1691376883218,1577399016.0,-27.717759114202675,-51.098995332679365,0.02012061
1137,1577399016.77,0.0644682593368895,-0.0774319853991995,9.828664976240947,0.0567017027319928,-0.1421338253858607,9.832168685987522,0.0485847751524387,-0.0553586139958077,9.832986218261718,-0.1959451814977134,-0.3018262909679878,0.0997403772865854,-0.0999264600800304,-0.0044659870426829,-0.3877965415396341,-0.1952008503239328,0.146633241234756,-0.0361000619283536,-0.6170339209401661,-0.1022513354700852,0.3757347976097936,-2.450812508805297,-2.1995660589410586,1.2772744082840235,29.62611195974481,40.360829065205024,40.360829065205024,1577399016.0,-27.717759114202675,-51.098995332679365,0.02012061
1138,1577399016.78,0.0213726294540773,-0.0582783721179495,9.876549009444073,0.0710669126929303,-0.1517106320264857,9.688516586378142,0.050978976812595,-0.0697238239567452,9.821015209960937,-0.1349100252477134,-0.0882032440929878,-0.0833650914634145,-0.2219967725800304,-0.0349835651676829,-0.0521031821646341,-0.5614117878239329,0.116115663109756,0.2690757193216463,-0.7933293269230717,0.9202620192307712,-0.3757347976097998,0.4254202328120589,-2.9327547452547447,0.6872952768385466,29.67403480396561,40.408751909425824,40.360829065205024,1577399016.0,-27.717759114202675,-51.098995332679365,0.02012061
1139,1577399016.79,0.0333436377548583,-0.0510957671374808,9.81429976628001,0.0171973753394152,-0.1157976071241419,9.674151376417203,0.0390079685118137,-0.1128194538395577,9.765948571777344,-0.1654276033727134,0.4000780059070121,0.0387052210365854,-0.3898434522675305,0.148121903582317,-0.1589147056021341,-0.2714947956364328,0.024562928734756,-0.0666176400533536,-0.4407385149572604,-0.7157593482906008,0.2254408785658761,0.0145298411524369,-2.9327547452547447,2.457232671174979,29.67403480396561,40.31290622098422,40.0732919998802,1577399016.0,-27.717759114202675,-51.098995332679365,0.02012061
1140,1577399016.8,-0.0360882103896719,-0.0894029936999808,9.71853169987376,-0.0390663636742561,-0.1373454220655482,9.64542095649533,-0.016058669671779,-0.0816948322575264,9.79946739501953,-0.1349100252477134,0.4000780059070121,-0.1138826695884145,-0.1304440382050304,-0.0044659870426829,-0.2352086509146341,-0.3172711628239328,0.116115663109756,-0.1581703744283537,-2.027397168803418,-0.1022513354700852,0.0751469595219524,0.4254202328120589,-2.5661604020979016,1.2772744082840235,29.4823434270824,40.360829065205024,40.26498337676341,1577399016.0,-27.717759114202675,-51.098995332679365,0.02012061
1141,1577399016.81,0.0046132178329833,-0.0798261870593557,9.883731614424542,0.0136060728491803,-0.1421338253858607,9.765131039503142,0.0054891452696262,-0.1032426471989327,9.816226806640625,-0.2874979158727134,0.2474901152820121,0.0692227991615854,-0.2219967725800304,0.3617449504573171,-0.1131383384146341,-0.0426129596989328,0.116115663109756,-0.2192055306783537,-0.6170339209401661,-1.3292673611111123,-0.2254408785658824,3.5070981702592268,-3.849240603146853,2.0147483225908704,29.62611195974481,40.26498337676341,40.1691376883218,1577399016.0,-27.717759114202675,-51.098995332679365,0.02012061
1142,1577399016.82,0.0094016211532958,-0.0977826995105276,9.847818589522198,-0.0103359437523811,-0.1493164303663294,9.695699191358612,0.031825363531345,-0.1008484455387764,9.880870251464843,-0.1959451814977134,0.0949022246570121,-0.1596590367759144,-0.2219967725800304,0.056569169207317,-0.1436559165396341,-0.0731305378239328,0.085598084984756,-0.2802406869283537,-1.14592013888889,-0.3067540064102557,0.526028716653711,-3.2725932921245406,-4.032537774725275,1.5722639740067632,29.65007338185521,40.26498337676341,39.97744631143858,1577399016.0,-27.717759114202675,-51.098995332679365,0.02012061
1143,1577399016.83,-0.0432708153701406,-0.149258035203887,9.828664976240947,-0.0019562379418347,-0.1672729428175013,9.822591879346897,-0.0112702663514665,-0.1439440754215889,9.87009634399414,-0.1043924471227134,0.4305955840320121,-0.0528475133384145,-0.0999264600800304,0.041310380144817,-0.1894322837271341,-0.1952008503239328,0.222927186547256,-0.4786049447408537,-1.14592013888889,-0.3067540064102557,0.526028716653711,-2.450812508805297,1.832971715784216,0.9822848425612848,29.62611195974481,40.21706053254261,40.24102195465301,1577399016.0,-27.717759114202675,-51.098995332679365,0.02012061
1144,1577399016.84,-0.0743954369521719,-0.1803826567859183,9.807117161299542,0.0064234678687116,-0.2115656735303919,9.832168685987522,0.0342195651915012,-0.1176078571598702,9.916783276367187,-0.1959451814977134,0.4916307402820121,0.0387052210365854,-0.1304440382050304,0.3007097942073171,-0.0826207602896341,-0.1646832721989328,0.177150819359756,-0.1276527963033537,-1.3222155448717956,1.5337700320512828,-1.1272043928293995,-2.450812508805297,1.832971715784216,2.752222236897718,29.817803336628028,40.26498337676341,40.1691376883218,1577399016.0,-27.717759114202675,-51.098995332679365,0.02012061
1145,1577399016.85,-0.0121461937881094,-0.1085566069812307,9.845424387862042,-0.0031533387719124,-0.1421338253858607,9.93511935737424,0.050978976812595,-0.1032426471989327,9.957484704589843,-0.1654276033727134,0.2169725371570121,-0.0528475133384145,-0.2219967725800304,0.117604325457317,-0.2352086509146341,-0.2562360065739328,-0.0669898056402439,-0.3412758431783537,-0.2644431089743548,-0.5112566773504303,-1.7283800690050757,1.247201016131305,-4.032537774725275,1.867253539729502,29.43442058286159,40.0732919998802,40.26498337676341,1577399016.0,-27.717759114202675,-51.098995332679365,0.02012061
1146,1577399016.86,-0.0121461937881094,-0.0738406829089651,9.900491026045636,-0.0055475404320686,-0.1157976071241419,9.87765851753049,0.1060456149961887,-0.0338107990544014,9.957484704589843,-0.1043924471227134,-0.0119092987804878,-0.2664705602134145,-0.1914791944550304,-0.0655011432926829,-0.0521031821646341,-0.0120953815739328,-0.0669898056402439,-0.3717934213033537,0.7933293269230788,0.7157593482905967,0.0751469595219524,-3.2725932921245406,-3.665943431568431,0.6872952768385466,29.79384191451762,40.360829065205024,40.02536915565939,1577399016.0,-27.717759114202675,-51.098995332679365,0.02012061
1147,1577399016.87,-0.0169345971084219,0.0422780976086119,9.773598338057356,-0.0007591371117566,-0.1205860104444544,9.830971585157442,0.0437963718321262,-0.0577528156559639,9.90241806640625,-0.0128397127477134,0.2780076934070121,-0.2359529820884145,-0.2830319288300304,0.285451005144817,-0.2199498618521341,-0.3325299518864328,-0.0059546493902439,-0.3717934213033537,0.7933293269230788,0.7157593482905967,0.0751469595219524,-2.86170290046492,-3.1160519168331664,1.4247691911453937,29.817803336628028,40.21706053254261,40.0732919998802,1577399016.0,-27.717759114202675,-51.098995332679365,0.02012061
1148,1577399016.88,-0.1462214867568594,-0.043913162157012,9.917250437666729,-0.0989214051781624,-0.1373454220655482,9.76034263618283,0.012671750250095,-0.0481760090153389,9.785102185058593,-0.5011209627477134,-0.0576856659679878,0.2218106897865854,-0.0999264600800304,0.117604325457317,-0.2962438071646341,-0.5614117878239329,-0.0364722275152439,-0.0666176400533536,-0.0881477029914563,0.9202620192307712,-0.0751469595219649,0.4254202328120589,-1.099783029470529,0.6872952768385466,29.67403480396561,40.55252044208824,39.97744631143858,1577399016.0,-27.717759114202675,-51.098995332679365,0.02012061
1149,1577399016.89,-0.0911548485732656,-0.091797195360137,9.673041868330792,-0.0414605653344124,-0.1157976071241419,9.8058324677258,0.0294311618711887,-0.0529644123356514,9.775525378417967,-0.2264627596227134,-0.6070020722179879,-0.2054354039634145,-0.2525143507050305,0.239674637957317,-0.1131383384146341,-0.2867535846989328,-0.3111304306402439,-0.4633461556783537,0.0881477029914492,-0.5112566773504303,0.9769104737854758,0.219975036982249,-0.916485857892108,0.8347900596999165,29.62611195974481,40.408751909425824,40.1691376883218,1577399016.0,-27.717759114202675,-51.098995332679365,0.02012061
1150,1577399016.9,-0.0708041344619375,-0.0858116912097464,9.886125816084698,-0.0318837586937874,-0.1325570187452357,9.707670199659391,0.0354166660215794,-0.0158542866032301,9.80665,-0.7147440096227134,-0.2102735565929878,0.0081876429115854,-0.0083737257050304,0.270192216082317,-0.1894322837271341,-0.4546002643864328,-0.0212134384527439,-0.0513588509908536,-0.8814770299145245,0.6135080128205135,-0.4508817571317617,0.2199750369822488,-3.1160519168331664,0.8347900596999157,29.65007338185521,40.28894479887381,39.88160062299697,1577399016.0,-27.717759114202675,-51.098995332679365,0.02012061
1151,1577399016.91,-0.0887606469131094,-0.0606725737781058,9.989076487471417,-0.0270953553734749,-0.1325570187452357,9.789073056104703,0.0054891452696262,-0.0625412189762764,9.859322436523437,-0.6537088533727134,-0.0882032440929878,0.1607755335365854,-0.3135495069550305,0.117604325457317,-0.2962438071646341,-0.0731305378239328,-0.0975073837652439,-0.1886879525533537,-0.7933293269230717,0.1022513354700852,0.2254408785658761,3.3016529744294165,-3.665943431568431,0.6872952768385466,29.62611195974481,40.408751909425824,40.79213466319226,1577399016.0,-27.717759114202675,-51.098995332679365,0.02012061
1152,1577399016.92,-0.0887606469131094,-0.158834841844512,10.202160435225323,-0.0247011537133186,-0.1756526486280482,9.707670199659391,0.00309494360947,-0.0793006305973702,9.81862100830078,-1.0199197908727131,0.2474901152820121,-0.1444002477134145,-0.3135495069550305,0.2701922160823171,-0.2046910727896341,-0.2867535846989328,0.055080506859756,0.2385581411966463,-1.3222155448717956,1.1247646901709418,-1.7283800690050757,0.0145298411524369,-3.665943431568431,1.2772744082840235,29.72195764818641,40.360829065205024,40.360829065205024,1577399016.0,-27.717759114202675,-51.098995332679365,0.02012061
1153,1577399016.93,-0.0552418236709219,-0.1887623625964651,9.750853422285871,-0.0630083802758186,-0.1469222287061732,9.774707846143768,-0.035212282953029,-0.0385992023747139,9.847351428222655,-0.0891336580602134,0.4916307402820121,-0.1291414586509145,-0.3440670850800305,0.117604325457317,-0.0521031821646341,-0.4088238971989328,-0.1280249618902439,0.0554526724466463,3.552713678800501e-15,1.636021367521366,0.1502939190439143,0.219975036982249,-3.48264625999001,1.4247691911453937,29.69799622607601,40.408751909425824,39.40237218078893,1577399016.0,-27.717759114202675,-51.098995332679365,0.02012061
1154,1577399016.94,-0.0863664452529531,-0.0989798003406057,9.917250437666729,-0.0689938844262093,-0.1337541195753138,9.698093393018768,-0.0388035854432633,-0.1188049579899483,9.836577520751952,-0.5926736971227134,0.0338670684070121,-0.1444002477134145,-0.0999264600800304,0.056569169207317,-0.2504674399771341,-0.1952008503239328,0.039821717797256,0.1164878286966463,-0.4407385149572604,0.9202620192307712,-0.0751469595219649,0.0145298411524369,-2.5661604020979016,0.6872952768385466,29.67403480396561,40.31290622098422,40.121214844101,1577399016.0,-27.717759114202675,-51.098995332679365,0.02012061
1155,1577399016.95,-0.1079142601943594,-0.0654609770984183,9.902885227705791,-0.0510373719750374,-0.0966439938428919,9.657391964796112,-0.1357687526795915,-0.0505702106754952,9.763554370117188,-0.5011209627477134,0.1559373809070121,-0.1138826695884145,-0.4356198194550305,0.117604325457317,-0.2352086509146341,-0.5003766315739329,-0.0975073837652439,-0.1581703744283537,-0.4407385149572604,0.9202620192307712,-0.0751469595219649,0.0145298411524369,-4.032537774725275,1.2772744082840235,29.5302662713032,40.26498337676341,40.1691376883218,1577399016.0,-27.717759114202675,-51.098995332679365,0.02012061
1156,1577399016.96,-0.1797403099990469,-0.082220388719512,9.799934556319077,-0.1204692201195686,-0.0727019772413294,9.611902133253142,-0.0759137111756852,-0.0122629841129952,9.737218151855467,-0.8673319002477134,0.0338670684070121,-0.1138826695884145,-0.1304440382050304,-0.0655011432926829,-0.1436559165396341,0.0184221965510671,0.055080506859756,-0.0971352181783536,1.3222155448717956,0.5112566773504262,0.2254408785658761,-2.0399221171456747,-3.665943431568431,0.6872952768385466,29.72195764818641,40.360829065205024,40.02536915565939,1577399016.0,-27.717759114202675,-51.098995332679365,0.02012061
1157,1577399016.97,-0.1019287560439688,-0.0858116912097464,9.68740707829173,-0.0893445985375374,-0.0894613888624232,9.643026754835176,-0.0495774929139665,-0.0098687824528389,9.74200655517578,-0.0128397127477134,0.0796434355945121,-0.0528475133384145,-0.0388913038300304,0.026051591082317,-0.1131383384146341,-0.2867535846989328,0.055080506859756,-0.0361000619283536,0.3525908119658112,-2.05391259555654e-15,-0.7514695952195997,-3.2725932921245406,-4.032537774725275,0.6872952768385466,29.5302662713032,40.50459759786743,40.0732919998802,1577399016.0,-27.717759114202675,-51.098995332679365,0.02012061
1158,1577399016.98,-0.0528476220107656,-0.0391247588366995,9.838241782881571,-0.0630083802758186,-0.05953386811047,9.731612216260956,-0.0675340053651383,-0.0302194965641671,9.489418280029296,-0.2874979158727134,0.0949022246570121,-0.0833650914634145,-0.3745846632050304,0.056569169207317,-0.1894322837271341,-0.2562360065739328,-0.0364722275152439,-0.3412758431783537,-0.0881477029914563,0.1022513354700852,-1.8786739880489929,0.8363106244716818,-1.6496745442057938,1.2772744082840244,29.86572618084883,40.360829065205024,40.12121484410101,1577399016.0,-27.717759114202675,-51.098995332679365,0.02012061
1159,1577399016.99,-0.0624244286513906,-0.0798261870593557,9.749656321455792,-0.0606141786156624,-0.1086150021436732,9.75555423286252,0.031825363531345,-0.0314165973942452,9.890447058105469,-0.0433572908727134,0.6137010527820121,-0.0528475133384145,0.0831790086699695,-0.0044659870426829,-0.2352086509146341,-0.1952008503239328,0.055080506859756,-0.1581703744283537,-0.0881477029914563,0.1022513354700852,-1.8786739880489929,3.5070981702592268,-2.3828632305194803,0.8347900596999165,29.67403480396561,40.360829065205024,40.0732919998802,1577399016.0,-27.717759114202675,-51.098995332679365,0.02012061
1160,1577399017.0,-0.0312998070693594,-0.091797195360137,9.816693967940166,-0.0079417420922249,-0.1277686154249232,9.813015072706271,0.02224855689072,-0.0385992023747139,9.82580361328125,-0.2569803377477134,0.1864549590320121,0.1302579554115854,-0.3135495069550305,0.2701922160823171,-0.2046910727896341,-0.4698590534489328,-0.1890601181402439,0.0859702505716463,0.2644431089743619,-1.1247646901709418,-2.179261826136828,-1.629031725486053,-2.5661604020979016,0.6872952768385466,29.72195764818641,40.408751909425824,40.0732919998802,1577399017.0,-27.717759090533807,-51.09899553036158,0.006732785
1161,1577399017.01,-0.0648186303115469,-0.072643582078887,9.764021531416727,-0.047446069484803,-0.1433309262159388,9.77949624946408,0.0054891452696262,-0.0613441181461983,9.83178911743164,-0.1043924471227134,0.2017137480945121,-0.0223299352134145,-0.2372555616425304,0.102345536394817,-0.0673619712271341,-0.3783063190739328,-0.0517310165777439,-0.1123940072408536,0.0881477029914492,0.5112566773504283,0.6763226356976347,0.3226976348971539,-2.474511816308691,1.9410009311601863,29.578189115524005,40.33686764309462,40.049330577769794,1577399017.0,-27.717759090533807,-51.09899553036158,0.006732785
1162,1577399017.02,-0.0456650170302969,-0.110950808641387,9.80232875797923,-0.0821619935570686,-0.1493164303663294,9.719641207960176,0.0198543552305637,0.0044964275080975,9.830592016601562,-0.3180154939977134,0.2780076934070121,0.0387052210365854,-0.2219967725800304,-0.0655011432926829,-0.0521031821646341,-0.0120953815739328,0.116115663109756,-0.2192055306783537,-0.2644431089743548,-0.1022513354700852,-1.1272043928293995,-2.2453673129754868,-2.0162688873626373,0.8347900596999165,29.67403480396561,40.0732919998802,40.1691376883218,1577399017.0,-27.717759090533807,-51.09899553036158,0.006732785
1163,1577399017.03,-0.0743954369521719,-0.101374002000762,9.677830271651104,-0.0175185487328499,-0.1277686154249232,9.734006417921112,-0.0136644680116227,-0.0505702106754952,9.804255798339844,-0.2264627596227134,0.2474901152820121,-0.0223299352134145,-0.0083737257050304,0.3922625285823171,-0.0521031821646341,-0.0120953815739328,-0.2806128525152439,-0.0666176400533536,-0.2644431089743548,-0.1022513354700852,-1.1272043928293995,-2.450812508805297,-4.032537774725275,1.2772744082840235,29.67403480396561,40.1691376883218,40.0732919998802,1577399017.0,-27.717759090533807,-51.09899553036158,0.006732785
1164,1577399017.04,-0.0504534203506094,-0.1085566069812307,9.673041868330792,-0.0534315736351936,-0.1277686154249232,9.698093393018768,0.0007007419493139,-0.0577528156559639,9.782707983398437,-0.1654276033727134,-0.2102735565929878,0.1302579554115854,-0.2830319288300305,0.056569169207317,-0.1741734946646341,-0.4088238971989328,-0.1585425400152439,-0.0666176400533536,-0.4407385149572604,0.1022513354700852,-0.3757347976097998,0.0145298411524369,1.832971715784216,0.6872952768385466,29.72195764818641,40.360829065205024,40.0732919998802,1577399017.0,-27.717759090533807,-51.09899553036158,0.006732785
1165,1577399017.05,-0.0636215294814688,-0.0894029936999808,9.748459220625715,-0.0103359437523811,-0.1229802121046107,9.783087551954315,0.0330224643614231,-0.0673296222965889,9.549273321533205,-0.3332742830602134,-0.2255323456554878,-0.0528475133384145,-0.1762204053925304,-0.0655011432926829,-0.0673619712271341,-0.2104596393864328,-0.0822485947027439,0.0707114615091463,-0.3525908119658112,-0.6135080128205135,-0.1502939190439237,-3.2725932921245406,-2.5661604020979016,0.9822848425612848,29.578189115524005,40.31290622098422,40.02536915565938,1577399017.0,-27.717759090533807,-51.09899553036158,0.006732785
1166,1577399017.06,-0.0312998070693594,-0.0558841704577933,9.823876572920636,-0.0175185487328499,-0.1469222287061732,9.77949624946408,0.0390079685118137,-0.0457818073551827,9.861716638183593,-0.3790506502477134,-0.0271680878429878,-0.0833650914634145,-0.3440670850800305,-0.0349835651676829,-0.1131383384146341,-0.4088238971989328,-0.2195776962652439,0.0554526724466463,-0.6170339209401661,0.7157593482905967,-0.5260287166537173,0.0145298411524369,-4.032537774725275,0.6872952768385466,29.5302662713032,40.26498337676341,40.02536915565939,1577399017.0,-27.717759090533807,-51.09899553036158,0.006732785
1167,1577399017.07,-0.0265114037490469,-0.0846145903796682,9.787963548018292,0.0136060728491803,-0.1493164303663294,9.853716500928927,0.0294311618711887,-0.0649354206364327,9.873687646484374,-0.0433572908727134,-0.1797559784679878,0.1607755335365854,-0.0083737257050304,-0.0960187214176829,-0.1436559165396341,-0.2562360065739328,0.085598084984756,0.0249350943216463,-0.6170339209401661,0.7157593482905967,-0.5260287166537173,0.0145298411524369,-1.832971715784216,0.6872952768385466,29.67403480396561,40.360829065205024,39.88160062299697,1577399017.0,-27.717759090533807,-51.09899553036158,0.006732785
1168,1577399017.08,-0.0396795128799063,-0.0702493804187307,9.810708463789776,0.0183944761694928,-0.1421338253858607,9.765131039503142,0.0437963718321262,-0.0433876056950264,9.89523546142578,-0.0586160799352134,-0.0424268769054878,0.0539640100990854,-0.2219967725800304,-0.0960187214176829,-0.2962438071646341,-0.5919293659489329,-0.0669898056402439,-0.0666176400533536,-0.3525908119658112,-2.05391259555654e-15,-0.7514695952195966,0.219975036982249,-1.2830802010489508,0.8347900596999165,29.721957648186415,39.97744631143858,40.0732919998802,1577399017.0,-27.717759090533807,-51.09899553036158,0.006732785
1169,1577399017.09,-0.0049635888076406,-0.0846145903796682,9.843030186201885,0.0183944761694928,-0.1050236996534388,9.83097158515744,0.0246427585508762,-0.0266281940739327,9.865307940673828,0.2923360685022865,-0.2713087128429878,-0.1138826695884145,-0.0694088819550304,0.010792802019817,-0.2504674399771341,-0.2257184284489328,-0.2195776962652439,0.0554526724466463,0.7933293269230788,-0.5112566773504303,-0.2254408785658824,-0.088192756762468,-3.207700502622377,0.9085374511306006,29.5302662713032,40.33686764309462,40.097253421990594,1577399017.0,-27.717759090533807,-51.09899553036158,0.006732785
1170,1577399017.1,-0.0672128319717031,-0.0582783721179495,9.845424387862042,0.0614901060523053,-0.1612874386671107,9.731612216260956,0.0198543552305637,-0.1080310505192452,9.81862100830078,0.1092305997522865,-0.3323438690929878,0.1607755335365854,-0.0388913038300304,-0.2486066120426829,-0.1131383384146341,-0.1952008503239328,-0.2500952743902439,0.0859702505716463,-0.6170339209401661,-0.1022513354700852,-0.8266165547415584,-1.4235865296562409,-0.916485857892108,2.30973788831361,29.86572618084883,40.360829065205024,40.02536915565939,1577399017.0,-27.717759090533807,-51.09899553036158,0.006732785
1171,1577399017.11,0.0094016211532958,-0.0558841704577933,9.732896909834698,0.0183944761694928,-0.1157976071241419,9.621478939893768,0.0270369602110325,-0.0577528156559639,9.859322436523437,-0.0433572908727134,-0.1492384003429878,0.0692227991615854,-0.0694088819550304,-0.0044659870426829,0.0394495522103658,0.0184221965510671,-0.4026831650152439,-0.0971352181783536,-0.9696247329059772,1.1247646901709418,-0.2254408785658824,0.0145298411524369,-1.832971715784216,0.6872952768385466,29.62611195974481,40.360829065205024,40.02536915565939,1577399017.0,-27.717759090533807,-51.09899553036158,0.006732785
1172,1577399017.12,-0.0145403954482656,-0.0941913970202932,9.754444724776103,0.0327596861304303,-0.1517106320264857,9.724429611280486,-0.0136644680116227,-0.0553586139958077,9.82580361328125,0.1550069669397865,0.1254198027820121,-0.1596590367759145,-0.0694088819550304,0.056569169207317,-0.1741734946646341,-0.1646832721989328,-0.1585425400152439,0.1470054068216463,-0.5288862179487167,0.4090053418803431,-0.300587838087841,-2.450812508805297,-2.5661604020979016,0.9822848425612848,29.65007338185521,40.21706053254261,40.26498337676341,1577399017.0,-27.717759090533807,-51.09899553036158,0.006732785
1173,1577399017.13,-0.0097519921279531,-0.0798261870593557,9.730502708174544,-0.0151243470726936,-0.1217831112745325,9.74837162788205,0.0042920444395481,-0.0278252949040108,9.80545289916992,0.3838888028772865,0.1559373809070121,-0.2054354039634145,-0.0999264600800304,-0.0807599323551829,-0.1894322837271341,-0.1646832721989328,-0.0669898056402439,-0.0055824838033536,1.6748063568376068,0.5112566773504262,-1.578086149961158,-2.450812508805297,-3.299349088411588,2.162243105452241,29.5302662713032,40.38479048731543,40.1691376883218,1577399017.0,-27.717759090533807,-51.09899553036158,0.006732785
1174,1577399017.14,-0.0217230004287344,-0.0750377837390433,9.81429976628001,-0.0055475404320686,-0.0798845822217982,9.757948434522676,0.0533731784727512,-0.0266281940739327,9.816226806640625,0.2313009122522865,-0.0882032440929878,-0.0833650914634145,-0.1304440382050304,0.087086747332317,-0.1741734946646341,-0.0120953815739328,-0.1890601181402439,-0.1886879525533537,1.14592013888889,-0.1022513354700852,-0.2254408785658824,-3.2725932921245406,-1.099783029470529,1.867253539729502,29.817803336628028,40.360829065205024,40.1691376883218,1577399017.0,-27.717759090533807,-51.09899553036158,0.006732785
1175,1577399017.15,-0.0025693871474844,-0.0510957671374808,9.831059177901103,0.0495190977515241,-0.1229802121046107,9.781890451124235,0.0437963718321262,0.0021022258479412,9.852139831542967,-0.1654276033727134,-0.1797559784679878,-0.1138826695884145,-0.0999264600800304,0.3007097942073171,-0.2352086509146341,-0.1646832721989328,-0.0975073837652439,-0.0666176400533536,-0.0881477029914563,-0.7157593482906008,-0.9769104737854758,-3.2725932921245406,-1.099783029470529,0.9822848425612848,29.817803336628028,40.360829065205024,40.21706053254261,1577399017.0,-27.717759090533807,-51.09899553036158,0.006732785
1176,1577399017.16,-0.0157374962783438,-0.0594754729480276,9.858592496992902,0.0207886778296491,-0.0762932797315638,9.745977426221891,0.0198543552305637,-0.0206426899235421,9.836577520751952,0.0481954435022865,-0.1034620331554878,0.0844815882240854,-0.0694088819550304,0.056569169207317,-0.1894322837271341,-0.0120953815739328,-0.1890601181402439,-0.0666176400533536,-0.1762954059829055,-0.2045026709401725,-1.502939190439193,-3.2725932921245406,-1.099783029470529,0.9822848425612848,29.76988049240722,40.28894479887381,40.07329199988018,1577399017.0,-27.717759090533807,-51.09899553036158,0.006732785
1177,1577399017.17,-0.0025693871474844,-0.034336355516387,9.811905564619854,-0.0151243470726936,-0.0583367672803919,9.827380282667209,0.0342195651915012,-0.0026861774723702,9.861716638183593,0.0481954435022865,-0.0882032440929878,-0.0223299352134145,0.0526614305449695,0.026051591082317,-0.2352086509146341,-0.0426129596989328,0.177150819359756,-0.2192055306783537,-0.9696247329059772,0.3067540064102557,-0.2254408785658824,-1.629031725486053,-3.299349088411588,3.637190934065935,29.817803336628028,40.21706053254261,40.0732919998802,1577399017.0,-27.717759090533807,-51.09899553036158,0.006732785
1178,1577399017.18,0.021372629454077,-0.005605935594512,9.792751951338603,0.0327596861304303,-0.0846729855421107,9.7675252411633,0.0294311618711887,-0.0122629841129952,9.81862100830078,0.2007833341272865,0.2169725371570121,0.2523282679115854,0.1442141649199695,0.056569169207317,-0.1131383384146341,0.1710100871760671,-0.0975073837652439,-0.0361000619283536,0.2644431089743619,0.9202620192307712,-1.277498311873317,-0.6018057463369949,-1.2830802010489508,3.1947065854818257,29.5302662713032,40.50459759786743,39.40237218078893,1577399017.0,-27.717759090533807,-51.09899553036158,0.006732785
1179,1577399017.19,-0.0265114037490469,-0.0223653472156058,9.716137498213604,-0.0127301454125374,-0.0703077755811732,9.700487594678924,0.0437963718321262,-0.0146571857731514,9.773131176757811,0.5059591153772866,0.2780076934070121,-0.0833650914634145,0.1136965867949695,-0.1570538776676829,-0.3267613852896341,0.0489397746760671,0.085598084984756,-0.0361000619283536,-1.14592013888889,-2.351780715811969,-0.9769104737854758,-1.629031725486053,-4.032537774725275,3.637190934065935,29.817803336628028,40.26498337676341,40.02536915565939,1577399017.0,-27.717759090533807,-51.09899553036158,0.006732785
1180,1577399017.2,-0.0145403954482656,-0.0498986663074026,9.792751951338603,-0.0019562379418347,-0.0798845822217982,9.734006417921112,0.0234456577207981,-0.0290223957340889,9.79348189086914,0.1244893888147865,-0.1644971894054878,-0.1901766149009144,0.0831790086699695,0.026051591082317,-0.2352086509146341,0.1710100871760671,-0.0059546493902439,-0.1581703744283536,-0.6170339209401732,-0.7157593482905988,-0.8266165547415553,-2.348089910890392,-3.207700502622377,2.530980062605664,29.65007338185521,40.1930991104322,40.48063617575703,1577399017.0,-27.717759090533807,-51.09899553036158,0.006732785
1181,1577399017.21,-0.0432708153701406,-0.0582783721179495,9.82148237126048,0.0231828794898053,-0.0750961789014857,9.724429611280486,0.0653441867735325,-0.0362050007145577,9.782707983398437,0.0787130216272865,-0.2102735565929878,-0.0223299352134145,0.2357668992949695,0.117604325457317,-0.1436559165396341,-0.0426129596989328,-0.0364722275152439,-0.0055824838033536,0.0881477029914492,1.1247646901709418,-0.2254408785658824,-2.861702900464919,-2.5661604020979016,0.6872952768385466,29.67403480396561,40.26498337676341,40.84005750741306,1577399017.0,-27.717759090533807,-51.09899553036158,0.006732785
1182,1577399017.22,-0.0193287987685781,-0.0510957671374808,9.828664976240947,0.0207886778296491,-0.0870671872022669,9.784284652784391,0.0629499851133762,-0.0625412189762764,9.81862100830078,-0.0433572908727134,-0.1492384003429878,-0.1138826695884145,-0.0999264600800304,0.239674637957317,-0.0826207602896341,-0.3477887409489328,-0.0975073837652439,-0.4023109994283537,-0.0881477029914563,0.1022513354700852,-1.578086149961158,-1.629031725486053,1.832971715784216,3.3422013683431966,29.86572618084883,40.408751909425824,40.1691376883218,1577399017.0,-27.717759090533807,-51.09899553036158,0.006732785
1183,1577399017.23,-0.03728531121975,-0.0487015654773245,9.77599253971751,-0.0247011537133186,-0.0966439938428919,9.803438266065642,0.0366137668516575,-0.0290223957340889,9.797073193359374,0.1702657560022865,-0.0119092987804878,-0.0070711461509145,-0.0388913038300304,0.2701922160823171,-0.2046910727896341,-0.0731305378239328,-0.1280249618902439,0.0249350943216463,-0.0881477029914563,0.1022513354700852,-0.6763226356976347,-1.4235865296562409,-2.0162688873626373,1.1297796254226546,29.5063048491928,40.21706053254261,40.360829065205024,1577399017.0,-27.717759090533807,-51.09899553036158,0.006732785
1184,1577399017.24,-0.0408766137099844,0.0015766693859557,9.816693967940166,-0.004350439601991,-0.0762932797315638,9.74238612373166,0.017460153570408,-0.0409934040348702,9.78151088256836,0.0176778653772865,0.2169725371570121,0.0692227991615854,-0.1457028272675304,0.041310380144817,-0.0368443931021341,-0.1341656940739328,-0.0364722275152439,-0.0055824838033536,0.2644431089743619,1.3292673611111123,0.2254408785658761,-1.526309127571147,-2.107917473151848,1.203527016853339,29.62611195974481,40.1930991104322,40.097253421990594,1577399017.0,-27.717759090533807,-51.09899553036158,0.006732785
1185,1577399017.25,-0.0624244286513906,-0.0199711455554495,9.766415733076888,-0.0558257752953499,-0.0583367672803919,9.654997763135956,-0.0208470729920915,0.0021022258479412,9.753977563476562,0.0787130216272865,-0.0271680878429878,-0.2969881383384145,-0.2830319288300305,0.117604325457317,-0.1741734946646341,-0.0120953815739328,-0.0669898056402439,-0.2497231088033537,0.0881477029914492,-0.5112566773504303,-0.2254408785658824,-3.2725932921245406,-2.9327547452547447,3.0472118026204567,29.5302662713032,40.360829065205024,40.0732919998802,1577399017.0,-27.717759090533807,-51.09899553036158,0.006732785
1186,1577399017.26,-0.0241172020888906,-0.024759548875762,9.72571430485423,-0.0414605653344124,-0.0846729855421107,9.71485280463986,0.0174601535704075,-0.0481760090153389,9.811438403320311,0.0787130216272865,0.2169725371570121,-0.0833650914634145,-0.2219967725800304,-0.0349835651676829,-0.2046910727896341,-0.1341656940739328,-0.3721655868902439,-0.1276527963033537,-1.3222155448717956,0.7157593482905967,0.3757347976097936,-1.629031725486053,-2.1995660589410586,3.0472118026204567,29.5302662713032,40.408751909425824,40.1691376883218,1577399017.0,-27.717759090533807,-51.09899553036158,0.006732785
1187,1577399017.27,-0.066015731141625,-0.0475044646472464,9.755641825606183,-0.0270953553734749,-0.0679135739210169,9.666968771436736,0.0198543552305637,-0.0026861774723702,9.770736975097655,-0.1349100252477134,-0.0576856659679878,-0.0528475133384145,0.1747317430449695,-0.0044659870426829,-0.2046910727896341,-0.1952008503239328,-0.0364722275152439,-0.2802406869283537,-0.7933293269230717,0.9202620192307712,0.2254408785658761,-1.4235865296562409,-2.3828632305194803,3.1947065854818257,29.79384191451762,40.408751909425824,39.88160062299697,1577399017.0,-27.717759090533807,-51.09899553036158,0.006732785
1188,1577399017.28,-0.0432708153701406,-0.072643582078887,9.68022447331126,-0.0258982545433967,-0.0715048764112513,9.787875955274629,0.0138688510801736,-0.0206426899235421,9.770736975097655,0.1397481778772865,0.0949022246570121,-0.0833650914634145,-0.0694088819550304,0.193898270769817,-0.1131383384146341,-0.1646832721989328,0.055080506859756,0.1317466177591463,-0.7933293269230717,0.9202620192307712,0.2254408785658761,-1.526309127571147,-2.841106159465534,2.678474845467033,29.67403480396561,40.408751909425824,40.26498337676341,1577399017.0,-27.717759090533807,-51.09899553036158,0.006732785
1189,1577399017.29,-0.0049635888076406,-0.0295479521960745,9.79035774967845,-0.0270953553734749,-0.1062208004835169,9.674151376417203,0.0198543552305637,-0.0314165973942452,9.751583361816406,-0.2264627596227134,0.0338670684070121,0.2523282679115854,-0.0388913038300304,-0.0960187214176829,-0.2046910727896341,-0.2257184284489328,-0.0669898056402439,0.0554526724466463,-0.7933293269230717,-0.3067540064102557,0.526028716653711,-1.629031725486053,-1.099783029470529,2.752222236897718,29.72195764818641,40.408751909425824,40.360829065205024,1577399017.0,-27.717759090533807,-51.09899553036158,0.006732785
1190,1577399017.3,-0.0217230004287344,-0.053489968797637,9.787963548018292,-0.0606141786156624,-0.1157976071241419,9.777102047803924,0.0198543552305637,-0.0266281940739327,9.816226806640625,-0.1043924471227134,0.3085252715320121,-0.2054354039634145,-0.0388913038300304,-0.0044659870426829,-0.2046910727896341,-0.0731305378239328,0.024562928734756,-0.1886879525533537,0.2644431089743619,-0.3067540064102557,0.526028716653711,-1.629031725486053,-2.5661604020979016,3.0472118026204567,29.43442058286159,40.408751909425824,40.1691376883218,1577399017.0,-27.717759090533807,-51.09899553036158,0.006732785
1191,1577399017.31,-0.0408766137099844,-0.0546870696277151,9.771204136397198,-0.0390663636742566,-0.09784109467297,9.732809317091034,0.0210514560606418,-0.0266281940739327,9.848548529052731,0.1397481778772865,0.0033494902820121,-0.0986238805259145,-0.0846676710175304,-0.1723126667301829,-0.1741734946646341,-0.0731305378239328,-0.1432837509527439,-0.0971352181783536,0.7933293269230788,1.1247646901709418,0.6763226356976285,-1.629031725486053,-2.5661604020979016,1.2772744082840235,29.76988049240722,40.24102195465301,40.12121484410101,1577399017.0,-27.717759090533807,-51.09899553036158,0.006732785
1192,1577399017.32,-0.0624244286513906,-0.0175769438952933,9.78317514469798,-0.0558257752953499,-0.0822787838819544,9.8058324677258,0.0102775485899387,-0.0146571857731514,9.842563024902343,0.1702657560022865,-0.2713087128429878,0.0081876429115854,-0.1914791944550304,-0.0349835651676829,0.0699671303353658,-0.1036481159489328,-0.0975073837652439,0.0249350943216463,0.7933293269230788,1.1247646901709418,0.6763226356976285,-2.861702900464919,-2.5661604020979016,0.9822848425612848,29.5302662713032,40.26498337676341,40.02536915565939,1577399017.0,-27.717759090533807,-51.09899553036158,0.006732785
1193,1577399017.33,-0.0983374535537344,-0.0463073638171683,9.816693967940166,-0.0677967835961311,-0.1253744137647669,9.724429611280486,-0.006481863031154,-0.0194455890934639,9.765948571777344,0.1092305997522865,-0.2102735565929878,-0.1444002477134145,0.0526614305449695,0.056569169207317,-0.1741734946646341,-0.1341656940739328,-0.2500952743902439,-0.1886879525533537,-1.4985109508547012,0.1022513354700852,-1.578086149961158,-0.6018057463369949,-0.916485857892108,0.8347900596999165,29.72195764818641,40.0732919998802,40.02536915565939,1577399017.0,-27.717759090533807,-51.09899553036158,0.006732785
1194,1577399017.34,-0.0767896386123282,-0.0941913970202932,9.787963548018292,-0.0462489686547249,-0.0846729855421107,9.762736837842986,0.0078833469297825,-0.0194455890934639,9.82580361328125,-0.1654276033727134,0.2169725371570121,-0.0528475133384145,-0.0999264600800304,0.209157059832317,-0.4183141196646341,-0.2257184284489328,-0.0669898056402439,-0.2802406869283537,0.6170339209401732,0.5112566773504262,-0.3757347976097998,0.219975036982249,2.016268887362638,3.1947065854818257,29.86572618084883,40.21706053254261,40.21706053254261,1577399017.0,-27.717759090533807,-51.09899553036158,0.006732785
1195,1577399017.35,-0.0324969078994375,-0.0487015654773245,9.778386741377668,-0.0175185487328499,-0.0810816830518763,9.756751333692597,-0.016058669671779,-0.0481760090153389,9.835380419921874,0.2007833341272865,0.1559373809070121,-0.0528475133384145,0.0374026414824695,0.102345536394817,-0.2199498618521341,-0.0273541706364328,-0.0059546493902439,-0.1429115853658536,3.552713678800501e-15,-0.409005341880343,-0.1502939190439205,-0.6018057463369959,-0.183297171578421,3.1947065854818257,29.65007338185521,40.26498337676341,40.12121484410099,1577399017.0,-27.717759090533807,-51.09899553036158,0.006732785
1196,1577399017.36,-0.0456650170302969,-0.053489968797637,9.845424387862042,-0.0582199769555061,-0.1086150021436732,9.824986081007053,0.012671750250095,-0.0242339924137764,9.85692823486328,-0.1959451814977134,-0.2713087128429878,0.0692227991615854,0.0831790086699695,0.117604325457317,-0.0215856040396341,-0.3477887409489328,-0.0059546493902439,-0.2497231088033537,-0.6170339209401661,-1.3292673611111123,0.3757347976097936,0.0145298411524369,-2.5661604020979016,3.0472118026204567,29.62611195974481,40.21706053254261,40.1691376883218,1577399017.0,-27.717759090533807,-51.09899553036158,0.006732785
1197,1577399017.37,-0.0935490502334219,-0.0606725737781058,9.85978959782298,-0.0342779603539436,-0.1086150021436732,9.834562887647678,0.0461905734922825,-0.0146571857731514,9.883264453125,-0.1349100252477134,0.0949022246570121,-0.0528475133384145,0.0526614305449695,0.209157059832317,-0.0826207602896341,-0.3172711628239328,-0.1890601181402439,-0.1581703744283537,0.6170339209401732,0.1022513354700852,-0.6763226356976347,0.0145298411524369,-1.099783029470529,3.3422013683431966,29.817803336628028,40.0732919998802,40.02536915565939,1577399017.0,-27.717759090533807,-51.09899553036158,0.006732785
1198,1577399017.38,-0.0456650170302969,-0.0403218596667776,9.799934556319077,-0.0223069520531624,-0.1086150021436732,9.731612216260956,0.0342195651915012,0.0164674358088787,9.89523546142578,-0.0128397127477134,-0.1492384003429878,0.0997403772865854,-0.1914791944550304,-0.2180890339176829,-0.0826207602896341,-0.1036481159489328,0.177150819359756,-0.0055824838033536,-0.5288862179487133,0.6135080128205114,-0.4508817571317586,0.4254202328120589,-2.9327547452547447,3.0472118026204567,29.55422769341361,40.60044328630904,40.02536915565939,1577399017.0,-27.717759090533807,-51.09899553036158,0.006732785
1199,1577399017.39,-0.0672128319717031,-0.024759548875762,9.845424387862042,-0.0163214479027717,-0.0930526913526575,9.815409274366427,0.0270369602110325,-0.0254310932438546,9.872490545654296,0.0481954435022865,-0.2102735565929878,-0.0833650914634145,-0.0694088819550304,0.087086747332317,-0.2046910727896341,-0.0883893268864328,-0.0517310165777439,-0.1123940072408536,-0.0881477029914563,0.1022513354700852,-0.3757347976097998,-0.807250942166808,-2.749457573676323,3.0472118026204567,29.62611195974481,40.28894479887381,40.1930991104322,1577399017.0,-27.717759090533807,-51.09899553036158,0.006732785
1200,1577399017.4,-0.0672128319717031,-0.015182742235137,9.766415733076888,-0.0294895570336311,-0.0966439938428919,9.774707846143768,0.0294311618711887,-0.0098687824528389,9.792284790039062,0.2618184903772865,0.0643846465320121,-0.0223299352134145,0.1747317430449695,-0.0960187214176829,-0.1741734946646341,-0.1341656940739328,-0.1280249618902439,-0.0971352181783536,-0.0881477029914563,0.1022513354700852,-0.3757347976097998,-1.629031725486053,-2.5661604020979016,3.3422013683431966,29.5302662713032,40.1691376883218,40.360829065205024,1577399017.0,-27.717759090533807,-51.09899553036158,0.006732785
1201,1577399017.41,-0.0312998070693594,0.0111534760265807,9.835847581221415,-0.0414605653344124,-0.0439715573194544,9.724429611280486,0.02224855689072,0.0212558391291912,9.804255798339844,0.1397481778772865,0.0643846465320121,0.0997403772865854,0.2357668992949695,0.148121903582317,-0.1436559165396341,0.0794573528010671,-0.0975073837652439,-0.0055824838033536,-0.4407385149572604,0.1022513354700852,-1.578086149961158,-2.656257704635109,-3.849240603146853,2.604727454036349,29.62611195974481,40.1691376883218,40.1691376883218,1577399017.0,-27.717759090533807,-51.09899553036158,0.006732785
1202,1577399017.42,-0.0456650170302969,-0.0080001372546683,9.762824430586653,-0.0007591371117569,-0.0798845822217982,9.71724700630002,0.0294311618711887,-0.0625412189762764,9.859322436523437,0.0939718106897865,0.018608279344512,-0.3122469274009145,-0.1914791944550304,0.087086747332317,-0.1131383384146341,-0.2562360065739328,0.085598084984756,-0.0055824838033536,-0.3525908119658112,0.409005341880341,-0.1502939190439237,-2.861702900464919,2.1995660589410586,4.522159631234151,29.65007338185521,40.02536915565939,40.0732919998802,1577399017.0,-27.717759090533807,-51.09899553036158,0.006732785
1203,1577399017.43,-0.0217230004287344,-0.024759548875762,9.826270774580792,-0.0115330445824597,-0.1050236996534388,9.778299148634002,0.0342195651915012,-0.0194455890934639,9.853336932373049,-0.3485330721227134,0.0643846465320121,-0.2359529820884145,-0.0999264600800304,0.1176043254573171,-0.2046910727896341,-0.2104596393864328,0.161892030297256,-0.1123940072408536,-0.6170339209401661,-0.5112566773504303,0.3757347976097936,-2.245367312975486,0.5498915147352648,1.8672535397295016,29.4823434270824,40.31290622098422,40.12121484410101,1577399017.0,-27.717759090533807,-51.09899553036158,0.006732785
1204,1577399017.44,-0.0265114037490469,-0.0175769438952933,9.792751951338603,-0.0270953553734749,-0.0942497921827357,9.774707846143768,0.04140217017197,-0.0218397907536202,9.866505041503906,-0.1654276033727134,-0.1797559784679878,-0.0223299352134145,0.1136965867949695,0.056569169207317,-0.2046910727896341,-0.1036481159489328,-0.1890601181402439,0.0554526724466463,-0.6170339209401661,-0.5112566773504303,0.3757347976097936,-0.8072509421668069,-4.032537774725275,3.637190934065935,29.817803336628028,40.26498337676341,40.02536915565939,1577399017.0,-27.717759090533807,-51.09899553036158,0.006732785
1205,1577399017.45,-0.0265114037490469,-0.0080001372546683,9.797540354658915,-0.0223069520531624,-0.0583367672803919,9.762736837842986,0.0653441867735325,-0.0122629841129952,9.82580361328125,0.1092305997522865,-0.2407911347179878,-0.1138826695884145,0.2662844774199695,0.056569169207317,-0.1741734946646341,0.2015276653010671,0.055080506859756,0.0859702505716463,0.6170339209401732,-0.7157593482906008,-0.0751469595219649,-0.8072509421668069,-4.032537774725275,3.637190934065935,29.5302662713032,40.02536915565939,40.408751909425824,1577399017.0,-27.717759090533807,-51.09899553036158,0.006732785
1206,1577399017.46,0.0010219153427494,0.0027737702160343,9.761627329756577,0.0076205686987897,-0.0643222714307825,9.784284652784391,0.0162630527403293,-0.0122629841129953,9.77432827758789,0.0176778653772865,0.0338670684070121,-0.0375887242759145,-0.0541500928925303,0.056569169207317,-0.1436559165396341,-0.1341656940739328,-0.0517310165777439,-0.1123940072408536,-0.5288862179487168,0.0,-0.6011756761756791,-1.937199519230769,-3.207700502622377,4.005927891219358,29.67403480396561,40.38479048731542,40.00140773354899,1577399017.0,-27.717759090533807,-51.09899553036158,0.006732785
1207,1577399017.47,-0.0552418236709219,-0.0487015654773245,9.749656321455792,-0.0270953553734749,-0.0511541622999232,9.70288179633908,0.0461905734922825,-0.0050803791325264,9.797073193359374,0.0787130216272865,0.4611131621570121,0.0692227991615854,-0.2525143507050305,0.056569169207317,-0.2352086509146341,-0.1952008503239328,0.024562928734756,-0.1886879525533537,1.3222155448717956,0.1022513354700852,-0.3757347976097998,-3.2725932921245406,-4.032537774725275,1.867253539729502,29.62611195974481,40.360829065205024,40.02536915565939,1577399017.0,-27.717759090533807,-51.09899553036158,0.006732785
1208,1577399017.48,0.0046132178329833,-0.0032117339343558,9.823876572920636,-0.0438547669945686,-0.0583367672803919,9.68372818305783,0.0390079685118137,0.0021022258479412,9.706093530273437,-0.0738748689977134,0.1864549590320121,-0.0833650914634145,-0.0083737257050304,0.239674637957317,-0.1741734946646341,0.0794573528010671,-0.2195776962652439,0.0859702505716463,1.3222155448717956,0.1022513354700852,-0.3757347976097998,-1.629031725486053,-4.032537774725275,1.867253539729502,29.5302662713032,40.21706053254261,40.21706053254261,1577399017.0,-27.717759090533807,-51.09899553036158,0.006732785
1209,1577399017.49,-0.0121461937881094,-0.0080001372546683,9.742473716475324,-0.0127301454125374,-0.0607309689405482,9.6909107880383,0.0437963718321262,-0.0218397907536202,9.756371765136718,0.1397481778772865,0.1254198027820121,-0.0528475133384145,0.1442141649199695,-0.0044659870426829,-0.5098668540396342,-0.1952008503239328,0.4212914443597561,-0.0055824838033536,-0.6170339209401661,-1.738272702991453,0.3757347976097936,-0.396360550507185,-3.299349088411588,4.227170065511412,29.817803336628028,40.360829065205024,40.26498337676341,1577399017.0,-27.717759090533807,-51.09899553036158,0.006732785
1210,1577399017.5,-0.0193287987685781,-0.01997114555545,9.749656321455792,-0.0067446412621467,-0.0858700863721888,9.745977426221891,0.0330224643614231,-0.0194455890934639,9.745597857666016,0.1702657560022865,-0.0271680878429878,-0.0070711461509145,-0.0083737257050304,0.026051591082317,-0.1894322837271341,-0.1341656940739328,-0.0822485947027439,-0.1429115853658537,-0.617033920940166,0.5112566773504283,-0.676322635697641,-2.450812508805297,-2.1995660589410586,3.342201368343196,29.602150537634408,40.1930991104322,40.408751909425824,1577399017.0,-27.717759090533807,-51.09899553036158,0.006732785
1211,1577399017.51,0.0094016211532958,-0.0295479521960745,9.747262119795636,-0.0103359437523811,-0.0559425656202357,9.762736837842986,0.0246427585508762,0.0068906291682537,9.792284790039062,-0.1349100252477134,0.0643846465320121,-0.2054354039634145,0.0221438524199695,-0.0044659870426829,-0.1131383384146341,0.0794573528010671,-0.3111304306402439,-0.0361000619283536,-0.6170339209401661,0.7157593482905967,-0.8266165547415584,-2.861702900464919,-2.5661604020979016,2.457232671174979,29.72195764818641,40.360829065205024,40.0732919998802,1577399017.0,-27.717759090533807,-51.09899553036158,0.006732785
1212,1577399017.52,-0.0217230004287344,-0.0750377837390433,9.773598338057356,0.0016350645483991,-0.0679135739210169,9.726823812940642,0.0533731784727512,-0.0122629841129952,9.852139831542967,0.2007833341272865,-0.0882032440929878,0.0387052210365854,-0.0694088819550304,-0.0044659870426829,-0.0215856040396341,-0.1036481159489328,-0.1280249618902439,-0.1276527963033537,-0.6170339209401661,0.7157593482905967,-0.8266165547415584,-2.861702900464919,-2.5661604020979016,1.2772744082840235,29.72195764818641,40.360829065205024,39.97744631143858,1577399017.0,-27.717759090533807,-51.09899553036158,0.006732785
1213,1577399017.53,-0.0109490929580313,-0.024759548875762,9.792751951338603,-0.0055475404320686,-0.0607309689405482,9.67893977973752,0.0150659519102512,0.0212558391291912,9.840168823242188,-0.1959451814977134,-0.0271680878429878,0.1760343225990854,-0.0694088819550304,0.087086747332317,-0.1741734946646341,-0.2562360065739328,-7.696384336890244,-0.0361000619283536,-1.0577724358974336,0.6135080128205115,-0.601175676175679,-2.656257704635109,-2.3828632305194803,1.4247691911453937,29.79384191451763,40.360829065205024,40.26498337676341,1577399017.0,-27.717759090533807,-51.09899553036158,0.006732785
1214,1577399017.54,0.0165842261337645,-0.0080001372546683,9.850212791182354,0.006423467868712,-0.036788952338986,9.74837162788205,0.0521760776426731,0.0152703349788006,9.81862100830078,-0.2264627596227134,-0.0576856659679878,-0.1749178258384145,-0.0694088819550304,0.209157059832317,-0.2352086509146341,-0.1799420612614328,-0.0975073837652439,-0.0055824838033536,0.9696247329059844,1.3292673611111123,-0.0751469595219649,-2.861702900464919,-2.566160402097902,1.2772744082840244,29.5302662713032,40.31290622098422,40.121214844101,1577399017.0,-27.717759090533807,-51.09899553036158,0.006732785
1215,1577399017.55,-0.0073577904677969,-0.072643582078887,9.66825346501048,-0.0510373719750374,-0.0487599606397669,9.71485280463986,0.012671750250095,-0.0242339924137764,9.710881933593749,-0.0738748689977134,-0.1492384003429878,-0.4495760289634145,0.0831790086699695,0.239674637957317,-0.2046910727896341,-0.1341656940739328,-0.2500952743902439,-0.0361000619283536,-0.4407385149572604,0.9202620192307712,-0.0751469595219649,-2.861702900464919,-2.9327547452547447,3.0472118026204567,29.72195764818641,40.360829065205024,40.1691376883218,1577399017.0,-27.717759090533807,-51.09899553036158,0.006732785
1216,1577399017.56,-0.0648186303115469,-0.0032117339343558,9.735291111494856,-0.0869503968773811,-0.0703077755811732,9.693304989698456,0.0246427585508762,-0.0242339924137764,9.79946739501953,0.0176778653772865,0.1864549590320121,-0.2054354039634145,0.0221438524199695,0.056569169207317,-0.2962438071646341,-0.2562360065739328,0.055080506859756,0.1775229849466463,-0.4407385149572604,0.9202620192307712,-0.0751469595219649,-2.861702900464919,-2.9327547452547447,3.0472118026204567,29.67403480396561,40.55252044208824,40.0732919998802,1577399017.0,-27.717759090533807,-51.09899553036158,0.006732785
1217,1577399017.57,-0.0396795128799063,-0.0115914397449026,9.777189640547588,-0.0486431703148811,-0.0703077755811732,9.74118902290158,0.0102775485899387,-0.0290223957340889,9.792284790039062,-0.1501688143102134,-0.1339796112804878,-0.0681063024009145,-0.2830319288300305,0.117604325457317,-0.1741734946646341,-0.1646832721989328,-0.0975073837652439,-0.0055824838033536,-0.1762954059829056,0.6135080128205135,0.3005878380878318,-3.067148096294731,-0.5498915147352641,3.784685716927304,29.65007338185521,40.408751909425824,39.97744631143858,1577399017.0,-27.717759090533807,-51.09899553036158,0.006732785
1218,1577399017.58,-0.0312998070693594,-0.0080001372546683,9.771204136397198,-0.0115330445824592,-0.0762932797315638,9.750765829542203,0.0030949436094705,-0.0230368915836983,9.79946739501953,-0.0433572908727134,0.1864549590320121,-0.1749178258384145,-0.0083737257050304,0.026051591082317,-0.1589147056021341,-0.0273541706364328,-0.0517310165777439,0.0096763052591463,-0.0881477029914563,-0.7157593482906008,0.526028716653711,-0.396360550507185,-2.5661604020979016,3.6371909340659343,29.86572618084883,40.48063617575703,40.12121484410099,1577399017.0,-27.717759090533807,-51.09899553036158,0.006732785
1219,1577399017.59,-0.0672128319717031,-0.0415189604968558,9.749656321455792,-0.0390663636742561,-0.0535483639600794,9.7292180146008,0.04140217017197,-0.0146571857731514,9.809044201660155,-0.0738748689977134,-0.0271680878429878,-0.1749178258384145,-0.3440670850800305,0.056569169207317,-0.2657262290396341,-0.1036481159489328,-0.0364722275152439,-0.0055824838033536,0.6170339209401732,0.1022513354700852,-0.6763226356976347,1.041755820301493,-3.1160519168331664,5.554623111263735,29.62611195974481,40.21706053254261,40.21706053254261,1577399017.0,-27.717759090533807,-51.09899553036158,0.006732785
1220,1577399017.6,-0.0696070336318594,-0.043913162157012,9.81429976628001,-0.0223069520531624,-0.0727019772413294,9.71006440131955,0.012671750250095,-0.0194455890934639,10.374075793457031,-0.1043924471227134,-0.0576856659679878,-0.1138826695884145,0.0831790086699695,-0.1875714557926829,-0.0215856040396341,-0.3172711628239328,-0.1585425400152439,-0.2192055306783537,-0.2644431089743548,0.7157593482905967,-0.8266165547415584,1.041755820301493,-2.3828632305194803,5.554623111263735,29.5302662713032,40.50459759786743,40.1691376883218,1577399017.0,-27.717759090533807,-51.09899553036158,0.006732785
1221,1577399017.61,-0.0588331261611563,-0.0223653472156062,9.774795438887434,-0.0055475404320691,-0.0738990780714075,9.75555423286252,-0.0040876613709982,-0.0194455890934639,9.804255798339844,-0.0128397127477134,-0.0271680878429878,0.0234464319740854,-0.0083737257050304,0.178639481707317,0.0241907631478658,-0.0120953815739328,-0.1280249618902439,-0.1276527963033536,-0.2644431089743548,0.7157593482905967,-1.4277922309172344,1.041755820301494,-3.1160519168331664,2.16224310545224,29.578189115524005,40.1930991104322,40.14517626621141,1577399017.0,-27.717759090533807,-51.09899553036158,0.006732785
1222,1577399017.62,-0.0432708153701406,-0.0463073638171683,9.76402153141673,-0.0486431703148811,-0.0559425656202357,9.70288179633908,-0.0208470729920915,-0.0002919758122141,9.81862100830078,0.1092305997522865,0.2169725371570121,0.0997403772865854,-0.0999264600800304,0.087086747332317,-0.3572789634146341,-0.1952008503239328,-0.0669898056402439,-0.1581703744283537,-1.14592013888889,0.1022513354700852,-1.277498311873317,0.0145298411524369,-1.099783029470529,5.702117894125108,29.67403480396561,40.360829065205024,40.1691376883218,1577399017.0,-27.717759090533807,-51.09899553036158,0.006732785
1223,1577399017.63,-0.0648186303115469,0.0111534760265807,9.780780943037824,-0.0270953553734749,-0.0248179440382044,9.71006440131955,-0.0184528713319352,0.0619572673518475,9.79946739501953,0.1702657560022865,0.1864549590320121,-0.2054354039634145,-0.0388913038300304,0.087086747332317,-0.1741734946646341,-0.1952008503239328,-0.1280249618902439,-0.0055824838033536,0.0881477029914492,-0.9202620192307712,-1.1272043928293995,-1.629031725486053,-4.032537774725275,2.457232671174979,29.62611195974481,40.360829065205024,40.02536915565939,1577399017.0,-27.717759090533807,-51.09899553036158,0.006732785
1224,1577399017.64,-0.0767896386123282,-0.010394338914825,9.76402153141673,-0.0797677918969124,-0.0511541622999232,9.796255661085176,0.031825363531345,0.00928483082841,9.821015209960937,0.1397481778772865,-0.0576856659679878,-0.0070711461509145,-0.0083737257050304,-0.0044659870426829,-0.1741734946646341,-0.1341656940739328,-0.0059546493902439,-0.2497231088033537,-1.4985109508547012,-1.5337700320512828,-0.0751469595219649,-1.629031725486053,-4.032537774725275,2.457232671174979,29.5542276934136,40.408751909425824,40.0732919998802,1577399017.0,-27.717759090533807,-51.09899553036158,0.006732785
1225,1577399017.65,-0.0217230004287344,0.0350954926281432,9.76402153141673,-0.0725851869164436,-0.0583367672803919,9.744780325391815,-0.0028905605409201,-0.0122629841129957,9.81862100830078,0.0787130216272865,0.3390428496570121,0.1302579554115854,-0.0541500928925303,0.163380692644817,-0.1283971274771341,0.0184221965510671,0.055080506859756,0.0401938833841463,-1.14592013888889,-1.5337700320512828,-0.0751469595219649,-1.629031725486053,-4.032537774725275,3.342201368343196,29.67403480396561,40.31290622098422,40.14517626621141,1577399017.0,-27.717759090533807,-51.09899553036158,0.006732785
1226,1577399017.66,-0.0672128319717031,0.0183360810070494,9.778386741377668,-0.0366721620140999,-0.0990381955030482,9.829774484327364,-0.0136644680116227,0.038015250750285,9.854534033203125,0.2618184903772865,0.1254198027820121,-0.1138826695884145,-0.1304440382050304,-0.3096417682926829,0.0699671303353658,-0.1036481159489328,0.085598084984756,-0.0361000619283536,0.7933293269230788,0.7157593482905967,-0.8266165547415584,-1.629031725486053,-4.032537774725275,2.457232671174979,29.5302662713032,40.55252044208824,39.83367777877617,1577399017.0,-27.717759090533807,-51.09899553036158,0.006732785
1227,1577399017.67,-0.0384824120498281,0.0470665009289244,9.82148237126048,-0.0606141786156624,-0.0798845822217982,9.769919442823456,0.02224855689072,0.0044964275080975,9.832986218261718,0.1092305997522865,0.0949022246570121,0.0081876429115854,-0.2219967725800304,-0.1875714557926829,-0.0215856040396341,-0.0120953815739328,-0.1585425400152439,0.1775229849466463,-0.9696247329059772,1.5337700320512828,-0.8266165547415584,0.0145298411524369,-4.032537774725275,5.407128328402368,29.43442058286159,40.0732919998802,40.1691376883218,1577399017.0,-27.717759090533807,-51.09899553036158,0.006732785
1228,1577399017.68,-0.0576360253310781,-0.0786290862292781,9.908870731856185,-0.0055475404320686,-0.1134034054639857,9.71006440131955,0.0390079685118137,-0.0050803791325264,9.794678991699218,-0.2264627596227134,-0.1492384003429878,0.0844815882240854,0.0526614305449695,-0.3096417682926829,-0.1131383384146341,-0.1952008503239328,-0.1585425400152439,-0.2192055306783537,0.4407385149572675,-0.1022513354700852,-0.8266165547415584,0.0145298411524369,-4.032537774725275,5.407128328402368,29.74591907029682,40.26498337676341,40.1691376883218,1577399017.0,-27.717759090533807,-51.09899553036158,0.006732785
1229,1577399017.69,-0.0743954369521719,0.1069215424328307,9.759233128096415,-0.0318837586937874,-0.0762932797315638,9.783087551954315,0.0258398593809543,-0.0038832783024483,9.81263550415039,0.9026876310022866,0.6747362090320121,-0.1749178258384145,-0.0694088819550304,0.010792802019817,-0.1436559165396341,-0.2257184284489328,-0.0669898056402439,-0.1581703744283537,0.2644431089743619,-1.1247646901709418,-0.3757347976097998,-2.450812508805297,-3.299349088411588,4.522159631234151,29.5302662713032,40.33686764309462,40.14517626621141,1577399017.0,-27.717759090533807,-51.09899553036158,0.006732785
1230,1577399017.7,-0.0743954369521719,-0.1157392119616995,9.819088169600322,-0.0103359437523811,-0.0607309689405482,9.82019767768674,0.0342195651915012,-0.0074745807926827,9.89523546142578,-0.8673319002477134,-0.7290723847179879,0.0692227991615854,-0.0388913038300304,0.2701922160823171,0.0089319740853658,-0.1341656940739328,-0.1280249618902439,-0.2497231088033537,-0.6170339209401661,-1.3292673611111123,-1.1272043928293995,0.0145298411524369,-1.466377372627372,2.457232671174979,29.67403480396561,40.1691376883218,40.0732919998802,1577399017.0,-27.717759090533807,-51.09899553036158,0.006732785
1231,1577399017.71,-0.0312998070693594,0.0614317108898619,9.79514615299876,-0.0103359437523811,-0.0439715573194544,9.781890451124235,0.0366137668516575,-0.0002919758122141,9.794678991699218,0.9026876310022866,0.5831834746570121,0.2828458460365854,-0.0694088819550304,0.117604325457317,-0.2352086509146341,-0.0426129596989328,0.116115663109756,-0.2497231088033537,-0.7933293269230717,-0.3067540064102557,0.2254408785658761,-3.2725932921245406,-1.099783029470529,1.867253539729502,29.67403480396561,40.21706053254261,39.97744631143858,1577399017.0,-27.717759090533807,-51.09899553036158,0.006732785
1232,1577399017.72,-0.0420737145400625,-0.0498986663074026,9.83465048039134,-0.0366721620141004,-0.0810816830518763,9.775904946973846,0.0306282627012668,0.0128761333186448,9.829394915771484,-0.3027567049352134,0.0643846465320121,0.1149991663490854,0.0221438524199695,-0.0502423542301829,-0.1894322837271341,-0.0578717487614328,-0.2043189072027439,-0.2192055306783537,0.7933293269230788,-0.5112566773504303,0.0751469595219524,-3.2725932921245406,-1.8329717157842156,3.637190934065935,29.67403480396561,40.38479048731543,40.16913768832181,1577399017.0,-27.717759090533807,-51.09899553036158,0.006732785
1233,1577399017.73,-0.0456650170302969,-0.005605935594512,9.81429976628001,-0.0223069520531624,-0.0320005490186732,9.71485280463986,0.00309494360947,0.057168864031535,9.861716638183593,-0.2874979158727134,-0.3018262909679878,0.0081876429115854,-0.0083737257050304,-0.0349835651676829,-0.1436559165396341,-0.0731305378239328,-0.2806128525152439,-0.2192055306783537,-0.2644431089743548,-0.9202620192307712,-0.2254408785658824,-2.656257704635109,-0.916485857892108,2.0147483225908704,29.86572618084883,40.26498337676341,40.1691376883218,1577399017.0,-27.717759090533807,-51.09899553036158,0.006732785
1234,1577399017.74,-0.0408766137099844,-0.053489968797637,9.87176060612376,0.0231828794898053,-0.0750961789014857,9.765131039503142,0.0150659519102512,0.04759205739091,9.813832604980467,0.2007833341272865,-0.1797559784679878,-0.0223299352134145,-0.0083737257050304,-0.0349835651676829,-0.3572789634146341,-0.2257184284489328,-0.2195776962652439,-0.0361000619283536,0.4407385149572675,0.3067540064102557,0.0751469595219524,-2.656257704635109,-3.849240603146853,3.784685716927304,29.72195764818641,40.21706053254261,39.88160062299697,1577399017.0,-27.717759090533807,-51.09899553036158,0.006732785
1235,1577399017.75,-0.0408766137099844,-0.0271537505359183,9.787963548018292,-0.0318837586937874,-0.0439715573194544,9.71006440131955,0.031825363531345,0.0212558391291912,9.849745629882811,0.0176778653772865,-0.0882032440929878,-0.0223299352134145,0.0526614305449695,-0.1570538776676829,-0.2352086509146341,-0.2867535846989328,-0.0669898056402439,-0.2802406869283537,-2.027397168803418,-0.5112566773504303,-0.8266165547415584,-2.656257704635109,0.1832971715784216,2.0147483225908704,29.62611195974481,40.21706053254261,40.26498337676341,1577399017.0,-27.717759090533807,-51.09899553036158,0.006732785
1236,1577399017.76,0.0022190161728275,-0.0187740447253719,9.561711491133527,-0.0199127503930061,-0.0367889523389857,9.765131039503142,0.0497818759825168,0.0116790324885662,9.832986218261718,0.4907003263147865,-0.3018262909679878,0.0539640100990854,-0.2372555616425304,0.163380692644817,0.0089319740853658,-0.1952008503239328,-0.0975073837652439,-0.0361000619283536,-0.9696247329059772,1.1247646901709418,-1.1272043928293995,-1.012696137996619,-1.2830802010489506,2.604727454036348,29.69799622607601,40.1691376883218,39.80971635666577,1577399017.0,-27.717759090533807,-51.09899553036158,0.006732785
1237,1577399017.77,-0.0672128319717031,-0.0295479521960745,10.017806907393291,0.0016350645483991,-0.0583367672803919,9.762736837842986,0.0007007419493139,-0.0098687824528389,9.765948571777344,-0.6842264314977134,-0.3628614472179878,-0.3275057164634145,-0.3440670850800305,0.026051591082317,-0.2046910727896341,0.0794573528010671,-0.1585425400152439,0.0249350943216463,-0.9696247329059772,1.1247646901709418,-1.1272043928293995,0.4254202328120589,-1.466377372627372,3.0472118026204567,29.817803336628028,40.1691376883218,40.0732919998802,1577399017.0,-27.717759090533807,-51.09899553036158,0.006732785
1238,1577399017.78,-0.0408766137099844,0.0327012909679869,9.780780943037824,-0.0247011537133186,-0.0224237423780482,9.772313644483612,0.0174601535704075,-0.0290223957340889,9.8449572265625,-0.0128397127477134,0.2780076934070121,0.0692227991615854,-0.0999264600800304,-0.0655011432926829,-0.0521031821646341,-0.1952008503239328,-0.0364722275152439,-0.4633461556783537,-0.0881477029914563,0.5112566773504262,-0.0751469595219649,-2.450812508805297,-1.099783029470529,4.81714919695689,29.67403480396561,40.408751909425824,40.26498337676341,1577399017.0,-27.717759090533807,-51.09899553036158,0.006732785
1239,1577399017.79,-0.0360882103896719,0.009956375196503,9.810708463789776,-0.0342779603539436,-0.1014323971632044,9.70288179633908,0.0078833469297825,-0.0290223957340889,9.811438403320311,-0.1806863924352134,0.1254198027820121,0.0234464319740854,-0.2525143507050305,0.209157059832317,-0.1741734946646341,-0.3172711628239328,-0.0975073837652439,-0.1886879525533537,-0.6170339209401732,0.3067540064102557,-0.0751469595219618,-3.2725932921245406,-2.5661604020979016,2.457232671174979,29.67403480396561,40.21706053254261,40.0732919998802,1577399017.0,-27.717759090533807,-51.09899553036158,0.006732785
1240,1577399017.8,-0.0265114037490469,-0.082220388719512,9.855001194502666,-0.0438547669945686,-0.0679135739210169,9.737597720411346,0.0246427585508767,-0.0194455890934639,9.807847100830076,-0.5011209627477134,-0.0882032440929878,-0.1749178258384145,-0.2067379835175304,-0.0807599323551829,-0.0521031821646341,-0.0578717487614328,0.039821717797256,-0.2802406869283537,0.2644431089743619,-0.7157593482906008,-0.3757347976097998,-2.450812508805297,-1.466377372627372,4.227170065511412,29.72195764818641,40.408751909425824,40.24102195465301,1577399017.0,-27.717759090533807,-51.09899553036158,0.006732785
1241,1577399017.81,-0.0169345971084219,-0.0654609770984183,9.778386741377668,-0.0510373719750374,-0.0631251706007044,9.712458602979703,0.0629499851133762,0.018861637469035,9.758765966796874,0.0787130216272865,0.1254198027820121,-0.2359529820884145,-0.0083737257050304,0.148121903582317,-0.0826207602896341,0.0489397746760671,-0.0975073837652439,-0.0971352181783536,0.2644431089743619,-0.7157593482906008,-0.3757347976097998,-1.4235865296562409,-0.916485857892108,2.0147483225908704,29.67403480396561,40.408751909425824,40.02536915565939,1577399017.0,-27.717759090533807,-51.09899553036158,0.006732785
1242,1577399017.82,-0.0265114037490469,-0.0008175322741997,9.768809934737044,-0.0414605653344124,-0.0535483639600794,9.657391964796112,0.0342195651915012,-0.0098687824528389,9.789890588378906,-0.1959451814977134,0.0338670684070121,-0.1138826695884145,0.1136965867949695,0.178639481707317,-0.1436559165396341,-0.2562360065739328,-0.0364722275152439,-0.1276527963033537,0.0881477029914492,1.1247646901709418,-0.5260287166537173,-3.2725932921245406,-3.299349088411588,1.5722639740067632,29.62611195974481,40.408751909425824,40.1691376883218,1577399017.0,-27.717759090533807,-51.09899553036158,0.006732785
1243,1577399017.83,-0.0217230004287349,-0.0403218596667781,9.937601151778058,-0.0294895570336311,-0.0870671872022669,9.757948434522676,0.0366137668516575,-0.0122629841129952,9.79946739501953,-0.5926736971227134,-0.1797559784679878,0.0387052210365854,0.2052493211699695,0.117604325457317,-0.2962438071646341,-0.1952008503239328,0.116115663109756,0.0554526724466463,-1.586658653846154,-2.05391259555654e-15,-0.300587838087841,-2.2453673129754868,-0.916485857892108,2.604727454036349,29.65007338185521,40.408751909425824,40.02536915565939,1577399017.0,-27.717759090533807,-51.09899553036158,0.006732785
1244,1577399017.84,0.0381320410751708,0.0039708710461119,9.601215818526104,-0.0306866578637092,-0.0655193722608607,9.834562887647678,0.050978976812595,0.004496427508098,9.813832604980467,0.9332052091272866,1.101982302782012,-0.0223299352134145,-0.0999264600800304,0.026051591082317,-0.2504674399771341,-0.1189069050114328,-0.1432837509527439,-0.0971352181783536,-0.4407385149572604,-0.3067540064102557,0.526028716653711,-2.348089910890392,-0.8248372721028966,4.300917456942097,29.67403480396561,40.31290622098422,40.1691376883218,1577399017.0,-27.717759090533807,-51.09899553036158,0.006732785
1245,1577399017.85,-0.1079142601943594,-0.1468638335437307,9.71374329655345,0.0016350645483991,-0.0894613888624232,9.76034263618283,0.012671750250095,-0.0026861774723702,9.801861596679688,-0.4400858064977134,-0.3018262909679878,-0.2359529820884145,-0.1304440382050304,-0.0655011432926829,-0.1436559165396341,-0.0120953815739328,-0.2195776962652439,0.0554526724466463,-0.4407385149572604,-0.3067540064102557,0.526028716653711,-1.629031725486053,-1.099783029470529,5.407128328402368,29.67403480396561,40.408751909425824,40.26498337676341,1577399017.0,-27.717759090533807,-51.09899553036158,0.006732785
1246,1577399017.86,0.0572856543564208,-0.0941913970202932,9.59882161686595,-0.0151243470726936,-0.0846729855421107,9.789073056104703,0.02224855689072,0.0164674358088787,9.828197814941406,0.1702657560022865,0.4305955840320121,0.0387052210365854,0.0831790086699695,0.056569169207317,-0.0215856040396341,-0.1036481159489328,-0.0669898056402439,-0.0055824838033536,-0.6170339209401661,1.5337700320512828,-0.2254408785658824,-3.2725932921245406,-1.099783029470529,5.997107459847844,29.62611195974481,40.408751909425824,40.02536915565939,1577399017.0,-27.717759090533807,-51.09899553036158,0.006732785
1247,1577399017.87,-0.0025693871474849,0.0638259125500182,9.91605333683665,0.0076205686987898,-0.0834758847120325,9.771116543653534,0.0354166660215793,-0.0062774799626046,9.846154327392576,0.4907003263147865,-0.1492384003429878,0.0997403772865854,0.2052493211699695,0.010792802019817,-0.0063268149771341,-0.0883893268864328,-0.0822485947027439,-0.1123940072408536,-0.617033920940166,-0.3067540064102578,0.225440878565873,-1.0126961379966188,-4.032537774725275,5.997107459847844,29.65007338185521,40.360829065205024,40.049330577769794,1577399017.0,-27.717759090533807,-51.09899553036158,0.006732785
1248,1577399017.88,-0.0001751854873286,-0.1803826567859183,9.943586655928447,0.0088176695288678,-0.0415773556592982,9.762736837842986,0.0557673801329075,-0.0002919758122141,9.746794958496093,-1.0504373689977131,-0.5459669159679879,-0.0223299352134145,-0.0694088819550304,0.2701922160823171,-0.3267613852896341,-0.0426129596989328,-0.1585425400152439,0.0554526724466463,-0.0881477029914563,0.1022513354700852,-1.277498311873317,0.0145298411524369,-2.5661604020979016,5.407128328402368,29.62611195974481,40.408751909425824,40.26498337676341,1577399017.0,-27.717759090533807,-51.09899553036158,0.006732785
1249,1577399017.89,-0.0767896386123282,-0.0487015654773245,9.632340440108136,0.0303654844702741,-0.1205860104444544,9.71724700630002,0.0533731784727512,-0.0050803791325264,9.78031378173828,0.9332052091272866,1.193535037157012,0.0387052210365854,-0.0388913038300304,0.178639481707317,-0.2962438071646341,0.1710100871760671,-0.1585425400152439,-0.1581703744283537,-0.0881477029914563,0.1022513354700852,-1.277498311873317,-2.861702900464919,-1.099783029470529,1.867253539729502,29.5302662713032,40.26498337676341,40.0732919998802,1577399017.0,-27.717759090533807,-51.09899553036158,0.006732785
1250,1577399017.9,0.011795822813452,-0.1037682036609183,9.804722959639388,0.0040292662085553,-0.0511541622999232,9.695699191358612,0.0150659519102512,-0.0050803791325264,9.756371765136718,-0.2874979158727134,-0.3628614472179878,0.1607755335365854,-0.1914791944550304,0.148121903582317,-0.0521031821646341,0.0489397746760671,-0.1585425400152439,-0.1276527963033537,-0.4407385149572604,-0.3067540064102557,0.526028716653711,-2.656257704635109,-0.916485857892108,5.554623111263735,29.62611195974481,40.1691376883218,40.0732919998802,1577399017.0,-27.717759090533807,-51.09899553036158,0.006732785
1251,1577399017.91,-0.0121461937881094,-0.0319421538562312,9.786766447188215,-0.0127301454125379,-0.0918555905225794,9.686122384717986,0.0042920444395486,-0.0242339924137764,9.785102185058593,-0.0738748689977134,0.0796434355945121,-0.0070711461509145,0.1289553758574695,0.087086747332317,-0.1131383384146341,-0.0731305378239328,-0.0517310165777439,-0.0208412728658536,-0.2644431089743584,-0.3067540064102577,0.0751469595219556,-3.2725932921245406,-1.099783029470529,3.1947065854818266,29.62611195974481,40.36082906520502,40.24102195465301,1577399017.0,-27.717759090533807,-51.09899553036158,0.006732785
1252,1577399017.92,0.0070074194931395,0.0015766693859557,9.759233128096415,0.0303654844702741,-0.0463657589796107,9.80822666938596,0.0437963718321262,-0.0122629841129952,9.789890588378906,0.3228536466272865,0.2474901152820121,0.0997403772865854,-0.0388913038300304,-0.0044659870426829,-0.1131383384146341,-0.2867535846989328,0.055080506859756,-0.0055824838033536,0.7933293269230788,0.7157593482905967,-0.8266165547415584,-3.067148096294731,2.016268887362638,5.554623111263735,29.67403480396561,40.360829065205024,40.02536915565939,1577399017.0,-27.717759090533807,-51.09899553036158,0.006732785
1253,1577399017.93,-0.0073577904677969,0.0135476776867369,9.804722959639388,-0.0318837586937874,-0.0439715573194544,9.762736837842986,0.0390079685118137,0.0021022258479412,9.823409411621093,-0.0128397127477134,-0.1187208222179878,0.2218106897865854,0.1747317430449695,0.056569169207317,-0.2046910727896341,-0.3172711628239328,0.085598084984756,0.2690757193216463,0.7933293269230788,0.7157593482905967,-0.8266165547415584,-3.067148096294731,2.382863230519481,6.144602242709213,29.67403480396561,40.360829065205024,40.0732919998802,1577399017.0,-27.717759090533807,-51.09899553036158,0.006732785
1254,1577399017.94,-0.027708504579125,-0.0115914397449031,9.840635984541729,0.0112118711890241,-0.0248179440382044,9.674151376417203,0.0485847751524387,-0.0146571857731514,9.753977563476562,0.0176778653772865,0.0796434355945121,-0.0833650914634145,0.1442141649199695,0.087086747332317,-0.1131383384146341,-0.3477887409489328,-0.0059546493902439,-0.1581703744283537,-0.0881477029914563,-0.1022513354700873,-0.5260287166537172,-3.2725932921245406,2.1995660589410586,5.997107459847844,29.76988049240722,40.1691376883218,40.84005750741306,1577399017.0,-27.717759090533807,-51.09899553036158,0.006732785
1255,1577399017.95,-0.0552418236709219,-0.0080001372546683,9.81429976628001,0.0160002745093366,-0.0810816830518763,9.745977426221891,0.0174601535704075,-0.0098687824528394,9.832986218261718,-0.1654276033727134,-0.3933790253429878,0.0692227991615854,-0.2067379835175304,-0.0502423542301829,-0.0673619712271341,-0.1494244831364328,-0.0975073837652439,0.0554526724466463,0.9696247329059844,0.1022513354700852,0.8266165547415459,-1.6290317254860518,-3.1160519168331664,5.849612676986476,29.62611195974481,40.24102195465301,40.1930991104322,1577399017.0,-27.717759090533807,-51.09899553036158,0.006732785
1256,1577399017.96,-0.0432708153701406,-0.0103943389148245,9.799934556319077,-0.0462489686547249,-0.0535483639600794,9.71485280463986,0.0821035983946262,-0.0074745807926827,9.785102185058593,-0.1349100252477134,0.0338670684070121,0.0692227991615854,-0.2830319288300305,0.148121903582317,-0.2962438071646341,-0.3783063190739328,-0.0364722275152439,-0.0971352181783536,-1.4985109508547012,0.9202620192307712,-0.3757347976097998,0.0145298411524369,-2.9327547452547447,5.702117894125108,29.62611195974481,40.408751909425824,40.02536915565939,1577399017.0,-27.717759090533807,-51.09899553036158,0.006732785
1257,1577399017.97,-0.0504534203506094,-0.0367305571765433,9.771204136397198,-0.0127301454125374,-0.0870671872022669,9.705275997999236,0.0102775485899387,-0.0050803791325264,9.777919580078123,-0.2569803377477134,0.2780076934070121,-0.0528475133384145,0.1136965867949695,0.117604325457317,-0.1741734946646341,-0.1646832721989328,-7.543796446265244,-0.3412758431783537,-1.4985109508547012,0.9202620192307712,-0.3757347976097998,0.0145298411524369,-4.032537774725275,5.407128328402368,29.72195764818641,40.360829065205024,40.0732919998802,1577399017.0,-27.717759090533807,-51.09899553036158,0.006732785
1258,1577399017.98,-0.0049635888076411,-0.0391247588366995,9.766415733076888,-0.0103359437523811,-0.0846729855421107,9.784284652784391,-0.006481863031154,-0.0050803791325264,9.794678991699218,0.0024190763147865,0.2169725371570121,-0.0223299352134145,-0.0388913038300304,0.148121903582317,0.0089319740853658,-0.0731305378239328,-0.0364722275152439,0.0249350943216463,0.0881477029914563,0.1022513354700852,0.0751469595219556,-3.2725932921245406,-1.099783029470529,5.407128328402368,29.626111959744808,40.21706053254261,39.97744631143858,1577399017.0,-27.717759090533807,-51.09899553036158,0.006732785
1259,1577399017.99,-0.0504534203506094,-0.024759548875762,9.771204136397198,-0.0594170777855842,-0.1313599179151575,9.72203540962033,0.0210514560606418,-0.0409934040348702,9.79946739501953,-0.1043924471227134,0.0338670684070121,-0.1138826695884145,-0.3135495069550305,0.3617449504573171,-0.0826207602896341,0.0336809856135671,-0.1585425400152439,-0.0818764291158536,-0.9696247329059772,0.3067540064102557,0.0751469595219524,0.1172524390673429,-3.207700502622377,5.480875719833051,29.5302662713032,40.43271333153623,40.24102195465301,1577399017.0,-27.717759090533807,-51.09899553036158,0.006732785
1260,1577399018.0,-0.0384824120498281,-0.0199711455554495,9.826270774580792,-0.0151243470726936,-0.1038265988233607,9.848928097608615,0.0246427585508762,-0.0122629841129952,9.811438403320311,0.2313009122522865,0.1864549590320121,0.1607755335365854,-0.0694088819550304,-0.0044659870426829,-0.2046910727896341,-0.3477887409489328,-0.2195776962652439,-0.1581703744283537,-0.2644431089743548,-0.9202620192307712,-0.5260287166537173,0.219975036982249,-0.916485857892108,3.1947065854818257,29.5302662713032,40.360829065205024,40.26498337676341,1577399018.0,-27.717759617301105,-51.098995109807895,0.04352711
1261,1577399018.01,-0.0576360253310781,-0.043913162157012,9.792751951338603,-0.0342779603539436,-0.0894613888624232,9.76034263618283,0.07970939673447,0.0164674358088787,9.823409411621093,0.1702657560022865,-0.0271680878429878,-0.0223299352134145,0.0831790086699695,0.239674637957317,-0.0826207602896341,-0.1341656940739328,0.055080506859756,-0.0971352181783536,-0.2644431089743548,-0.9202620192307712,-0.5260287166537173,-2.656257704635109,-0.916485857892108,5.554623111263735,29.62611195974481,40.50459759786743,40.02536915565939,1577399018.0,-27.717759617301105,-51.098995109807895,0.04352711
1262,1577399018.02,-0.066015731141625,-0.043913162157012,9.82746787541087,-0.0390663636742561,-0.0822787838819544,9.784284652784397,0.0234456577207981,0.0092848308284105,9.81981810913086,0.0787130216272865,0.0643846465320121,-0.1291414586509145,-0.2677731397675304,0.209157059832317,-0.3572789634146341,-0.0731305378239328,-0.0669898056402439,0.0554526724466463,0.7933293269230788,0.3067540064102557,0.6763226356976284,-2.348089910890392,-1.0081344436813184,6.070854851278528,29.626111959744808,40.1930991104322,40.121214844101,1577399018.0,-27.717759617301105,-51.098995109807895,0.04352711
1263,1577399018.03,-0.0552418236709219,-0.0295479521960745,9.807117161299542,-0.0223069520531624,-0.0607309689405482,9.824986081007053,0.0078833469297825,-0.0266281940739327,9.811438403320311,-0.0738748689977134,0.0338670684070121,-0.1444002477134145,-0.1609616163300304,0.056569169207317,0.0089319740853658,-0.0120953815739328,-0.0669898056402439,0.0554526724466463,-0.4407385149572604,-1.1247646901709418,0.2254408785658761,-3.2725932921245406,-1.099783029470529,5.997107459847844,29.62611195974481,40.408751909425824,40.26498337676341,1577399018.0,-27.717759617301105,-51.098995109807895,0.04352711
1264,1577399018.04,-0.0576360253310781,-0.0295479521960745,9.792751951338603,-0.0270953553734749,-0.0846729855421107,9.719641207960176,0.0294311618711887,-0.0314165973942452,9.753977563476562,-0.1654276033727134,0.0949022246570121,-0.1749178258384145,-0.2525143507050305,-0.1570538776676829,-0.3572789634146341,-0.1952008503239328,-0.2195776962652439,0.0554526724466463,-0.9696247329059772,0.3067540064102557,-0.8266165547415584,-3.2725932921245406,-2.5661604020979016,5.997107459847844,29.5302662713032,40.360829065205024,40.02536915565939,1577399018.0,-27.717759617301105,-51.098995109807895,0.04352711
1265,1577399018.05,-0.0576360253310781,-0.0415189604968558,9.816693967940166,-0.0247011537133186,-0.1038265988233607,9.705275997999236,-0.0328180812928727,0.0044964275080975,9.821015209960937,0.0634542325647865,0.0643846465320121,-0.0223299352134145,0.0831790086699695,0.087086747332317,-0.1741734946646341,-0.1952008503239328,-0.0364722275152439,-0.2192055306783537,-0.9696247329059772,0.3067540064102557,-0.8266165547415584,-3.2725932921245406,-2.5661604020979016,5.997107459847844,29.602150537634408,40.360829065205024,40.1691376883218,1577399018.0,-27.717759617301105,-51.098995109807895,0.04352711
1266,1577399018.06,-0.0480592186904531,-0.024759548875762,9.811905564619854,-0.037869262844178,-0.0715048764112513,9.745977426221891,0.2963846469786111,0.018861637469035,9.759963067626952,0.0787130216272865,0.0033494902820121,0.0081876429115854,-0.1304440382050304,0.056569169207317,-0.3115025962271341,-0.1036481159489328,0.100856874047256,0.0401938833841463,-0.0881477029914563,-0.3067540064102557,0.526028716653711,-1.320863931741336,-2.107917473151848,4.300917456942097,29.67403480396561,40.38479048731543,40.121214844101,1577399018.0,-27.717759617301105,-51.098995109807895,0.04352711
1267,1577399018.07,-0.0289056054092031,-0.0989798003406057,9.83345337956126,0.0040292662085553,-0.1301628170850794,9.803438266065642,0.0174601535704075,-0.0362050007145577,9.777919580078123,0.0176778653772865,0.0643846465320121,-0.0833650914634145,-0.0388913038300304,0.117604325457317,-0.1436559165396341,-0.1646832721989328,-0.1585425400152439,-0.0055824838033536,-0.0881477029914563,0.5112566773504262,-0.0751469595219649,-1.0126961379966188,-0.916485857892108,4.374664848372781,29.67403480396561,40.1691376883218,40.1691376883218,1577399018.0,-27.717759617301105,-51.098995109807895,0.04352711
1268,1577399018.08,-0.0863664452529531,-0.043913162157012,9.766415733076888,-0.0342779603539436,-0.1134034054639857,9.71724700630002,0.0198543552305637,-0.0338107990544014,9.823409411621093,-0.0738748689977134,0.0033494902820121,0.1302579554115854,0.2357668992949695,-0.1265362995426829,-0.2046910727896341,-0.0426129596989328,-0.0364722275152439,-0.0055824838033536,-0.6170339209401661,0.3067540064102557,0.3757347976097936,-2.861702900464919,-0.7331886863136862,5.407128328402368,29.62611195974481,40.360829065205024,40.21706053254261,1577399018.0,-27.717759617301105,-51.098995109807895,0.04352711
1269,1577399018.09,-0.0839722435927969,-0.0415189604968558,9.817891068770244,-0.0247011537133186,-0.0918555905225794,9.762736837842986,-0.0040876613709977,-0.0194455890934639,9.792284790039062,0.0176778653772865,-0.0576856659679878,-0.2206941930259144,0.0831790086699695,0.239674637957317,-0.0521031821646341,0.0794573528010671,-0.0669898056402439,-0.1886879525533537,0.0881477029914492,-0.1022513354700852,1.8786739880489869,-3.2725932921245406,0.0,5.407128328402368,29.67403480396561,40.360829065205024,40.0732919998802,1577399018.0,-27.717759617301105,-51.098995109807895,0.04352711
1270,1577399018.1,-0.0696070336318594,-0.0199711455554495,9.737685313155012,-0.0522344728051155,-0.0870671872022669,9.687319485548064,-0.0172557705018576,-0.0074745807926832,9.764751470947266,-0.1959451814977134,-0.0271680878429878,-0.1749178258384145,-0.0388913038300304,-0.0349835651676829,-0.2657262290396341,-0.2104596393864328,-0.0364722275152439,0.0554526724466463,0.0881477029914492,0.7157593482905967,-0.2254408785658824,-2.14264471506058,-1.0081344436813184,5.77586528555579,29.62611195974481,40.31290622098422,40.00140773354899,1577399018.0,-27.717759617301105,-51.098995109807895,0.04352711
1271,1577399018.11,-0.0528476220107656,-0.0582783721179495,9.816693967940166,-0.0127301454125374,-0.0607309689405482,9.777102047803924,-0.0280296779725602,0.0236500407893475,9.849745629882811,0.2007833341272865,0.1864549590320121,0.0997403772865854,-0.0083737257050304,0.148121903582317,-0.0521031821646341,-0.2562360065739328,0.055080506859756,-0.0055824838033536,2.379987980769229,-0.3067540064102557,-0.3757347976097998,-3.2725932921245406,-3.299349088411588,5.997107459847844,29.62611195974481,40.0732919998802,40.1691376883218,1577399018.0,-27.717759617301105,-51.098995109807895,0.04352711
1272,1577399018.12,-0.0552418236709219,-0.0032117339343558,9.78317514469798,-0.0151243470726936,-0.0822787838819544,9.77949624946408,0.02224855689072,-0.0146571857731514,9.821015209960937,-0.1654276033727134,0.1254198027820121,0.1912931116615854,-0.0388913038300304,0.087086747332317,-0.0826207602896341,0.1099749309260671,-0.1890601181402439,0.0249350943216463,-1.3222155448717956,0.7157593482905967,-0.2254408785658824,-3.2725932921245406,-3.299349088411588,5.997107459847844,29.72195764818641,40.360829065205024,40.0732919998802,1577399018.0,-27.717759617301105,-51.098995109807895,0.04352711
1273,1577399018.13,-0.0241172020888906,-0.0187740447253714,9.793949052168683,-0.0414605653344124,-0.0200295407178919,9.774707846143768,0.0246427585508762,0.00928483082841,9.79946739501953,-0.0586160799352134,0.2017137480945121,-0.0681063024009145,-0.2525143507050305,0.087086747332317,0.0699671303353658,-0.1952008503239328,0.177150819359756,-0.0971352181783536,0.0881477029914492,-1.738272702991453,0.6763226356976285,-1.629031725486053,-4.032537774725275,5.407128328402368,29.889687602959235,40.408751909425824,40.0732919998802,1577399018.0,-27.717759617301105,-51.098995109807895,0.04352711
1274,1577399018.14,-0.0552418236709219,-0.0175769438952933,9.855001194502666,-0.0594170777855842,-0.0547454647901575,9.7292180146008,0.0330224643614231,0.0092848308284105,9.811438403320311,0.2007833341272865,-0.0576856659679878,-0.0528475133384145,-0.0083737257050304,0.117604325457317,-0.0826207602896341,-0.0273541706364328,0.039821717797256,-0.0055824838033536,0.4407385149572675,-0.5112566773504303,0.3757347976097936,-2.142644715060581,-1.5580259584165832,5.480875719833051,29.5302662713032,40.28894479887381,40.049330577769794,1577399018.0,-27.717759617301105,-51.098995109807895,0.04352711
1275,1577399018.15,-0.0432708153701406,-0.034336355516387,9.761627329756577,-0.0630083802758186,-0.0631251706007044,9.76034263618283,0.02224855689072,-0.0146571857731514,9.775525378417967,0.0787130216272865,0.2474901152820121,0.2523282679115854,0.2357668992949695,0.4227801067073171,-0.1436559165396341,0.1099749309260671,-0.1890601181402439,-0.1276527963033537,-1.4985109508547012,1.3292673611111123,-0.6763226356976347,-1.4235865296562409,-3.849240603146853,5.554623111263735,29.5302662713032,40.360829065205024,40.21706053254261,1577399018.0,-27.717759617301105,-51.098995109807895,0.04352711
1276,1577399018.16,-0.0600302269912344,-0.0199711455554495,9.80232875797923,-0.0318837586937874,-0.0870671872022669,9.7292180146008,0.0390079685118137,0.0116790324885662,9.83777462158203,0.2007833341272865,0.0949022246570121,-0.0833650914634145,-0.0388913038300304,-0.3401593464176829,-0.2657262290396341,-0.1036481159489328,-0.1280249618902439,-0.1581703744283537,-1.14592013888889,-0.7157593482906008,0.526028716653711,-1.4235865296562409,-3.849240603146853,5.554623111263735,29.67403480396561,40.21706053254261,40.21706053254261,1577399018.0,-27.717759617301105,-51.098995109807895,0.04352711
1277,1577399018.17,-0.0492563195205313,-0.0008175322742,9.778386741377668,-0.057022876125428,-0.0679135739210169,9.726823812940642,0.0030949436094705,0.038015250750285,9.777919580078123,-0.0280985018102134,-0.1339796112804878,0.0539640100990854,0.0221438524199695,0.117604325457317,-0.1131383384146341,-0.1494244831364328,-0.0975073837652439,0.0249350943216463,0.0881477029914492,-0.9202620192307712,0.0751469595219524,-0.7045283442519009,-2.474511816308691,4.300917456942096,29.76988049240722,40.28894479887381,40.049330577769794,1577399018.0,-27.717759617301105,-51.098995109807895,0.04352711
1278,1577399018.18,-0.0600302269912344,0.0111534760265807,9.811905564619854,-0.0486431703148811,-0.0248179440382044,9.726823812940642,0.070132590093845,-0.0050803791325264,9.816226806640625,0.1092305997522865,-0.0882032440929878,0.0387052210365854,-0.1609616163300304,0.148121903582317,-0.2657262290396341,-0.0120953815739328,-0.2500952743902439,-0.0666176400533536,0.2644431089743619,1.738272702991453,0.2254408785658761,-3.2725932921245406,-4.032537774725275,5.407128328402368,29.62611195974481,40.360829065205024,40.21706053254261,1577399018.0,-27.717759617301105,-51.098995109807895,0.04352711
1279,1577399018.19,-0.0648186303115469,0.0087592743664244,9.816693967940166,-0.0390663636742561,-0.0200295407178919,9.848928097608615,0.0174601535704075,-0.0266281940739327,9.746794958496093,-0.0128397127477134,-0.1797559784679878,0.2523282679115854,0.0526614305449695,0.117604325457317,-0.0521031821646341,-0.2257184284489328,-0.1280249618902439,0.1164878286966463,0.0881477029914492,-0.1022513354700852,-0.2254408785658824,-3.2725932921245406,-1.099783029470529,5.407128328402368,29.67403480396561,40.55252044208824,40.0732919998802,1577399018.0,-27.717759617301105,-51.098995109807895,0.04352711
1280,1577399018.2,-0.0121461937881099,0.0183360810070494,9.77718964054759,-0.0079417420922249,-0.0367889523389857,9.784284652784391,0.0485847751524387,-0.0074745807926827,9.804255798339844,-0.0128397127477134,-0.0271680878429878,0.1302579554115854,0.0526614305449695,0.026051591082317,-0.0215856040396341,0.0489397746760671,0.055080506859756,-0.3107582650533537,-0.2644431089743548,0.1022513354700832,-0.075146959521965,-3.2725932921245406,-1.099783029470529,5.407128328402368,29.626111959744808,40.26498337676341,40.02536915565939,1577399018.0,-27.717759617301105,-51.098995109807895,0.04352711
1281,1577399018.21,-0.0312998070693594,-0.0199711455554495,9.766415733076888,-0.0139272462426155,-0.0272121456983607,9.759145535352753,0.0617528842832981,0.0032993266780199,9.74320365600586,0.1702657560022865,0.0338670684070121,-0.1749178258384145,0.0679202196074695,-0.0960187214176829,-0.1741734946646341,-0.3477887409489328,-0.0517310165777439,-0.0666176400533536,-0.2644431089743548,0.7157593482905967,-0.2254408785658824,-2.3480899108903905,-1.3747287868381617,4.300917456942097,29.67403480396561,40.1930991104322,39.97744631143858,1577399018.0,-27.717759617301105,-51.098995109807895,0.04352711
1282,1577399018.22,0.0141900244736083,-0.0295479521960745,9.71853169987376,-0.0247011537133186,0.0015182742235133,9.781890451124235,0.02224855689072,0.0308326457698162,9.753977563476562,0.2313009122522865,-0.0576856659679878,0.0387052210365854,-0.0694088819550304,-0.1265362995426829,-0.2962438071646341,-0.0426129596989328,-0.0364722275152439,-0.0055824838033536,-0.0881477029914563,1.738272702991453,-0.3757347976097998,-1.629031725486053,-2.5661604020979016,5.997107459847844,29.62611195974481,40.21706053254261,40.1691376883218,1577399018.0,-27.717759617301105,-51.098995109807895,0.04352711
1283,1577399018.23,-0.0145403954482656,0.0279128876476744,9.843030186201885,-0.0103359437523811,-0.0343947506788294,9.743583224561736,0.0533731784727512,0.0715340739924725,9.777919580078123,0.0481954435022865,-0.0882032440929878,-0.2664705602134145,-0.0083737257050304,-0.1570538776676829,-0.1741734946646341,-0.1952008503239328,-0.0364722275152439,-0.1276527963033537,-2.027397168803418,0.3067540064102557,0.6763226356976285,-2.861702900464919,-0.7331886863136862,6.587086591293322,29.72195764818641,40.408751909425824,40.0732919998802,1577399018.0,-27.717759617301105,-51.098995109807895,0.04352711
1284,1577399018.24,0.0010219153427492,0.0267157868175963,9.832256278731183,0.0231828794898053,-0.0104527340772669,9.765131039503142,0.0725267917540012,-0.0074745807926827,9.821015209960937,0.0634542325647865,0.079643435594512,-0.0681063024009145,-0.0694088819550304,0.117604325457317,-0.2352086509146341,-0.2562360065739328,0.024562928734756,-0.0666176400533536,-0.4407385149572604,0.1022513354700852,-0.976910473785479,-2.861702900464919,-0.7331886863136862,6.587086591293322,29.65007338185521,40.26498337676341,40.0732919998802,1577399018.0,-27.717759617301105,-51.098995109807895,0.04352711
1285,1577399018.25,-0.0025693871474844,0.0231244843273619,9.749656321455792,-0.0067446412621472,-0.0535483639600794,9.816606375196503,0.0390079685118137,0.0080877299983324,9.830592016601562,0.2007833341272865,-0.1492384003429878,-0.1444002477134145,-0.0236325147675304,0.026051591082317,-0.1741734946646341,-0.0731305378239328,-0.2348364853277439,-0.1429115853658537,-0.6170339209401661,0.3067540064102557,-1.1272043928293995,-3.2725932921245406,-1.099783029470529,5.407128328402368,29.67403480396561,40.360829065205024,40.0732919998802,1577399018.0,-27.717759617301105,-51.098995109807895,0.04352711
1286,1577399018.26,-0.0121461937881094,0.0087592743664244,9.759233128096415,0.0064234678687116,-0.0128469357374232,9.731612216260956,0.04140217017197,0.0164674358088787,9.756371765136718,-0.0738748689977134,0.0643846465320121,-0.2664705602134145,-0.0083737257050304,0.056569169207317,-0.0215856040396341,-0.2257184284489328,0.024562928734756,-0.0361000619283536,-0.6170339209401661,0.3067540064102557,-1.1272043928293995,-0.8072509421668069,-1.099783029470529,5.997107459847844,29.5302662713032,40.408751909425824,40.0732919998802,1577399018.0,-27.717759617301105,-51.098995109807895,0.04352711
1287,1577399018.27,-0.0145403954482656,0.0039708710461119,9.747262119795636,-0.0007591371117569,-0.0415773556592982,9.74118902290158,0.0749209934141575,0.0308326457698162,9.811438403320311,0.1092305997522865,-0.0271680878429878,-0.1138826695884145,-0.0999264600800304,-0.1570538776676829,0.0699671303353658,-0.2257184284489328,0.024562928734756,-0.1581703744283537,0.6170339209401732,1.3292673611111123,-1.277498311873317,-1.2181413338264289,0.3665943431568428,5.407128328402368,29.86572618084883,40.360829065205024,40.0732919998802,1577399018.0,-27.717759617301105,-51.098995109807895,0.04352711
1288,1577399018.28,0.011795822813452,0.02432158515744,9.82148237126048,0.0064234678687116,-0.0655193722608607,9.728020913770722,0.070132590093845,0.0332268474299725,9.47505307006836,-0.1196512361852134,-0.0119092987804878,-0.0070711461509145,0.0984377977324695,0.117604325457317,-0.2046910727896341,-0.0426129596989328,-0.1432837509527439,-0.0513588509908536,-0.6170339209401732,-0.1022513354700873,-0.6763226356976378,-2.450812508805297,-1.099783029470529,5.702117894125106,29.65007338185521,40.43271333153623,40.097253421990594,1577399018.0,-27.717759617301105,-51.098995109807895,0.04352711
1289,1577399018.29,0.0189784277939208,0.0303070893078307,9.862183799483136,-0.0079417420922249,-0.0487599606397669,9.79864986274533,0.070132590093845,0.0260442424495037,9.789890588378906,-0.1043924471227134,-0.1492384003429878,0.0081876429115854,0.0831790086699695,0.239674637957317,-0.2962438071646341,-0.1646832721989328,-0.0059546493902439,0.2080405630716463,0.0881477029914492,0.3067540064102557,-0.8266165547415584,-3.2725932921245406,-4.032537774725275,5.702117894125108,29.4823434270824,40.26498337676341,40.0732919998802,1577399018.0,-27.717759617301105,-51.098995109807895,0.04352711
1290,1577399018.3,-0.0025693871474844,-0.0295479521960745,9.826270774580792,0.0040292662085553,-0.0655193722608607,9.84653389594846,0.0294311618711887,0.00928483082841,9.871293444824218,0.1397481778772865,0.2169725371570121,-0.1444002477134145,-0.0388913038300304,0.3312273723323171,-0.3877965415396341,-0.2562360065739328,-0.1280249618902439,0.1164878286966463,0.0881477029914492,0.3067540064102557,-0.8266165547415584,0.219975036982249,-3.1160519168331664,3.1947065854818257,29.86572618084883,40.408751909425824,39.88160062299697,1577399018.0,-27.717759617301105,-51.098995109807895,0.04352711
1291,1577399018.31,0.0094016211532958,-0.0223653472156058,9.80232875797923,-0.0055475404320686,-0.0439715573194544,9.80822666938596,0.0246427585508762,0.0595630656916912,9.801861596679688,0.1397481778772865,0.1864549590320121,-0.2664705602134145,-0.0999264600800304,-0.0044659870426829,-0.5403844321646342,-0.0731305378239328,0.055080506859756,0.0249350943216463,0.6170339209401732,-0.7157593482906008,-0.0751469595219649,-3.2725932921245406,-4.032537774725275,3.0472118026204567,29.62611195974481,40.360829065205024,40.0732919998802,1577399018.0,-27.717759617301105,-51.098995109807895,0.04352711
