,timestamp,acc_x_dashboard,acc_y_dashboard,acc_z_dashboard,acc_x_above_suspension,acc_y_above_suspension,acc_z_above_suspension,acc_x_below_suspension,acc_y_below_suspension,acc_z_below_suspension,gyro_x_dashboard,gyro_y_dashboard,gyro_z_dashboard,gyro_x_above_suspension,gyro_y_above_suspension,gyro_z_above_suspension,gyro_x_below_suspension,gyro_y_below_suspension,gyro_z_below_suspension,mag_x_dashboard,mag_y_dashboard,mag_z_dashboard,mag_x_above_suspension,mag_y_above_suspension,mag_z_above_suspension,temp_dashboard,temp_above_suspension,temp_below_suspension,timestamp_gps,latitude,longitude,speed
76953,1577396199.95,0.1127668981933593,1.9097349542236328,7.620324898986816,6.156893952160346,2.198577865972751,13.413252022794396,-1.4255190694173172,-1.3140176778157546,10.422757893880211,-10.931015014648438,4.982948303222656,2.472686767578125,-7.455593202172256,10.190824183022103,5.479580018578506,-5.155835832868304,14.62736583891369,1.906985328311012,25.29354543026418,-13.48233132195186,4.3786858974359,70.08810517881243,-5.136897915168943,-8.724572649572671,32.26186839188906,37.38961272351514,37.341689879294336,1577396199.0,-27.688284859735624,-51.12841554214086,8.856109
76954,1577396199.96,-0.6557718347167968,-1.1500547674560546,11.90115746734619,-1.3178036308474652,1.3725782932188448,9.917717598966272,1.083604270426432,-5.297969240315755,14.825694746907557,-9.191513061523438,2.633094787597656,3.083038330078125,4.263156797827744,-5.129000035727897,5.845790956078506,-3.0806405203683034,18.13688732328869,4.592532203311012,25.29354543026418,-13.48233132195186,4.3786858974359,68.73470886752138,-4.239979231568016,-4.985470085470089,32.16602270344745,37.24584419085272,37.341689879294336,1577396199.0,-27.688284859735624,-51.12841554214086,8.856109
76955,1577396199.97,-0.6868964562988277,-0.3276464971923827,8.39006073272705,-2.234782866687309,-1.0084552578065455,10.881383767179162,-0.7695078145345051,-4.838282521565755,9.05088034261068,-5.4836273193359375,1.824378967285156,3.495025634765625,-7.165676209984756,2.027372034584604,2.534633729516006,-5.171094621930804,23.08073497953869,-1.3583955310639877,25.132951491024407,-14.052007293301935,4.196240651709401,68.54136653733694,1.7122993050563151,-8.724572649572671,32.04621559289544,37.43753556773594,37.46149698984635,1577396199.0,-27.688284859735624,-51.12841554214086,8.856109
76956,1577396199.98,-1.8624494714355464,-0.3168725897216796,14.194802657775876,1.6869194526486275,1.8921200534727511,8.562599459317836,-1.071177223714192,17.430187119547526,2.13403174641927,-0.8296966552734375,3.579139709472656,3.113555908203125,-0.3755150771722559,5.124906214272103,3.282314393578506,-1.7683846609933034,11.66716076078869,5.813235328311012,24.65116967330509,-14.241899283751962,4.743576388888888,68.54136653733694,1.7122993050563151,-8.724572649572671,32.16602270344745,37.341689879294336,37.53338125617755,1577396199.0,-27.688284859735624,-51.12841554214086,8.856109
76957,1577396199.99,0.3186682409667968,2.027050835571289,3.135985189514159,-0.539688091296684,0.0821035983946262,5.39267646127096,-3.826903334554036,2.5717716166178386,-0.7174624308268223,-5.6819915771484375,4.616737365722656,2.472686767578125,-5.227809999047256,-1.4974082388528964,5.204921815453506,-2.0430428641183034,-21.59699939546131,-2.914792015438988,24.16938785558577,-13.672223312401885,3.831350160256412,67.76799721659921,-6.115354660915408,-7.062749287749304,32.118099859226646,37.53338125617755,37.43753556773595,1577396199.0,-27.688284859735624,-51.12841554214086,8.856109
76958,1577396200.0,-2.184469594726562,-1.876694971313476,9.165782070617675,-1.1526037162966838,-0.6265800930116228,7.13565526986471,2.7882758524576814,-5.245296803792318,9.424375801595051,-7.1468353271484375,0.771522521972656,2.335357666015625,2.218479063452744,8.634427698647103,5.021816346703506,0.4899161202566966,-32.18659900483631,-4.776364281063988,25.05265452140452,-13.577277317176872,4.469908520299148,69.50807818825913,-3.4245986101126284,-65.64202279202281,32.04621559289544,37.24584419085272,37.38961272351514,1577396200.0,-27.6882152833214,-51.12845787226683,8.797752
76959,1577396200.01,-3.4474109704589844,0.4899733697509765,6.418435665588378,-1.8361482902712931,-1.7350954616639669,12.35740909066549,-1.687684151204427,-6.23889049275716,17.309678969319663,-4.3087005615234375,2.266883850097656,3.052520751953125,-8.172756288109756,-3.4200156607278966,4.426723573266006,-6.086621965680804,-10.79377673921131,16.112917945498513,24.65116967330509,-14.241899283751962,3.6489049145299135,68.3480242071525,-6.033816598769869,-68.13475783475786,32.07017701500584,37.36565130140474,37.50941983406715,1577396200.0,-27.6882152833214,-51.12845787226683,8.797752
76960,1577396200.02,-1.405156954345703,0.7365761407470702,14.32648374908447,0.0851985420040962,5.502576156988376,7.051858211759241,6.887149094645181,5.9715379740397125,16.760209688313804,-2.050399780273437,-0.9984970092773438,2.686309814453125,-4.800563905297256,1.981595667397104,3.190761659203506,-3.3247811453683034,20.85295177641369,-5.966549827938988,24.16938785558577,-12.91265535060178,2.736678685897437,68.15468187696808,-3.5061366722581666,-87.66118233618238,31.97433132656424,37.58130410039836,37.53338125617755,1577396200.0,-27.6882152833214,-51.12845787226683,8.797752
76961,1577396200.03,-3.0834923181152343,1.6870741998291017,12.461400655822752,0.2863114814572212,-2.4222313381288103,18.510507357267056,4.009318699137369,-8.072848964436849,13.678872151692712,-0.5550384521484375,-0.6933212280273438,3.266143798828125,-2.969509217797256,-0.6734336294778964,3.587490174828506,-8.085523332868304,34.18913341703869,9.597415015811013,25.775327247983498,-12.91265535060178,4.56113114316239,68.54136653733694,-3.3430605479670894,-86.83027065527065,32.118099859226646,37.341689879294336,37.341689879294336,1577396200.0,-27.6882152833214,-51.12845787226683,8.797752
76962,1577396200.04,-0.6210559106445306,-0.2115277166748046,10.405978530578611,-0.3792765800662152,-2.9848687282655297,6.652026534513148,-4.2243408101399735,7.781554429117838,13.164118794759116,-6.8111419677734375,-3.500938415527344,2.671051025390625,-0.1008568740472559,-9.584566441977897,5.388027284203506,-5.094800676618304,43.03923107328869,3.493899390811012,25.775327247983498,-12.91265535060178,4.56113114316239,68.73470886752138,-3.261522485821551,1.6618233618233518,32.118099859226646,37.53338125617755,37.341689879294336,1577396200.0,-27.6882152833214,-51.12845787226683,8.797752
76963,1577396200.05,0.8358157995605469,-2.1364658514404296,5.618772311096191,2.0448526008419874,-1.1233769374940448,10.2445261255776,2.494986149088542,2.629232456461588,9.499793153889971,-4.8580169677734375,-3.073692321777344,2.472686767578125,-1.962429139672256,5.353788050209603,4.701381776391006,-2.0583016531808034,41.60490490141369,-2.365475609188988,25.935921187223272,-13.86211530285191,3.2840144230769246,68.54136653733694,-3.34306054796709,-2.492735042735061,31.97433132656424,37.31772845718393,37.29376703507353,1577396200.0,-27.6882152833214,-51.12845787226683,8.797752
76964,1577396200.06,0.8262389929199219,-1.8084602239990235,4.52701635406494,0.1139289619259712,-3.669610403070217,11.232134310392052,-4.1884277852376295,-0.6484296162923173,3.527457112630208,-4.9495697021484375,-2.005577087402344,2.411651611328125,3.317111875952744,-22.46298441072789,2.275234315453506,-2.5923592703683034,32.99894787016369,-3.158932640438988,25.775327247983498,-16.710495159602303,5.290912126068384,67.96133954678365,-4.4030553558590935,4.985470085470055,32.16602270344745,37.38961272351514,37.58130410039836,1577396200.0,-27.6882152833214,-51.12845787226683,8.797752
76965,1577396200.07,0.9962273107910156,1.385404790649414,7.395269942932128,-4.6960221733279335,8.952620749273533,10.741322970060022,1.1817665384928382,-2.623645985921224,7.647878169759115,0.4215240478515625,-0.0219345092773437,2.625274658203125,-2.298122499047256,-2.779146520102896,3.190761659203506,-2.2261483328683034,18.93034435453869,-0.046139671688988,25.614733308743727,-13.86211530285191,4.3786858974359,69.50807818825913,-4.566131480150171,4.985470085470055,32.16602270344745,37.43753556773595,37.38961272351514,1577396200.0,-27.6882152833214,-51.12845787226683,8.797752
76966,1577396200.08,-1.4698003991699216,0.8131905938720704,11.783841585998534,0.5760098823361279,-0.2052006008241235,10.567743349698691,-0.0787806355794271,-6.417258516438802,11.158974904378258,3.7326812744140634,-2.646446228027344,2.014923095703125,-1.352077577172256,-1.2685264029153966,3.099208924828506,-3.263745989118304,7.56254650297619,8.773440406436013,25.614733308743727,-13.86211530285191,4.3786858974359,68.15468187696808,-6.60458303378864,12.04821937321936,32.14206128133704,37.36565130140474,37.413574145625546,1577396200.0,-27.6882152833214,-51.12845787226683,8.797752
76967,1577396200.09,-1.3812149377441405,-4.52348490661621,11.565969234924316,1.758745502453315,-3.968885610589748,8.177132992032679,-3.659309218343098,-0.6723716328938798,16.970899434407556,-9.527206420898438,-4.019737243652344,1.984405517578125,2.126926329077744,-6.593843785727897,1.0850487685785062,-5.522046770368304,36.66105724516369,7.522219703311012,25.132951491024407,-13.672223312401885,3.831350160256412,68.54136653733694,-7.419963655244028,7.062749287749271,32.26186839188906,37.341689879294336,37.38961272351514,1577396200.0,-27.6882152833214,-51.12845787226683,8.797752
76968,1577396200.1,-0.5384559533691395,-3.417363739624023,9.286689254455563,-3.9729732719607465,2.49306467017197,12.596829256681117,-8.059851869710286,5.52621646525065,17.665217915852867,-6.1702728271484375,-3.928184509277344,2.503204345703125,-4.647976014672256,-0.7955039419778964,0.5967675185785062,0.2457754952566966,49.35636974516369,10.879153297061013,26.096515126463046,-12.153087388801676,2.736678685897437,68.54136653733694,-3.5061366722581666,4.570014245014226,32.16602270344745,37.341689879294336,37.341689879294336,1577396200.0,-27.6882152833214,-51.12845787226683,8.797752
76969,1577396200.11,-1.991736361083984,2.752493938598633,12.267470321350096,1.2056849189572212,-2.3384342800233413,16.382062081388145,9.925391001383462,28.91756668497721,12.761892915852869,1.6727447509765625,-7.346153259277344,2.106475830078125,-1.138454530297256,6.650785120522103,0.6883202529535062,4.518236432756696,42.21525646391369,-7.431393577938988,25.935921187223272,-13.48233132195186,4.013795405982902,70.86147449955017,-3.5061366722581666,-75.19750712250713,32.07017701500584,37.341689879294336,37.58130410039836,1577396200.0,-27.6882152833214,-51.12845787226683,8.797752
76970,1577396200.12,0.8693346228027343,1.4871583612060546,5.246473952941894,1.9155657111935496,2.139919925298924,8.694280550626427,-0.2894703816731771,-12.86604068806966,-5.278416593424478,2.7408599853515625,-0.708580017089844,1.480865478515625,3.149265196265244,0.2115761361471033,2.168422792016006,2.8550284249441966,-6.85700916108631,-20.85912795293899,25.935921187223272,-13.48233132195186,4.013795405982902,67.76799721659921,-2.8538321750938573,-75.19750712250713,32.118099859226646,37.413574145625546,37.48545841195676,1577396200.0,-27.6882152833214,-51.12845787226683,8.797752
76971,1577396200.13,-1.5559916589355467,-0.0559046087646474,5.312314498596191,4.497712201672065,-3.899453762445217,9.110871639493617,-10.035068239339193,-5.755261757405599,-0.8467493204752597,1.3065338134765625,-5.972862243652344,0.763702392578125,8.260959532202744,-3.206392613852896,2.427822206078506,2.0768301827566966,-58.85896228608631,6.515139625186012,25.935921187223272,-13.48233132195186,4.013795405982902,63.90115061291049,-3.5061366722581666,-8.724572649572671,31.97433132656424,37.53338125617755,37.341689879294336,1577396200.0,-27.6882152833214,-51.12845787226683,8.797752
76972,1577396200.14,-1.2112266198730468,-2.2106861029052736,4.622784420471191,-2.608278325671684,2.2704039157774387,3.3911238733803355,-6.400670119222005,6.1223726786295565,1.652797212727864,-3.8509368896484375,-5.942344665527344,0.214385986328125,0.173801329077744,-24.90439066072789,0.9324608779535062,4.090990339006696,-60.01863025483631,6.393069312686012,25.132951491024407,-12.91265535060178,4.196240651709401,68.54136653733694,1.7122993050563151,-61.90292022792025,32.26186839188906,37.341689879294336,37.38961272351514,1577396200.0,-27.6882152833214,-51.12845787226683,8.797752
76973,1577396200.15,-0.8257601525878905,-0.3743334295654296,10.00494975250244,0.5113664375119087,-0.4158903469178727,5.466896712735804,3.652582651774088,-0.0498792012532548,18.517553706868487,1.0623931884765625,-4.263877868652344,0.122833251953125,3.805393125952744,7.566312464272103,2.641445252953506,4.121507917131696,-44.69880603608631,15.975588843936013,26.257109065702814,-12.722763360151754,5.473357371794874,67.96133954678365,1.7938373672018535,-60.65655270655272,32.16602270344745,37.341689879294336,37.53338125617755,1577396200.0,-27.6882152833214,-51.12845787226683,8.797752
76974,1577396200.16,-1.5152902307128904,0.0338779534912108,12.41231952178955,0.5712214790158155,-0.42427005272842,12.783576986173305,2.3788673685709627,-3.240152913411458,15.15370037434896,6.174087524414063,-7.498741149902344,0.077056884765625,0.3721655868902439,-8.470674840415395,-0.5629004501714938,0.0474112374441966,-12.77741931733631,4.363650367373513,24.811763612544866,-12.91265535060178,4.196240651709401,68.15468187696808,-0.8153806214553875,-33.6519230769231,32.18998412555786,37.341689879294336,37.36565130140474,1577396200.0,-27.6882152833214,-51.12845787226683,8.797752
76975,1577396200.17,-0.677319649658203,0.5474342095947266,15.16445433013916,0.9902067695431588,5.99817590064072,17.44029921517721,2.4195687967936195,0.0075816385904941,15.821682637532556,4.6024322509765625,-9.482383728027344,-0.212860107421875,1.150363829077744,-4.762789098227897,-1.3563574814214938,1.0697501046316966,13.37614513578869,-1.419430687313988,24.811763612544866,-12.91265535060178,4.196240651709401,80.14190634840307,2.0384515536384704,-55.255626780626805,32.26186839188906,37.24584419085272,37.341689879294336,1577396200.0,-27.6882152833214,-51.12845787226683,8.797752
76976,1577396200.18,0.2731784094238281,-0.2665943548583984,13.591463839416503,4.533625226574408,-1.4477912624452165,10.418105745938927,-0.9730149556477856,16.008031333414714,8.923987654622396,-4.6443939208984375,-7.956504821777344,-0.579071044921875,-1.992946717797256,3.354886683022104,-2.363437559546494,4.152025495256696,12.64372326078869,-5.966549827938988,25.614733308743727,-13.102547341051809,4.3786858974359,68.15468187696808,-7.093811406661874,-5.400925925925935,32.118099859226646,37.24584419085272,37.43753556773595,1577396200.0,-27.6882152833214,-51.12845787226683,8.797752
76977,1577396200.19,2.3920468786621094,0.2385821954345703,2.408147884826659,-0.7743198539919964,0.989506027593845,12.271217830899865,-3.3480630025227858,-3.94763950398763,0.8148266316731767,-6.5364837646484375,-7.193565368652344,-2.349090576171875,-0.4365502334222559,-17.458101598227895,-3.736728575171494,4.518236432756696,1.3217017764136905,-19.455319359188987,25.132951491024407,-14.43179127420199,3.466459668803423,80.52859100877194,-7.093811406661874,-2.0772792022792146,32.118099859226646,37.24584419085272,37.38961272351514,1577396200.0,-27.6882152833214,-51.12845787226683,8.797752
76978,1577396200.2,1.5301342810058594,0.7090428216552734,4.7544655117797845,1.2451892463497998,1.2397001010801736,8.547037148526819,-0.6509948323567707,-3.3227528706868488,5.49908217976888,2.2373199462890625,-8.154869079589844,-1.128387451171875,0.829929258765244,2.881864222084604,-4.682773497046494,5.708421979631696,-25.01496814546131,-3.586178734188988,24.65116967330509,-15.38125122645212,3.2840144230769246,80.52859100877194,-7.093811406661874,-2.0772792022792146,32.14206128133705,37.341689879294336,37.341689879294336,1577396200.0,-27.6882152833214,-51.12845787226683,8.797752
76979,1577396200.21,0.1726219396972656,-1.1093533392333983,10.818978316955564,-4.576312090320122,1.1882247653868137,1.3656292688881475,3.621458030192057,-9.607532228597004,9.25917588704427,10.034561157226562,-6.155967712402344,-0.609588623046875,2.218479063452744,-27.31527933260289,-1.1122168564214938,1.0087149483816966,-28.40241931733631,4.043215797061012,24.65116967330509,-15.38125122645212,3.2840144230769246,68.15468187696808,-6.767659158079718,-61.07200854700856,32.30979123610986,37.24584419085272,37.43753556773595,1577396200.0,-27.6882152833214,-51.12845787226683,8.797752
76980,1577396200.22,-0.6438008264160155,2.3718158746337887,10.593923360900876,2.053232306652533,8.346887729254002,6.35035712533346,-0.9347077290852858,4.985126890055338,7.389304390462239,4.4498443603515625,4.921913146972656,-0.487518310546875,-3.885036561547256,14.676908167397103,-5.995029356421494,2.1989004952566966,-22.97029041108631,7.156008765811012,26.417703004942584,-11.773303407901622,3.831350160256412,67.76799721659921,-6.441506909497563,-66.05747863247865,32.16602270344745,37.341689879294336,37.43753556773595,1577396200.0,-27.6882152833214,-51.12845787226683,8.797752
76981,1577396200.23,-0.3134009973144521,1.124436809692383,14.048756356506347,0.8932416023068309,-2.655665999994045,7.554640560392053,2.8744671122233063,5.5214280619303375,10.022926216634117,9.027481079101562,-4.294395446777344,-1.921844482421875,2.889865782202744,-8.379122106040397,-1.4631690048589938,1.9395010811941968,-25.85420154389881,-0.5954560779389881,24.811763612544866,-14.052007293301935,4.196240651709401,67.86466838169143,-5.259205008387252,-76.65160256410257,31.97433132656424,37.48545841195676,37.38961272351514,1577396200.0,-27.6882152833214,-51.12845787226683,8.797752
76982,1577396200.24,0.4240131140136719,-2.8056452154541014,7.147470071105956,2.096327936535346,-0.9689509304139664,11.538592122892052,-2.311373683675129,0.7880913798014316,11.332554524739589,-6.3838958740234375,-9.055137634277344,-1.876068115234375,-3.946071717797256,-5.647798863852897,-3.797763731421494,2.2904532296316966,-19.97956775483631,-5.661374046688988,25.775327247983498,-14.052007293301935,6.020693108974362,67.38131255623034,-3.0169082993849345,-5.400925925925935,32.07017701500585,37.341689879294336,37.38961272351514,1577396200.0,-27.6882152833214,-51.12845787226683,8.797752
76983,1577396200.25,0.6323086584472657,0.2768894219970703,9.983401937561034,-2.3185799247927776,1.5904506442930637,13.140313033536584,-3.7287410664876295,4.573324204508464,12.529655354817711,1.3675689697265625,-9.482383728027344,-2.227020263671875,5.392307188452744,-14.619966832602897,-0.1051367782964938,2.9008047921316966,-0.4178001767113095,-3.891354515438988,25.775327247983498,-14.052007293301935,6.020693108974362,60.03430400922179,-4.810745666586787,7.893660968660963,31.97433132656424,37.43753556773595,37.38961272351514,1577396200.0,-27.6882152833214,-51.12845787226683,8.797752
76984,1577396200.26,1.479856046142578,3.011067717895508,9.473436983947751,-2.857275298327934,6.165770016851658,15.61352334847799,-3.9968916524251297,5.437631003824869,11.775481831868492,5.0907135009765625,-6.064414978027344,-1.433563232421875,-3.030544374047256,-17.000337926352895,-4.682773497046494,0.3373282296316966,31.28996349516369,8.315676734561013,25.614733308743727,-13.48233132195186,4.3786858974359,61.96772731106615,-3.5061366722581666,8.72457264957264,32.07017701500584,37.341689879294336,37.19792134663192,1577396200.0,-27.6882152833214,-51.12845787226683,8.797752
76985,1577396200.27,-0.3756502404785146,2.36463326965332,11.558786629943846,2.0197134834103463,3.395678696050876,10.358250704435022,4.0404433207194,12.828531528727211,15.170459785970056,8.050918579101562,-10.642051696777344,-2.562713623046875,3.988498594702744,6.162503870522103,-1.5089453720464938,2.2599356515066966,52.62175060453869,-2.426510765438988,25.29354543026418,-13.102547341051809,5.473357371794874,61.96772731106615,-3.5061366722581666,8.72457264957264,32.07017701500584,37.341689879294336,37.341689879294336,1577396200.0,-27.6882152833214,-51.12845787226683,8.797752
76986,1577396200.28,0.9327809667968748,-3.130059540405273,9.249579128723145,1.8126150398068304,-3.1057759121034203,6.040308010343227,0.2767583109537759,-8.950323872884113,7.870538924153647,-0.4634857177734373,-3.775596618652344,-2.074432373046875,0.6468237900152438,-15.245577184165391,-4.591220762671494,-1.0664803641183034,58.06913829985119,-4.333859398251487,25.29354543026418,-13.862115302851912,4.378685897435899,69.31473585807468,-3.424598610112628,8.72457264957264,32.237906969778656,37.461496989846346,37.48545841195675,1577396200.0,-27.6882152833214,-51.12845787226683,8.797752
76987,1577396200.29,-0.3110067956542958,0.8514978204345702,7.876504476623534,-2.45744362108184,4.535318686285251,11.833078927091272,2.445905015055338,7.068082334391275,10.06602184651693,0.2384185791015625,-7.163047790527344,-3.264617919921875,-5.014186952172256,5.887845667397103,-2.973789122046494,1.9242422921316968,55.33781505766369,-15.213375999813987,25.614733308743727,-13.102547341051809,3.2840144230769246,67.76799721659921,-3.5061366722581666,7.893660968660963,32.118099859226646,37.53338125617755,37.725072633060776,1577396200.0,-27.6882152833214,-51.12845787226683,8.797752
76988,1577396200.3,2.813426370849609,-0.3168725897216796,13.24191039703369,0.571221479015815,-3.9353667873475606,13.935187984708458,-0.5564238667805983,-11.84371657918294,10.154607307942712,7.440567016601562,-6.949424743652344,-2.562713623046875,6.338352110327744,-6.014009801352897,-4.225009825171494,-0.3035409109933034,48.62394787016369,-3.250485374813988,25.454139369503952,-14.811575255102042,2.371788194444441,80.14190634840307,-6.60458303378864,7.893660968660963,31.926408482343422,37.341689879294336,37.24584419085272,1577396200.0,-27.6882152833214,-51.12845787226683,8.797752
76989,1577396200.31,0.1869871496582031,-0.8962693914794921,14.88912113922119,5.034013373547065,2.6606587863829074,16.901603841642054,3.607092820231119,18.71826761271159,4.116430721028645,8.722305297851562,-5.331993103027344,-2.471160888671875,-2.786403749047256,-12.910982457602897,-4.499668028296494,3.0533926827566966,23.69108654203869,-6.088620140438988,24.811763612544866,-13.672223312401885,3.101569177350434,80.14190634840307,-2.5276799265117016,-71.87386039886043,31.97433132656424,37.38961272351514,37.43753556773595,1577396200.0,-27.6882152833214,-51.12845787226683,8.797752
76990,1577396200.32,0.1726219396972656,-2.3782802191162107,13.744692745666503,1.957464240246284,-1.4262434475038102,17.665354171231897,0.3007003275553381,-17.45572527058919,2.418941743977864,-0.5245208740234375,-6.094932556152344,-3.539276123046875,11.953586485327744,-6.288668004477897,-3.126377012671494,1.9852774483816968,-10.51911853608631,-5.539303734188988,25.935921187223272,-12.722763360151754,3.6489049145299135,80.14190634840307,-3.3430605479670894,-71.04294871794873,32.07017701500584,37.341689879294336,37.58130410039836,1577396200.0,-27.6882152833214,-51.12845787226683,8.797752
76991,1577396200.33,0.0457292517089843,-0.8675389715576172,13.143748128967284,-2.1054959770388715,-2.8005152004334986,11.730128255704551,6.214378428141275,5.643532346598307,10.44191150716146,-1.7757415771484375,-5.057334899902344,-4.363250732421875,-0.528102967797256,-13.277193395102897,-5.384677793921494,4.609789167131696,-24.03840564546131,4.562014625186012,26.417703004942584,-13.672223312401885,3.831350160256412,70.4747898391813,-3.3430605479670894,-7.8936609686609795,32.26186839188906,37.53338125617755,37.43753556773595,1577396200.0,-27.6882152833214,-51.12845787226683,8.797752
76992,1577396200.34,0.2085349645996093,-0.7406462835693359,9.344150094299316,-2.18929303514434,3.505811972418064,9.347897603849086,-1.8804173848470047,-1.211067006429036,11.550426875813804,0.7877349853515625,-6.827354431152344,-3.874969482421875,0.204318907202744,-3.358980504477896,-4.591220762671494,2.3820059640066966,-15.34089587983631,-5.325680687313988,26.257109065702814,-14.241899283751962,4.013795405982902,70.08810517881243,2.5276799265117016,-95.97029914529914,32.16602270344745,37.43753556773595,37.43753556773595,1577396200.0,-27.6882152833214,-51.12845787226683,8.797752
76993,1577396200.35,0.3234566442871093,3.827490484008789,6.468713900451659,-3.2642895805544963,-1.510040505609279,12.12756573129049,-8.675161696370441,7.599595102945963,11.890403511555991,3.2291412353515625,-4.385948181152344,-4.363250732421875,3.744357969702744,-4.091402379477897,-2.485507872046494,3.8163321358816966,-21.78010486421131,6.667727515811012,25.614733308743727,-12.3429793792517,4.013795405982902,58.4875653677463,-4.484593418004633,-58.57927350427351,32.07017701500584,37.58130410039836,37.43753556773595,1577396200.0,-27.6882152833214,-51.12845787226683,8.797752
76994,1577396200.36,1.3649343664550782,-2.4740482855224606,5.953960543518066,-4.554764275378715,0.0078833469297825,1.6026552332436166,-0.0105458882649733,-6.854200319417318,12.72837409261068,-3.087997436523437,-8.383750915527344,-3.752899169921875,-1.687770936547256,-12.270113316977897,-3.950351622046494,3.0839102608816966,-19.55232166108631,-17.593747093563987,26.417703004942584,-13.672223312401885,4.926021634615379,68.73470886752138,-3.4245986101126284,-1.661823361823385,32.30979123610986,37.53338125617755,37.38961272351514,1577396200.0,-27.6882152833214,-51.12845787226683,8.797752
76995,1577396200.37,0.9794678991699218,-2.438135260620117,11.139801339416502,-3.3385098320193403,2.7061486179258765,9.00073836312643,-3.800567116292317,-18.7414115620931,17.17919497884115,-2.080917358398437,-4.202842712402344,-3.356170654296875,-4.434352967797256,6.620267542397103,-5.781406309546494,-1.0054452078683034,0.2230689639136905,13.778323218936013,24.49057573406532,-12.91265535060178,3.831350160256412,81.30196032950968,3.1799844236760126,-44.45377492877493,32.30979123610986,37.53338125617755,37.24584419085272,1577396200.0,-27.6882152833214,-51.12845787226683,8.797752
76996,1577396200.38,-0.0356736047363271,2.299989824829101,14.415069210510252,2.8169826362423773,2.562496518316501,13.233686898282675,1.6821546854654943,15.30174184366862,13.817735847981774,4.1751861572265625,-3.531455993652344,-3.661346435546875,-2.938991639672256,11.106351526772103,-4.469150450171494,-0.2730233328683034,22.31779552641369,-10.666256859188987,25.132951491024407,-13.292439331501834,4.196240651709401,68.54136653733694,-5.9522785366243305,-5.400925925925935,31.97433132656424,37.24584419085272,37.62922694461916,1577396200.0,-27.6882152833214,-51.12845787226683,8.797752
76997,1577396200.39,2.054464444580078,4.210562749633789,16.84997229888916,10.47124534376191,2.890502145757908,19.020472310880336,1.1913433451334632,-20.74296414998372,14.600639790852869,7.318496704101562,1.5954971313476562,-4.821014404296875,-5.685573670922256,-0.1241172232278963,-5.110019590796494,-2.1956307547433034,30.19133068266369,-0.8395967029389881,24.97235755178464,-14.241899283751962,2.5542334401709463,67.76799721659921,-5.463050163751098,-7.062749287749304,32.16602270344745,37.24584419085272,37.58130410039836,1577396200.0,-27.6882152833214,-51.12845787226683,8.797752
76998,1577396200.4,0.2109291662597656,2.299989824829101,12.868414938049316,3.860854560070502,-0.3273048854920914,9.053410799649868,0.968682590738932,13.108653122965494,10.195308736165368,-2.294540405273437,-3.073692321777344,-3.905487060546875,2.065891172827744,-21.97470316072789,-1.9056738876714936,-0.0288827078683033,28.69596935453869,-1.297360374813988,26.417703004942584,-14.052007293301935,4.56113114316239,80.14190634840307,-5.463050163751098,-47.77742165242167,32.07017701500584,37.341689879294336,37.38961272351514,1577396200.0,-27.6882152833214,-51.12845787226683,8.797752
76999,1577396200.41,1.520557474365234,-1.932958710327148,3.33350682647705,-1.9594496757693405,-3.753407461175686,8.15797937875143,-0.1709573994954421,-3.02826606648763,2.694274934895833,-5.9108734130859375,-2.585411071777344,-4.393768310546875,13.143772032202744,-17.946382848227895,-4.530185606421494,3.6637442452566966,2.0846412295386907,-23.178463890438987,25.37384239988407,-12.627817364926742,3.7401275373931626,68.15468187696808,-6.115354660915408,-8.724572649572671,32.16602270344745,37.43753556773595,37.19792134663192,1577396200.0,-27.6882152833214,-51.12845787226683,8.797752
77000,1577396200.42,1.3481749548339843,-0.0535104071044912,11.929887887268066,-2.3832233696169967,-0.4925048000428727,3.125367489102992,-1.2555307515462233,-8.929973158772786,0.7046933553059892,8.478164672851562,-1.914024353027344,-4.149627685546875,3.439182188452744,8.298734339272103,-3.889316465796494,4.060472760881696,-23.73322986421131,-2.640133812313988,24.811763612544866,-14.052007293301935,4.56113114316239,68.54136653733694,-3.5061366722581666,-61.90292022792025,31.926408482343422,37.341689879294336,37.341689879294336,1577396200.0,-27.6882152833214,-51.12845787226683,8.797752
77001,1577396200.43,1.8365920935058595,4.785171148071289,9.538080428771972,7.088238397961128,0.4555990573790012,10.669496920255334,2.117899387613932,14.279417734781902,10.592746211751304,7.928848266601562,2.633094787597656,-2.928924560546875,-5.807643983422256,11.503080042397103,-6.056064512671494,4.670824323381696,-26.38825916108631,-10.300045921688987,25.935921187223272,-13.102547341051809,4.3786858974359,68.54136653733694,1.7122993050563151,-100.95576923076926,32.118099859226646,37.341689879294336,37.38961272351514,1577396200.0,-27.6882152833214,-51.12845787226683,8.797752
77002,1577396200.44,1.4080299963378906,-3.991972138061523,11.32654906890869,4.885572870617377,-3.485256875238186,14.73963974252096,2.9438989603678376,-5.688224110921224,12.359667036946618,-5.5294036865234375,8.828163146972656,-3.569793701171875,-3.518825624047256,5.521634729897103,2.183681581078506,-0.3645760672433034,-21.04768298921131,6.881350562686012,26.257109065702814,-13.48233132195186,3.6489049145299135,67.76799721659921,1.7122993050563151,-100.12485754985757,31.97433132656424,37.43753556773595,37.38961272351514,1577396200.0,-27.6882152833214,-51.12845787226683,8.797752
77003,1577396200.45,-0.0213083947753896,-0.0942118353271474,5.930018526916503,-1.2340065727419964,-4.639262075433498,9.395781637052211,2.678142576090494,16.9992308207194,18.01955976155599,-3.240585327148437,6.020545959472656,-4.546356201171875,2.645725157202744,-8.272310582602897,-3.462070372046494,2.7482169015066966,-6.643386114211309,-2.121334984188988,25.454139369503952,-13.292439331501834,2.736678685897437,67.76799721659921,1.7122993050563151,-100.12485754985757,32.16602270344745,37.341689879294336,37.38961272351514,1577396200.0,-27.6882152833214,-51.12845787226683,8.797752
77004,1577396200.46,1.182975040283203,1.9097349542236328,10.31140756500244,-0.8641024162478563,-0.4099048427674826,7.873069381192834,-4.596639168294271,3.70063769938151,16.020401375325523,-1.4705657958984375,1.5649795532226562,-4.210662841796875,3.179782774390244,2.775052698647104,-3.507846739233994,0.5204336983816966,-1.928420293898809,0.793093726748512,24.97235755178464,-14.241899283751962,3.2840144230769246,68.34802420715252,-3.179984423676012,8.309116809116802,32.26186839188906,37.38961272351514,37.43753556773595,1577396200.0,-27.6882152833214,-51.12845787226683,8.797752
77005,1577396200.47,0.1750161413574218,-2.1029470281982423,13.601040646057127,6.338853278332222,1.2361087985899386,7.071011825040491,5.558367173258463,-1.8742608662923173,8.325437239583334,-0.5855560302734375,-0.5102157592773438,-3.600311279296875,-9.927517030297256,9.061673792397103,-5.872959043921494,-0.2119881766183033,10.32438732328869,-7.400875999813988,25.454139369503952,-13.672223312401885,2.736678685897437,68.92805119770581,2.364603802220625,5.400925925925918,32.07017701500584,37.58130410039836,37.341689879294336,1577396200.0,-27.6882152833214,-51.12845787226683,8.797752
77006,1577396200.48,0.3665522741699218,0.8538920220947265,10.071987398986815,5.414691437511909,-2.9585325100038107,16.542473592618613,0.949528977457682,0.9939927225748691,7.8394143025716145,0.3299713134765625,0.4663467407226562,-4.058074951171875,-2.176052186547256,-1.1922324576028964,-3.736728575171494,1.3138907296316966,4.709152948288691,-5.813961937313988,25.454139369503952,-13.672223312401885,4.56113114316239,67.76799721659921,-3.5061366722581666,12.04821937321936,32.07017701500584,37.341689879294336,37.53338125617755,1577396200.0,-27.6882152833214,-51.12845787226683,8.797752
77007,1577396200.49,1.5468936926269532,-0.4988319158935546,4.134367281799316,-9.510761711902154,1.2456856052305636,3.1133964808022103,-1.2124351216634108,2.1767283426920567,5.880957344563802,-6.9026947021484375,2.724647521972656,-4.698944091796875,18.240207579077744,-13.857027379477897,-1.4784277939214938,3.4806387765066966,3.3358619326636907,-11.642819359188987,25.454139369503952,-13.672223312401885,4.56113114316239,70.86147449955017,-3.179984423676012,12.04821937321936,32.07017701500584,37.341689879294336,37.24584419085272,1577396200.0,-27.6882152833214,-51.12845787226683,8.797752
77008,1577396200.5,0.5999869360351563,0.6013037469482424,7.973469643859862,5.583482654552925,0.0390079685118139,9.793219112638146,-1.626632008870443,0.4672683573404946,10.093555165608723,2.5577545166015625,0.4053115844726562,-3.508758544921875,-11.163478944359756,13.883451136147102,-3.980869200171494,-0.1356942313058033,7.12004162016369,3.234499976748512,25.37384239988407,-13.007601345826792,4.652353766025643,67.76799721659921,-4.484593418004632,7.893660968660956,32.14206128133705,37.24584419085272,37.38961272351514,1577396200.0,-27.6882152833214,-51.12845787226683,8.797752
77009,1577396200.51,0.6514622717285157,-0.0128089788818349,11.800600997619629,-1.6458092582888717,3.402861301031345,1.9641796839272103,0.5616683085123694,2.2317949808756503,12.316571407063805,0.4825592041015625,3.457069396972656,-4.058074951171875,8.810275938452744,-9.737154332602897,0.6272850967035062,-0.3645760672433034,15.20719982328869,-2.212887718563988,25.775327247983498,-14.43179127420199,3.101569177350434,67.76799721659921,-3.179984423676012,11.217307692307685,32.16602270344745,37.19792134663192,37.43753556773595,1577396200.0,-27.6882152833214,-51.12845787226683,8.797752
77010,1577396200.52,1.1207257971191409,-1.2721590521240234,7.014591878967284,-2.3568871513552776,2.083656186285251,8.679915340665492,-4.968937526448568,1.913366160074869,8.835402193196614,5.3958892822265625,1.7480850219726562,-3.173065185546875,-5.258327577172256,20.963529261147105,-3.919834043921494,1.3444083077566966,10.75163341703869,-5.203610374813988,26.417703004942584,-14.052007293301935,3.101569177350434,67.76799721659921,-3.179984423676012,-71.87386039886043,32.16602270344745,37.19792134663192,37.38961272351514,1577396200.0,-27.6882152833214,-51.12845787226683,8.797752
77011,1577396200.53,-0.2224213342285155,-1.1572373724365237,14.75504584625244,5.455392865734565,-6.2481655910584974,22.812887740567835,3.836936179606119,1.4488910380045563,14.957375838216148,0.5130767822265625,0.8020401000976562,-3.295135498046875,1.394504454077744,-7.234712926352897,-3.584140684546494,2.8092520577566966,-4.018874395461309,-6.729489281063988,25.69503027836361,-13.387385326726845,3.740127537393167,69.50807818825913,-2.4461418643661625,-71.45840455840457,32.07017701500585,37.43753556773595,37.53338125617755,1577396200.0,-27.6882152833214,-51.12845787226683,8.797752
77012,1577396200.54,0.8765172277832032,-0.932182416381836,11.67849671295166,1.7156498725705025,-0.1381629543397485,10.108056630948694,-1.553608858235677,-0.351548610432943,11.856884688313803,2.5577545166015625,2.663612365722656,-3.234100341796875,4.186862852515244,2.637723597084604,-2.470249082983994,1.1765616280691966,6.89115978422619,-0.1224336170014881,26.417703004942584,-12.532871369701729,5.290912126068384,74.14829411268558,-0.489228372873232,-65.22656695156697,32.07017701500584,37.38961272351514,37.341689879294336,1577396200.0,-27.6882152833214,-51.12845787226683,8.797752
77013,1577396200.55,-0.1984793176269521,0.6934805108642578,14.795747274475096,1.84493676221894,-1.6034143703553727,19.070750545743618,3.156982908121744,1.221441880289713,18.33798858235677,1.6727447509765625,1.0461807250976562,-2.776336669921875,-9.805446717797256,-8.089205113852897,-7.429355528296494,1.1002676827566966,31.35099865141369,-3.799801781063988,26.417703004942584,-14.052007293301935,3.831350160256412,67.76799721659921,-3.0169082993849345,-61.90292022792025,32.16602270344745,37.38961272351514,37.38961272351514,1577396200.0,-27.6882152833214,-51.12845787226683,8.797752
77014,1577396200.56,1.3673285681152345,2.534621587524414,13.091075692443846,-2.1054959770388715,2.356595175543064,10.84427364144674,-4.063929298909504,-12.301009096272786,16.5471257405599,3.9005279541015625,2.388954162597656,-2.593231201171875,9.847873594702744,-7.936617223227897,-0.4408301376714938,0.3373282296316966,27.71940685453869,5.263918922061012,25.614733308743727,-14.621683264652017,4.3786858974359,67.76799721659921,-3.0169082993849345,-61.90292022792025,32.30979123610986,37.43753556773595,37.341689879294336,1577396200.0,-27.6882152833214,-51.12845787226683,8.797752
77015,1577396200.57,0.9734823950195312,-2.447712067260742,6.418435665588378,0.1091405586056587,-3.755801662835842,5.299302596524867,-2.5699474629720047,10.996967258707684,-0.7749232706705722,-1.8367767333984373,2.343177795410156,-2.425384521484375,0.784152891577744,13.822415979897103,-3.462070372046494,-0.0899178641183033,27.96354747953869,2.578372047061012,25.69503027836361,-13.767169307626896,3.740127537393167,67.76799721659921,-3.5061366722581666,-60.241096866096896,32.02225417078504,37.53338125617755,37.43753556773595,1577396200.0,-27.6882152833214,-51.12845787226683,8.797752
77016,1577396200.58,-0.2726995690917959,1.2465410943603514,10.390416219787596,-1.296255815906059,0.8183206088926737,8.881028280118615,-4.524813118489584,4.992309495035807,6.739278639729818,0.4520416259765625,3.426551818847656,-2.196502685546875,0.0822485947027438,0.5777870736471034,-4.362338926733994,4.274095807756696,-2.7676536923363098,-14.664059593563987,25.29354543026418,-13.102547341051809,3.6489049145299135,75.11500576360774,-0.5707664350187711,-31.159188034188052,32.118099859226646,37.413574145625546,37.43753556773594,1577396200.0,-27.6882152833214,-51.12845787226683,8.797752
77017,1577396200.59,-1.2974178796386715,4.943188457641601,5.333862313537597,-3.156550505847465,-0.5834844631288102,9.407752645352993,3.2982408060709627,-12.825339259847004,0.3551399129231767,5.9757232666015625,5.013465881347656,-3.539276123046875,-2.633815858422256,7.505277308022103,-4.774326231421494,2.1378653390066966,-35.14680408296131,-7.492428734188988,24.97235755178464,-14.241899283751962,5.838247863247863,67.76799721659921,-7.419963655244028,-8.724572649572671,32.118099859226646,37.341689879294336,37.341689879294336,1577396200.0,-27.6882152833214,-51.12845787226683,8.797752
77018,1577396200.6,-1.9821595544433592,0.5881356378173828,9.516532613830565,2.8696550727658146,-1.366388405999904,13.26481151986471,-2.665715529378254,2.964420688883464,7.430005818684895,5.6095123291015625,1.7480850219726562,-3.173065185546875,-4.770046327172256,-6.197115270102897,-2.516025450171494,1.6190665108816966,-43.32551502046131,4.348391578311012,24.49057573406532,-13.672223312401885,3.831350160256412,67.96133954678365,-6.849197220225257,-4.985470085470089,31.97433132656424,37.43753556773595,37.38961272351514,1577396200.0,-27.6882152833214,-51.12845787226683,8.797752
77019,1577396200.61,-0.9131485131835932,-1.2410344305419925,10.43351184967041,-4.475755620593559,0.8099409030821263,12.091652706388146,-1.759510201009114,-2.161565065511068,9.826601680501303,-6.6280364990234375,-0.0677108764648437,-2.196502685546875,-0.7569848037347561,3.522733362709604,-2.897495176733994,1.7106192452566966,-44.34785388764881,2.2274198986235123,25.53443633912384,-13.767169307626896,3.922572783119657,74.14829411268558,-4.647669542295709,-31.159188034188045,31.97433132656424,37.341689879294336,37.341689879294336,1577396200.0,-27.6882152833214,-51.12845787226683,8.797752
77020,1577396200.62,-0.4570530969238271,-2.8259959295654293,12.315354354553222,2.998941962414252,-2.88910066185928,11.224951705411584,-0.1901110127766921,9.11991315714518,13.753092403157554,-2.233505249023437,1.2598037719726562,-2.165985107421875,2.310031797827744,0.3031288705221036,-1.5394629501714938,4.914964948381696,-40.60945056733631,-0.2597627185639881,25.614733308743727,-15.00146724555207,3.6489049145299135,67.76799721659921,-3.5061366722581666,-55.255626780626805,32.16602270344745,37.341689879294336,37.24584419085272,1577396200.0,-27.6882152833214,-51.12845787226683,8.797752
77021,1577396200.63,-0.8090007409667967,-0.0870292303466787,12.21958628814697,-2.021698918933403,4.4706752414610325,3.577871602872523,6.784198423258463,-9.806250966389976,13.630988118489586,6.6471099853515625,0.9241104125976562,-0.853729248046875,2.371066954077744,-9.889742223227897,-3.065341856421494,1.6495840890066966,-37.09992908296131,5.691165015811012,25.614733308743727,-13.48233132195186,4.3786858974359,67.76799721659921,-3.5061366722581666,-55.255626780626805,32.357714080330666,37.53338125617755,37.58130410039836,1577396200.0,-27.6882152833214,-51.12845787226683,8.797752
77022,1577396200.64,-1.0915165368652338,-0.6963535528564452,8.58159686553955,2.8552898628048773,0.4771468723204074,6.15882099252096,-7.111748012288411,11.607488682047526,7.260017500813802,5.9146881103515625,-0.0066757202148437,-1.555633544921875,-0.1313744521722559,7.749417933022103,-1.1427344345464938,2.1073477608816966,-18.30110095796131,0.5642118908110119,25.935921187223272,-13.102547341051809,3.6489049145299135,67.76799721659921,-2.690756050802779,-68.55021367521368,32.07017701500585,37.58130410039836,37.43753556773595,1577396200.0,-27.6882152833214,-51.12845787226683,8.797752
77023,1577396200.65,-0.3277662072753896,0.4325125299072265,8.393652035217285,-2.344916143054496,-0.2698440456483419,9.326349788907676,-2.554385152180989,1.404598307291666,9.64943075764974,0.8182525634765625,-0.0829696655273437,-2.043914794921875,-3.015285584984756,3.9804970345846034,-3.568881895483994,3.2670157296316966,-9.57307361421131,-6.775265648251487,25.132951491024407,-14.811575255102042,3.466459668803423,61.1943579903284,-3.098446361530473,-41.96103988603991,32.07017701500584,37.341689879294336,37.43753556773594,1577396200.0,-27.6882152833214,-51.12845787226683,8.797752
77024,1577396200.66,0.1223437048339843,2.4987085626220704,9.868480257873534,-1.1047196830935588,0.4460222507383762,13.667037398770958,-5.35679819539388,-3.509500600179036,6.441200533040365,1.8253326416015625,3.182411193847656,-1.433563232421875,1.089328672827744,-5.708834020102897,-1.5699805282964938,0.5814688546316966,-11.00739978608631,3.249758765811012,25.775327247983498,-14.052007293301935,5.290912126068384,63.12778129217276,-3.3430605479670894,7.893660968660963,32.07017701500584,37.43753556773595,37.58130410039836,1577396200.0,-27.6882152833214,-51.12845787226683,8.797752
77025,1577396200.67,0.4120421057128905,1.8450915093994136,3.9284659390258776,-3.0727534477419964,-0.006481863031154,4.767789827970179,3.7483507181803377,11.7511407816569,10.73639831136068,0.2384185791015625,1.7786026000976562,-2.074432373046875,0.784152891577744,3.690580042397104,-2.760166075171494,2.2904532296316966,0.7723853701636905,-3.586178734188988,25.454139369503952,-15.191359236002096,3.831350160256412,69.31473585807468,1.7122993050563151,7.893660968660963,32.16602270344745,37.24584419085272,37.43753556773595,1577396200.0,-27.6882152833214,-51.12845787226683,8.797752
77026,1577396200.68,0.5688623144531255,1.3051990350341798,8.757570687561035,3.05161439893769,-0.5212352199647478,15.101164193204552,-0.3433399190266921,-0.7130730611165361,8.050104048665364,1.6727447509765625,2.800941467285156,-1.219940185546875,1.486057188452744,8.390287073647103,-0.7765234970464938,-1.6157967703683034,-6.277175176711309,3.158206031436012,26.257109065702814,-13.102547341051809,4.743576388888888,69.70142051844356,1.875375429347392,7.893660968660963,32.118099859226646,37.24584419085272,37.341689879294336,1577396200.0,-27.6882152833214,-51.12845787226683,8.797752
77027,1577396200.69,2.274730997314453,-2.512355512084961,10.091141012268066,-1.5679977043337934,0.971549515142673,9.04981949715963,-1.827744948323567,-2.163959267171224,11.4905718343099,-4.2171478271484375,4.250526428222656,-2.867889404296875,0.9672583603277438,-0.1393760122903966,-0.5934180282964938,-0.6392342703683034,-3.4237816220238093,-2.411251976376488,26.096515126463046,-12.532871369701729,3.466459668803423,63.9011506129105,-0.7338425593098485,7.893660968660956,32.26186839188906,37.38961272351514,37.48545841195675,1577396200.0,-27.6882152833214,-51.12845787226683,8.797752
77028,1577396200.7,1.0824185705566407,-2.5506627386474605,9.013750265197752,2.460246588879096,-0.1621049709413102,14.533738399747522,2.091563169352213,-3.645970094807942,12.235168550618493,-0.7381439208984375,5.990028381347656,-1.586151123046875,1.211398985327744,12.754300745522103,-2.912753965796494,2.4430411202566966,-3.4695579892113093,-0.107174827938988,25.454139369503952,-14.811575255102042,5.290912126068384,66.99462789586147,-3.5061366722581666,4.570014245014226,32.16602270344745,37.38961272351514,37.53338125617755,1577396200.0,-27.6882152833214,-51.12845787226683,8.797752
77029,1577396200.71,-1.299812081298828,0.3367444635009765,10.84770873687744,2.527284235363471,-1.778191091546779,5.557876375821741,-0.7814788228352858,9.495802817789713,6.888916243489583,1.4286041259765625,5.105018615722656,-1.280975341796875,-0.619655702172256,1.6459023080221036,-2.149814512671494,1.7106192452566966,-2.4319603329613093,-5.569821312313988,25.935921187223272,-13.86211530285191,3.2840144230769246,66.22125857512373,-2.8538321750938573,7.893660968660963,32.07017701500584,37.43753556773595,37.24584419085272,1577396200.0,-27.6882152833214,-51.12845787226683,8.797752
77030,1577396200.72,0.4575319372558594,0.5857414361572265,10.862073946838375,-4.9929031791873095,-0.7031945461366227,3.276202193692836,-6.666426503499348,-0.5430847432454423,6.498661372884115,5.6095123291015625,4.815101623535156,-1.204681396484375,2.584690000952744,-5.067964879477897,0.2915917373285062,2.7482169015066966,-9.11530994233631,-5.447750999813988,23.68760603786645,-13.86211530285191,4.743576388888888,80.33524867858752,-2.9353702372393955,-8.309116809116826,32.14206128133705,37.341689879294336,37.38961272351514,1577396200.0,-27.6882152833214,-51.12845787226683,8.797752
77031,1577396200.73,-2.355655013427734,3.5904645196533203,3.921283334045409,1.745577393322456,2.048940262212986,9.875819069913536,2.2519746805826824,-5.718151631673176,2.9935501424153648,-0.0972747802734375,6.905555725097656,-2.959442138671875,-0.711208436547256,16.263822229897105,-1.1274756454839938,1.1460440499441966,-30.84382556733631,1.769656226748512,25.935921187223272,-12.722763360151754,2.9191239316239352,67.76799721659921,-3.3430605479670894,-82.26025641025643,32.07017701500584,37.29376703507353,37.341689879294336,1577396200.0,-27.6882152833214,-51.12845787226683,8.797752
77032,1577396200.74,1.1326968054199218,-1.487637201538086,1.304420919494628,-2.471808831042777,-6.32956844750381,3.237894967130335,-2.823732838948567,8.430383079020181,5.634354573567708,-12.823104858398438,-3.714561462402344,-1.952362060546875,8.627170469702744,-14.192720738852897,2.977138612328506,2.3820059640066966,-44.75984119233631,-1.633053734188988,26.257109065702814,-14.621683264652017,4.3786858974359,67.76799721659921,-3.5061366722581666,-76.85933048433051,32.30979123610986,37.341689879294336,37.341689879294336,1577396200.0,-27.6882152833214,-51.12845787226683,8.797752
77033,1577396200.75,0.5078101721191406,-2.3687034124755857,6.425618270568847,-5.85481577684356,3.2639976047422823,2.028823128751429,3.930310044352213,-14.419877565511069,15.625358101399742,-4.8580169677734375,2.114295959472656,-0.518035888671875,-6.051784608422256,13.242581995522103,-2.271884825171494,-0.8223397391183034,-37.61872791108631,4.470461890811012,26.57829694418236,-13.86211530285191,3.2840144230769246,67.96133954678365,-5.381512101605559,-68.13475783475786,32.26186839188906,37.341689879294336,37.58130410039836,1577396200.0,-27.6882152833214,-51.12845787226683,8.797752
77034,1577396200.76,-0.2415749475097656,1.794813274536133,8.500194009094237,7.59102074659394,0.836277121343845,14.718091927579552,-2.1126549458821606,2.0594124613444005,17.861542451985674,0.7419586181640625,2.205848693847656,-0.838470458984375,-9.774929139672256,19.162992151772105,-0.9596289657964938,-2.9280526297433034,0.0094459170386905,4.195803687686012,25.132951491024407,-13.292439331501834,4.196240651709401,67.96133954678365,-5.381512101605559,-61.48746438746439,32.16602270344745,37.10207565819032,37.38961272351514,1577396200.0,-27.6882152833214,-51.12845787226683,8.797752
77035,1577396200.77,0.2659958044433593,0.5929240411376953,16.488447848205563,-0.4965924614138714,-0.3775831203553732,13.268402822354943,4.716805289713541,7.305108298746743,4.905320168050133,1.6727447509765625,6.295204162597656,-1.372528076171875,-1.840358827172256,-2.4434531607278966,-0.1661719345464938,-3.538404192243304,16.80937267485119,0.8541288829985119,25.132951491024407,-13.292439331501834,4.196240651709401,68.92805119770583,-4.158441169422477,-33.65192307692309,32.118099859226646,37.31772845718393,37.38961272351514,1577396200.0,-27.6882152833214,-51.12845787226683,8.797752
77036,1577396200.78,1.4176068029785156,1.7924190728759763,2.309985616760253,2.759521796398627,0.6399525852110325,10.44923036752096,-2.8787994771321608,2.693875901285807,3.402958626302083,-4.5223236083984375,6.844520568847656,-2.562713623046875,-7.272487733422256,13.456205042397103,0.3221093154535062,-1.7989022391183034,-18.27058337983631,-27.542477562313987,25.132951491024407,-12.532871369701729,4.56113114316239,69.31473585807468,2.364603802220625,-55.255626780626805,31.97433132656424,37.24584419085272,37.53338125617755,1577396200.0,-27.6882152833214,-51.12845787226683,8.797752
77037,1577396200.79,1.6953341955566406,-1.1213243475341796,11.618641671447753,-2.845304290027153,0.6088279636290012,7.592947786954554,-2.150962172444661,-23.388556984456372,9.45789462483724,-12.395858764648438,2.449989318847656,-2.684783935546875,-3.732448670922256,-4.762789098227897,-0.1356543564214938,-1.2801034109933034,-22.66511462983631,1.754397437686012,25.29354543026418,-14.241899283751962,3.6489049145299135,69.31473585807468,2.0384515536384704,-55.255626780626805,31.97433132656424,37.341689879294336,37.58130410039836,1577396200.0,-27.6882152833214,-51.12845787226683,8.797752
77038,1577396200.8,0.4527435339355468,1.205839666137695,6.054517013244628,2.9438753242306586,1.0613320773985324,14.756399154142052,-0.486992018636067,3.9197071512858073,6.97989590657552,-6.4754486083984375,4.403114318847656,-1.250457763671875,-2.206569764672256,18.186429651772105,-1.7530859970464938,-4.026685442243304,-28.03620837983631,9.322756812686013,26.257109065702814,-13.86211530285191,3.2840144230769246,68.92805119770581,-6.115354660915408,-5.400925925925935,32.45355976877228,37.24584419085272,37.341689879294336,1577396200.0,-27.6882152833214,-51.12845787226683,8.797752
77039,1577396200.81,1.3792995764160156,3.4970906549072267,7.878898678283691,-0.7000996025271526,0.8410655246641575,10.159531966642051,2.965446775309244,-14.22594723103841,13.451422993977868,2.4051666259765625,5.776405334472656,-1.830291748046875,-3.366237733422256,17.637113245522105,-0.6544531845464938,-7.047925676618304,-7.162184942336309,-6.760006859188988,26.899484822661908,-13.48233132195186,5.108466880341885,68.92805119770581,-6.115354660915408,-5.400925925925935,32.118099859226646,37.38961272351514,37.43753556773595,1577396200.0,-27.6882152833214,-51.12845787226683,8.797752
77040,1577396200.82,1.891658731689453,1.0717643731689452,8.10874203765869,5.555949335461127,-2.798120998773342,15.757175448087365,-0.1589863911946608,-18.226658205159502,14.852030965169272,-6.4449310302734375,13.710975646972656,-3.020477294921875,-7.150417420922256,7.230619104897103,1.3291893935785062,-11.930738176618304,25.70524669828869,20.034426734561013,25.534436339123843,-13.19749333627682,5.017244257478636,67.76799721659921,-3.179984423676012,-5.400925925925935,32.07017701500585,37.38961272351514,37.38961272351514,1577396200.0,-27.6882152833214,-51.12845787226683,8.797752
77041,1577396200.83,1.6043545324707031,-3.496372394409179,3.4352603970336903,-3.231967858142387,-1.9290257961366228,6.187551412442836,-0.509736934407552,12.744734470621744,6.841032210286459,-10.747909545898438,11.513710021972656,-3.234100341796875,-5.792385194359756,11.350492151772103,1.9090233779535064,-9.489331926618304,48.99015880766369,-9.048825218563987,26.096515126463046,-12.91265535060178,5.290912126068384,66.6079432354926,-4.64766954229571,-71.45840455840458,32.26186839188906,37.38961272351514,37.38961272351514,1577396200.0,-27.6882152833214,-51.12845787226683,8.797752
77042,1577396200.84,2.69132208618164,0.1643619439697265,5.721722982482909,6.369977899914253,-0.3632179103944352,21.07709153695455,-3.5060803120930983,-14.37917613728841,11.849702083333336,-13.982772827148438,13.192176818847656,-4.271697998046875,-14.047390077172256,17.972806604897105,-1.6310156845464938,-10.160718645368304,44.01579357328869,-6.790524437313988,24.49057573406532,-12.532871369701729,4.196240651709401,58.4875653677463,-3.5061366722581666,-86.83027065527065,32.26186839188906,37.24584419085272,37.341689879294336,1577396200.0,-27.6882152833214,-51.12845787226683,8.797752
77043,1577396200.85,1.3122619299316407,5.69736198059082,10.093535213928222,-1.3106210258669966,5.907196237554783,4.1045959681068975,-2.802185024007161,4.065753452555338,5.260859114583333,-2.233505249023437,15.114784240722656,-4.027557373046875,-5.014186952172256,2.500394495522104,1.9700585342035064,-10.771070207868304,35.04362560453869,-4.440670921688988,25.132951491024407,-13.672223312401885,5.655802617521372,58.4875653677463,-3.5061366722581666,-86.83027065527065,32.118099859226646,37.341689879294336,37.43753556773595,1577396200.0,-27.6882152833214,-51.12845787226683,8.797752
77044,1577396200.86,1.9000384375,0.906564458618164,6.757215200500488,0.8178242500119086,2.380537192144626,6.098965951017054,-2.850069057210286,-8.324240138753256,-0.8730855387369785,-9.008407592773438,12.825965881347656,-5.065155029296875,-16.763454530297256,29.630521448647105,-2.912753965796494,-13.273511614118304,20.54777599516369,-9.842282249813987,25.21324846064429,-13.387385326726845,3.922572783119657,68.15468187696808,-3.3430605479670894,-86.83027065527065,32.21394554766826,37.58130410039836,37.19792134663192,1577396200.0,-27.6882152833214,-51.12845787226683,8.797752
77045,1577396200.87,-1.7499219934082029,1.7900248712158202,6.380128439025878,-2.587927611560356,1.3306797641661112,4.650473946622522,0.7232769205729168,9.233637736002605,5.450001045735677,-12.487411499023438,16.762733459472656,-4.821014404296875,-9.393459413109756,11.136869104897103,0.5815087295160062,-10.328565325055804,0.0552222842261906,-0.6412324451264881,25.29354543026418,-13.86211530285191,4.013795405982902,67.76799721659921,-3.5061366722581666,-7.062749287749304,32.118099859226646,37.22188276874232,37.413574145625546,1577396200.0,-27.6882152833214,-51.12845787226683,8.797752
77046,1577396200.88,-0.2080561242675771,-4.286458942260742,6.820661544494628,3.9422574165158144,-4.957690896234279,12.66386690316549,1.6630010721842443,-7.914831654866536,10.674149068196618,-11.632919311523438,14.046669006347656,-4.729461669921875,-10.049587342797256,25.998929651772105,-3.340000059546494,-12.357984270368304,7.089524042038691,0.5947294689360119,25.775327247983498,-13.292439331501834,3.101569177350434,67.76799721659921,-3.5061366722581666,-7.062749287749304,32.26186839188906,37.341689879294336,37.43753556773595,1577396200.0,-27.6882152833214,-51.12845787226683,8.797752
77047,1577396200.89,-4.201584493408203,0.0518344659423828,9.39203412750244,-4.6577149467654335,-0.3775831203553727,2.533999679044398,1.964670481363932,10.477425498453776,11.679713765462242,-12.884140014648438,16.610145568847656,-3.234100341796875,-11.972194764672256,-5.708834020102897,0.7188378310785062,-11.076245989118304,3.64103771391369,0.1369657970610119,24.49057573406532,-12.91265535060178,3.466459668803423,67.76799721659921,-4.158441169422477,6.231837606837594,31.97433132656424,37.38961272351514,37.38961272351514,1577396200.0,-27.6882152833214,-51.12845787226683,8.797752
77048,1577396200.9,-1.9366697229003904,0.3044227410888671,10.368868404846191,0.0217521980099561,0.5848859470274393,9.033060085538535,-1.031672896321614,-2.3602838033040365,10.263543483479818,-8.749008178710938,11.834144592285156,-4.332733154296875,-12.216335389672256,13.440946253334603,-0.8528174423589938,-12.495313371930804,14.39848400297619,-3.662472679501488,26.01621815684316,-13.19749333627682,3.922572783119657,67.76799721659921,-3.2615224858215504,7.478205128205117,32.14206128133705,37.31772845718393,37.341689879294336,1577396200.0,-27.6882152833214,-51.12845787226683,8.797752
77049,1577396200.91,-3.895126680908203,1.6679205865478517,11.692861922912597,-5.414282671374809,-0.897124880609279,1.2411307825600228,7.138540268961588,4.664303867594401,12.948640645345057,-0.5245208740234375,14.382362365722656,-4.515838623046875,-8.889919374047256,5.033353479897103,0.8409081435785062,-11.411939348493304,39.46867443266369,8.956545875186013,25.614733308743727,-12.722763360151754,2.9191239316239352,69.31473585807468,-3.179984423676012,4.570014245014226,32.118099859226646,37.725072633060776,37.341689879294336,1577396200.0,-27.6882152833214,-51.12845787226683,8.797752
77050,1577396200.92,-3.5527558435058597,-6.771640265502929,8.156626070861815,2.848107257824408,-6.269713405999904,11.36860380502096,4.1553650004069,-0.6771600362141923,14.830483150227868,-25.27427673339844,-8.933067321777344,-2.928924560546875,-14.779811952172256,7.749417933022103,-3.462070372046494,-13.151441301618304,51.73674083891369,-11.398678734188987,24.329981794825542,-13.48233132195186,2.5542334401709463,69.31473585807468,-3.179984423676012,4.570014245014226,32.07017701500584,37.24584419085272,37.38961272351514,1577396200.0,-27.6882152833214,-51.12845787226683,8.797752
77051,1577396200.93,-1.8935740930175775,0.9999383233642576,8.397243337707518,-0.9921922050662152,4.669393979254001,9.843497347501428,-4.552346437581379,-17.096595021565754,13.51367223714193,-11.571884155273438,1.793861389160156,-3.401947021484375,-9.958034608422256,-18.12948831697789,0.9629784560785062,-15.592847551618304,79.47721935453869,-0.6870088123139881,25.29354543026418,-13.48233132195186,3.10156917735043,66.6079432354926,-3.179984423676012,7.893660968660963,32.07017701500584,37.341689879294336,37.341689879294336,1577396200.0,-27.6882152833214,-51.12845787226683,8.797752
77052,1577396200.94,-2.465788289794922,-1.8060660223388671,8.798272115783691,-1.138238506335747,-4.183166659173732,12.228122201017053,3.1725452189127603,14.928246384684243,11.798226747639974,-5.9871673583984375,-0.9069442749023438,-2.806854248046875,-9.256130311547256,5.887845667397103,-1.7530859970464938,-11.396680559430804,87.42704845610119,-2.5333222888764872,25.935921187223272,-13.48233132195186,3.2840144230769246,67.76799721659921,-3.098446361530473,-71.87386039886042,32.118099859226646,37.29376703507353,37.48545841195675,1577396200.0,-27.6882152833214,-51.12845787226683,8.797752
77053,1577396200.95,0.0888248815917968,0.7030573175048828,14.087063583068849,-4.672080156726372,1.0517552707579074,12.28079463754049,-10.717415712483724,-18.06864089558919,-1.349531669108072,-10.839462280273438,1.6260147094726562,-3.447723388671875,1.180881407202744,-6.899019566977897,4.747158143578506,-13.944898332868304,53.07951427641369,0.5947294689360119,25.935921187223272,-13.48233132195186,3.2840144230769246,69.70142051844356,-2.690756050802779,-68.55021367521368,31.97433132656424,37.24584419085272,37.53338125617755,1577396200.0,-27.6882152833214,-51.12845787226683,8.797752
77054,1577396200.96,0.3426102575683593,1.7158046197509764,14.482106856994628,2.297440875988471,-2.9106484768006857,5.409435872892054,-0.6162789082845045,23.39414345499674,-0.0087787394205722,-9.130477905273438,0.5273818969726562,-3.905487060546875,-9.256130311547256,10.740140589272103,4.503017518578506,-7.627759660993304,22.40934826078869,5.996340797061012,25.935921187223272,-14.241899283751962,4.013795405982902,70.66813216936573,-2.772294112948318,-85.58390313390316,32.16602270344745,37.24584419085272,37.58130410039836,1577396200.0,-27.6882152833214,-51.12845787226683,8.797752
77055,1577396200.97,-0.552821163330078,-3.3563115972900386,5.569691177062987,4.248715229015815,-5.673557192620998,19.32932432504049,-3.659309218343098,22.115639768473304,-3.908933243815103,-10.702133178710938,3.899574279785156,-1.540374755859375,-4.953151795922256,1.6459023080221036,0.8714257217035062,-0.6392342703683034,-27.18171619233631,-26.199704124813987,25.13295149102441,-13.292439331501834,4.196240651709401,69.31473585807468,1.7122993050563151,-61.07200854700856,32.09413843711624,37.341689879294336,37.38961272351514,1577396200.0,-27.6882152833214,-51.12845787226683,8.797752
77056,1577396200.98,-2.221579720458984,4.098035271606445,9.133460348205563,-4.290204991931449,2.807902188482517,9.77885390267721,-2.350878011067708,-17.20433409627278,8.728860219319662,0.8182525634765625,-0.3576278686523437,-4.637908935546875,-4.464870545922256,3.202298792397104,2.290493104516006,-6.346021379743304,-63.39082263764881,-4.639035179501487,25.454139369503952,-13.672223312401885,4.196240651709401,69.70142051844356,1.7122993050563151,-34.482834757834766,31.926408482343422,37.50941983406716,37.36565130140474,1577396200.0,-27.6882152833214,-51.12845787226683,8.797752
77057,1577396200.99,-2.123417452392578,-0.9872490545654296,3.3251271206665027,9.223866278820502,-7.576947512445217,8.596118282560022,0.7053204081217445,20.940086753336587,23.95957408040364,-8.337020874023438,-0.5407333374023438,-2.379608154296875,-0.2839623427972559,-17.702242223227895,5.021816346703506,-7.139478410993304,-30.53864978608631,11.001223609561013,25.454139369503952,-13.672223312401885,4.196240651709401,70.08810517881243,1.7122993050563151,-7.8936609686609795,32.118099859226646,37.24584419085272,37.341689879294336,1577396200.0,-27.6882152833214,-51.12845787226683,8.797752
77058,1577396201.0,-1.9438523278808597,-3.774099786987304,9.401610934143063,-13.626394365710745,3.3190642429258763,10.607247677091271,-0.3744645406087233,-1.788069606526692,18.570226143391924,-7.1163177490234375,-3.653526306152344,-2.623748779296875,3.256076719702744,-20.14364847322789,1.5428124404535062,-5.186353410993304,1.8710181826636905,3.158206031436012,25.132951491024407,-13.672223312401885,3.101569177350434,72.02152848065678,1.875375429347392,-1.2463675213675387,32.118099859226646,37.43753556773595,37.38961272351514,1577396201.0,-27.68814497488611,-51.12850095052698,8.815288
77059,1577396201.01,-2.980541646728516,-0.8447940557861329,12.140577633361817,3.99133855054902,-5.629264461908107,14.47148915658346,-0.3565080281575521,11.965421830240883,7.449159431966147,-7.4672698974609375,-6.003379821777344,-2.059173583984375,-6.768947694359756,-5.220552770102898,-0.6697119736089938,-7.688794817243304,24.57609630766369,1.8001738048735128,25.37384239988407,-13.957061298076924,3.3752370459401737,69.4114070231669,-6.400737878424794,-3.1159188034188223,32.09413843711624,37.29376703507353,37.48545841195676,1577396201.0,-27.68814497488611,-51.12850095052698,8.815288
77060,1577396201.02,-1.1298237634277342,0.7796717706298827,6.779960116271972,-11.615264971179496,4.729249020757908,8.938489119962368,-1.576353774007161,-18.104553920491533,8.749210933430989,-4.1255950927734375,-6.613731384277344,-2.959442138671875,0.417941954077744,0.0895058236471036,-1.8446387314214936,-0.0899178641183033,15.78703380766369,-11.673336937313987,25.775327247983498,-14.43179127420199,3.466459668803423,67.76799721659921,-5.136897915168943,-55.255626780626805,32.30979123610986,37.58130410039836,37.58130410039836,1577396201.0,-27.68814497488611,-51.12850095052698,8.815288
77061,1577396201.03,-2.477759298095703,-1.1356895574951171,7.340203304748535,6.032395465832221,-5.752565847406154,18.62782323861471,-0.4510789937337233,2.449667331949869,5.99109062093099,-4.0950775146484375,-8.841514587402344,-0.945281982421875,6.216281797827744,21.726468714272105,1.4512597060785062,-1.2190682547433034,-5.544753301711309,3.677004859561012,25.775327247983498,-14.43179127420199,3.466459668803423,67.76799721659921,-5.136897915168943,-55.255626780626805,32.16602270344745,37.38961272351514,37.19792134663192,1577396201.0,-27.68814497488611,-51.12850095052698,8.815288
77062,1577396201.04,-0.1003170495605458,-0.3719392279052734,5.551734664611816,-0.9514907768435588,0.951198801031345,5.469290914395961,-1.7200058736165358,1.3459403666178378,4.140372737630208,-3.515243530273437,-7.468223571777344,-1.403045654296875,-2.145534608422256,-37.1114219107279,1.0850487685785062,-1.4937264578683034,-22.51252673921131,-7.736569359188988,24.811763612544866,-12.532871369701729,3.831350160256412,67.96133954678365,-3.0984463615304736,-71.45840455840457,32.26186839188906,37.38961272351514,37.38961272351514,1577396201.0,-27.68814497488611,-51.12850095052698,8.815288
77063,1577396201.05,-0.4199429711914052,-0.2845508673095698,8.599553377990722,1.2260356330685491,-1.9960634426209984,15.20411486459127,-0.1122994588216146,-8.520564674886067,19.28968374226888,-2.325057983398437,-6.812095642089844,-1.525115966796875,-1.336818788109756,3.492215784584604,-1.4936865829839938,-1.8599373953683036,-8.44392322358631,11.458987281436013,25.29354543026418,-12.722763360151754,3.466459668803423,67.96133954678365,-3.5061366722581666,-85.16844729344731,32.14206128133705,37.269805612963125,37.50941983406716,1577396201.0,-27.68814497488611,-51.12850095052698,8.815288
77064,1577396201.06,-1.7140089685058593,-1.0375272894287109,17.134882296447753,-2.8237564750857462,0.4915120822813449,14.91681066537252,0.8800971293131507,25.45076268107096,23.011470222981767,9.149551391601562,-8.597373962402344,0.641632080078125,-4.281765077172256,-17.488619176352895,-2.851718809546494,1.5275137765066966,20.82243419828869,-2.182370140438988,25.454139369503952,-13.672223312401885,4.926021634615379,55.78077274516421,-3.5061366722581666,-0.4154558404558628,32.16602270344745,37.341689879294336,37.53338125617755,1577396201.0,-27.68814497488611,-51.12850095052698,8.815288
77065,1577396201.07,-2.5280375329589844,-2.3639150091552734,17.438945907287597,3.638193805675971,-2.240272011956935,19.15694180550924,-8.337579262288411,-4.476758070882161,10.695696883138025,5.9452056884765625,-7.193565368652344,-0.182342529296875,0.295871641577744,-5.647798863852897,0.0169335342035061,3.7247794015066966,28.11613537016369,-15.671139671688987,24.97235755178464,-15.00146724555207,3.2840144230769246,55.78077274516421,-3.5061366722581666,-0.4154558404558628,32.07017701500584,37.38961272351514,37.24584419085272,1577396201.0,-27.68814497488611,-51.12850095052698,8.815288
77066,1577396201.08,-0.0284909997558583,-5.1603425482177725,11.08952310455322,-3.791013945788871,-0.4733511867616227,12.29994825082174,1.2990824198404944,0.9820217142740878,10.635841841634118,-3.026962280273437,-8.048057556152344,-0.182342529296875,10.915988829077744,-15.932222691977897,-1.4173926376714938,7.875170026506696,24.30143810453869,-5.447750999813988,24.97235755178464,-15.00146724555207,3.2840144230769246,67.96133954678365,-3.4245986101126284,-4.985470085470089,32.16602270344745,37.24584419085272,37.10207565819032,1577396201.0,-27.68814497488611,-51.12850095052698,8.815288
77067,1577396201.09,-0.8377311608886714,-1.2901155645751954,11.309789657287595,0.4790447150997993,-0.3440642971131857,14.344596468595178,-8.699103712972006,4.58888651529948,6.493872969563803,8.005142211914062,-8.582115173339844,0.717926025390625,9.084934141577744,-2.9622519888528966,-1.2190283798589938,8.378710065569196,9.31730724516369,-3.281002952938988,24.089090885965888,-12.817709355376769,3.5576822916666684,69.31473585807468,1.7122993050563151,-2.0772792022792146,32.14206128133705,37.55734267828795,37.413574145625546,1577396201.0,-27.68814497488611,-51.12850095052698,8.815288
77068,1577396201.1,-0.4666299035644521,0.1140837091064453,10.294648153381347,-6.67123854295684,4.856141708746189,5.4740793177162725,-4.267436440022785,-5.515841591389974,3.180297871907552,12.018203735351562,-7.498741149902344,1.221466064453125,19.552463438452744,-6.166597691977897,0.9629784560785062,11.476244245256696,-29.25691150483631,10.451907203311013,24.97235755178464,-13.48233132195186,2.9191239316239352,67.96133954678365,-3.4245986101126284,9.97094017094016,32.16602270344745,37.341689879294336,37.53338125617755,1577396201.0,-27.68814497488611,-51.12850095052698,8.815288
77069,1577396201.11,-1.8983624963378904,-0.6520608221435547,9.624271688537595,5.04359018018769,-2.333645876703029,13.25762891488424,3.9255216410319,13.915499082438153,8.227274971516927,11.621475219726562,-8.139610290527344,1.618194580078125,11.312717344702744,4.484037073647103,-2.882236387671494,10.560716901506696,-29.28742908296131,12.496584937686013,24.97235755178464,-12.722763360151754,2.9191239316239352,67.96133954678365,-3.4245986101126284,9.97094017094016,31.97433132656424,37.38961272351514,37.43753556773595,1577396201.0,-27.68814497488611,-51.12850095052698,8.815288
77070,1577396201.12,-1.0149020837402345,-0.0990002386474599,8.688138839416503,2.235191632824409,-0.5667250515077165,13.992648824552209,-1.9761854512532544,-4.776033278401692,13.420298372395836,13.605117797851562,-7.803916931152344,1.984405517578125,12.045139219702744,-21.91366800447789,0.9324608779535062,11.964525495256696,-32.61384509858631,0.991457984561012,24.97235755178464,-12.722763360151754,2.9191239316239352,80.14190634840307,-2.5276799265117016,9.555484330484315,32.16602270344745,37.38961272351514,37.24584419085272,1577396201.0,-27.68814497488611,-51.12850095052698,8.815288
77071,1577396201.13,-2.1341913598632813,-3.0486566839599605,15.692375796203612,-5.126978472156059,-3.662427798089748,8.964825338224086,3.10191626993815,-11.853293385823566,23.095267281087235,12.033462524414062,-8.688926696777344,2.365875244140625,18.850559141577744,-3.328462926352896,-2.363437559546494,11.323656354631696,-28.79914783296131,11.428469703311013,24.73146664292497,-14.146953288526952,3.7401275373931626,80.52859100877194,-2.690756050802779,-1.2463675213675387,32.11809985922664,37.341689879294336,37.341689879294336,1577396201.0,-27.68814497488611,-51.12850095052698,8.815288
77072,1577396201.14,-0.2367865441894521,-1.4780603948974609,14.733498031311036,-2.9961389946169965,6.575178500738376,14.813859993985805,-0.0727951314290358,4.40333588663737,16.63571120198568,15.375137329101562,-11.435508728027344,3.876495361328125,10.854953672827744,-10.805269566977897,-5.354160215796494,17.274584089006698,-22.02424548921131,-4.593258812313988,25.132951491024407,-13.292439331501834,3.466459668803423,68.54136653733694,-2.038451553638469,-75.19750712250713,32.16602270344745,37.341689879294336,37.43753556773595,1577396201.0,-27.68814497488611,-51.12850095052698,8.815288
77073,1577396201.15,-0.0117315881347646,2.393363689575195,11.49893158843994,0.6514272346310498,-0.2147774074647482,13.808295296720177,-1.7786638142903646,-3.5298513142903647,7.634710060628256,23.34022521972656,-11.618614196777344,4.303741455078125,12.487644102515244,10.038236292397103,-3.340000059546494,17.671312604631694,-26.69343494233631,-1.312619163876488,25.454139369503952,-13.292439331501834,3.831350160256412,69.60474935335134,-3.139215392603243,-78.31342592592594,31.97433132656424,37.36565130140474,37.38961272351514,1577396201.0,-27.68814497488611,-51.12850095052698,8.815288
77074,1577396201.16,-1.759498800048828,-0.5682637640380859,13.265852413635251,4.674883124523627,-3.4062482204530298,15.417198812345177,-1.5356523457845046,1.5518417093912753,1.1571974690755205,17.084121704101562,-12.320518493652344,2.777862548828125,12.197727110327744,-6.502291051352897,-1.2342871689214938,16.511644635881698,-28.49397205171131,2.334231422061012,24.97235755178464,-12.722763360151754,4.3786858974359,71.0548168297346,-3.4245986101126284,-71.45840455840457,32.07017701500584,37.43753556773595,37.38961272351514,1577396201.0,-27.68814497488611,-51.12850095052698,8.815288
77075,1577396201.17,-0.1314416711425771,-0.3982754461669922,6.902064400939941,0.9351401313595648,-3.69355241967178,11.74449346566549,-2.048011501057942,-4.527036305745442,5.289589534505208,14.886856079101562,-13.266563415527344,3.052520751953125,16.226047422827744,-23.86679300447789,-2.851718809546494,16.206468854631698,-25.96101306733631,3.341311500186012,25.775327247983498,-13.672223312401885,3.101569177350434,70.86147449955017,-3.179984423676012,-61.90292022792025,32.16602270344745,37.341689879294336,37.43753556773595,1577396201.0,-27.68814497488611,-51.12850095052698,8.815288
77076,1577396201.18,-2.860831563720703,0.7222109307861327,12.810954098205563,-3.3672402519412152,-2.541941421136624,13.72928664193502,3.130646689860025,6.7712013285319,10.152213106282556,21.47865295410156,-14.029502868652344,2.838897705078125,11.984104063452744,-22.58505472322789,-2.088779356421494,17.732347760881698,-10.12239002046131,-1.449948265438988,25.454139369503952,-11.393519427001571,5.290912126068384,68.15468187696808,-3.0169082993849345,-7.062749287749304,32.26186839188906,37.341689879294336,37.341689879294336,1577396201.0,-27.68814497488611,-51.12850095052698,8.815288
77077,1577396201.19,0.5389347937011718,-2.900216181030273,12.514073092346193,-1.3130152275271527,-1.0742958034608414,15.84336670785299,2.1729660257975256,-8.779138454182943,0.405418147786458,14.215469360351562,-13.785362243652344,2.564239501953125,20.376438047827744,-15.047212926352897,-1.6615332626714938,14.192308698381696,-18.14851306733631,-0.076657249813988,24.97235755178464,-14.621683264652017,4.743576388888888,80.14190634840307,1.7122993050563151,-48.60833333333335,32.16602270344745,37.38961272351514,37.38961272351514,1577396201.0,-27.68814497488611,-51.12850095052698,8.815288
77078,1577396201.2,0.4216189123535155,6.432381890258789,15.535555587463378,5.773821686535347,4.451521628179783,15.02694394173971,-3.185257289632161,23.09486824747721,0.0271342854817705,19.22035217285156,-7.925987243652344,1.496124267578125,13.387912657202744,-9.065767613852897,-1.6615332626714938,16.511644635881698,-36.79475330171131,-4.013424827938988,25.454139369503952,-12.91265535060178,4.196240651709401,67.76799721659921,-3.5061366722581666,-8.724572649572671,32.118099859226646,37.24584419085272,37.24584419085272,1577396201.0,-27.68814497488611,-51.12850095052698,8.815288
77079,1577396201.21,-1.2279860314941404,0.121266314086914,10.615471175842284,-0.472650444812309,1.389337704839939,3.331268831876429,-6.146884743245442,-3.382607912190754,1.918553597005208,5.6705474853515625,-6.705284118652344,0.672149658203125,13.784641172827744,-19.65536722322789,-0.0441016220464938,16.481127057756698,-68.44148181733631,-16.891842796688987,25.935921187223272,-12.3429793792517,4.013795405982902,67.96133954678365,-3.4245986101126284,-6.647293447293474,32.26186839188906,37.53338125617755,37.24584419085272,1577396201.0,-27.68814497488611,-51.12850095052698,8.815288
77080,1577396201.22,2.1598093176269533,1.394981597290039,5.187816012268065,-1.9355076591677776,2.37814299048447,12.508243795255334,1.5001953592936197,-3.5573846333821613,4.97594911702474,6.3724517822265625,-1.1816024780273438,0.550079345703125,12.808078672827744,-16.084810582602895,-3.675693418921494,17.030443464006698,-109.48762439546132,5.477541968936012,25.935921187223272,-12.722763360151754,4.743576388888888,67.76799721659921,-5.463050163751098,-61.90292022792025,31.97433132656424,37.341689879294336,37.38961272351514,1577396201.0,-27.68814497488611,-51.12850095052698,8.815288
77081,1577396201.23,0.6897694982910156,-0.5323507391357422,7.989031954650878,-3.5922952079959027,-2.932196291742092,0.6425803675209603,2.290281907145182,-3.595691859944661,15.627752303059898,10.126113891601562,-7.407188415527344,-0.365447998046875,15.127414610327744,3.721097620522104,-1.1732520126714938,13.032640729631696,-100.02717517671132,10.879153297061013,24.16938785558577,-11.393519427001571,4.926021634615379,68.92805119770581,-5.789202412333252,-61.90292022792025,32.16602270344745,37.53338125617755,37.58130410039836,1577396201.0,-27.68814497488611,-51.12850095052698,8.815288
77082,1577396201.24,3.2755072912597654,0.6312312677001952,2.4249072964477527,1.4451050849728462,5.229637167730564,12.601617660001429,-2.859645863850911,3.7569014383951824,16.875131368001306,11.224746704101562,-1.975059509277344,0.794219970703125,7.345432188452744,0.9745155892721036,-7.368320372046494,12.727464948381696,-63.95539783296131,9.811038062686013,23.68760603786645,-13.86211530285191,4.743576388888888,80.14190634840307,-2.690756050802779,-75.19750712250713,32.16602270344745,37.38961272351514,37.58130410039836,1577396201.0,-27.68814497488611,-51.12850095052698,8.815288
77083,1577396201.25,-2.619017196044922,4.335061235961914,11.465412765197753,-2.1007075737185588,-0.686435134515529,1.5451943933998664,-3.05836460164388,2.8973830423990887,16.94216901448568,20.59364318847656,-4.111289978027344,-0.121307373046875,17.080539610327744,8.085111292397103,1.2986718154535062,12.025560651506696,-23.24494861421131,-0.229245140438988,25.29354543026418,-14.621683264652017,3.6489049145299135,68.15468187696808,-5.463050163751098,-74.36659544159546,32.16602270344745,37.38961272351514,37.341689879294336,1577396201.0,-27.68814497488611,-51.12850095052698,8.815288
77084,1577396201.26,1.5325284826660155,-0.8412027532958984,6.533357345275878,-2.9195245414919966,-1.04317118187881,7.604918795255335,-1.217223524983723,-6.751249648030599,9.551268489583332,2.6493072509765625,-5.148887634277344,-0.212860107421875,0.448459532202744,-3.114839879477896,-7.032627012671494,9.370531354631696,-10.94636462983631,-1.877194359188988,25.775327247983498,-13.672223312401885,4.926021634615379,68.15468187696808,-2.8538321750938573,-88.49209401709405,32.16602270344745,37.341689879294336,37.38961272351514,1577396201.0,-27.68814497488611,-51.12850095052698,8.815288
77085,1577396201.27,-4.965334822998047,0.5594052178955078,13.531608797912597,-8.217892815417779,2.91444416235947,7.942501229337366,1.842566196695963,7.4224241800944,-0.8323841105143223,7.654190063476562,-3.195762634277344,1.129913330078125,8.596652891577744,-5.251070348227897,-0.9901465439214938,10.682787214006696,-40.45686267671131,-15.518551781063987,25.614733308743727,-13.48233132195186,4.3786858974359,67.76799721659921,-3.179984423676012,-7.8936609686609795,32.07017701500584,37.24584419085272,37.38961272351514,1577396201.0,-27.68814497488611,-51.12850095052698,8.815288
77086,1577396201.28,-0.9047688073730468,1.2585121026611328,7.72566977203369,-5.9888910698123095,2.2009720676329074,2.988897994474085,-3.764654091389973,-13.371217238362629,3.778848286946614,11.041641235351562,-1.3952255249023438,0.428009033203125,3.591770079077744,3.385404261147104,-3.858798887671494,9.095873151506696,-69.41804431733631,3.280276343936012,25.935921187223272,-11.96319539835165,3.6489049145299135,68.54136653733694,-3.5061366722581666,5.400925925925918,32.16602270344745,37.43753556773595,37.38961272351514,1577396201.0,-27.68814497488611,-51.12850095052698,8.815288
77087,1577396201.29,-0.5743689782714834,4.268023589477539,8.247605733947752,1.0452734077267525,3.635098862066501,7.880251986173304,2.771516440836588,7.647479136149088,16.300522969563804,7.501602172851562,-6.369590759277344,1.068878173828125,1.852268125952744,15.561917933022103,-0.2272070907964938,5.983080182756696,-47.20124744233631,19.393557593936013,25.29354543026418,-14.621683264652017,5.108466880341885,61.1943579903284,-3.3430605479670894,7.893660968660963,32.07017701500584,37.43753556773595,37.24584419085272,1577396201.0,-27.68814497488611,-51.12850095052698,8.815288
77088,1577396201.3,-1.0939107385253906,-0.3767276312255859,7.8334088467407215,2.302229279308784,-6.04226424828506,15.26875830941549,4.564773484293619,-1.201490199788411,25.8007151570638,1.7948150634765625,-7.254600524902344,1.282501220703125,6.979221250952744,-6.654878941977897,-1.6310156845464938,1.5885489327566966,28.20768810453869,10.604495093936013,25.29354543026418,-13.48233132195186,4.743576388888888,67.76799721659921,-3.179984423676012,7.893660968660963,32.07017701500584,37.53338125617755,37.58130410039836,1577396201.0,-27.68814497488611,-51.12850095052698,8.815288
77089,1577396201.31,1.9132065466308592,-0.8579621649169922,12.779829476623537,2.4578523872189395,-2.0894373073670915,22.99484706673971,0.7316566263834632,15.775793772379558,18.297287154134118,1.7948150634765625,-3.867149353027344,0.519561767578125,5.453342344702744,-20.60141214510289,-2.851718809546494,-0.5476815359933034,73.43473888578869,-5.417233421688988,25.454139369503952,-13.292439331501834,3.101569177350434,64.67451993364823,-3.5061366722581666,9.555484330484315,32.357714080330666,37.24584419085272,37.24584419085272,1577396201.0,-27.68814497488611,-51.12850095052698,8.815288
77090,1577396201.32,-0.4929661218261708,1.3303381524658202,8.74081127593994,-5.75186510545684,0.3718019992735324,8.919335506681117,0.6358885599772132,3.594095725504557,1.442107466634114,7.532119750976562,-4.508018493652344,-1.067352294921875,13.174289610327744,-12.331148473227897,0.6272850967035062,0.3678458077566966,97.33000255766368,-19.638424827938987,25.29354543026418,-12.3429793792517,5.108466880341885,80.14190634840307,-3.5061366722581666,7.893660968660963,32.16602270344745,37.341689879294336,37.38961272351514,1577396201.0,-27.68814497488611,-51.12850095052698,8.815288
77091,1577396201.33,1.496615457763672,-2.337578790893555,7.067264315490722,-0.6857343925662152,-1.5172231105897476,11.684638424161584,2.955869968668619,11.686497336832682,-2.170742838541666,-4.4612884521484375,-6.339073181152344,-1.097869873046875,4.812473204077744,0.4862343392721036,-4.926914122046494,4.487718854631696,68.73503185453869,-24.185543968563987,27.06007876190168,-14.43179127420199,4.196240651709401,80.91527566914081,-2.5276799265117016,-5.400925925925935,32.26186839188906,37.341689879294336,37.341689879294336,1577396201.0,-27.68814497488611,-51.12850095052698,8.815288
77092,1577396201.34,0.3881000891113281,3.8993165338134768,10.407175631408691,3.22399691846894,3.522571384039157,8.909758700040493,0.2695757059733069,-18.571423244222004,-3.705426102701822,3.8394927978515625,-4.263877868652344,-0.945281982421875,-2.969509217797256,15.470365198647103,-0.2882422470464938,1.4969961983816966,-4.598708379836309,-6.088620140438988,26.899484822661908,-13.86211530285191,4.013795405982902,80.91527566914081,-2.5276799265117016,-5.400925925925935,32.118099859226646,37.10207565819032,37.58130410039836,1577396201.0,-27.68814497488611,-51.12850095052698,8.815288
77093,1577396201.35,-1.2974178796386715,2.5011027642822268,10.08156420562744,2.101116339855659,-1.3113217678163105,11.497890694669396,5.306975998942057,-0.1935313008626298,2.4716141805013017,4.5413970947265625,-3.134727478027344,-0.609588623046875,-1.077419374047256,0.3336464486471036,-1.9361914657964936,0.2152579171316966,-35.75715564546131,17.928713843936013,26.096515126463046,-13.292439331501834,5.290912126068384,63.32112362235719,1.7938373672018535,-69.79658119658122,32.16602270344745,37.24584419085272,37.53338125617755,1577396201.0,-27.68814497488611,-51.12850095052698,8.815288
77094,1577396201.36,0.6777984899902344,-1.4996082098388672,6.164650289611815,2.2327974311642524,-5.10373719750381,8.531474837735804,0.8705203226725257,1.712253220621744,8.737239925130208,-10.839462280273438,-9.390830993652344,-0.731658935546875,0.051731016577744,-24.59921487947789,-0.1356543564214938,-1.7378670828683034,-31.72883533296131,9.811038062686013,24.49057573406532,-13.292439331501834,5.290912126068384,68.15468187696808,-2.690756050802779,-68.55021367521368,32.118099859226646,37.58130410039836,37.38961272351514,1577396201.0,-27.68814497488611,-51.12850095052698,8.815288
77095,1577396201.37,-0.6222530114746093,1.730169829711914,9.52610942047119,-0.6570039726443402,1.2241377902891577,-1.4355866734946634,1.1338825052897132,-1.9269333028157547,9.34297294514974,-2.477645874023437,-2.554893493652344,-0.762176513671875,-8.767849061547256,-16.298433629477895,0.9629784560785062,-3.1416756766183034,-18.20954822358631,3.036135718936012,24.97235755178464,-13.48233132195186,4.3786858974359,71.44150149010348,-2.9353702372393955,-74.7820512820513,32.26186839188906,37.58130410039836,37.43753556773595,1577396201.0,-27.68814497488611,-51.12850095052698,8.815288
77096,1577396201.38,-1.3740323327636716,0.3104082452392578,10.895592770080563,-2.61067252733184,2.6893892063047824,11.165096663907676,4.978970371500651,8.8780987894694,6.455565743001302,-0.7686614990234375,-3.592491149902344,-1.067352294921875,1.363986875952744,-17.000337926352895,-0.2272070907964938,-2.1651131766183034,-15.95124744233631,-14.053708031063987,24.811763612544866,-12.91265535060178,6.020693108974362,71.24815915991904,-3.5061366722581666,-65.22656695156695,32.07017701500584,37.53338125617755,37.53338125617755,1577396201.0,-27.68814497488611,-51.12850095052698,8.815288
77097,1577396201.39,-1.472194600830078,1.1292252130126952,11.08473470123291,-1.4159658989138717,-0.4254671535584977,2.7686314417397107,3.674130466715494,-16.27538385213216,10.865685201009118,-2.050399780273437,-5.789756774902344,-1.799774169921875,-5.777126405297256,-3.786226598227896,-0.8985938095464938,-3.813062395368304,-21.59699939546131,-15.396481468563987,24.329981794825542,-13.102547341051809,3.2840144230769246,67.76799721659921,-3.5061366722581666,-61.90292022792025,32.30979123610986,37.341689879294336,37.341689879294336,1577396201.0,-27.68814497488611,-51.12850095052698,8.815288
77098,1577396201.4,-0.830548555908203,0.6264428643798827,9.26514143951416,-1.353716655749809,0.3358889743711887,14.277558822110802,4.143393992106119,-1.519919020589192,14.998077266438806,-7.726669311523437,-9.360313415527344,-1.311492919921875,-9.774929139672256,-6.410738316977897,0.2915917373285062,-5.674634660993304,-1.2112572079613095,8.803957984561013,26.417703004942584,-12.91265535060178,4.926021634615379,80.14190634840307,2.2015276779295467,-7.062749287749304,31.97433132656424,37.53338125617755,37.341689879294336,1577396201.0,-27.68814497488611,-51.12850095052698,8.815288
77099,1577396201.41,1.6594211706542967,1.7541118463134764,4.445613497619628,-1.7224237114138714,1.4491927463438448,15.934346370938927,-4.695998537190754,-12.65535094197591,18.136875642903643,-10.473251342773438,-8.475303649902344,-2.593231201171875,-2.725368592797256,-18.64828714510289,2.153164002953506,-11.747632707868304,33.73136974516369,8.163088843936013,25.614733308743727,-13.48233132195186,5.108466880341885,80.33524867858752,2.609217988657241,-8.309116809116826,32.26186839188906,37.19792134663192,37.341689879294336,1577396201.0,-27.68814497488611,-51.12850095052698,8.815288
77100,1577396201.42,0.7663839514160157,2.316749236450195,6.926006417541503,-2.7567188286013717,0.5968569553282199,4.10938437142721,-6.865145241292318,9.732828782145182,14.342066011555993,-8.367538452148438,-6.430625915527344,-1.311492919921875,3.713840391577744,-17.946382848227895,3.312831971703506,-9.611402239118304,52.40812755766369,10.970706031436013,25.132951491024407,-12.91265535060178,3.831350160256412,68.15468187696808,-6.767659158079718,-8.724572649572671,32.357714080330666,37.341689879294336,37.43753556773595,1577396201.0,-27.68814497488611,-51.12850095052698,8.815288
77101,1577396201.43,2.5297134741210936,0.9532513909912108,7.577229269104003,-1.1573921196169965,2.813887692632908,5.447743099454554,0.8729145243326819,5.131173191324869,1.1500148640950516,-6.5059661865234375,-4.553794860839844,-1.860809326171875,-17.007595155297256,12.662748011147103,0.3221093154535062,-6.925855364118304,46.76237560453869,-16.769772484188987,24.97235755178464,-13.292439331501834,4.378685897435895,69.31473585807468,-5.463050163751098,-5.400925925925935,32.18998412555785,37.43753556773595,37.341689879294336,1577396201.0,-27.68814497488611,-51.12850095052698,8.815288
77102,1577396201.44,1.690545792236328,0.2242169854736328,7.402452547912596,2.099919239025581,2.6654471897032206,7.8934200953041636,-3.023648677571614,-1.6444175069173173,-2.804009177652994,-10.778427124023438,-1.5478134155273438,-2.745819091796875,-9.378200624047256,-10.698458043540397,1.6801415420160062,-7.368360246930804,1.0623023623511898,-9.765988304501487,24.008793916346,-13.102547341051809,4.743576388888888,67.96133954678365,-5.544588225896636,-66.05747863247865,32.07017701500584,37.24584419085272,37.46149698984635,1577396201.0,-27.68814497488611,-51.12850095052698,8.815288
77103,1577396201.45,0.9746794958496092,1.143590422973633,5.649896932678222,-3.2355591606326213,-1.979304030999904,10.370221712735802,-4.609807277425129,0.7809087748209629,6.850609016927083,-8.337020874023438,-0.6322860717773438,-3.722381591796875,-8.889919374047256,20.139554651772105,-1.8751563095464936,-8.177076067243304,-18.88093494233631,-3.799801781063988,24.49057573406532,-11.773303407901622,3.466459668803423,67.96133954678365,-4.892283728732327,-73.95113960113964,32.07017701500584,37.43753556773595,37.53338125617755,1577396201.0,-27.68814497488611,-51.12850095052698,8.815288
77104,1577396201.46,-0.0907402429199209,0.149996734008789,7.000226669006347,1.7707165107540963,-2.415048733148341,8.474013997892055,-2.9602023335774734,-5.381766298421224,14.47135290120443,-8.977890014648438,-0.5102157592773438,-2.837371826171875,-15.725856874047256,-10.774751988852897,0.5357323623285062,-10.130201067243304,-16.74470447358631,-0.7480439685639881,25.132951491024407,-14.43179127420199,4.196240651709401,67.96133954678365,-4.892283728732327,-73.95113960113964,32.07017701500584,37.05415281396951,37.341689879294336,1577396201.0,-27.68814497488611,-51.12850095052698,8.815288
77105,1577396201.47,1.5169661718749996,1.3554772698974609,9.96664252593994,-0.2164708671755907,2.7121341220762667,11.7002007349526,-1.0867395345052082,-6.042565956624349,12.354878633626305,-10.152816772460938,1.595497131347656,-2.165985107421875,-12.399440858422256,1.7221962533346034,0.9477196670160062,-12.129102434430804,-2.7218773251488098,5.660647437686013,25.21324846064429,-11.678357412676611,3.5576822916666684,68.15468187696808,-4.158441169422478,-41.9610398860399,32.237906969778656,37.48545841195675,37.46149698984635,1577396201.0,-27.68814497488611,-51.12850095052698,8.815288
77106,1577396201.48,0.3186682409667968,0.6719326959228514,12.487736874084472,4.557567243175971,-1.7183360500428726,16.336572249845176,-1.617055202229817,24.390131345621743,18.47206387532552,-8.703231811523438,3.426551818847656,-1.250457763671875,-9.225612733422256,-2.229830113852896,2.122646424828506,-7.383619035993304,16.64152599516369,8.651370093936013,25.775327247983498,-11.393519427001571,3.101569177350434,67.76799721659921,-3.5061366722581666,4.570014245014226,32.16602270344745,37.341689879294336,37.341689879294336,1577396201.0,-27.68814497488611,-51.12850095052698,8.815288
77107,1577396201.49,-0.3181894006347646,-1.1787851873779296,13.431052328186034,-1.8253743828005904,5.330193637457127,9.156361471036586,0.9447405741373694,8.880492991129556,9.98940739339193,-12.426376342773438,2.694129943847656,-2.013397216796875,-7.943874452172256,-7.417818395102897,2.946621034203506,-9.336744035993304,13.68132091703869,-14.206295921688987,26.257109065702814,-12.722763360151754,4.743576388888888,67.76799721659921,-3.179984423676012,4.570014245014226,32.30979123610986,37.38961272351514,37.341689879294336,1577396201.0,-27.68814497488611,-51.12850095052698,8.815288
77108,1577396201.5,0.359369669189453,-0.5323507391357422,5.91325911529541,4.10506312940644,0.5250309055235325,4.427813192227991,4.394785166422525,-13.196440517171222,9.06763975423177,-11.968612670898438,1.2903213500976562,-1.525115966796875,-8.126979920922256,21.634915979897105,2.519374940453506,-9.428296770368304,16.21427990141369,-0.076657249813988,25.614733308743727,-13.86211530285191,5.838247863247863,69.31473585807468,-3.179984423676012,4.570014245014226,32.30979123610986,37.43753556773595,37.43753556773595,1577396201.0,-27.68814497488611,-51.12850095052698,8.815288
77109,1577396201.51,-0.293050283203125,-2.2920889593505858,6.412450161437987,-2.9997302971072317,-1.524405715570217,7.485208712247524,-0.9442845357259112,3.5102986673990886,3.569355641682942,-13.067245483398438,0.6036758422851562,-2.120208740234375,-5.365139100609756,-11.903902379477897,0.7646141982660062,-7.795606340680804,13.74235607328869,-6.256466820126488,24.97235755178464,-12.342979379251702,4.743576388888885,63.99782177800272,-3.139215392603243,7.270477207977193,32.02225417078504,37.34168987929434,37.413574145625546,1577396201.0,-27.68814497488611,-51.12850095052698,8.815288
77110,1577396201.52,1.968273184814453,1.2633005059814453,7.641872713928222,3.336524396496283,0.9200741794493136,10.712592550138146,3.645400046793619,-13.866816982014972,2.0286868733723957,-8.153915405273438,-1.3341903686523438,-2.562713623046875,-5.685573670922256,15.348294886147103,1.5122948623285062,-9.367261614118304,-8.96272205171131,5.141848609561012,24.811763612544866,-11.773303407901622,4.56113114316239,64.09449294309493,-2.9353702372393955,8.309116809116793,32.16602270344745,37.24584419085272,37.38961272351514,1577396201.0,-27.68814497488611,-51.12850095052698,8.815288
77111,1577396201.53,-0.1529894860839833,1.8019958795166011,8.046492794494627,-2.9410723564334025,-0.7893858059022477,6.134878975919397,-4.959360719807942,0.8431580179850253,3.163538460286458,-1.2874603271484375,-2.188682556152344,0.397491455078125,-3.701931092797256,-14.497896520102897,3.434902284203506,-7.353101457868304,-16.56159900483631,15.456790015811013,25.132951491024407,-13.672223312401885,5.655802617521372,67.76799721659921,-3.5061366722581666,4.570014245014226,31.926408482343422,37.38961272351514,37.38961272351514,1577396201.0,-27.68814497488611,-51.12850095052698,8.815288
77112,1577396201.54,-1.5476119531249997,-1.1332953558349608,8.867703963928221,-3.984944280261528,-0.3009686672303727,4.399082772306117,0.7723580546061194,10.197303904215495,11.938287544759117,-8.993148803710938,-2.692222595214844,-0.472259521484375,-8.645778749047256,2.988675745522104,1.1155663467035062,-6.803785051618304,-14.30329822358631,1.479739234561012,25.29354543026418,-12.722763360151754,4.196240651709401,80.14190634840307,-3.5061366722581666,-2.0772792022792146,32.14206128133705,37.19792134663192,37.58130410039836,1577396201.0,-27.68814497488611,-51.12850095052698,8.815288
77113,1577396201.55,-0.782664522705078,1.3231555474853514,9.959459920959471,0.2300477424435497,-2.636512386712795,11.494299392179162,0.8465783060709637,-1.0973424275716148,12.265096071370444,-5.9261322021484375,-3.989219665527344,-0.090789794921875,-6.051784608422256,-7.494112340415394,1.8479882217035064,-6.803785051618304,-10.87007068452381,2.975100562686012,24.49057573406532,-13.292439331501834,4.56113114316239,67.76799721659921,-2.446141864366163,-70.21203703703705,32.16602270344745,37.341689879294336,37.53338125617756,1577396201.0,-27.68814497488611,-51.12850095052698,8.815288
77114,1577396201.56,-1.6302119104003905,-0.8292317449951172,10.608288570861816,-3.180492522449028,3.75720314673447,9.163544076017056,-1.6529682271321608,4.891753025309245,10.164184114583335,-6.5059661865234375,-5.423545837402344,0.550079345703125,-3.762966249047256,-4.488130895102897,-0.7154883407964938,-5.064283098493304,-5.697341192336309,-1.785641624813988,24.49057573406532,-13.292439331501834,4.56113114316239,67.76799721659921,-3.5061366722581666,-75.19750712250713,32.118099859226646,37.341689879294336,37.341689879294336,1577396201.0,-27.68814497488611,-51.12850095052698,8.815288
77115,1577396201.57,-3.0930691247558597,-0.9609128363037108,9.969036727600097,2.38123793409394,-1.4070898342225602,12.00546144662252,-4.72472895711263,4.946819663492838,11.569580489095054,-7.879257202148437,-6.674766540527344,-0.334930419921875,-10.293727967797256,4.239896448647103,0.5052147842035062,-3.5994393484933034,-10.70222400483631,-0.107174827938988,24.329981794825542,-12.3429793792517,4.743576388888888,67.76799721659921,-3.5061366722581666,-71.87386039886043,32.118099859226646,37.341689879294336,37.43753556773595,1577396201.0,-27.68814497488611,-51.12850095052698,8.815288
77116,1577396201.58,0.5293579870605469,-0.6448782171630859,11.07156659210205,-1.5021571586794964,-1.5794723537538102,10.298395662931116,-2.8955588887532544,-8.144675014241537,13.185666609700524,-7.543563842773437,-4.828453063964844,0.061798095703125,-5.441433045922256,-14.406343785727897,2.977138612328506,-6.590162004743304,-4.446120489211309,-6.424313499813988,25.21324846064429,-12.817709355376769,3.7401275373931626,63.90115061291049,-2.038451553638469,-73.53568376068378,32.07017701500585,37.05415281396951,37.24584419085272,1577396201.0,-27.68814497488611,-51.12850095052698,8.815288
77117,1577396201.59,1.688151590576172,-0.3432088079833984,5.295555086975097,0.0325261054806592,-1.2957594570252948,11.671470315030724,-2.095895534261067,-1.6468117085774736,11.379241457112633,-8.703231811523438,-3.043174743652344,0.977325439453125,-3.885036561547256,0.2420937142721036,1.6648827529535062,-7.948194231305804,14.96305919828869,4.134768531436012,25.132951491024407,-11.773303407901622,3.466459668803423,68.63803770242916,-3.3838295790398587,-37.59875356125358,32.118099859226646,37.46149698984635,37.341689879294336,1577396201.0,-27.68814497488611,-51.12850095052698,8.815288
77118,1577396201.6,1.8485631018066409,2.3957578912353514,7.838197250061034,-3.5539879814334028,0.5537613254454075,3.7334947107826792,-1.281866969807942,4.702611094156901,5.019044746907552,-4.5833587646484375,-1.7919540405273438,1.343536376953125,-1.321559999047256,-20.17416605135289,5.479580018578506,-6.834302629743304,18.19792247953869,-7.889157249813988,25.132951491024407,-11.773303407901622,3.466459668803423,69.70142051844356,-3.3430605479670894,7.893660968660963,32.16602270344745,37.05415281396951,37.43753556773595,1577396201.0,-27.68814497488611,-51.12850095052698,8.815288
77119,1577396201.61,2.590765616455078,1.1627440362548829,11.271482430725095,4.847265644054877,0.625587375250095,9.46042508187643,1.7324329203287756,-7.919620058186849,4.6144246663411455,-7.390975952148437,-2.982139587402344,0.214385986328125,-12.460476014672256,18.705228479897105,3.038173768578506,-6.254468645368304,-2.0962669735863093,4.500979468936012,24.97235755178464,-11.96319539835165,2.9191239316239352,69.31473585807468,1.875375429347392,-63.5647435897436,31.926408482343422,37.43753556773595,37.43753556773595,1577396201.0,-27.68814497488611,-51.12850095052698,8.815288
77120,1577396201.62,-1.1429918725585937,1.365054076538086,7.948330526428221,-2.0899336662478567,4.365330368414157,4.98446507821432,-1.9378782246907549,5.769227933756511,5.349444576009114,-5.8650970458984375,-2.142906188964844,0.244903564453125,-7.653957459984756,-6.929537145102897,2.427822206078506,-7.322583879743304,-22.32942127046131,-2.472287132626488,24.811763612544866,-12.532871369701729,2.919123931623928,68.54136653733696,-3.5061366722581666,-7.062749287749304,32.118099859226646,37.55734267828796,37.31772845718393,1577396201.0,-27.68814497488611,-51.12850095052698,8.815288
77121,1577396201.63,-2.731544674072265,-3.908175079956054,8.963472030334472,-1.2076703544802776,-6.3966060939881855,11.064540194181117,6.925456321207681,-9.629080043538412,15.036384493001306,-15.813827514648438,-5.789756774902344,0.092315673828125,-6.356960389672256,2.927640589272104,-0.4713477157964938,-1.4021737234933034,-15.15779041108631,8.437747047061013,23.205824220147136,-12.153087388801676,3.101569177350434,69.31473585807468,-3.5061366722581666,-8.724572649572671,32.26186839188906,37.43753556773595,37.341689879294336,1577396201.0,-27.68814497488611,-51.12850095052698,8.815288
77122,1577396201.64,0.0600944616699218,-0.3886986395263671,6.138314071350097,0.6645953437619087,-0.2315368190858414,9.405358443692837,-1.9283014180501297,12.577140354410806,17.049908089192712,-6.3228607177734375,-0.7848739624023438,0.305938720703125,-11.026149842797256,-6.288668004477897,3.160244081078506,-7.383619035993304,6.967453729538691,-2.579098656063988,23.205824220147136,-12.153087388801676,3.101569177350434,63.90115061291049,-3.179984423676012,-66.88839031339033,32.16602270344745,37.43753556773595,37.43753556773595,1577396201.0,-27.68814497488611,-51.12850095052698,8.815288
77123,1577396201.65,0.0313640417480468,0.6216544610595702,15.932993063049317,-1.305832622546684,2.904867355718845,12.513032198575646,-3.4294658589680984,-9.5859844136556,16.02758398030599,-3.149032592773437,-3.806114196777344,0.428009033203125,-7.455593202172256,-11.659761754477897,3.984218690453506,-9.733472551618304,29.06218029203869,-2.731686546688988,25.132951491024407,-13.292439331501834,4.196240651709401,65.44788925438598,-3.0169082993849345,-66.88839031339033,31.97433132656424,37.341689879294336,37.58130410039836,1577396201.0,-27.68814497488611,-51.12850095052698,8.815288
77124,1577396201.66,-0.7024587670898431,0.2709039178466796,11.111070919494628,0.2635665656857373,1.206181277837986,11.223754604581506,0.4275930155436199,0.6935204142252606,21.302010237630203,-7.0552825927734375,-3.104209899902344,0.977325439453125,-3.991848084984756,2.591947229897104,2.946621034203506,-8.512769426618304,72.18351818266369,6.164187476748513,24.570872703685204,-13.007601345826792,4.834799011752134,69.02472236279803,-4.280748262640786,-74.15886752136755,32.16602270344745,37.53338125617756,37.48545841195675,1577396201.0,-27.68814497488611,-51.12850095052698,8.815288
77125,1577396201.67,0.3569754675292968,-1.5379154364013672,9.195709591369628,-1.8301627861209029,-3.063877383050686,8.002356270841272,-0.3098210957845045,-3.957216310628255,11.026096712239584,-10.168075561523438,-4.416465759277344,0.702667236328125,-5.990749452172256,-11.293550816977897,1.1155663467035062,-10.069165910993304,100.65641857328868,-3.219967796688988,24.49057573406532,-13.292439331501834,4.196240651709401,67.76799721659921,-3.3430605479670894,-92.64665242165243,31.83056279390182,37.38961272351514,37.43753556773595,1577396201.0,-27.68814497488611,-51.12850095052698,8.815288
77126,1577396201.68,-0.5264849450683583,-1.487637201538086,8.206904305725097,-0.8126270805544964,4.310263730230564,17.801823665860805,-1.4829799092610672,5.262854282633463,5.97193700764974,-10.656356811523438,0.1001358032226562,0.580596923828125,-7.943874452172256,-0.3072226919778963,-1.3868750595464938,-7.444654192243304,103.83024669828868,-3.586178734188988,24.49057573406532,-13.292439331501834,4.196240651709401,55.394088084795335,-3.3430605479670894,-71.04294871794873,32.16602270344745,37.38961272351514,37.43753556773595,1577396201.0,-27.68814497488611,-51.12850095052698,8.815288
77127,1577396201.69,3.2204406530761718,-1.613332788696289,11.322957766418456,0.5592504707150338,0.4795410739805637,15.390862594083458,-3.743106276448567,1.5733895243326816,6.41247011311849,-3.393173217773437,-0.3118515014648437,-0.472259521484375,-5.410915467797256,6.467679651772103,4.838710877953506,-6.468091692243304,85.03141857328869,-9.048825218563987,24.73146664292498,-12.62781736492674,3.922572783119661,67.76799721659921,-2.364603802220624,8.72457264957264,32.118099859226646,37.24584419085272,37.43753556773595,1577396201.0,-27.68814497488611,-51.12850095052698,8.815288
77128,1577396201.7,2.181357132568359,-0.8459911566162109,13.948199886779785,4.117034137707221,1.5808738376524394,12.95117110238424,-1.3417220113118489,4.833095084635416,-2.671130985514322,1.9779205322265625,15.664100646972656,0.580596923828125,-6.662136170922256,5.399564417397103,0.1542626357660061,-4.316602434430804,14.77995372953869,-5.386715843563988,24.65116967330509,-12.3429793792517,5.108466880341885,70.08810517881243,-2.5276799265117016,5.400925925925918,31.97433132656424,37.48545841195676,37.29376703507353,1577396201.0,-27.68814497488611,-51.12850095052698,8.815288
77129,1577396201.71,-0.2248155358886709,4.045362835083008,12.140577633361817,-0.9921922050662152,-0.3201222805116227,12.175449764493615,-3.735923671468098,-11.316992213948566,1.6097015828450516,1.9779205322265625,7.424354553222656,-0.457000732421875,7.467502500952744,5.094388636147103,5.265956971703506,-1.7073495047433034,-58.58430408296131,-4.867917015438988,24.16938785558577,-12.91265535060178,2.736678685897437,69.31473585807468,1.7122993050563151,10.386396011395991,32.30979123610986,37.43753556773595,37.341689879294336,1577396201.0,-27.68814497488611,-51.12850095052698,8.815288
77130,1577396201.72,0.4671087438964843,-1.7462109808349608,8.86291556060791,-5.452589897937309,-2.453355959710842,10.944830111173305,1.0524796488444006,-4.0122829488118485,2.5051330037434894,-5.1021575927734375,4.311561584472656,0.275421142578125,4.629367735327744,-0.7039512076028964,-0.2272070907964938,0.2457754952566966,-80.77058337983631,19.851321265811013,24.16938785558577,-12.91265535060178,2.736678685897437,69.12139352789026,-3.0984463615304736,8.309116809116793,32.118099859226646,37.341689879294336,37.341689879294336,1577396201.0,-27.68814497488611,-51.12850095052698,8.815288
77131,1577396201.73,-2.6238055993652343,-2.063442700805664,10.098323617248534,3.563973554211127,0.0964688083555637,10.547392635587364,1.0596622538248694,14.72713344523112,8.797094966634114,-6.8874359130859375,2.083778381347656,0.534820556640625,-5.258327577172256,6.681302698647103,-1.2037695907964938,2.7176993233816966,-92.18415759858632,-0.5954560779389881,24.811763612544866,-13.102547341051809,2.554233440170939,69.12139352789026,-3.261522485821551,11.632763532763512,32.02225417078504,37.341689879294336,37.341689879294336,1577396201.0,-27.68814497488611,-51.12850095052698,8.815288
77132,1577396201.74,0.3354276525878906,0.8467094171142577,8.034521786193848,-2.504130553454887,-0.4637743801209982,5.3052881006752575,-0.4067862630208336,-6.224525282796223,17.324044179280598,2.1915435791015625,0.8325576782226562,1.160430908203125,0.112766172827744,-0.3987754263528964,2.382045838891006,2.946581159319196,-72.88178943452382,12.542361304873513,24.008793916346,-14.621683264652017,3.6489049145299135,72.40821314102564,-2.9353702372393955,4.570014245014226,32.16602270344745,37.38961272351514,37.48545841195675,1577396201.0,-27.68814497488611,-51.12850095052698,8.815288
77133,1577396201.75,1.0441113439941403,0.1188721124267578,4.120002071838377,0.4443287910275337,2.35898937720322,17.13862980599752,-6.936971291097005,2.068989267985025,29.652985628255205,3.3817291259765625,0.6799697875976562,0.031280517578125,-4.800563905297256,8.085111292397103,0.0779686904535061,-2.0430428641183034,7.333664667038691,8.834475562686013,24.008793916346,-13.102547341051809,4.3786858974359,80.14190634840307,-2.5276799265117016,4.570014245014226,32.30979123610986,37.341689879294336,37.341689879294336,1577396201.0,-27.68814497488611,-51.12850095052698,8.815288
77134,1577396201.76,0.7137115148925781,-2.1412542547607423,9.274718246154784,2.0292902900509717,-1.8212867214295916,15.55606250863424,0.1091641947428381,-10.945890956624348,16.525577925618492,-2.202987670898437,-0.7238388061523438,2.106475830078125,3.103488829077744,-2.229830113852896,3.160244081078506,-4.728589739118304,74.22819591703869,9.750002906436013,24.008793916346,-13.102547341051809,4.3786858974359,67.76799721659921,-2.8538321750938573,-84.33753561253562,31.97433132656424,37.341689879294336,37.43753556773595,1577396201.0,-27.68814497488611,-51.12850095052698,8.815288
77135,1577396201.77,0.4204218115234374,-0.4689043951416016,12.065160281066891,-0.5636301078982465,-2.0894373073670915,5.742229903653773,7.375566233317056,3.998715806070964,29.104713448079423,3.8242340087890634,8.797645568847656,2.610015869140625,-2.176052186547256,10.282376917397103,2.305751893578506,-3.5994393484933034,120.30973888578868,4.195803687686012,24.16938785558577,-13.48233132195186,4.3786858974359,67.76799721659921,-2.690756050802779,-76.85933048433051,32.18998412555785,37.38961272351514,37.53338125617755,1577396201.0,-27.68814497488611,-51.12850095052698,8.815288
77136,1577396201.78,-0.5456385583496083,-4.923316583862304,13.744692745666503,2.53446684034394,2.203366269293064,17.351713753751426,-0.0201226949055988,-0.8698932698567712,15.233906129964192,-2.294540405273437,2.633094787597656,1.587677001953125,0.8299292587652439,7.306913050209604,2.595668885766006,-3.172193254743304,157.6632545107887,-7.568722679501487,24.49057573406532,-12.153087388801676,4.196240651709401,74.53497877305443,-0.8153806214553873,-74.36659544159545,31.97433132656424,37.389612723515135,37.29376703507353,1577396201.0,-27.68814497488611,-51.12850095052698,8.815288
77137,1577396201.79,1.3529633581542968,-3.3287782781982416,14.42225181549072,0.4610882026486275,-1.280197146234279,10.19305078988424,2.319012327067057,2.0522298563639314,2.2920490559895828,0.5435943603515625,0.6494522094726562,1.770782470703125,4.385227110327744,-4.243990270102897,-1.9361914657964936,0.8866446358816966,119.30265880766368,-14.084225609188987,24.329981794825542,-14.621683264652017,4.743576388888888,67.76799721659921,1.7122993050563151,-57.748361823361854,32.30979123610986,37.43753556773595,37.43753556773595,1577396201.0,-27.68814497488611,-51.12850095052698,8.815288
77138,1577396201.8,-1.041238302001953,1.184291851196289,15.705543905334473,3.1210462470822207,-0.3967367336366227,18.64218844857565,3.0564264383951816,-9.530917775472004,0.5131572224934893,3.1986236572265625,2.572059631347656,1.465606689453125,23.123020079077744,-14.253755895102897,0.0169335342035061,3.9384024483816966,41.05558849516369,-16.800290062313987,24.49057573406532,-13.672223312401885,5.655802617521372,59.26093468848404,1.7122993050563151,-2.0772792022792146,31.97433132656424,37.43753556773595,37.62922694461916,1577396201.0,-27.68814497488611,-51.12850095052698,8.815288
77139,1577396201.81,-1.0963049401855467,2.685456292114258,12.133395028381347,0.04449711378144,2.7061486179258765,12.343043880704553,-10.691079494222006,-10.270726088460286,-6.147511796061197,3.0765533447265625,3.304481506347656,0.794219970703125,15.096897032202744,-11.842867223227897,-0.0746192001714938,4.762377057756696,-30.90486072358631,3.310793922061012,25.132951491024407,-13.292439331501834,2.736678685897437,84.20209528227623,5.707664350187715,-8.309116809116826,32.16602270344745,37.19792134663192,37.341689879294336,1577396201.0,-27.68814497488611,-51.12850095052698,8.815288
77140,1577396201.82,-1.0568006127929683,0.9496600885009766,5.6175752102661125,-3.922695037097465,-1.0575363918397478,9.841103145841272,-4.077097408040364,7.727684891764323,9.429164204915365,0.2994537353515625,-0.2965927124023442,0.809478759765625,15.051120665015244,-3.1300986685403966,2.763515565453506,4.701341901506696,-36.26069568452381,14.709109351748513,24.73146664292497,-13.387385326726848,3.7401275373931626,83.71873945681514,5.829971443406023,-8.101388888888902,32.09413843711624,37.269805612963125,37.46149698984635,1577396201.0,-27.68814497488611,-51.12850095052698,8.815288
77141,1577396201.83,-0.2870647790527333,-3.034291473999023,9.791865804748534,5.074714801769721,-4.955296694574122,14.038138656095178,1.1003636820475255,-10.155804408772784,17.92379169514974,1.7032623291015625,0.3442764282226562,3.449249267578125,3.439182188452744,22.641996058022105,2.855068299828506,6.288255964006696,-28.55500720796131,6.484622047061012,24.811763612544866,-12.532871369701729,3.831350160256412,67.76799721659921,-8.07226815240834,1.2463675213675056,32.118099859226646,37.38961272351514,37.43753556773595,1577396201.0,-27.68814497488611,-51.12850095052698,8.815288
77142,1577396201.84,0.7927201696777344,1.2106280694580076,14.53238509185791,4.703613544445502,-3.006416543206936,13.06609278207174,0.2121148661295569,1.7553488505045565,19.04667227376302,12.018203735351562,5.105018615722656,2.564239501953125,1.760715391577744,-10.164400426352897,2.641445252953506,4.670824323381696,-6.704421270461309,3.677004859561012,24.008793916346,-13.86211530285191,3.2840144230769246,70.86147449955017,-3.5061366722581666,-8.724572649572671,32.16602270344745,37.58130410039836,37.341689879294336,1577396201.0,-27.68814497488611,-51.12850095052698,8.815288
77143,1577396201.85,-2.6070461877441407,-4.559397931518554,15.856378609924317,-1.4231485038943403,0.721355441656345,16.549656197599084,-5.866763149007161,14.707979831949867,16.063497005208337,15.893936157226562,7.363319396972656,3.693389892578125,12.533420469702744,0.4251991830221036,1.2376366592035062,9.950365339006696,3.2443091982886907,-9.109860374813987,24.65116967330509,-12.722763360151754,4.013795405982902,67.96133954678365,-3.4245986101126284,-50.68561253561255,32.07017701500584,37.341689879294336,37.341689879294336,1577396201.0,-27.68814497488611,-51.12850095052698,8.815288
77144,1577396201.86,-0.5037400292968744,-0.5203797308349609,14.216350472717284,0.7699402168087841,-0.3715976162049826,19.36763155160299,-0.2667254659016927,-8.077637367757161,12.244745357259117,8.310317993164062,2.541542053222656,0.824737548828125,8.810275938452744,6.833890589272103,-2.805942442358994,9.752001081194196,-4.04939197358631,-4.654293968563987,24.97235755178464,-13.102547341051809,4.013795405982902,74.05162294759336,-3.4653676411853978,-55.87881054131056,32.09413843711624,37.341689879294336,37.48545841195675,1577396201.0,-27.68814497488611,-51.12850095052698,8.815288
77145,1577396201.87,-0.6845022546386718,0.849103618774414,12.538015108947754,2.103510541515815,-1.203582693109279,6.75258300423971,-0.0919487447102858,4.812744370524088,8.121930098470052,1.6117095947265625,-2.860069274902344,0.489044189453125,12.380832579077744,-9.248873082602897,-1.1732520126714938,11.018480573381696,-8.90168689546131,-2.151852562313988,25.614733308743727,-13.102547341051809,4.3786858974359,80.33524867858752,-3.0984463615304736,-67.30384615384617,32.16602270344745,37.43753556773595,37.341689879294336,1577396201.0,-27.68814497488611,-51.12850095052698,8.815288
77146,1577396201.88,0.2588131994628906,-0.1636436834716796,7.131907760314941,-7.736658281726371,0.1778716648008762,10.200233394864709,0.0995873881022131,-5.238114198811849,6.505843977864584,6.0367584228515625,0.1611709594726562,-0.029754638671875,8.169406797827744,6.193021448647103,-3.034824278296494,9.675707135881696,-22.32942127046131,4.836672828311012,24.329981794825542,-12.722763360151754,5.838247863247863,55.58743041497977,-3.0984463615304736,-93.89301994301997,32.16602270344745,37.341689879294336,37.53338125617755,1577396201.0,-27.68814497488611,-51.12850095052698,8.815288
77147,1577396201.89,0.0732625708007813,1.299213530883789,9.593147066955565,2.0628091132931585,-0.504475808343654,16.27192880502096,-7.171603053792317,2.7848555643717448,9.436346809895833,11.835098266601562,-4.492759704589844,2.518463134765625,10.275119688452744,12.266019495522103,-2.302402403296494,10.072435651506696,-13.11311267671131,17.501467750186013,24.97235755178464,-13.48233132195186,4.743576388888888,55.78077274516421,-3.5061366722581666,12.04821937321936,32.07017701500585,37.38961272351514,37.38961272351514,1577396201.0,-27.68814497488611,-51.12850095052698,8.815288
77148,1577396201.9,-0.8808267907714843,-0.3072957830810546,13.079104684143063,-2.293440807361138,-0.4996874050233423,8.343530007413538,1.0010043131510415,-0.6017426839192709,13.90991261189779,15.558242797851562,10.872840881347656,1.007843017578125,12.548679258765244,5.308011683022104,0.3678856826410062,8.744921003069196,0.5282447451636898,5.584353492373512,24.65116967330509,-14.241899283751962,4.743576388888888,61.774384980881706,-0.8969186836009257,11.632763532763525,31.97433132656424,37.341689879294336,37.29376703507353,1577396201.0,-27.68814497488611,-51.12850095052698,8.815288
77149,1577396201.91,-0.4019864587402333,-2.8547263494873043,11.659343099670409,5.61819857862519,-2.781361587152249,14.344596468595178,0.4251988138834631,-0.5382963399251298,13.326924507649744,11.621475219726562,4.738807678222656,3.113555908203125,2.065891172827744,0.4862343392721036,-0.7154883407964938,8.332933698381696,2.1761939639136907,5.172366187686012,24.811763612544866,-14.43179127420199,3.831350160256412,68.54136653733694,1.7122993050563151,-8.724572649572671,32.16602270344745,37.38961272351514,37.53338125617755,1577396201.0,-27.68814497488611,-51.12850095052698,8.815288
77150,1577396201.92,0.0912190832519531,0.2481590020751953,11.685679317932127,-6.118177959460747,-1.921843191156154,14.526555794767052,-2.7902140157063795,16.630523765055337,8.119535896809897,9.393692016601562,6.386756896972656,1.923370361328125,14.974826719702744,-1.8331015982278964,1.2376366592035062,14.558519635881696,-4.690261114211309,-6.546383812313988,25.29354543026418,-14.241899283751962,4.013795405982902,68.54136653733694,1.7122993050563151,-8.724572649572671,32.07017701500584,37.341689879294336,37.24584419085272,1577396201.0,-27.68814497488611,-51.12850095052698,8.815288
77151,1577396201.93,-0.1541865869140615,-0.4377797735595703,12.318945657043455,0.3270129096798775,-2.951349905023342,16.95427627816549,-5.153291054280599,2.363476072184244,9.441135213216146,11.133193969726562,7.546424865722656,2.335357666015625,16.897434141577744,13.883451136147103,-0.8070410751714938,13.765062604631696,-15.82917712983631,-13.992672874813987,24.16938785558577,-13.672223312401885,3.466459668803423,68.54136653733694,1.7122993050563151,-8.724572649572671,32.285829813999456,37.19792134663192,37.43753556773595,1577396201.0,-27.68814497488611,-51.12850095052698,8.815288
77152,1577396201.94,-2.597469381103516,-0.7574056951904297,11.21880999420166,-0.8210067863650439,2.4188444187071263,6.625690316251428,-3.70958745320638,-0.4377398701985678,-2.952449680582682,7.0438385009765625,0.7715225219726562,2.228546142578125,8.199924375952744,1.3254677377096034,-0.8833350204839938,15.626634870256698,-78.34443591889882,-6.500607445126487,25.775327247983498,-13.292439331501834,4.56113114316239,66.80128556567703,-3.098446361530473,0.4154558404558295,32.07017701500584,37.29376703507353,37.48545841195676,1577396201.0,-27.68814497488611,-51.12850095052698,8.815288
77153,1577396201.95,-0.9861716638183592,3.482725444946289,6.69137465484619,1.957464240246284,-3.5666597316834983,8.497956014493615,-0.7096527730305983,-22.56016321004231,0.3144384847005205,9.363174438476562,3.273963928222656,2.381134033203125,10.305637266577744,11.167386683022103,0.0169335342035061,11.415209089006696,-134.5120384579613,12.832278297061013,24.97235755178464,-13.102547341051809,4.743576388888888,80.14190634840307,-3.5061366722581666,-8.724572649572671,32.118099859226646,37.24584419085272,37.341689879294336,1577396201.0,-27.68814497488611,-51.12850095052698,8.815288
77154,1577396201.96,0.7089231115722656,1.3806163873291015,4.081694845275877,-6.489279216784966,0.6710772067930637,-2.362142715975132,5.254303562418619,-5.944403688557943,14.840059956868492,10.217666625976562,1.7480850219726562,2.503204345703125,8.932346250952744,-8.974214879477897,0.8103905654535062,10.743822370256696,-117.78840564546132,39.41308884393601,25.614733308743727,-14.241899283751962,4.743576388888888,67.76799721659921,-3.5061366722581666,-68.55021367521368,32.16602270344745,37.24584419085272,37.341689879294336,1577396201.0,-27.68814497488611,-51.12850095052698,8.815288
77155,1577396201.97,-0.3720589379882807,-0.6436811163330078,6.874531081848144,-0.7539691398806688,-2.0140199550721696,8.44528357797018,0.8705203226725262,10.044074997965495,17.99322354329427,6.540298461914063,2.694129943847656,4.166412353515625,7.742160704077744,-2.229830113852896,1.8327294326410064,8.821214948381696,-29.28742908296131,13.030642554873513,24.65116967330509,-12.3429793792517,4.013795405982902,68.54136653733696,-3.179984423676012,-71.04294871794873,31.99829274867463,37.43753556773595,37.341689879294336,1577396201.0,-27.68814497488611,-51.12850095052698,8.815288
