,timestamp,acc_x_dashboard,acc_y_dashboard,acc_z_dashboard,acc_x_above_suspension,acc_y_above_suspension,acc_z_above_suspension,acc_x_below_suspension,acc_y_below_suspension,acc_z_below_suspension,gyro_x_dashboard,gyro_y_dashboard,gyro_z_dashboard,gyro_x_above_suspension,gyro_y_above_suspension,gyro_z_above_suspension,gyro_x_below_suspension,gyro_y_below_suspension,gyro_z_below_suspension,mag_x_dashboard,mag_y_dashboard,mag_z_dashboard,mag_x_above_suspension,mag_y_above_suspension,mag_z_above_suspension,temp_dashboard,temp_above_suspension,temp_below_suspension,timestamp_gps,latitude,longitude,speed
21709,1577399222.49,-1.2678494891357417,-5.174468338012695,12.23903917663574,-2.6750823915062885,-3.1503606186285253,19.78524455581293,-0.986012050374349,18.02947859700521,26.09155365397135,-0.9532928466796876,8.811187744140625,10.118865966796877,1.7992345298208845,10.62811874761814,10.231576314786585,-2.1852765764508923,66.53340657552084,10.447547549293152,-10.39397872196421,4.701861602903273,-4.634929220085465,-29.87579854987263,-7.2970288970289054,0.334508469533846,30.297031778836075,33.963129361727624,31.49510288435619,1577399222.0,-27.694015410073074,-51.11386196364206,6.758698
21710,1577399222.5,-3.008434096069336,-0.4961982940673828,20.05012209289551,5.905736358493711,-2.020297435034774,17.298866131740663,5.41129478556315,7.0819915059407545,10.755494919840494,7.698440551757812,12.702178955078123,9.569549560546877,2.7757970298208843,21.76703476324314,8.766732564786585,8.770533970424108,73.00313313802083,-18.101646786644345,-11.207420534987495,5.548196691425858,-4.878872863247858,-40.61216780476041,-63.32421652421653,9.923751262837555,30.5845688441609,34.03501362805883,31.447180040135382,1577399222.0,-27.694015410073074,-51.11386196364206,6.758698
21711,1577399222.51,0.4823119244384765,-5.818508584594726,10.219530076293944,4.3064096495093365,-7.289935289038682,9.357299225002382,-6.073690578206381,-9.13633053995768,-12.030122279866536,2.2052764892578125,17.798614501953125,8.715057373046875,1.3414708579458845,17.00629257574314,10.872445455411585,8.038112095424108,15.324910481770834,-41.20345342726935,-11.74971507700302,6.112420083774249,-4.716243767806261,-40.61216780476041,12.64485144485144,8.214041307442319,30.34495462305688,34.17878216072124,31.30341150747297,1577399222.0,-27.694015410073074,-51.11386196364206,6.758698
21712,1577399222.52,-1.9035100299072256,1.6011223602294922,10.773787760620117,-6.656639752346132,5.368208888207412,5.828245977932069,3.1942640482584634,-37.34481449991862,-3.1141152974446604,1.3660430908203125,10.962677001953123,7.906341552734376,11.168131014195884,0.8624937476181402,7.332406392911585,3.887721470424107,-41.62089029947917,-9.282066708519343,-10.936273263979734,4.70186160290327,-4.147041933760679,-40.61216780476041,12.64485144485144,6.9503426447588845,30.48872315571929,34.08293647227963,31.447180040135382,1577399222.0,-27.694015410073074,-51.11386196364206,6.758698
21713,1577399222.53,-0.96857428161621,0.2483984222412109,6.803004307250975,-0.5358632081566791,-0.5334982040777434,7.024149707180115,-7.51021157430013,-9.518205704752605,8.79823506266276,1.5033721923828125,-2.281951904296875,7.982635498046875,-0.3675135170541159,10.79596542730564,8.476815572599085,-3.985813685825892,-47.99906412760417,53.828284853980655,-10.484361145633464,5.548196691425858,-3.252581908831901,-37.92807549103846,21.191371591371592,-10.89010906371313,30.34495462305688,33.939167939617214,31.25548866325217,1577399222.0,-27.694015410073074,-51.11386196364206,6.758698
21714,1577399222.54,-2.567900990600586,-1.0324994659423827,4.389649033813475,-5.880918414455507,-0.7082749252691493,3.754867340236757,4.578112607828776,33.8180414449056,19.353073081461584,1.2592315673828125,2.295684814453125,8.531951904296875,8.085855623570884,-9.02520156488186,5.531869283536585,-3.375462123325893,14.256795247395834,21.93741571335565,-10.122831450956449,4.795898834961333,-3.903098290598285,-23.433976996939982,29.737891737891733,-10.890109063713126,30.5366459999401,33.939167939617214,31.39925719591458,1577399222.0,-27.694015410073074,-51.11386196364206,6.758698
21715,1577399222.55,-1.370800160522461,-3.1777041534423827,16.635990525512693,2.185146978610899,-5.927634544409775,13.863186749416442,2.9452670756022137,24.006603041585286,12.165679697672523,4.7992706298828125,5.744171142578125,11.675262451171877,2.8978673423208843,25.03241562261814,9.285531392911585,10.143824986049108,35.71065266927084,-10.441734677269343,-10.122831450956449,5.172047763193601,-3.903098290598285,-21.82352160870679,-64.74863654863654,1.077860624053514,30.392877467277685,33.939167939617214,31.543025728577,1577399222.0,-27.694015410073074,-51.11386196364206,6.758698
21716,1577399222.56,-1.0822988604736323,-7.168838320922851,16.167924100952145,6.743706939548399,-7.146283189429306,9.9582438417016,4.271654795328776,-10.53933271280924,11.998085581461588,7.9730987548828125,6.873321533203124,10.988616943359377,-8.485189298304116,8.76654648199314,12.276254049161585,8.038112095424108,21.092732747395832,-12.669517880394343,-10.122831450956449,5.172047763193601,-3.903098290598285,-21.82352160870679,-64.74863654863654,1.077860624053514,30.297031778836075,34.08293647227963,31.447180040135382,1577399222.0,-27.694015410073074,-51.11386196364206,6.758698
21717,1577399222.57,-4.7059230731201165,-1.2000935821533203,12.585001316528318,-5.339828839260194,2.352711897240616,17.065431469875428,-4.9172911763509095,-13.742774534098308,8.175742631022135,-2.5249481201171875,10.474395751953123,8.440399169921875,11.381754061070886,-0.1293275414443595,6.722054830411585,10.632106236049108,-42.10917154947917,-15.706016903831843,-8.495947824909878,5.7362711555419885,-4.390985576923072,-31.754663169478,33.77374847374847,-0.4460112927118067,30.48872315571929,33.91520651750682,31.375295773804176,1577399222.0,-27.694015410073074,-51.11386196364206,6.758698
21718,1577399222.58,0.6714538555908203,1.3425485809326172,10.128550413208009,9.209734649509336,-2.053816258276961,12.237523822170347,2.7992207743326825,-10.153866245524084,6.879282432047526,9.163284301757812,5.896759033203125,7.402801513671875,1.0973302329458845,5.0128843726181405,2.419076314786585,8.953639439174108,-72.80985514322917,28.68180047898065,-9.399772061602416,5.924345619658119,-4.228356481481481,-21.2867031459624,33.536345136345126,7.0990130756628185,30.34495462305688,33.84332225117561,31.39925719591458,1577399222.0,-27.694015410073074,-51.11386196364206,6.758698
21719,1577399222.59,-1.7395072161865233,7.119757186889648,8.821316306762695,-2.268068109279725,5.923663673363662,8.059641925197694,-3.037842873128255,-9.947964902750648,5.607961350504557,4.8603057861328125,-9.362030029296877,11.095428466796877,2.8978673423208843,-13.78594375238186,7.973275533536585,-1.2697492327008928,-67.37772623697917,47.297523135230655,-8.857477519586892,6.488569012006514,-3.7404691951566944,-19.13942929498485,37.33479853479852,6.9503426447588845,30.249108934615272,34.08293647227963,31.25548866325217,1577399222.0,-27.694015410073074,-51.11386196364206,6.758698
21720,1577399222.6,-2.0004751971435546,-4.763862753295898,4.698501047973632,-5.2823679994164445,-1.3762571884527428,-4.258525616306211,-1.7784927998860671,8.54006031697591,13.96372514444987,-1.5331268310546875,-5.226898193359375,9.142303466796877,11.595377107945884,-4.47808242425686,7.973275533536585,-2.185276576450893,-43.17728678385416,30.23819696335565,-11.207420534987495,3.2913031220322897,-5.204131054131048,-19.13942929498485,37.33479853479852,6.9503426447588845,30.41683888938808,34.08293647227963,31.5909485727978,1577399222.0,-27.694015410073074,-51.11386196364206,6.758698
21721,1577399222.61,1.4208389752197266,-5.710769509887695,-1.660498561401367,-2.165117437893007,-5.916860636939072,13.818894018703553,5.121596384684244,13.55950409749349,18.49475178629557,3.792190551757813,4.798126220703125,12.590789794921877,1.4025060141958845,13.20685409918064,7.591805806974085,10.113307407924108,12.242635091145832,-0.2793811616443449,-10.665125992971973,4.607824370845206,-4.065727386039884,-18.33420160086828,-61.66239316239316,7.061845467936834,30.392877467277685,33.891245095396414,31.447180040135382,1577399222.0,-27.694015410073074,-51.11386196364206,6.758698
21722,1577399222.62,0.1064222637939453,4.036025448608398,14.536275669555662,1.4573096739233988,0.5127679214105372,15.484061273342224,0.8024565897623691,-23.195082688395185,12.831267759195963,19.44770812988281,5.286407470703125,13.140106201171877,15.684732576695884,6.5692808569931405,9.682259908536585,6.725856236049108,31.255086263020832,-6.047203427269345,-10.122831450956449,6.300494547890383,-4.878872863247858,-18.06579236949609,-64.27382987382987,7.0990130756628185,30.34495462305688,33.939167939617214,31.447180040135382,1577399222.0,-27.694015410073074,-51.11386196364206,6.758698
21723,1577399222.63,-2.302144606323242,0.7966706024169922,15.867451792602536,-2.643957769924256,0.7330344741449122,11.1457678651391,-5.369795290120443,-3.050269919840494,14.112165647379555,11.299514770507812,-0.5729675292968749,9.355926513671877,2.5621739829458843,-4.29497695550686,6.081185689786585,5.047389439174108,27.928670247395832,4.328773135230655,-9.219007214263907,4.983973299077471,-5.04150195868945,-25.58125084791753,23.090598290598287,7.0990130756628185,30.48872315571929,34.17878216072124,31.20756581903136,1577399222.0,-27.694015410073074,-51.11386196364206,6.758698
21724,1577399222.64,0.5397727642822265,-4.173692044067383,9.0727074810791,-0.6783182069359749,-1.117683409155868,14.265412628322691,0.5007871805826817,-11.920787070719395,3.331075571695963,7.759475708007812,1.593780517578125,11.156463623046877,12.327798982945884,1.93060898199314,5.379281392911585,5.779811314174108,3.9723714192708335,14.430091494605657,-11.207420534987495,4.795898834961333,-5.204131054131048,-36.31762010280528,18.34253154253154,6.9503426447588845,30.34495462305688,34.08293647227963,31.447180040135382,1577399222.0,-27.694015410073074,-51.11386196364206,6.758698
21725,1577399222.65,-2.020825911254882,0.1418564483642578,10.384729990844724,0.4840666990698838,-2.4716044479742285,8.5408764588891,-2.1699447713216142,8.908767372639975,8.656977164713542,11.78779602050781,12.625885009765623,10.988616943359377,9.794839998570884,1.5033628882431405,8.141122213224085,5.932399204799108,-2.421061197916667,24.69925653366815,-11.207420534987495,4.795898834961333,-5.204131054131048,-38.46489395378285,-21.066422466422463,-2.044218424929086,30.5366459999401,33.891245095396414,31.42321861802498,1577399222.0,-27.694015410073074,-51.11386196364206,6.758698
21726,1577399222.66,-2.079483851928711,-3.93906028137207,5.2994456646728505,-5.742054718166444,-7.953129148901962,5.883312616115664,0.5438828104654941,19.32593879597982,9.48177963663737,-8.018112182617188,0.1594543457031251,13.018035888671877,13.945230623570884,-0.7244203148818598,11.665902486661585,12.096949986049108,-8.814493815104166,4.664466494605655,-10.30359629829496,4.2316754426129455,-4.390985576923072,-18.60261083224046,-62.84940984940984,-11.70779643368476,30.392877467277685,33.891245095396414,31.447180040135382,1577399222.0,-27.694015410073074,-51.11386196364206,6.758698
21727,1577399222.67,-0.6788758807373038,-5.761047744750976,10.001657725219726,-4.559319098049256,-1.8120018906011803,11.248718536525818,-2.8223647237141924,-15.931074851481116,11.806549448649088,8.766555786132812,6.476593017578125,12.102508544921877,3.996500154820884,15.35834335699314,7.057748189786585,13.348170689174108,-6.495157877604167,-17.064049130394345,-10.84589084031048,4.795898834961333,-5.529389245014236,-22.8971585341956,35.910378510378514,-12.005137295492622,30.392877467277685,33.939167939617214,31.39925719591458,1577399222.0,-27.694015410073074,-51.11386196364206,6.758698
21728,1577399222.68,-0.6764816790771483,1.4586673614501953,10.124959110717771,2.532306219333555,-1.144019627417587,15.587011944728944,-6.837440907796224,-12.564827317301429,0.3957843363444008,10.750198364257812,9.909820556640623,11.263275146484377,10.008463045445884,10.96381210699314,12.581429830411585,11.181422642299108,-2.7720133463541665,-4.033043271019345,-10.30359629829496,3.103228657916159,-4.065727386039884,-39.00171241652724,27.363858363858363,7.024677860210852,30.297031778836075,33.939167939617214,31.39925719591458,1577399222.0,-27.694015410073074,-51.11386196364206,6.758698
21729,1577399222.69,-2.9390022479248046,1.2874819427490234,12.41740720031738,-2.4284796205101937,1.2633501418695223,7.999786883693788,2.1264501078287754,5.562870552571616,7.288690915934245,11.757278442382812,4.889678955078125,13.201141357421877,12.632974764195884,3.30389999761814,9.392342916349085,7.107325962611608,-9.684244791666668,23.64640008835565,-10.30359629829496,3.103228657916159,-4.065727386039884,-36.854438565549685,31.63711843711844,-11.782131649136725,30.392877467277685,34.058975050169224,31.447180040135382,1577399222.0,-27.694015410073074,-51.11386196364206,6.758698
21730,1577399222.7,-3.5279758563232417,-4.259883303833008,16.94484253967285,1.6081443785132423,-3.9643891830816496,6.881694708400819,5.732117808024088,-7.469966184488932,2.7804091898600256,-1.2126922607421875,-1.030731201171875,11.888885498046877,9.215006014195884,6.9354917944931405,9.102425924161585,6.969996861049108,-47.90751139322917,18.76358758835565,-10.30359629829496,4.607824370845206,-4.065727386039884,-32.02307240085019,33.536345136345126,-9.700745616481662,30.249108934615272,33.939167939617214,31.447180040135382,1577399222.0,-27.694015410073074,-51.11386196364206,6.758698
21731,1577399222.71,-2.563112587280273,-2.729988442993164,10.296144529418944,-2.1052623963891,-6.432811094702744,3.642339862209413,-1.2134612080891922,5.293522865804036,-1.6608348897298169,3.2123565673828125,0.1594543457031251,12.102508544921877,17.119058748570886,-15.64751601800686,9.834847799161585,9.563991001674108,-76.04471842447917,16.932532900855655,-9.219007214263907,4.607824370845206,-5.04150195868945,-31.4862539381058,34.011151811151805,-9.626410401029688,30.48872315571929,34.08293647227963,31.25548866325217,1577399222.0,-27.694015410073074,-51.11386196364206,6.758698
21732,1577399222.72,-4.383902949829102,-0.2567781280517578,7.236354807739257,-6.848175885158632,2.660366810570693,8.481021417385195,-7.440779726155599,2.006283986409505,9.893582322184244,5.4859161376953125,-0.2067565917968767,11.690521240234377,3.4166661704458843,-10.09331679925686,6.905160299161585,10.510035923549108,-95.39286295572916,11.286780947730657,-11.02665568764899,3.855526514380685,-5.366760149572645,-40.61216780476041,33.536345136345126,10.518432986453288,30.392877467277685,34.08293647227963,31.447180040135382,1577399222.0,-27.694015410073074,-51.11386196364206,6.758698
21733,1577399222.73,0.2069787335205078,6.980893490600586,10.640909568481444,-1.1296252198754286,1.432141358910538,12.49250629897699,1.8379488077799475,-5.488764310709636,15.537912736002603,12.306594848632812,-0.3898620605468749,12.621307373046877,4.484781404820884,6.8591978491806405,10.872445455411585,5.123683384486608,-46.62577311197917,25.09598504929315,-11.02665568764899,3.855526514380685,-5.366760149572645,-32.0230724008502,26.889051689051684,9.32906953922182,30.5845688441609,34.03501362805883,31.375295773804176,1577399222.0,-27.694015410073074,-51.11386196364206,6.758698
21734,1577399222.74,-1.1577162127685536,0.3513490936279296,8.478945469360351,-4.331869940334412,-2.9540360824957124,10.731570977932067,-1.4456987691243484,31.50763684285481,13.781765818277997,10.994338989257812,2.295684814453125,14.208221435546877,9.855875154820884,-16.28838515863186,11.147103658536585,15.575953892299108,8.458455403645834,-14.683678036644343,-10.84589084031048,5.924345619658119,-4.553614672364669,-37.391257028294085,-65.22344322344321,7.545024368374619,30.392877467277685,33.891245095396414,31.39925719591458,1577399222.0,-27.694015410073074,-51.11386196364206,6.758698
21735,1577399222.75,2.447951487426758,-6.1824272369384765,4.990593650512695,-2.6391693666039435,0.9173880019769436,7.731636297756288,3.2301770731608075,-16.153735605875646,-3.2745268086751294,-3.654098510742188,4.279327392578125,11.827850341796877,9.581216951695884,11.69623398199314,11.086068502286585,13.500758579799108,-8.539835611979166,-34.520103817894345,-11.388185382326004,4.2316754426129455,-4.065727386039884,-37.391257028294085,18.34253154253154,9.923751262837555,30.392877467277685,33.891245095396414,31.447180040135382,1577399222.0,-27.694015410073074,-51.11386196364206,6.758698
21736,1577399222.76,1.8326416607666016,-1.1725602630615233,4.760750291137694,5.850669720310117,-0.8303792099371188,2.7612736512719134,-3.926091689046224,-4.417359067789713,6.128700211588542,4.2957305908203125,4.386138916015625,11.339569091796877,9.733804842320884,7.698431247618139,11.055550924161585,6.908961704799108,-35.16642252604167,17.558143252418155,-10.484361145633464,4.043600978496811,-4.390985576923072,-34.17034625182774,20.716564916564916,7.247683506566751,30.36891604516728,34.058975050169224,31.351334351693776,1577399222.0,-27.694015410073074,-51.11386196364206,6.758698
21737,1577399222.77,-0.6262034442138662,-2.301426345825196,10.997645615844725,-2.445239032131288,1.5949470718011622,8.990986370998476,0.3667118876139316,-5.961619138590494,12.20877532755534,5.2265167236328125,6.568145751953125,11.370086669921877,10.832437654820884,2.3883726538681405,8.980355611661585,4.284449986049108,-43.97074381510416,17.848060244605655,-10.84589084031048,3.2913031220322897,-4.878872863247858,-32.02307240085019,22.140984940984943,6.9503426447588845,30.48872315571929,33.939167939617214,31.447180040135382,1577399222.0,-27.694015410073074,-51.11386196364206,6.758698
21738,1577399222.78,-1.248695875854492,9.47325741882324,13.4397313092041,-6.149069000393007,6.488695265160537,10.346104510646912,-3.095303712972005,-4.620866208902994,18.158366453043616,8.461380004882812,2.234649658203125,9.630584716796877,-0.4590662514291157,8.06464218511814,7.118783346036585,0.9885515485491072,-27.430216471354168,35.944984072730655,-11.02665568764899,4.983973299077471,-3.415211004273499,-28.265343161639446,20.71656491656492,7.024677860210852,30.5366459999401,33.939167939617214,31.25548866325217,1577399222.0,-27.694015410073074,-51.11386196364206,6.758698
21739,1577399222.79,-4.53832895690918,-3.8576574249267575,11.809279978637694,2.1516281553687118,-9.02094308933165,6.187376226955507,-4.414508827718098,20.25488904012044,15.366727317301432,1.8390655517578107,7.544708251953125,11.110687255859377,4.850992342320884,9.98724960699314,15.236459127286585,-1.9106183733258928,9.404500325520834,28.43765985398065,-9.670919332610184,4.889936067019402,-3.171267361111102,-40.61216780476041,25.93943833943834,-12.079472510944596,30.48872315571929,33.747476562734,31.447180040135382,1577399222.0,-27.694015410073074,-51.11386196364206,6.758698
21740,1577399222.8,-2.033994020385742,-7.3484034454345695,10.88751233947754,-2.8558446168480853,-7.847784275855088,6.347787738185976,0.9532912943522134,3.035790700276696,21.32828945109049,-17.173385620117188,3.760528564453125,11.858367919921877,7.002481600133384,0.6336119116806402,11.513314596036585,6.496974400111608,68.56282552083334,1.2159801664806549,-9.580536908940926,4.983973299077471,-4.390985576923072,-26.11806931066192,-17.267969067969062,-12.005137295492622,30.5366459999401,33.96312936172762,31.351334351693776,1577399222.0,-27.694015410073074,-51.11386196364206,6.758698
21741,1577399222.81,-2.8743588031005856,1.8525135345458985,6.3864132183837885,-3.3071516297875374,0.108147840844131,6.113155975490663,-9.679358278401692,-4.122872263590494,12.701980869547526,7.820510864257812,-0.8171081542968749,13.475799560546877,-0.0623377358041157,2.5104429663681405,10.902963033536585,2.850123814174107,113.04219563802084,0.9413219633556548,-9.580536908940926,4.983973299077471,-4.390985576923072,-29.33898008712823,-64.74863654863654,7.024677860210852,30.392877467277685,34.08293647227963,31.447180040135382,1577399222.0,-27.694015410073074,-51.11386196364206,6.758698
21742,1577399222.82,-1.7227478045654294,2.587533444213867,1.6434997296142568,-3.850635406643006,4.247722511254287,18.450477130275814,-11.587537001546222,3.200990614827473,-14.687686122639972,11.848831176757812,9.284210205078123,11.095428466796877,5.552896639195884,-10.94780898675686,9.499154439786585,4.101344517299108,72.94209798177083,-14.653160458519343,-10.84589084031048,4.419749906729075,-4.553614672364669,-40.61216780476041,26.889051689051684,-8.362711738346256,30.249108934615272,33.891245095396414,31.20756581903136,1577399222.0,-27.694015410073074,-51.11386196364206,6.758698
21743,1577399222.83,1.2484564556884763,0.9115922821044922,8.371206394653319,1.1029678282202742,-6.054527232398057,5.888101019435975,-1.1679713765462236,-15.459417124430336,-16.684450307210284,-1.4568328857421875,-1.992034912109376,11.949920654296877,9.764322420445884,3.5480406226181405,13.191781392911585,1.2021745954241072,-7.258097330729167,-4.094078427269345,-10.936273263979736,4.889936067019404,-3.3338964565527003,-28.265343161639446,29.26308506308507,-8.437046953798225,30.36891604516728,33.891245095396414,31.39925719591458,1577399222.0,-27.694015410073074,-51.11386196364206,6.758698
21744,1577399222.84,2.189377708129882,2.968211508178711,8.952997398071288,0.5774405638159772,5.097664100609757,6.507002148586366,-4.784412984212239,-7.621997989908852,0.8961724833170573,5.9589385986328125,38.001251220703125,10.912322998046877,-3.602376798304116,8.30878281011814,11.040292135099085,1.5073503766741074,-76.12101236979167,34.693763369605655,-8.857477519586892,4.607824370845206,-4.065727386039884,-28.80216162438384,33.536345136345126,-0.7805197622456546,30.392877467277685,34.17878216072124,31.375295773804176,1577399222.0,-27.694015410073074,-51.11386196364206,6.758698
21745,1577399222.85,-2.235106959838867,4.797381576538085,8.653722190551758,-2.8809837342797247,3.958024110375381,17.895022345119568,-6.279591920979818,17.288473183186852,18.021896958414708,-0.7244110107421875,12.671661376953123,11.034393310546877,2.7452794516958843,8.61395859136814,12.398324361661585,-1.7275129045758928,-66.34012858072917,23.21915399460565,-8.857477519586892,4.607824370845206,-4.065727386039884,-28.80216162438384,33.536345136345126,6.9503426447588845,30.392877467277685,33.84332225117561,31.447180040135382,1577399222.0,-27.694015410073074,-51.11386196364206,6.758698
21746,1577399222.86,-4.763383912963866,-2.5432407135009765,9.735901340942382,-4.822681280666443,-10.739979881323835,5.311098419338319,13.707203538004558,1.9607941548665364,19.13041232706705,-11.954879760742188,-3.563690185546875,10.881805419921877,8.482584139195884,0.0995542944931402,7.942757955411585,1.0190691266741072,-33.655802408854164,9.974525088355657,-8.857477519586892,4.2316754426129455,-4.065727386039884,-21.2867031459624,-62.374603174603166,6.9503426447588845,30.5366459999401,33.84332225117561,31.39925719591458,1577399222.0,-27.694015410073074,-51.11386196364206,6.758698
21747,1577399222.87,-1.757463728637695,-7.322067227172851,12.453320225219723,0.3416117002905866,-6.138324290503525,11.811355926662536,5.988297385660807,-0.6752218729654946,23.95951707560221,-10.642623901367188,2.661895751953125,11.248016357421877,3.691324373570884,4.6161558569931405,9.560189596036585,1.3242449079241072,10.075887044270834,3.1996227446056547,-10.936273263979734,4.325712674671013,-4.472300124643871,-25.58125084791753,25.93943833943834,6.9503426447588845,30.5845688441609,33.891245095396414,31.25548866325217,1577399222.0,-27.694015410073074,-51.11386196364206,6.758698
21748,1577399222.88,-0.1329979022216787,4.54599040222168,12.99919820373535,-1.043433960109803,3.5605866347894435,6.761984625393006,-0.1264936543782553,-6.524256528727214,20.27962912394205,9.437942504882812,0.1899719238281251,8.959197998046875,-5.891195157679116,1.1218931616806405,8.415780416349085,-2.9634748186383923,57.65279134114584,10.310218447730657,-10.122831450956449,5.548196691425858,-4.228356481481481,-39.53853087927163,22.140984940984943,7.099013075662818,30.34495462305688,33.98709078383802,31.30341150747297,1577399222.0,-27.694015410073074,-51.11386196364206,6.758698
21749,1577399222.89,-5.699516762084961,2.6521768890380857,21.457912669067383,-3.094067682033631,-2.4775899521246187,16.64285487685785,-6.569290321858724,2.4061156636555987,5.751613450113932,12.489700317382812,5.255889892578125,10.820770263671877,12.083658357945884,-8.10967422113186,10.170541158536585,-4.413059779575892,100.16377766927084,10.127112978980657,-10.122831450956449,5.548196691425858,-4.228356481481481,-38.46489395378285,22.140984940984943,7.247683506566751,30.392877467277685,34.03501362805883,31.30341150747297,1577399222.0,-27.694015410073074,-51.11386196364206,6.758698
21750,1577399222.9,-4.540723158569335,0.0951695159912109,15.25932457092285,-4.80592186904535,0.376298426781631,-1.3064749693335551,-5.285998232014974,1.2616872701009114,8.368475864664713,-6.095504760742188,5.561065673828125,9.966278076171877,-0.1844080483041157,-6.00396133050686,8.888802877286585,-3.436497279575893,98.66841634114584,13.575599307105657,-10.84589084031048,3.2913031220322897,-5.204131054131048,-38.46489395378285,-60.47537647537647,6.9503426447588845,30.201186090394465,34.08293647227963,31.447180040135382,1577399222.0,-27.694015410073074,-51.11386196364206,6.758698
21751,1577399222.91,0.1590947003173833,-2.8903999542236325,5.813001920776366,-5.691776483303163,-5.206979844702744,14.883116656643006,-1.1679713765462236,0.739751308186848,0.8171638285319008,-11.649703979492188,2.478790283203125,11.141204833984377,-9.675374845179116,9.22431015386814,10.658822408536585,-3.253391810825893,81.21236165364583,5.427405947730655,-11.478567805995258,4.325712674671008,-3.984412838319084,-22.36034007145118,-65.22344322344321,5.760979197527418,30.392877467277685,33.84332225117561,31.39925719591458,1577399222.0,-27.694015410073074,-51.11386196364206,6.758698
21752,1577399222.92,0.6283582257080077,-3.61344885559082,4.490205503540038,1.720671856540587,-1.5330773971929772,9.937893127590272,0.5857813395182294,-8.929232096354164,3.0377858683268237,-6.553268432617188,0.3425598144531251,12.560272216796877,4.667886873570884,0.9540464819931403,13.222298971036585,-1.1934552873883928,33.192952473958336,8.845374697730655,-10.122831450956449,4.419749906729075,-4.228356481481481,-28.265343161639457,-65.22344322344321,-2.638900148544819,30.392877467277685,33.98709078383802,31.35133435169377,1577399222.0,-27.694015410073074,-51.11386196364206,6.758698
21753,1577399222.93,-1.9454085589599608,-2.9454665924072265,19.36538041809082,-4.092449774318787,-2.068181468237899,11.495321307521913,-3.9069380757649737,14.508805055745444,4.935190684000651,8.095169067382812,2.753448486328125,12.834930419921877,5.095132967320884,-0.2971742211318597,7.149300924161585,0.9580339704241072,-23.676554361979168,11.897132510230657,-10.122831450956449,4.419749906729075,-4.228356481481481,-34.17034625182773,-65.22344322344321,6.65300178295102,30.392877467277685,34.08293647227963,31.30341150747297,1577399222.0,-27.694015410073074,-51.11386196364206,6.758698
21754,1577399222.94,-1.7826028460693355,-2.3588871856689453,13.729429710083007,1.344782195896055,3.634806886254288,15.768971270900815,-6.9020843526204425,2.152330287679036,6.680563694254557,3.731155395507813,3.943634033203125,10.424041748046877,-2.045980313929116,-0.1445863305068597,8.095345846036585,6.573268345424108,-33.289591471354164,-8.397056942894345,-11.207420534987495,4.419749906729075,-3.5778400997150968,-19.13942929498485,33.536345136345126,-11.48479078732886,30.392877467277685,34.08293647227963,31.39925719591458,1577399222.0,-27.694015410073074,-51.11386196364206,6.758698
21755,1577399222.95,-1.3851653704833975,2.570774032592773,10.961732590942384,-0.942877490383241,-1.0027617294683684,11.576724163967224,-2.0466433858235678,-2.841974375406901,12.895911204020182,8.751296997070312,12.946319580078123,10.012054443359377,3.828653475133384,-0.9685609398818597,9.667001119474085,-0.4152570452008928,-31.214396158854164,21.89163934616815,-10.12283145095645,4.231675442612945,-3.577840099715093,-31.486253938105808,31.63711843711843,-1.003525408601554,30.440800311498485,34.01105220594842,31.30341150747297,1577399222.0,-27.694015410073074,-51.11386196364206,6.758698
21756,1577399222.96,-0.9039308367919912,-4.116231204223633,8.409513621215819,1.5315299253882426,-1.539062901343368,8.595943097072695,9.040904502360023,16.4648678120931,7.458679233805338,-15.311813354492188,-12.932586669921877,10.698699951171877,0.3343907798208843,-0.3887269555068597,8.614144674161585,7.122584751674108,-44.33695475260416,-3.880455380394345,-13.195833855711085,4.983973299077471,-4.065727386039884,-19.13942929498485,27.838665038665027,10.518432986453288,30.48872315571929,33.939167939617214,31.447180040135382,1577399222.0,-27.694015410073074,-51.11386196364206,6.758698
21757,1577399222.97,-0.2167949603271474,-0.8122329132080077,3.961086936645507,-4.305533722072694,-3.586105320776962,7.817827557521913,-8.827022487386067,-21.016359177653,9.457837620035807,-7.9265594482421875,0.9529113769531252,10.546112060546877,5.125650545445884,5.5011656226181405,13.557992330411585,0.9275163922991072,-45.71024576822917,5.885169619605655,-13.195833855711085,4.983973299077471,-4.065727386039884,-19.13942929498485,27.838665038665027,9.329069539221818,30.392877467277685,34.08293647227963,31.39925719591458,1577399222.0,-27.694015410073074,-51.11386196364206,6.758698
21758,1577399222.98,-1.813727467651367,-0.6494272003173828,12.33600434387207,-4.813104474025819,2.672337818871475,7.192940924221132,-5.781597975667318,-16.532019468180334,15.630089499918618,-0.0530242919921875,2.845001220703125,9.691619873046877,1.7687169516958845,-2.4028871117568595,10.048470846036585,-2.154758998325893,-31.885782877604168,31.88614618210565,-13.195833855711085,4.983973299077471,-4.065727386039884,-23.433976996939982,33.536345136345126,6.9503426447588845,30.392877467277685,33.939167939617214,31.447180040135382,1577399222.0,-27.694015410073074,-51.11386196364206,6.758698
21759,1577399222.99,-3.842813374633789,-0.6458358978271485,7.3249402691650385,-0.2808807313500374,0.8886575820550692,10.568765265041444,2.07258057047526,10.093897194417318,10.031248917643229,1.1524200439453125,0.769805908203125,10.179901123046877,-4.258504727991616,0.7099058569931396,7.729134908536585,0.4544939313616072,-3.138224283854167,5.991981143043156,-11.207420534987495,5.172047763193596,-3.5778400997150968,-30.681026243989223,19.529548229548222,9.514907577851735,30.48872315571929,33.98709078383802,31.49510288435619,1577399222.0,-27.694015410073074,-51.11386196364206,6.758698
21760,1577399223.0,-1.6293739398193356,5.218761068725586,15.153979697875975,-5.2823679994164445,2.112094630394912,2.8283112977562883,-1.5223132222493485,-21.198318503824872,10.09948366495768,5.0128936767578125,4.431915283203125,8.806610107421875,-0.5811365639291157,-9.45244765863186,11.604867330411585,-5.450657435825892,5.071004231770833,18.94669305710565,-9.94206660361794,3.47937758614842,-5.04150195868945,-38.46489395378285,19.292144892144883,9.329069539221818,30.249108934615272,33.84332225117561,31.30341150747297,1577399223.0,-27.69401022902088,-51.11393359979549,7.0436616
21761,1577399223.01,-2.1153968768310545,-2.478597268676757,7.894760264282226,-1.504317779689881,-3.971571788062119,5.248849176174257,-4.893349159749349,19.189469301350915,2.7732265848795565,-0.7244110107421875,-3.746795654296875,10.546112060546877,-5.677572110804116,-3.0437562523818595,10.414681783536585,-1.8190656389508928,11.327107747395834,15.345618838355657,-9.94206660361794,3.47937758614842,-5.04150195868945,-40.61216780476041,-65.22344322344321,7.545024368374619,30.249108934615272,34.17878216072124,31.447180040135382,1577399223.0,-27.69401022902088,-51.11393359979549,7.0436616
21762,1577399223.02,-2.554732881469726,-4.107851498413086,10.596616837768554,-3.6160036439476935,-4.074522459448837,21.17029021621332,-0.2462037373860673,25.991396217854817,3.0030699442545568,-11.741256713867188,-6.615447998046876,10.469818115234377,-4.487386563929116,-3.3794496117568595,6.386361471036585,7.763453892299108,-2.2226969401041665,-18.498375302269345,-10.665125992971973,4.043600978496813,-4.390985576923072,-40.61216780476041,-65.22344322344321,7.545024368374619,30.440800311498485,33.84332225117561,31.543025728577,1577399223.0,-27.69401022902088,-51.11393359979549,7.0436616
21763,1577399223.03,-2.491286537475585,8.745420114135742,16.252918259887693,1.0993765257300396,3.110476722680068,6.823036767726991,-1.1907162923177077,-26.57569543253581,9.508115854899089,10.414505004882812,8.795928955078125,8.257293701171875,2.6995030845083843,-0.3276917992568595,11.620126119474085,-2.078465053013393,-36.02091471354167,11.363074893043152,-10.484361145633464,3.2913031220322897,-3.903098290598285,-31.754663169478007,-18.929792429792425,-2.4530621099149026,30.201186090394465,34.22670500494205,31.35133435169377,1577399223.0,-27.69401022902088,-51.11393359979549,7.0436616
21764,1577399223.04,0.496677134399414,4.466981747436523,11.720694517211912,-8.859305279689881,-1.2685181137457116,19.389004181057068,-1.785675404866536,29.561150893147783,5.509799082438151,-5.729293823242188,-16.930389404296875,9.935760498046877,6.559976717320884,-26.66436172113186,9.773812642911585,-2.765110560825893,-42.26175944010416,34.663245791480655,-11.74971507700302,5.7362711555419885,-3.415211004273499,-22.8971585341956,27.363858363858363,-11.85646686458869,30.392877467277685,34.03501362805883,31.39925719591458,1577399223.0,-27.69401022902088,-51.11393359979549,7.0436616
21765,1577399223.05,-3.166451405639648,-8.909422927856445,8.502887485961914,-6.177799420314882,-4.469565733374618,12.01965147109613,4.640361850992838,1.7932000386555988,7.599937131754557,-6.400680541992188,-1.976776123046875,12.468719482421877,14.982828279820884,-0.9380433617568598,10.933480611661585,3.674098423549107,-50.04374186197917,6.983802432105655,-11.74971507700302,5.7362711555419885,-3.415211004273499,-29.875798549872645,-65.22344322344321,-11.930802080040658,30.249108934615272,33.939167939617214,31.447180040135382,1577399223.0,-27.69401022902088,-51.11393359979549,7.0436616
21766,1577399223.06,1.5716736798095703,-3.545214108276367,2.973478751831054,2.71426554550543,-3.559769102515244,10.235971234279724,-8.25720249226888,-34.45740729777018,19.24772820841471,-7.102584838867188,-4.280853271484375,9.355926513671877,0.0597325766958842,8.73602890386814,11.787972799161585,-5.572727748325892,-35.059611002604164,24.04312860398065,-12.111244771680036,4.4197499067290735,-3.903098290598285,-35.780801640060886,-64.74863654863654,-9.775080831933623,30.392877467277685,34.17878216072124,31.39925719591458,1577399223.0,-27.69401022902088,-51.11393359979549,7.0436616
21767,1577399223.07,2.4551340924072265,-4.317344143676758,6.441479856567382,2.663987310642149,0.4361534682855372,8.928737127834413,1.1544042338053389,18.297629182942707,12.93541553141276,2.9071807861328125,-0.5119323730468749,11.431121826171877,-1.0083826576791155,1.1524107398056405,10.704598775724085,2.102443150111608,9.221394856770832,9.928748721168152,-11.207420534987495,5.548196691425858,-3.5778400997150968,-31.48625393810581,-63.32421652421653,-0.3345084695338496,30.48872315571929,33.91520651750682,31.375295773804176,1577399223.0,-27.69401022902088,-51.11393359979549,7.0436616
21768,1577399223.08,0.036990415649414,5.738302828979492,12.72386501281738,-0.8698543397484748,-7.098399156226181,15.757000262600036,5.818309067789713,-8.82508432413737,14.112165647379555,9.437942504882812,2.021026611328125,11.766815185546877,0.9447423423208844,6.6913511694931405,13.680062642911585,0.8969988141741072,48.52803548177084,-2.3850940522693453,-11.388185382326004,4.607824370845206,-5.04150195868945,-22.8971585341956,-62.84940984940984,7.024677860210852,30.392877467277685,33.891245095396414,31.20756581903136,1577399223.0,-27.69401022902088,-51.11393359979549,7.0436616
21769,1577399223.09,-2.2015881365966794,-1.082777700805664,10.20995326965332,-6.007811102443788,0.558257752953506,5.531364972072694,-6.95475678914388,-11.576022031656898,12.989285068766277,4.8908233642578125,7.758331298828125,9.996795654296877,0.3954259360708843,-15.37285781488186,10.384164205411585,-2.154758998325893,46.36128743489584,1.0939098539806549,-11.388185382326004,4.607824370845206,-5.04150195868945,-23.433976996939982,31.63711843711844,6.9503426447588845,30.392877467277685,33.939167939617214,31.447180040135382,1577399223.0,-27.69401022902088,-51.11393359979549,7.0436616
21770,1577399223.1,-3.812885853881836,-2.1039047088623044,9.164884244995116,1.6308892942847275,-3.175499736060166,11.148162066799255,-1.486400197347005,-4.533477848307292,11.620998819986978,-0.6328582763671879,1.837921142578125,10.195159912109377,6.621011873570884,9.37689804449314,12.840829244474085,-2.932957240513393,41.61580403645834,17.039344424293155,-10.936273263979734,5.830308387600056,-4.960187410968654,-22.091930840079,-64.5112332112332,7.136180683388801,30.392877467277685,33.91520651750682,31.351334351693776,1577399223.0,-27.69401022902088,-51.11393359979549,7.0436616
21771,1577399223.11,0.5038597393798827,-0.7164648468017578,13.595354417114256,3.5115346983374613,-2.250140794409774,10.918318707424255,-6.181429652913412,4.704549257405598,7.963855784098307,0.3742218017578124,-3.929901123046875,10.271453857421877,10.313638826695884,-5.57671523675686,8.949838033536585,-7.464817592075892,47.52095540364584,31.42838251023065,-12.111244771680038,5.360122227309728,-4.065727386039884,-22.8971585341956,-64.74863654863654,8.511382169250187,30.392877467277685,33.699553718513194,31.39925719591458,1577399223.0,-27.69401022902088,-51.11393359979549,7.0436616
21772,1577399223.12,-3.2071528338623043,-2.8592753326416016,12.35515795715332,-7.465879913478944,3.254128822289444,13.585459356838316,0.0722250834147128,20.06335290730794,-0.1740356587727857,-9.757614135742188,-1.244354248046875,10.729217529296877,-7.020345548304116,-0.8770082055068598,10.872445455411585,6.573268345424108,-5.030314127604167,-4.979088192894345,-11.74971507700302,4.607824370845206,-5.366760149572645,-40.61216780476041,-65.22344322344321,8.139706091990352,30.249108934615272,34.08293647227963,31.39925719591458,1577399223.0,-27.69401022902088,-51.11393359979549,7.0436616
21773,1577399223.13,-1.3995305804443356,0.3872621185302734,14.105319370727535,-4.683817584377381,2.519108912621475,10.73635938125238,-4.225366896565755,-1.1827926249186196,-1.0287656514485668,-2.9521942138671875,-0.1762390136718749,9.966278076171877,4.454263826695884,3.883733981993141,3.090463033536585,6.542750767299108,-55.17069498697917,-36.839439755394345,-12.472774466357054,5.7362711555419885,-5.366760149572645,-40.61216780476041,-65.22344322344321,-9.106063892865928,30.249108934615272,34.17878216072124,31.447180040135382,1577399223.0,-27.69401022902088,-51.11393359979549,7.0436616
21774,1577399223.14,-0.7758410479736326,-1.5759832427978515,7.862438541870116,0.2566175413550402,-3.3011953232183684,7.58918129897699,-1.1595916707356766,-20.972066446940108,15.71149235636393,-2.7843475341796875,-2.0530700683593768,11.324310302734377,-4.929891446741616,-4.38652968988186,13.420663228849085,-0.9340558733258928,-58.37504069010416,24.47037469773065,-12.20162719534929,5.266084995251661,-4.634929220085465,-31.486253938105783,-65.22344322344321,-10.592768201905262,30.5845688441609,34.130859316500434,31.351334351693776,1577399223.0,-27.69401022902088,-51.11393359979549,7.0436616
21775,1577399223.15,-0.4083310931396474,-2.033275759887695,8.636962778930663,-0.7094428285180061,10.269139686547256,17.655602179103944,-1.862289857991536,1.9991013814290364,18.85029073282877,-3.776168823242188,0.3120422363281251,12.102508544921877,0.9752599204458844,-5.08843398675686,8.827767721036585,-2.887180873325893,10.045369466145834,33.869788760230655,-12.111244771680038,4.983973299077471,-4.065727386039884,-24.50761392242875,35.435571835571835,6.9503426447588845,30.249108934615272,34.08293647227963,31.447180040135382,1577399223.0,-27.69401022902088,-51.11393359979549,7.0436616
21776,1577399223.16,-0.1329979022216787,6.078279464721679,18.37418093078613,3.8706649473608983,1.9109816909417872,16.52793319717035,-0.1432530659993486,-2.341586228434245,13.590229685465497,8.919143676757812,-1.885223388671875,10.973358154296877,-5.067220548304116,21.46185898199314,13.069711080411585,-9.173801967075892,26.280721028645832,32.313392275855655,-12.111244771680038,6.112420083774249,-3.415211004273499,-24.50761392242875,35.435571835571835,6.9503426447588845,30.48872315571929,34.03501362805883,31.30341150747297,1577399223.0,-27.69401022902088,-51.11393359979549,7.0436616
21777,1577399223.17,-2.378759059448242,-1.8824410552978517,5.380848521118163,-0.6304341737328499,-9.01615468601134,10.41074795547113,5.085683359781901,28.790217958577472,9.905553330485024,1.4728546142578125,2.417755126953125,12.163543701171877,4.881509920445884,-10.27642226800686,6.813607564786585,1.5378679547991072,18.346150716145832,7.472083682105655,-12.83430416103407,5.360122227309728,-2.439436431623926,-22.8971585341956,-64.74863654863654,7.024677860210852,30.392877467277685,34.03501362805883,31.39925719591458,1577399223.0,-27.69401022902088,-51.11393359979549,7.0436616
21778,1577399223.18,-0.1689109271240233,-6.354809756469726,10.56070381286621,-2.606847644191835,1.231028419457412,8.102737555080507,-0.4245717610677085,-17.96135785929362,4.46951846110026,-12.168502807617188,-6.645965576171876,11.736297607421877,5.201944490758384,2.0984556616806405,14.153085103849088,5.856105259486608,3.8503011067708335,-16.987755185081845,-12.292009619018543,4.9839732990774674,-2.9273237179487124,-22.36034007145118,34.48595848595849,-11.782131649136728,30.297031778836075,33.98709078383802,31.27945008536257,1577399223.0,-27.69401022902088,-51.11393359979549,7.0436616
21779,1577399223.19,-3.772184425659179,2.355295883178711,13.030322825317382,0.5116000181616803,-0.6747561020269618,1.358271478420351,-1.354719106038411,-11.458706150309242,1.2840331522623696,6.7218780517578125,0.6172180175781251,11.583709716796877,-3.632894376429116,-6.37017226800686,9.895882955411585,4.406520298549108,-28.772989908854168,10.340736025855657,-12.292009619018549,5.548196691425858,-4.553614672364669,-40.61216780476041,29.737891737891733,6.9503426447588845,30.392877467277685,34.08293647227963,31.39925719591458,1577399223.0,-27.69401022902088,-51.11393359979549,7.0436616
21780,1577399223.2,-3.451361403198242,2.223614791870117,12.747807029418944,1.4381560606421488,3.709027137719131,7.621503021389101,-13.74710689900716,14.59499631551107,3.781185483805338,0.6793975830078125,-8.324432373046875,10.332489013671877,2.8978673423208843,-9.94072890863186,8.278451314786585,2.880641392299107,-40.27811686197917,16.230628603980655,-12.111244771680038,4.2316754426129455,-3.7404691951566944,-23.433976996939982,29.737891737891733,8.139706091990352,30.392877467277685,34.03501362805883,31.30341150747297,1577399223.0,-27.69401022902088,-51.11393359979549,7.0436616
21781,1577399223.21,-0.3197456317138661,1.1845312713623046,8.732730845336913,-8.179352008205507,0.3691158218011622,1.4037613099633195,-3.964398915608724,-20.45372178751628,23.33941884562174,-2.5859832763671875,-0.7865905761718749,10.485076904296877,-1.862874845179116,-5.79033828363186,10.292611471036585,-2.795628138950893,-14.032999674479166,37.257239932105655,-10.84589084031048,7.052792404354905,-3.252581908831901,-23.433976996939982,26.889051689051684,9.329069539221818,30.392877467277685,34.08293647227963,31.543025728577,1577399223.0,-27.69401022902088,-51.11393359979549,7.0436616
21782,1577399223.22,-1.3708001605224602,-4.16890364074707,10.0303881451416,-2.6774765931664435,-4.394148381079697,13.986488134914492,0.3343901652018225,3.8234830464680982,17.028303269449868,-6.339645385742188,-0.1609802246093748,12.667083740234377,0.4259435141958844,0.3284361304306404,10.002694478849085,-9.280613490513392,50.221761067708336,31.779334658668155,-12.111244771680038,4.983973299077471,-5.366760149572645,-21.82352160870679,30.21269841269841,7.916700445634452,30.36891604516728,34.10689789439003,31.35133435169377,1577399223.0,-27.69401022902088,-51.11393359979549,7.0436616
21783,1577399223.23,1.0210072979736329,0.909198080444336,12.005604514770509,-3.2329313783226934,-2.087335081519149,17.5430747010766,3.658739170328776,16.642038734944663,9.532057871500651,0.5573272705078125,3.821563720703125,10.759735107421877,1.3414708579458845,-7.8960511742568595,8.125863424161585,6.115504673549108,70.92793782552083,-15.110924130394343,-11.930479924341528,6.676643476122644,-4.228356481481481,-23.433976996939982,-65.22344322344321,9.626410401029688,30.48872315571929,34.03501362805883,31.543025728577,1577399223.0,-27.69401022902088,-51.11393359979549,7.0436616
21784,1577399223.24,-1.2319364642333983,4.105457296752929,13.092572068481443,3.073395794528868,5.399333509789443,14.485679181057067,-4.984328822835287,-9.13633053995768,6.043706052652994,12.672805786132812,14.197540283203123,10.088348388671877,-8.729329923304116,6.5387632788681405,14.015756002286585,5.169459751674108,58.81245930989584,-19.597008114769345,-13.557363550388102,6.112420083774249,-3.7404691951566944,-38.46489395378285,-65.22344322344321,9.329069539221818,30.249108934615272,33.891245095396414,31.447180040135382,1577399223.0,-27.69401022902088,-51.11393359979549,7.0436616
21785,1577399223.25,-0.5328295794677724,-3.5392286041259764,10.786955869750976,-1.724584332424256,1.0969531264886625,10.48736240859613,-9.923566847737629,-11.88008564249674,7.707676206461588,-6.980514526367188,-3.594207763671875,12.071990966796877,-3.877035001429116,5.1654722632431405,10.506234517911585,-1.2392316545758928,24.724324544270832,-9.404137021019343,-13.557363550388102,5.360122227309728,-3.7404691951566944,-28.80216162438384,25.93943833943834,7.0990130756628185,30.392877467277685,33.747476562734,31.39925719591458,1577399223.0,-27.69401022902088,-51.11393359979549,7.0436616
21786,1577399223.26,-1.3612233538818352,-0.9642647186279296,9.476130460815428,1.3076720701636333,0.4409418716058497,13.304140661769958,-2.973199428304037,-6.515876822916667,1.1092564310709636,-7.056808471679688,7.895660400390625,9.310150146484377,0.5785314048208844,5.2570249976181405,11.421761861661585,-2.337864467075893,-29.33756510416667,23.905799502418155,-11.930479924341528,5.172047763193601,-4.553614672364669,-22.36034007145118,25.93943833943834,7.99103566108642,30.39287746727768,34.01105220594842,31.447180040135382,1577399223.0,-27.69401022902088,-51.11393359979549,7.0436616
21787,1577399223.27,-2.0004751971435546,-5.559934805297852,-1.3085509173583982,-5.612767828518007,-5.104029173316025,-7.57928331894293,2.849499009195964,-5.604883091227213,1.1954476908365883,-10.032272338867188,-0.7560729980468749,11.003875732421877,8.970865389195884,-4.90532851800686,11.208138814786585,-2.948216029575893,-56.02518717447917,37.470862978980655,-12.472774466357054,6.112420083774249,-4.716243767806261,-20.213066220473635,25.93943833943834,-11.930802080040658,30.48872315571929,33.84332225117561,31.30341150747297,1577399223.0,-27.69401022902088,-51.11393359979549,7.0436616
21788,1577399223.28,-4.406647865600585,-2.7060464263916013,8.83089311340332,2.328799078220274,0.3212317885980372,11.717982061916445,-1.8694724629720043,27.67691418660481,11.74669440714518,-4.722213745117188,0.4341125488281251,12.041473388671877,-11.597982267054116,13.28314804449314,5.043588033536585,3.674098423549107,-79.12699381510417,16.535804385230655,-11.74971507700302,5.7362711555419885,-5.366760149572645,-21.82352160870679,-64.74863654863654,-12.005137295492622,30.48872315571929,33.891245095396414,31.39925719591458,1577399223.0,-27.69401022902088,-51.11393359979549,7.0436616
21789,1577399223.29,-4.770566517944336,4.809352584838867,10.30572133605957,-5.027385522609802,-3.981148594702744,2.512276678615664,1.8331604044596357,0.0071256001790364,11.234335251871745,10.170364379882812,8.032989501953125,10.942840576171877,1.2041417563833845,-3.30315566644436,13.817391744474085,0.2866472516741072,-58.55814615885416,13.712928408668152,-13.557363550388102,6.864717940238775,-4.065727386039884,-35.78080164006091,-64.74863654863654,-1.969883209477122,30.249108934615272,33.96312936172762,31.35133435169377,1577399223.0,-27.69401022902088,-51.11393359979549,7.0436616
21790,1577399223.3,-4.744230299682617,-5.795763668823242,6.700053635864257,-6.546506475978944,-1.2158456772222743,19.142401410060973,-2.9875646382649736,9.59350904744466,21.80712978312174,-2.5707244873046875,-2.571868896484375,12.834930419921877,-1.6492517983041155,-15.98320937738186,5.501351705411585,3.521510532924107,-7.349650065104167,2.4366832914806547,-10.84589084031048,5.548196691425858,-3.5778400997150968,-40.61216780476041,-64.27382987382987,-9.106063892865928,30.44080031149849,33.939167939617214,31.30341150747297,1577399223.0,-27.69401022902088,-51.11393359979549,7.0436616
21791,1577399223.31,-2.912666029663085,4.3616368743896485,14.313614915161132,-1.992734918361756,-1.7545410507574304,14.7083399354516,-5.472745961507162,-16.05557333780924,20.38976240030924,15.449905395507812,18.592071533203125,11.034393310546877,0.7921544516958843,8.67499374761814,13.313851705411585,-1.2697492327008928,9.373982747395834,6.587073916480655,-11.930479924341528,5.172047763193601,-4.553614672364669,-22.8971585341956,-63.7990231990232,-8.437046953798225,30.48872315571929,34.17878216072124,31.20756581903136,1577399223.0,-27.69401022902088,-51.11393359979549,7.0436616
21792,1577399223.32,-3.288555690307617,0.4973953948974609,16.95681354797363,-3.149134320217225,-2.149584324683212,3.055760455471132,-1.306835072835286,2.834677760823567,8.093142673746744,1.4728546142578125,-2.220916748046875,12.377166748046877,-1.0694178139291155,-14.27422500238186,14.168343892911585,-2.002171107700893,17.217000325520832,14.063880557105657,-11.74971507700302,4.983973299077471,-4.065727386039884,-23.433976996939982,-61.42498982498982,6.9503426447588845,30.392877467277685,33.891245095396414,31.30341150747297,1577399223.0,-27.69401022902088,-51.11393359979549,7.0436616
21793,1577399223.33,0.2009932293701173,-1.237203707885742,10.239880790405271,2.7154626463355087,0.8599271621331934,13.071903100734804,0.3200249552408857,6.86172495320638,11.629378525797526,-9.421920776367188,-4.357147216796876,10.652923583984377,-0.2759607826791157,0.9387876929306402,11.101327291349085,0.0119890485491072,35.05452473958334,10.249183291480657,-11.930479924341531,4.983973299077468,-3.252581908831901,-22.36034007145118,-65.22344322344321,6.9503426447588845,30.440800311498485,33.891245095396414,31.5669871506874,1577399223.0,-27.69401022902088,-51.11393359979549,7.0436616
21794,1577399223.34,-0.8752004168701162,-0.7451952667236328,9.300156638793943,-3.520235577541444,-3.305983726538681,6.960703363185975,-4.067349586995443,-19.043537009684243,7.142644614664714,3.2428741455078125,0.6172180175781251,12.712860107421877,1.6771642173208845,-4.53911758050686,9.285531392911585,-6.183079310825892,29.362996419270832,23.98209344773065,-11.568950229664514,3.667452050264554,-3.252581908831901,-22.8971585341956,-64.74863654863654,8.214041307442319,30.48872315571929,33.939167939617214,31.25548866325217,1577399223.0,-27.69401022902088,-51.11393359979549,7.0436616
21795,1577399223.35,-1.0188525164794913,-1.4251485382080078,9.185234959106443,-2.059772564846131,-0.0809940903082117,9.917542413478944,-3.1695239644368485,9.679700307210286,2.857023642985025,-2.4944305419921875,1.715850830078125,10.546112060546877,-1.0083826576791155,-2.5249574242568595,12.764535299161585,7.488795689174108,-22.242228190104168,-7.847740536644345,-11.568950229664514,5.924345619658119,-3.252581908831901,-23.433976996939982,-65.22344322344321,8.139706091990352,30.392877467277685,33.939167939617214,31.39925719591458,1577399223.0,-27.69401022902088,-51.11393359979549,7.0436616
21796,1577399223.36,-0.6166266375732412,-4.975749600219726,10.487680662231444,-4.236101873928162,-0.1983099716558679,5.366165057521913,1.7936560770670569,-27.04017055460612,10.518468955485025,0.0690460205078124,-0.7560729980468749,12.316131591796877,14.311441561070884,-3.0742738305068595,7.790170064786585,4.345485142299108,-26.178995768229168,4.084632510230655,-11.568950229664514,5.172047763193601,-3.903098290598285,-25.044432385173145,19.766951566951565,7.024677860210852,30.392877467277685,34.08293647227963,31.25548866325217,1577399223.0,-27.69401022902088,-51.11393359979549,7.0436616
21797,1577399223.37,-5.391861848754883,-0.211288296508789,9.170869749145506,-5.768390936428164,-3.1288128036871186,5.993445892482851,2.171939939371744,14.662033961995444,2.485922385660807,5.1502227783203125,-2.129364013671875,11.034393310546877,2.9589024985708843,-1.3958070336318598,13.710580221036585,3.185817173549107,-35.700480143229164,24.53140985398065,-12.472774466357052,4.607824370845204,-3.903098290598285,-22.8971585341956,-64.74863654863654,7.322018722018717,30.46476173360889,33.939167939617214,31.111720130589752,1577399223.0,-27.69401022902088,-51.11393359979549,7.0436616
21798,1577399223.38,-3.192787623901367,-1.925536685180664,8.6896352154541,-1.4456598390160529,-2.731375328101181,7.869302893215272,-3.911726479085286,1.382594453938805,8.904777036539713,-8.597946166992188,-13.420867919921877,12.438201904296877,8.406290193883384,-7.3162171898818595,12.566171041349085,5.398341587611608,-58.20719401041666,4.420325869605656,-13.015069008372578,5.924345619658119,-3.252581908831901,-27.728524698895075,-61.42498982498982,-11.48479078732886,30.34495462305688,33.891245095396414,31.35133435169377,1577399223.0,-27.69401022902088,-51.11393359979549,7.0436616
21799,1577399223.39,-1.3300987322998046,-1.9542671051025389,13.039899631958006,0.6456753111304303,-1.445689036597274,8.749172003322695,2.6005020365397136,-32.27628958536784,25.585180002848304,2.9682159423828125,-10.155487060546877,11.461639404296877,-3.907552579554116,2.4494078101181405,9.102425924161585,-2.276829310825893,-4.877726236979167,39.881751650855655,-13.015069008372578,5.924345619658119,-3.252581908831901,-32.02307240085019,-64.27382987382987,-12.079472510944596,30.392877467277685,34.08293647227963,31.447180040135382,1577399223.0,-27.69401022902088,-51.11393359979549,7.0436616
21800,1577399223.4,-5.311656093139648,-3.0172926422119137,11.849981406860351,2.4580859678687115,-2.04184524997618,19.542233087307068,-7.002640822347005,31.306523903401693,19.518272996012364,1.5644073486328125,-6.768035888671875,13.536834716796877,7.444986482945884,-9.63555312738186,10.414681783536585,1.2326921735491072,45.38472493489584,24.43985711960565,-12.292009619018549,5.924345619658119,-4.228356481481481,-31.4862539381058,-61.899796499796494,7.024677860210852,30.15326324617366,34.08293647227963,31.447180040135382,1577399223.0,-27.69401022902088,-51.11393359979549,7.0436616
21801,1577399223.41,-0.8548497027587881,-1.3066355560302734,14.949275455932616,-4.556924896389099,-3.188667845191025,7.164210504299257,2.478397751871745,9.588720644124349,9.081947959391275,3.654861450195313,-8.827972412109375,13.216400146484377,6.559976717320884,-16.01372695550686,9.743295064786585,8.465358189174108,18.559773763020832,-9.312584286644343,-13.828510821395865,5.078010531135532,-3.496525551994298,-23.433976996939982,-61.42498982498982,-11.782131649136728,30.392877467277685,33.939167939617214,31.25548866325217,1577399223.0,-27.69401022902088,-51.11393359979549,7.0436616
21802,1577399223.42,-5.713881972045899,2.204461178588867,12.893853330688476,-1.0302658509789435,1.6990948440179594,10.710023162990662,1.7960502787272137,-8.626365586344402,-8.813512349446613,11.848831176757812,5.316925048828125,11.919403076171877,7.353433748570884,-8.002862697694361,12.322030416349085,9.106227329799108,-68.85782877604166,-11.250450497581843,-13.195833855711085,5.7362711555419885,-4.390985576923072,-23.433976996939982,31.63711843711844,-11.782131649136728,30.34495462305688,34.058975050169224,31.35133435169377,1577399223.0,-27.69401022902088,-51.11393359979549,7.0436616
21803,1577399223.43,-0.3676296649169912,1.3617021942138672,4.4375330670166,-1.2481382020531624,-6.53097336276915,-4.68708771347418,7.939571738688151,-22.48400479532878,15.486437400309244,-1.9145965576171875,-12.200164794921877,9.233856201171877,13.640054842320884,-15.22026992425686,16.487679830411587,0.4392351422991072,-74.39676920572917,40.156409853980655,-13.195833855711085,5.7362711555419885,-4.390985576923072,-32.02307240085019,31.63711843711844,6.9503426447588845,30.201186090394465,33.939167939617214,31.30341150747297,1577399223.0,-27.69401022902088,-51.11393359979549,7.0436616
21804,1577399223.44,-0.6477512591552724,-4.719570022583008,6.597102964477538,1.5889907652319926,-0.5119503891363367,15.3978700135766,-7.368953676350912,-7.984719541422526,22.544543894449863,-20.347213745117188,-36.82785034179688,13.109588623046877,5.064615389195884,-7.5908753930068595,9.712777486661585,0.1035417829241072,-51.96634928385416,49.372718447730655,-12.472774466357054,4.2316754426129455,-4.390985576923072,-22.8971585341956,34.96076516076515,9.552075185577722,30.392877467277685,34.08293647227963,31.39925719591458,1577399223.0,-27.69401022902088,-51.11393359979549,7.0436616
21805,1577399223.45,-1.6197971331787109,-0.5093664031982421,10.304524235229492,-1.2505324037133192,0.6432519118890528,7.024149707180116,1.1735578470865886,23.10997451985677,21.078095377604164,6.3556671142578125,-13.924407958984377,12.743377685546877,3.5845128501333843,-21.20171523675686,11.940560689786585,3.170558384486608,36.59566243489584,9.577796572730652,-13.015069008372578,5.1720477631936,-4.228356481481478,-23.433976996939982,-15.368742368742373,9.329069539221818,30.297031778836075,33.891245095396414,31.47114146224579,1577399223.0,-27.69401022902088,-51.11393359979549,7.0436616
21806,1577399223.46,-4.353975429077148,-1.7435773590087889,9.106226304321288,-3.7764151551781615,0.8695039687738184,14.722705145412537,-0.5789977681477861,-25.89813636271159,10.233558957926432,3.5785675048828125,-14.397430419921877,13.414764404296877,8.116373201695884,-15.55596328363186,6.905160299161585,5.352565220424108,49.13838704427084,-13.035728817894343,-11.02665568764899,4.983973299077471,-4.716243767806261,-19.13942929498485,-65.22344322344321,9.329069539221818,30.34495462305688,34.08293647227963,31.30341150747297,1577399223.0,-27.69401022902088,-51.11393359979549,7.0436616
21807,1577399223.47,-1.9837157855224608,1.457470260620117,11.191575950317382,-3.546571795803162,-4.122406492651963,10.726782574611756,-12.631408925374348,-9.4308173441569,1.4492330668131508,11.177444458007812,-3.472137451171875,11.675262451171877,4.118570467320884,-13.32818008050686,16.121468892911587,1.8125261579241072,24.236043294270832,-0.6455920991443452,-11.02665568764899,4.983973299077471,-4.716243767806261,-19.13942929498485,-65.22344322344321,9.329069539221818,30.392877467277685,33.939167939617214,31.543025728577,1577399223.0,-27.69401022902088,-51.11393359979549,7.0436616
21808,1577399223.48,-0.8847772235107412,-2.9454665924072265,10.332057554321288,0.0351538877905866,-0.0785998886480554,10.88958828750238,3.270878501383464,0.7852411397298167,1.3606476053873695,-4.294967651367188,-20.897674560546875,11.644744873046877,-3.053060392054116,-1.94512343988186,8.980355611661585,1.0495867047991072,7.176717122395833,7.044837588355655,-12.292009619018549,5.924345619658119,-4.878872863247858,-40.07534934201602,18.81733821733821,7.322018722018717,30.5366459999401,33.939167939617214,31.30341150747297,1577399223.0,-27.69401022902088,-51.11393359979549,7.0436616
21809,1577399223.49,-0.2084152545166014,0.4961982940673828,12.861531608276366,0.3775247251929302,1.1747646804437408,17.227040081935975,-3.036645772298177,-14.38561767985026,11.304964200846351,6.2641143798828125,-9.896087646484377,12.514495849609377,10.359415193883384,-6.20232558831936,11.040292135099085,3.841945103236608,-20.823160807291668,24.43985711960565,-12.65353931369556,5.360122227309729,-4.553614672364667,-31.4862539381058,-64.27382987382987,7.099013075662818,30.416838889388085,33.891245095396414,31.447180040135382,1577399223.0,-27.69401022902088,-51.11393359979549,7.0436616
21810,1577399223.5,-1.8352752825927727,0.2843114471435546,6.446268259887694,-2.157934832912537,-0.8447444198980555,10.06598291640863,-7.653863673909505,13.060313051350914,9.61585492960612,5.4706573486328125,1.532745361328125,9.050750732421877,-0.3369959389291157,-15.18975234613186,3.609261861661585,-2.734592982700893,-14.856974283854166,29.99405633835565,-12.472774466357054,6.112420083774249,-4.716243767806261,-27.728524698895075,-63.32421652421653,7.247683506566751,30.5366459999401,33.939167939617214,31.30341150747297,1577399223.0,-27.69401022902088,-51.11393359979549,7.0436616
21811,1577399223.51,-2.620573427124023,-4.104260195922851,7.909125474243163,-2.461998443752381,1.077799513207412,13.64770860000238,3.888582529703776,16.287696889241538,1.0230651713053385,-0.2361297607421875,-8.049774169921875,12.651824951171877,3.4471837485708843,-14.09111953363186,10.719857564786585,13.836451939174108,-32.831827799479164,4.450843447730655,-13.376598703049591,5.548196691425858,-4.878872863247858,-29.875798549872645,-63.32421652421653,-11.187449925521,30.5366459999401,34.03501362805883,31.447180040135382,1577399223.0,-27.69401022902088,-51.11393359979549,7.0436616
21812,1577399223.52,-1.9262549456787108,-2.2391771026611327,12.606549131469723,-6.0149937074242565,-6.138324290503525,-2.6041322691382427,0.7545725565592442,0.3782268575032543,-3.4397267232259106,4.3720245361328125,-10.338592529296877,11.858367919921877,5.949625154820884,-15.64751601800686,12.093148580411585,8.495875767299108,-65.94340006510417,-13.615562802269343,-13.376598703049591,5.548196691425858,-4.878872863247858,-29.875798549872645,-63.32421652421653,5.612308766623484,30.392877467277685,34.08293647227963,31.39925719591458,1577399223.0,-27.69401022902088,-51.11393359979549,7.0436616
21813,1577399223.53,-0.5495889910888672,-1.999756936645508,6.301419059448241,1.944529711765196,-2.84031150363829,12.509265710598084,0.8826623453776044,-6.070555314127604,4.453956150309245,2.8003692626953125,-6.859588623046876,11.492156982421877,4.103311678258384,-4.89006972894436,10.048470846036585,10.281154087611608,-99.45170084635416,-1.3017200288318431,-12.83430416103407,5.36012222730973,-4.065727386039884,-33.63352778908335,-63.32421652421653,-2.7875705794487544,30.32099320094648,34.17878216072124,31.35133435169377,1577399223.0,-27.69401022902088,-51.11393359979549,7.0436616
21814,1577399223.54,-1.16011041442871,1.2324153045654296,10.102214194946288,3.5594187315405863,-0.945300889624618,13.4442014588891,7.956331150309244,-8.458771470133463,30.091067527262364,11.726760864257812,-10.308074951171877,12.255096435546877,3.965982576695884,-3.4404847680068595,4.280648580411585,-1.8190656389508928,-25.446573893229168,43.177650088355655,-12.83430416103407,6.112420083774249,-3.7404691951566944,-26.65488777340629,-65.22344322344321,-8.95739346196199,30.48872315571929,34.08293647227963,31.6388714170186,1577399223.0,-27.69401022902088,-51.11393359979549,7.0436616
21815,1577399223.55,-1.0308235247802724,5.106233590698242,10.8348399029541,0.2793624571265241,3.120053529320693,19.750528631740664,-0.2988761739095049,1.113246767171223,25.221261350504555,7.881546020507812,-6.554412841796875,11.644744873046877,3.2335607016958843,-16.44097304925686,10.231576314786585,-4.657200404575892,41.23433430989584,30.87906610398065,-12.653539313695562,4.795898834961333,-4.553614672364669,-35.243983177316515,-65.22344322344321,-7.916700445634458,30.5845688441609,34.22670500494204,31.25548866325217,1577399223.0,-27.69401022902088,-51.11393359979549,7.0436616
21816,1577399223.56,-1.4282610003662108,0.8493430389404296,18.32869109924316,-9.022110992580506,-3.593287925757431,10.834521649318786,0.3954423075358066,20.884564076741537,15.76895319620768,1.7169952392578125,-11.864471435546877,12.346649169921877,6.102213045445884,-17.87529922113186,9.895882955411585,-0.3542218889508928,72.39278157552083,12.629554385230657,-12.653539313695562,4.795898834961333,-4.553614672364669,-36.31762010280528,-57.62653642653642,6.9503426447588845,30.48872315571929,34.08293647227963,31.30341150747297,1577399223.0,-27.69401022902088,-51.11393359979549,7.0436616
21817,1577399223.57,-2.3105243121337886,-5.267842202758788,6.415143638305663,-1.9400624818383183,-2.6427898666754,8.974226959377381,-1.220643813069661,24.9690721089681,5.437973032633463,-5.103683471679688,-9.545135498046877,11.965179443359377,4.912027498570884,1.3507749976181402,8.675179830411585,11.608668736049108,79.83907063802083,-12.883140927269343,-11.74971507700302,4.607824370845208,-4.878872863247858,-23.433976996939982,-65.22344322344321,7.545024368374619,30.440800311498485,34.08293647227963,31.30341150747297,1577399223.0,-27.69401022902088,-51.11393359979549,7.0436616
21818,1577399223.58,0.391332261352539,3.7223850311279296,9.802938987426757,3.1643754576148058,-3.98952830051329,8.98739506850824,2.3443224589029943,-13.655386173502604,4.1055998087565095,7.820510864257812,-8.385467529296875,10.942840576171877,12.739786287633386,-10.41375136956936,12.291512838224085,6.664821079799108,25.67036946614584,-13.478233700706843,-12.472774466357054,6.488569012006514,-3.415211004273499,-31.486253938105783,-63.32421652421652,6.9503426447588845,30.392877467277685,34.08293647227963,31.351334351693776,1577399223.0,-27.69401022902088,-51.11393359979549,7.0436616
21819,1577399223.59,1.3753491436767578,-0.0628477935791015,9.829275205688475,-3.7021949037133184,4.458412257348037,9.194493512111755,-5.1567113423665365,-10.73086884562174,8.58155981241862,9.926223754882812,-12.627410888671877,12.804412841796877,2.4095860923208843,-7.4077699242568595,10.658822408536585,1.1411394391741072,-2.0701090494791665,37.104652041480655,-11.02665568764899,5.7362711555419885,-3.415211004273499,-26.65488777340629,-61.42498982498982,6.9503426447588845,30.392877467277685,34.03501362805883,31.447180040135382,1577399223.0,-27.69401022902088,-51.11393359979549,7.0436616
21820,1577399223.6,-1.5144522601318358,-1.3102268585205077,5.562807847290038,-3.632763055568787,-2.6116652450933686,11.200834503322692,-2.2740925435384107,7.675753517659505,10.501709543863932,1.5644073486328125,-9.575653076171877,13.903045654296877,16.173013826695886,-12.83989883050686,10.719857564786585,1.5378679547991072,-6.159464518229167,34.235999697730655,-11.02665568764899,5.7362711555419885,-3.415211004273499,-40.07534934201602,-64.74863654863654,-9.03172867741396,30.48872315571929,33.84332225117561,31.447180040135382,1577399223.0,-27.69401022902088,-51.11393359979549,7.0436616
21821,1577399223.61,-0.3927687823486318,-4.11144280090332,9.81969839904785,6.1451565245093365,-1.9412887802496177,6.979856976467226,2.011528428141275,13.141715907796224,12.740288096110026,1.7169952392578125,-8.812713623046875,11.568450927734377,5.552896639195884,0.3742124976181402,10.933480611661585,4.650660923549108,5.071004231770833,5.152747744605655,-12.020862348010784,6.018382851716185,-3.496525551994298,-26.65488777340629,-63.32421652421653,6.9503426447588845,30.36891604516728,34.08293647227963,31.447180040135382,1577399223.0,-27.69401022902088,-51.11393359979549,7.0436616
21822,1577399223.62,0.9060856182861328,1.4359224456787107,17.739717490844725,1.554274841159727,-1.421747019995713,10.240759637600036,-1.851515950520833,-6.377013126627602,14.48685820719401,5.1654815673828125,-6.035614013671875,10.454559326171877,8.421548982945884,-9.87969375238186,11.742196431974085,2.316066196986607,20.55867513020833,13.682410830543157,-12.83430416103407,5.7362711555419885,-4.065727386039884,-28.80216162438385,-62.37460317460318,7.024677860210852,30.05741755773205,33.96312936172762,31.423218618024983,1577399223.0,-27.69401022902088,-51.11393359979549,7.0436616
21823,1577399223.63,-0.2455253802490224,-3.654150283813476,12.774143247680662,-0.0749793885765999,-4.476748338355087,18.73538712783441,5.231729661051432,18.59091888631185,18.56538073527018,8.278274536132812,-5.303192138671875,12.895965576171877,12.144693514195884,3.792181247618141,8.705697408536585,7.885524204799108,42.63814290364584,4.908607119605655,-12.472774466357054,6.112420083774249,-3.7404691951566944,-33.633527789083345,-60.95018315018314,7.024677860210852,30.5366459999401,34.08293647227963,31.6388714170186,1577399223.0,-27.69401022902088,-51.11393359979549,7.0436616
21824,1577399223.64,0.343448228149414,0.5237316131591797,7.564360435180663,2.769332183689024,0.203915907250381,16.98043731093988,-4.965175209554037,-3.756559409586588,14.488055308024087,6.1115264892578125,-1.396942138671875,10.485076904296877,6.498941561070884,-4.11187148675686,12.459359517911585,7.305690220424108,53.56343587239584,-5.375816708519345,-12.472774466357054,6.112420083774249,-3.7404691951566944,-33.633527789083345,-63.7990231990232,7.024677860210852,30.249108934615272,33.939167939617214,31.39925719591458,1577399223.0,-27.69401022902088,-51.11393359979549,7.0436616
21825,1577399223.65,-0.256299287719726,-1.064821188354492,10.545141502075197,0.0602930052222276,-1.1559906357183678,6.984645379787538,5.285599198404947,-2.819229459635415,10.596280509440104,2.4951934814453125,-6.584930419921876,11.736297607421877,9.977945467320888,-6.70586562738186,9.865365377286585,4.040309361049108,51.83919270833334,11.103675478980657,-13.28621627938034,6.394531779948449,-3.496525551994297,-31.21784470673361,-64.98603988603988,-1.85838038629917,30.392877467277685,33.939167939617214,31.49510288435619,1577399223.0,-27.69401022902088,-51.11393359979549,7.0436616
21826,1577399223.66,1.2676100689697265,-2.892794155883789,10.774984861450196,3.585754949802305,1.094558924828506,18.548639398342225,0.3284046610514316,-15.198449143473304,-0.8994787618001294,4.3415069580078125,-4.479217529296875,11.644744873046877,5.217203279820884,-4.75274062738186,6.905160299161585,4.894801548549108,-1.0019938151041667,7.716224307105655,-13.195833855711085,5.360122227309728,-4.390985576923072,-37.92807549103848,-62.84940984940984,8.214041307442319,30.392877467277685,34.03501362805883,31.30341150747297,1577399223.0,-27.69401022902088,-51.11393359979549,7.0436616
21827,1577399223.67,-1.4234725970458983,4.821323593139648,13.31283862121582,-5.311098419338319,-5.147124803198838,4.4563684266625385,3.527058079020182,-2.085406650797526,6.7140825174967445,12.215042114257812,-4.936981201171875,10.942840576171877,18.95011343607089,-12.62627578363186,12.032113424161585,4.101344517299108,-17.420450846354168,22.18155633835565,-13.015069008372578,3.2913031220322897,-3.5778400997150968,-40.07534934201602,34.96076516076515,9.700745616481653,30.249108934615272,34.08293647227963,31.447180040135382,1577399223.0,-27.69401022902088,-51.11393359979549,7.0436616
21828,1577399223.68,-3.049135524291992,-2.155380044555664,11.622532249145507,-3.055760455471131,-0.4089997177496179,13.700381036525815,0.7833029764811191,27.629030153401693,17.20068578898112,9.621047973632812,0.5867004394531251,11.644744873046877,1.9823399985708845,-1.88408828363186,9.132943502286585,10.052272251674108,-26.636759440104168,7.533118838355655,-13.015069008372578,3.2913031220322897,-3.5778400997150968,-22.36034007145118,48.73015873015872,6.9503426447588845,30.34495462305688,33.891245095396414,31.30341150747297,1577399223.0,-27.69401022902088,-51.11393359979549,7.0436616
21829,1577399223.69,-0.1689109271240224,-0.7775169891357422,9.76942016418457,2.600540966648009,1.2274371169671778,9.178931201320742,-1.695892842610677,-18.52399524943033,8.873652414957682,2.5257110595703125,-10.903167724609377,10.927581787109377,3.676065584508384,1.1218931616806402,10.857186666349085,2.926417759486608,-8.875528971354168,14.308021182105652,-12.292009619018549,6.3004945478903815,-3.740469195156691,-21.82352160870679,38.284411884411874,8.808723031058053,30.440800311498485,34.01105220594842,31.25548866325217,1577399223.0,-27.69401022902088,-51.11393359979549,7.0436616
21830,1577399223.7,-1.6581043597412106,-7.4393831085205075,11.574648215942382,-2.1124450013695686,-6.961929661597275,17.875868731838317,4.0178694193522135,21.80633171590169,6.213694370524088,4.8297882080078125,-7.927703857421875,12.468719482421877,8.146890779820884,-19.21807265863186,1.9002774866615848,7.916041782924108,-3.840128580729168,7.288978213355655,-12.653539313695562,5.924345619658119,-2.9273237179487124,-40.61216780476041,25.93943833943834,9.477739970125754,30.392877467277685,33.939167939617214,31.5909485727978,1577399223.0,-27.69401022902088,-51.11393359979549,7.0436616
21831,1577399223.71,-0.3915716815185536,-5.35642766418457,9.439020335083006,-1.408549713283631,2.3084191665277247,13.0228219667016,-1.493582802327473,-3.526716050211588,7.669368979899088,-0.7244110107421875,-3.350067138671875,11.125946044921877,9.886392732945884,-9.60503554925686,10.841927877286585,13.317653111049108,-46.01542154947917,-29.271080380394345,-13.376598703049591,6.300494547890383,-4.553614672364669,-40.61216780476041,26.889051689051684,9.477739970125754,30.34495462305688,33.939167939617214,31.20756581903136,1577399223.0,-27.69401022902088,-51.11393359979549,7.0436616
21832,1577399223.72,0.7875726361083983,5.2247465728759765,10.197982261352536,-5.244060772853945,-0.3802692978277429,6.869723700100038,-1.7138493550618483,-22.314016477457685,11.17926861368815,14.79377746582031,-1.396942138671875,10.729217529296877,12.816080232945884,-0.9380433617568598,9.804330221036585,8.587428501674108,-65.39408365885417,0.1173473539806547,-12.83430416103407,6.112420083774252,-3.5778400997150968,-24.50761392242875,25.93943833943834,7.545024368374619,30.22514751250487,34.03501362805883,31.447180040135382,1577399223.0,-27.69401022902088,-51.11393359979549,7.0436616
21833,1577399223.73,-3.712329384155273,2.407968319702148,11.852375608520507,3.831160619968321,2.571781349144912,9.997748169094178,2.22580947672526,5.441963368733725,11.603042307535809,1.4118194580078125,-23.369598388671875,11.522674560546877,9.733804842320884,-13.25188613519436,9.010873189786585,3.613063267299107,-28.910319010416668,36.677405947730655,-12.653539313695562,6.676643476122644,-2.9273237179487124,-32.55989086359458,26.41424501424502,-1.895547994025156,30.05741755773205,33.939167939617214,31.327372929583376,1577399223.0,-27.69401022902088,-51.11393359979549,7.0436616
21834,1577399223.74,-0.9518148699951162,-6.397905386352539,9.146927732543944,-5.057313043361757,-9.198114012183211,0.8602775331078508,-5.417679323323568,-8.712556846110026,11.43544819132487,-7.163619995117188,-14.305877685546877,11.064910888671877,19.25528921732089,-19.15703750238186,8.339486471036585,3.460475376674107,-13.422648111979166,14.094398135230657,-13.738128397726609,6.676643476122644,-3.252581908831901,-34.17034625182773,33.536345136345126,-10.592768201905258,30.392877467277685,33.891245095396414,31.25548866325217,1577399223.0,-27.69401022902088,-51.11393359979549,7.0436616
21835,1577399223.75,-0.7052120989990225,-7.0634934478759765,3.302681480102538,-4.286380108791444,-6.8182775619879,9.3070209901391,-5.2883924336751305,1.764469618733724,1.3917722269694008,-7.133102416992188,-9.087371826171877,10.576629638671877,6.895670076695884,-5.97344375238186,6.905160299161585,8.892604282924108,-23.554484049479168,5.671546572730655,-11.74971507700302,4.983973299077471,-4.065727386039884,-40.61216780476041,-59.52576312576312,-12.079472510944596,30.48872315571929,33.939167939617214,31.30341150747297,1577399223.0,-27.69401022902088,-51.11393359979549,7.0436616
21836,1577399223.76,0.1854309185791016,2.931101382446289,7.259099723510741,6.901724249118711,3.325954872094131,15.17999766250238,-3.164735561116536,5.9184094991048175,8.284678806559244,11.69624328613281,-2.938079833984376,9.889984130859377,1.9213048423208845,-10.12383437738186,5.379281392911585,9.014674595424108,-29.108683268229168,2.9249645414806547,-11.840097500672274,5.454159459367795,-3.659154647435893,-40.61216780476041,-64.27382987382987,-12.079472510944596,30.392877467277685,34.08293647227963,31.447180040135382,1577399223.0,-27.69401022902088,-51.11393359979549,7.0436616
21837,1577399223.77,1.5453374615478517,6.1836243377685545,16.59528909729004,-1.8239437013207405,-0.3647069870367278,6.29391820083246,-1.297258266194661,-5.500735319010414,14.558684256998696,3.0292510986328125,-19.829559326171875,10.485076904296877,7.307657381383384,-9.23882461175686,9.148202291349085,4.437037876674108,-0.5442301432291667,9.470985049293157,-12.111244771680038,6.488569012006514,-3.7404691951566944,-38.46489395378285,-63.32421652421653,-2.564564933092856,30.392877467277685,33.86728367328601,31.447180040135382,1577399223.0,-27.69401022902088,-51.11393359979549,7.0436616
21838,1577399223.78,-0.3173514300537099,-4.042010952758789,13.461279124145507,-0.2210256898461311,-5.345843540991806,17.835167303615663,4.784013950602214,14.688370180257165,13.855986069742835,9.224319458007812,8.338165283203125,13.170623779296877,13.792642732945884,-15.34234023675686,5.989632955411585,5.749293736049108,1.6835530598958333,8.265540713355655,-12.83430416103407,6.112420083774249,-3.089952813390304,-40.61216780476041,-63.32421652421653,7.247683506566751,30.5366459999401,34.17878216072124,31.20756581903136,1577399223.0,-27.69401022902088,-51.11393359979549,7.0436616
21839,1577399223.79,0.400909067993164,-4.7746366607666015,10.01841713684082,-1.0182948426781624,-6.985871678198838,2.287221722560976,-5.369795290120443,-7.6112240824381505,10.348480637613932,-11.130905151367188,-5.455780029296875,10.973358154296877,6.712564607945884,-13.93853164300686,14.992318502286585,3.826686314174107,14.256795247395834,3.871009463355655,-13.91889324506512,5.7362711555419885,-2.439436431623926,-37.92807549103848,-64.74863654863654,7.768030014730519,30.392877467277685,34.03501362805883,31.447180040135382,1577399223.0,-27.69401022902088,-51.11393359979549,7.0436616
21840,1577399223.8,1.2293028424072263,-1.236006607055664,12.212702958374022,-1.7700741639672248,1.2932776626214746,7.944720245510195,4.070541855875651,-14.762704441324866,17.320395871988932,2.6935577392578125,-1.961517333984375,9.966278076171877,13.823160311070884,-1.88408828363186,9.712777486661585,0.9885515485491072,31.956990559895832,28.40714227585565,-13.91889324506512,5.7362711555419885,-2.439436431623926,-23.433976996939982,-65.22344322344321,8.734387815606086,30.297031778836075,34.03501362805883,31.447180040135382,1577399223.0,-27.69401022902088,-51.11393359979549,7.0436616
21841,1577399223.81,-2.103425868530273,0.3010708587646484,11.095807883911132,2.134868743747618,-1.557019413794541,10.38560883803949,1.0658187723795574,3.574486073811852,3.739286954752605,5.8368682861328125,0.0068664550781251,9.691619873046877,9.306558748570884,1.7627623023056405,10.124764791349085,4.147120884486608,-8.143107096354168,-0.0810169038318449,-11.930479924341528,5.924345619658119,-2.2768073361823347,-30.949435475361405,-60.47537647537647,7.0990130756628185,30.34495462305688,33.939167939617214,31.30341150747297,1577399223.0,-27.69401022902088,-51.11393359979549,7.0436616
21842,1577399223.82,0.8917204083251953,4.107851498413086,8.167699253540038,0.5882144712866804,-2.5542044052496187,7.925566632228945,3.9101303446451823,-33.81336705118815,8.457061326090495,5.3791046142578125,-1.183319091796875,6.761932373046875,0.6090489829458843,-0.6328675805068598,8.675179830411585,1.2021745954241072,-9.485880533854166,25.29434930710565,-12.653539313695562,6.676643476122644,-2.9273237179487124,-27.191706236150686,-58.10134310134311,7.173348291114784,30.392877467277685,33.747476562734,31.543025728577,1577399223.0,-27.69401022902088,-51.11393359979549,7.0436616
21843,1577399223.83,-5.275743068237305,-6.124966397094727,5.131851548461913,-0.9704108094750372,-1.6875034042730552,5.670228668361757,5.265248484293619,25.65141958211263,16.89422797648112,-0.2361297607421875,-6.951141357421875,12.560272216796877,5.858072420445884,-4.66118789300686,9.041390767911585,4.467555454799108,23.564656575520832,16.993568057105655,-13.376598703049591,6.676643476122644,-2.2768073361823347,-23.433976996939982,-59.52576312576312,6.9503426447588845,30.249108934615272,33.891245095396414,31.111720130589752,1577399223.0,-27.69401022902088,-51.11393359979549,7.0436616
21844,1577399223.84,-2.9174544329833982,-1.196502279663086,9.613797056274413,-4.65269296279535,-1.5785672287359465,16.916990966945743,-5.2692388203938805,-4.895002298990885,7.880058725992836,0.358963012695312,-5.074310302734375,9.661102294921877,11.229166170445884,-7.13311172113186,7.912240377286585,3.567286900111608,24.06819661458333,-7.481529599144345,-13.376598703049591,6.676643476122644,-2.2768073361823347,-25.04443238517314,-63.32421652421652,-2.4902297176408887,30.392877467277685,34.03501362805883,31.39925719591458,1577399223.0,-27.69401022902088,-51.11393359979549,7.0436616
21845,1577399223.85,0.9396044415283202,4.083909481811523,12.836392490844723,4.555406622165586,-1.175144248999618,8.619885113674258,8.490238120524088,11.508870375569664,-11.757183290608722,3.5480499267578125,-8.202362060546875,8.928680419921875,-5.769124845179116,3.0902769507431405,12.825570455411585,6.420680454799108,0.1271565755208333,0.8802868071056548,-14.280422939742136,6.488569012006514,-3.089952813390304,-35.243983177316515,-65.22344322344321,-11.187449925521,30.392877467277685,34.08293647227963,31.447180040135382,1577399223.0,-27.69401022902088,-51.11393359979549,7.0436616
21846,1577399223.86,2.505412327270508,-2.883217349243164,8.8045568951416,4.557800823825742,3.960418312035537,9.321386200100038,-9.487822145589192,-0.4238306986490884,5.2320716898600255,2.5409698486328125,-1.274871826171875,10.607147216796877,12.724527498570884,-7.3467347680068595,8.827767721036585,3.490992954799107,-34.845987955729164,5.549476260230655,-12.292009619018549,6.300494547890383,-3.903098290598285,-25.58125084791753,-64.27382987382987,6.35566092114315,30.392877467277685,34.03501362805883,31.447180040135382,1577399223.0,-27.69401022902088,-51.11393359979549,7.0436616
21847,1577399223.87,0.7277175946044921,-0.1837549774169921,9.716747727661131,-3.058154657131287,2.875844959984756,10.255124847560976,-10.289879701741537,-29.204528855387373,9.433895603434246,1.5644073486328116,-1.244354248046875,9.935760498046877,5.674966951695884,8.82758163824314,13.496957174161585,3.216334751674107,-71.13138834635417,15.986487978980657,-14.19004051607288,5.642233923483923,-3.4965255519942944,-19.13942929498485,-63.32421652421653,-11.930802080040658,30.440800311498485,34.03501362805883,31.25548866325217,1577399223.0,-27.69401022902088,-51.11393359979549,7.0436616
21848,1577399223.88,-3.858375685424804,0.6314706878662109,5.541260032348632,1.2753503477515244,-1.956851091040634,7.596363903957458,7.761203715006509,19.20742581380208,5.983851011149088,4.6466827392578125,-2.587127685546875,10.027313232421877,2.3638097251333843,0.93878769293064,6.081185689786585,1.9345964704241077,-53.06498209635417,27.88834344773065,-14.822717481757657,5.548196691425858,-3.903098290598285,-22.091930840078987,-64.98603988603988,-10.852941455987144,30.392877467277685,33.963129361727624,31.423218618024983,1577399223.0,-27.69401022902088,-51.11393359979549,7.0436616
21849,1577399223.89,-3.930201735229492,-1.6071078643798826,13.67675727355957,-3.946403473049256,-2.1687379379644613,0.8363355165062883,-1.7617333882649735,-8.382157017008463,10.635784836832682,2.8156280517578125,1.746368408203125,9.905242919921877,7.963785311070884,-24.28399062738186,9.041390767911585,10.387965611049108,-50.77616373697917,-19.230797177269345,-13.557363550388102,6.488569012006514,-2.7646946225071147,-22.36034007145118,-65.22344322344321,7.0990130756628185,30.34495462305688,33.939167939617214,31.25548866325217,1577399223.0,-27.69401022902088,-51.11393359979549,7.0436616
21850,1577399223.9,-0.4442441180419911,-1.2455834136962889,9.946591087036133,-5.710930096584413,-6.401686473120713,1.149975933986757,8.461507700602212,-22.44330336710612,9.766689634195965,-0.7854461669921875,-7.988739013671875,8.745574951171875,1.7076817954458845,18.13544296636814,9.712777486661585,5.199977329799108,-69.75809733072917,-6.901695614769345,-14.099658092403626,6.300494547890383,-2.2768073361823347,-40.07534934201602,-63.7990231990232,7.024677860210852,30.249108934615272,33.939167939617214,31.39925719591458,1577399223.0,-27.69401022902088,-51.11393359979549,7.0436616
21851,1577399223.91,-0.396360084838867,1.1426327423095703,5.945880112915038,6.645544671481993,-0.906993663062118,18.23021057754144,-8.8198398824056,-3.6919159647623694,4.147498337809244,-2.1587371826171875,-9.438323974609377,9.905242919921877,6.773599764195884,-0.6939027367568598,12.093148580411585,0.5307878766741072,-67.40824381510417,17.451331728980655,-13.557363550388104,6.676643476122642,-2.276807336182332,-40.61216780476041,35.435571835571835,6.9503426447588845,30.297031778836075,33.84332225117561,31.543025728577,1577399223.0,-27.69401022902088,-51.11393359979549,7.0436616
21852,1577399223.92,-1.871188307495117,4.663306283569336,11.24424838684082,-6.00661400161371,2.048648286400772,6.477074627834413,-2.1591708638509117,-9.29195364786784,19.39257740885416,-0.3582000732421875,-6.829071044921875,9.203338623046877,4.866251131383384,-7.13311172113186,10.445199361661585,-1.9258771623883928,-26.423136393229168,24.68399774460565,-13.195833855711085,6.112420083774249,-2.114178240740737,-33.901937020455534,-19.404599104599097,9.96091887056354,30.48872315571929,34.15482073861084,31.49510288435619,1577399223.0,-27.69401022902088,-51.11393359979549,7.0436616
21853,1577399223.93,0.9300276348876952,-3.82413860168457,7.949826902465819,8.826662383884337,-1.934106175269149,18.737781329494567,-1.8958086812337236,15.789702943929038,23.23646817423502,-3.806686401367188,-5.547332763671875,11.949920654296877,-6.654134610804116,6.5692808569931405,5.470834127286585,-6.488255092075892,54.93672688802084,24.47037469773065,-13.91889324506512,5.7362711555419885,-2.439436431623926,-32.02307240085019,-65.22344322344321,9.923751262837555,30.201186090394465,34.08293647227963,31.447180040135382,1577399223.0,-27.69401022902088,-51.11393359979549,7.0436616
21854,1577399223.94,-0.5783194110107411,-2.7706898712158203,9.632950669555663,-3.060548858791444,0.673179432641006,6.3142689149437885,5.8590104960123695,3.332671706136067,16.305254368082682,-8.292770385742188,-2.098846435546875,9.722137451171877,1.6161290610708845,-17.44805312738186,14.443002096036585,-5.481175013950892,94.33492024739584,1.7042614164806549,-14.099658092403626,6.676643476122644,-3.5778400997150968,-32.02307240085019,-65.22344322344321,6.9503426447588845,30.392877467277685,34.22670500494204,31.39925719591458,1577399223.0,-27.69401022902088,-51.11393359979549,7.0436616
21855,1577399223.95,0.4595670086669921,-1.285087741088867,13.486418241577148,-1.3247526551781634,-0.8938255539312585,11.054788202053162,0.3870626017252597,4.534560939534504,12.503262131754555,-2.8148651123046875,-5.623626708984375,9.981536865234377,4.408487459508384,0.4505064429306404,11.818490377286585,-1.9716535295758928,87.08699544270834,-3.163292294456844,-13.105451432041832,7.146829636412971,-3.659154647435896,-26.654887773406315,-15.368742368742373,7.991035661086419,30.36891604516728,33.91520651750682,31.423218618024983,1577399223.0,-27.69401022902088,-51.11393359979549,7.0436616
21856,1577399223.96,-1.1457452044677725,0.4734533782958984,16.475579014282225,4.596108050388242,5.169490150414443,6.501016644435976,-10.12707398885091,-17.360413242594397,7.212076462809245,-1.3347625732421875,-3.624725341796875,11.125946044921877,-9.339681485804116,-2.0977113305068595,8.949838033536585,-7.647923060825892,62.32198079427084,6.251380557105655,-12.653539313695562,7.052792404354905,-3.5778400997150968,-32.02307240085019,-65.22344322344321,-11.782131649136728,30.5366459999401,33.939167939617214,31.25548866325217,1577399223.0,-27.69401022902088,-51.11393359979549,7.0436616
21857,1577399223.97,-1.1744756243896477,4.591480233764648,13.604931223754882,-0.4197444276390999,-5.585263707007432,7.312651007228944,0.3978365091959628,-7.273641648356119,1.9089197855631508,-2.4028778076171875,0.9223937988281252,7.280731201171875,4.332193514195884,-3.83721328363186,10.414681783536585,-5.542210170200892,51.61031087239584,21.66275751023065,-12.83430416103407,7.240866868471035,-3.415211004273499,-39.53853087927163,-65.22344322344321,-12.079472510944596,30.392877467277685,33.939167939617214,31.30341150747297,1577399223.0,-27.69401022902088,-51.11393359979549,7.0436616
21858,1577399223.98,-0.4011484881591787,-6.359598159790039,8.584290342407225,-0.4005908143578499,-3.533432884253525,11.531234332424257,4.343480845133463,16.972438564046225,-2.2545969014485667,-15.403366088867188,-16.533660888671875,11.644744873046877,-3.602376798304116,-10.85625625238186,6.630502096036585,-2.704075404575893,14.561971028645834,11.103675478980657,-14.099658092403626,7.052792404354905,-2.9273237179487124,-39.53853087927163,-65.22344322344321,-12.079472510944596,30.201186090394465,34.08293647227963,31.5909485727978,1577399223.0,-27.69401022902088,-51.11393359979549,7.0436616
21859,1577399223.99,1.0617087261962894,0.8493430389404296,10.259034403686522,-2.7852156678734747,-2.070575669898056,10.434689972072691,-6.331067256673177,-18.031986808268226,13.87873098551432,-5.241012573242188,-2.053070068359375,9.096527099609377,-0.7947596108041156,-5.42412734613186,13.054452291349085,-7.403782435825892,6.078084309895834,17.497108096168155,-14.09965809240363,5.924345619658121,-3.252581908831901,-40.61216780476041,-63.32421652421652,-1.2265310549574524,30.512684577829692,34.15482073861084,31.423218618024983,1577399223.0,-27.69401022902088,-51.11393359979549,7.0436616
21860,1577399224.0,0.889326206665039,-6.848015298461914,6.465421873168944,0.2458436338843365,-1.213451475562118,15.431388836818789,5.255671677652994,34.38786144002278,21.28040541788737,-6.431198120117188,-0.3288269042968749,11.248016357421877,-3.388753751429116,0.4047300757431402,9.041390767911585,-7.403782435825892,22.069295247395832,16.413734072730655,-13.91889324506512,5.360122227309728,-3.089952813390304,-39.53853087927163,-60.47537647537647,7.0990130756628185,30.392877467277685,33.939167939617214,31.20756581903136,1577399224.0,-27.69401772978157,-51.11401248850642,7.785521
21861,1577399224.01,-0.2886210101318349,-0.8385691314697266,9.28339722717285,6.530622991794492,4.965983009301162,14.9764905213891,-6.784768471272787,-8.858603147379558,9.939072153727214,-1.4568328857421875,4.492950439453125,10.637664794921877,-3.693929532679116,7.1491148413681405,13.130746236661585,-4.321507045200892,38.91499837239584,-5.436851864769345,-13.91889324506512,6.864717940238775,-3.089952813390304,-22.8971585341956,-64.74863654863654,7.173348291114784,30.392877467277685,33.891245095396414,31.25548866325217,1577399224.0,-27.69401772978157,-51.11401248850642,7.785521
21862,1577399224.02,-1.3169306231689446,-0.6350619903564453,15.252141965942384,-8.059641925197694,-3.928476158179306,7.49461033340082,8.602765598551432,2.5641329732259104,13.614171702067056,-4.127120971679688,3.775787353515624,9.233856201171877,0.7921544516958843,-1.85357070550686,11.208138814786585,-2.124241420200893,50.96944173177084,5.457923525855655,-14.732335058088406,7.146829636412971,-3.1712673611111057,-23.433976996939982,-65.22344322344321,6.9503426447588845,30.22514751250487,34.03501362805883,31.39925719591458,1577399224.0,-27.69401772978157,-51.11401248850642,7.785521
21863,1577399224.03,-0.8297105853271475,-7.113771682739257,3.6905421490478494,1.840381939548399,-1.6180715561285248,18.604903137355898,-3.1862833760579425,-1.6724068644205732,11.634166929117836,-12.961959838867188,1.746368408203125,11.553192138671877,1.005777498570884,-1.57891250238186,9.667001119474085,-1.4986310686383928,45.705159505208336,0.4835582914806551,-14.099658092403626,6.676643476122644,-3.903098290598285,-35.24398317731651,-63.32421652421652,7.842365230182485,30.5366459999401,33.98709078383802,31.375295773804176,1577399224.0,-27.69401772978157,-51.11401248850642,7.785521
21864,1577399224.04,-0.0180762225341787,3.755903854370117,17.1938395123291,-10.255124847560976,0.6324780044183497,6.125126983791445,-1.6396291035970048,-26.31712165323893,7.5017748636881505,0.1605987548828124,0.2510070800781251,7.860565185546875,4.942545076695884,1.3202574194931402,9.193978658536585,-4.626682826450892,10.472615559895834,22.02896844773065,-14.099658092403626,6.676643476122644,-3.903098290598285,-27.728524698895075,-65.22344322344321,6.9503426447588845,30.249108934615272,34.08293647227963,31.30341150747297,1577399224.0,-27.69401772978157,-51.11401248850642,7.785521
21865,1577399224.05,0.142335288696289,0.2579752288818359,13.86829340637207,7.69420499863043,-4.855032200659775,23.882920697170352,-3.880601857503255,16.584577895100914,19.48235997111002,-0.5718231201171875,-1.396942138671875,9.233856201171877,1.6161290610708845,8.55292343511814,6.050668111661585,-6.488255092075892,25.273640950520832,27.88834344773065,-13.195833855711085,5.7362711555419885,-3.089952813390304,-40.61216780476041,-62.374603174603166,7.545024368374619,30.392877467277685,34.03501362805883,31.20756581903136,1577399224.0,-27.69401772978157,-51.11401248850642,7.785521
21866,1577399224.06,0.1267729779052739,-2.021304751586914,10.370364780883788,2.728630755466368,2.224622108422256,15.479272870021912,1.8582995218912752,7.479428981526692,16.93971780802409,0.7862091064453125,3.089141845703125,11.568450927734377,-1.1609705483041155,-13.20610976800686,12.856088033536585,-3.711155482700893,49.47408040364584,15.284583682105657,-14.009275668734372,5.642233923483925,-2.8460091702279167,-38.46489395378285,-61.42498982498982,6.9503426447588845,30.46476173360889,34.03501362805883,31.20756581903136,1577399224.0,-27.69401772978157,-51.11401248850642,7.785521
21867,1577399224.07,-0.7267599139404287,-1.599925259399414,15.288054990844726,-0.209054681545351,-3.248522886694931,17.928541168361757,-1.5857595662434898,11.425073317464191,10.203631437174476,-3.623580932617188,4.615020751953125,9.569549560546877,7.628091951695884,7.8205015601181405,8.476815572599085,-2.2768293108258923,60.201009114583336,2.772376650855656,-13.195833855711085,7.6170157967033,-3.415211004273499,-21.555112377334595,-58.81355311355311,-3.71676077259834,30.201186090394465,34.01105220594842,31.327372929583376,1577399224.0,-27.69401772978157,-51.11401248850642,7.785521
21868,1577399224.08,1.2891578839111328,-6.223128665161132,7.360853294067382,-0.1875068666039436,1.6883209365472558,7.810644952541444,-2.0466433858235678,-10.070069187418616,10.161732908121744,-7.5603485107421875,9.772491455078123,10.057830810546877,-7.203451017054116,7.9425718726181405,11.726937642911585,4.894801548549108,13.737996419270834,-37.84651983351935,-13.195833855711085,7.6170157967033,-3.415211004273499,-21.82352160870679,-60.95018315018314,4.645950965747916,30.249108934615272,33.939167939617214,31.447180040135382,1577399224.0,-27.69401772978157,-51.11401248850642,7.785521
21869,1577399224.09,0.391332261352539,5.501276864624023,17.0789178326416,6.023052239841367,0.2206753188714747,21.57012189345941,0.1584163431803378,-21.523929929606123,4.726895139567056,11.696243286132812,11.817169189453123,9.386444091796877,11.839517732945884,8.15619491949314,6.050668111661585,3.857203892299107,-0.5747477213541667,-4.795982724144345,-13.91889324506512,6.488569012006514,-2.7646946225071147,-21.82352160870679,-60.95018315018314,4.645950965747916,30.34495462305688,33.939167939617214,31.447180040135382,1577399224.0,-27.69401772978157,-51.11401248850642,7.785521
21870,1577399224.1,0.3482366314697265,-0.1298854400634765,13.030322825317382,-2.320740545803164,1.166384974633194,7.148648193508241,-8.524155977376301,-2.5666411844889327,7.297070621744791,-3.5015106201171875,-2.434539794921875,8.318328857421875,1.4330235923208845,0.26740097418064,10.399422994474085,-0.1711164202008928,-31.27543131510417,26.286170596168155,-14.822717481757657,7.052792404354905,-2.2768073361823347,-21.82352160870681,41.608058608058606,-10.81577384826116,30.392877467277685,34.01105220594842,31.375295773804176,1577399224.0,-27.69401772978157,-51.11401248850642,7.785521
21871,1577399224.11,-0.1868674395751952,-2.5899276458740235,9.365997184448242,-4.997458001857851,3.2565230239496,7.597561004787538,3.821544883219401,-21.51195892130534,10.848868784586587,-1.868820190429688,11.542510986328123,10.256195068359377,11.107095857945884,20.45477890386814,8.980355611661585,-3.497532435825893,-26.148478190104168,40.003821963355655,-14.82271748175766,6.864717940238775,-3.4152110042734987,-40.61216780476041,-65.22344322344321,6.9503426447588845,30.32099320094648,33.939167939617214,31.111720130589752,1577399224.0,-27.69401772978157,-51.11401248850642,7.785521
21872,1577399224.12,-1.0619481463623035,1.7088614349365234,13.806044163208009,2.9177726866187115,-4.742504722632431,10.293432074123476,-6.186218056233724,29.070339552815756,10.877599204508464,9.621047973632812,7.514190673828125,9.294891357421877,4.728922029820884,8.36981796636814,11.452279439786585,1.7514910016741072,-1.0630289713541667,14.613196963355657,-14.280422939742136,5.360122227309728,-2.7646946225071147,-39.00171241652724,-63.7990231990232,7.024677860210852,30.249108934615272,33.84332225117561,31.30341150747297,1577399224.0,-27.69401772978157,-51.11401248850642,7.785521
21873,1577399224.13,-3.2957382952880856,-6.752247232055663,3.9969999615478495,-3.364612469631288,-1.373862986792587,16.99240831924066,0.3355872660319003,9.660546693929035,16.353138401285808,-5.912399291992188,1.715850830078125,11.797332763671877,8.726724764195884,2.6935484351181405,9.010873189786585,6.268092564174108,-2.6804606119791665,-1.5000842866443451,-14.280422939742136,5.360122227309728,-2.7646946225071147,-36.31762010280528,-65.22344322344321,7.396353937470683,30.48872315571929,34.17878216072124,31.30341150747297,1577399224.0,-27.69401772978157,-51.11401248850642,7.785521
21874,1577399224.14,-0.81534537536621,-0.2328361114501953,7.1190389263916005,-2.184271051174256,0.1033594375238185,2.22736668105707,-1.5055538106282549,-1.4677026224772134,12.879151792399089,-1.6094207763671875,7.300567626953125,8.409881591796875,1.6466466391958845,9.07172226324314,12.489877096036585,3.033229282924107,0.1271565755208333,3.0775524321056547,-13.376598703049591,7.428941332587169,-4.553614672364669,-36.31762010280528,-65.22344322344321,7.396353937470683,30.249108934615272,33.939167939617214,31.30341150747297,1577399224.0,-27.69401772978157,-51.11401248850642,7.785521
21875,1577399224.15,-0.5926846209716795,0.5895721588134766,12.172001530151366,-0.2844720338402722,0.0028029677972565,11.476167694240662,-0.9046091939290368,-3.4668610087076805,11.42228008219401,2.006912231445312,9.558868408203123,10.118865966796877,-1.0389002358041155,8.32404159918064,8.400521627286585,3.780909946986608,-9.882609049479166,-4.795982724144345,-13.647745974057356,6.206457315832318,-3.659154647435893,-23.433976996939982,22.140984940984936,7.173348291114784,30.201186090394465,33.98709078383802,31.375295773804176,1577399224.0,-27.69401772978157,-51.11401248850642,7.785521
21876,1577399224.16,-1.3372813372802732,0.5835866546630859,9.611402854614257,-0.3503125794945686,-1.2373934921636804,7.906413018947695,-5.039395461018881,-14.918327549235022,11.97653776652018,3.2428741455078125,7.147979736328125,10.759735107421877,4.057535311070884,16.70111679449314,13.008675924161585,0.8664812360491072,-1.8870035807291667,24.01261102585565,-14.64195263441915,6.488569012006514,-2.7646946225071147,-22.8971585341956,32.1119251119251,7.619359583826587,30.48872315571929,33.939167939617214,31.20756581903136,1577399224.0,-27.69401772978157,-51.11401248850642,7.785521
21877,1577399224.17,-1.2989741107177732,-1.1617863555908203,9.9920809185791,3.583360748142149,-6.0904402573004,8.308638897853944,9.409611558024087,-10.79551229044596,10.5855066019694,-1.6094207763671875,4.065704345703125,10.912322998046877,7.750162264195884,10.50604843511814,10.323129049161585,-1.6054425920758928,3.545125325520833,43.208167666480655,-14.64195263441915,6.488569012006514,-2.7646946225071147,-32.02307240085019,21.19137159137158,6.9503426447588845,30.48872315571929,34.08293647227963,31.20756581903136,1577399224.0,-27.69401772978157,-51.11401248850642,7.785521
21878,1577399224.18,-2.140535994262695,-4.615422250366211,7.411131528930663,1.5674429502905864,-2.250140794409774,18.266123602443788,-7.531759389241536,16.615702516682944,8.823374180094401,1.5949249267578125,4.233551025390625,11.171722412109377,-3.266683438929116,7.1796324194931405,9.255013814786585,3.246852329799107,9.831746419270834,15.467689150855657,-14.280422939742136,6.488569012006514,-3.252581908831905,-32.02307240085019,21.19137159137158,6.9503426447588845,30.392877467277685,34.17878216072124,31.447180040135382,1577399224.0,-27.69401772978157,-51.11401248850642,7.785521
21879,1577399224.19,-2.005263600463867,2.530072604370117,11.1029904888916,-2.247717395168397,-1.1212747116461033,7.524537854152772,1.9600530924479165,6.307467268880209,13.37594863688151,13.222122192382812,5.194854736328125,8.592987060546875,12.327798982945884,3.42597031011814,9.743295064786585,8.724757603236608,-18.305460611979168,4.954383486793155,-13.557363550388102,6.488569012006514,-2.7646946225071147,-32.0230724008502,-64.74863654863654,-4.7946213966518565,30.249108934615272,33.93916793961722,31.35133435169377,1577399224.0,-27.69401772978157,-51.11401248850642,7.785521
21880,1577399224.2,-3.8080974505615233,-1.963843911743164,8.589078745727537,1.055083795017149,1.228634217797256,6.936761346584413,-9.619503236897788,-8.559327939860026,10.628602231852213,7.759475708007812,0.9223937988281252,12.529754638671877,-0.5811365639291157,-2.6165101586318595,12.001595846036585,11.517116001674108,-18.488566080729168,-10.167076474144343,-15.003482329096164,6.488569012006514,-3.415211004273499,-40.61216780476041,-64.27382987382987,2.4902297176408825,30.34495462305688,34.03501362805883,31.39925719591458,1577399224.0,-27.69401772978157,-51.11401248850642,7.785521
21881,1577399224.21,-1.7562666278076169,-2.0835539947509765,11.605772837524412,0.0950089292944928,-3.114447593726181,2.337499957424257,4.187857737223308,-20.43456817423503,22.317094736735022,-3.4404754638671875,-9.453582763671877,10.454559326171877,6.315836092320884,3.731146091368141,6.233773580411585,5.108424595424108,8.519490559895834,29.07852899460565,-15.003482329096164,6.488569012006514,-3.415211004273499,-32.02307240085019,-65.22344322344321,-12.079472510944596,30.249108934615272,33.939167939617214,31.39925719591458,1577399224.0,-27.69401772978157,-51.11401248850642,7.785521
21882,1577399224.22,-3.363973042602539,-4.601057040405273,13.148835807495116,-2.4931230653344123,-6.238880760230088,14.380334308010193,7.702545774332681,44.16578102010091,12.362004233805338,9.636306762695312,-2.266693115234375,12.743377685546877,18.73649038919589,-11.46660781488186,9.255013814786585,7.397242954799108,22.893269856770832,29.26163446335565,-14.913099905426913,5.642233923483923,-3.1712673611111057,-39.00171241652724,-64.74863654863654,7.024677860210852,30.392877467277685,33.939167939617214,31.30341150747297,1577399224.0,-27.69401772978157,-51.11401248850642,7.785521
21883,1577399224.23,-0.1234210955810537,2.417545126342773,17.337491611938475,-2.902531549221131,1.0873763198480373,9.940287329250427,-4.27325092976888,-15.303794016520182,-1.6919595113118489,14.107131958007812,-3.716278076171875,11.370086669921877,17.256387850133386,-1.3042542992568595,10.750375142911585,13.180324009486608,-57.139078776041664,-7.466270810081844,-15.003482329096164,6.864717940238775,-4.065727386039884,-22.091930840079,-62.13719983719983,6.987510252484869,30.201186090394465,34.03501362805883,31.375295773804176,1577399224.0,-27.69401772978157,-51.11401248850642,7.785521
21884,1577399224.24,-1.4833276385498044,1.0959458099365234,8.1150268170166,-2.098079791408631,-0.4018171127691492,10.396382745510191,-8.386489381917318,-7.146748960367838,6.613526047770182,14.046096801757812,-8.843231201171875,11.827850341796877,7.567056795445884,-7.2856996117568595,6.874642721036585,13.897487095424108,-85.01688639322917,15.955970400855657,-13.195833855711085,7.240866868471035,-3.7404691951566944,-23.433976996939982,-65.22344322344321,6.9503426447588845,30.249108934615272,34.08293647227963,31.30341150747297,1577399224.0,-27.69401772978157,-51.11401248850642,7.785521
21885,1577399224.25,-3.2957382952880856,-2.0644003814697265,5.160581968383788,3.4851984800757427,0.9556952285394434,6.141886395412538,3.191869846598307,2.851437172444661,15.031539084879556,1.0150909423828125,-6.279754638671875,10.363006591796877,5.369791170445884,-11.43609023675686,2.754769674161585,11.944362095424108,-64.90580240885417,23.67691766648065,-13.195833855711085,7.240866868471035,-3.7404691951566944,-23.433976996939982,-65.22344322344321,6.9503426447588845,30.249108934615272,34.08293647227963,31.30341150747297,1577399224.0,-27.69401772978157,-51.11401248850642,7.785521
21886,1577399224.26,-2.3129185137939445,1.0851719024658202,15.219820243530272,-4.698182794338319,-2.8151723862066493,6.9726743714867565,1.3626997782389323,-5.336732505289714,20.380185593668617,10.307693481445312,-0.618743896484375,10.469818115234377,8.513101717320884,-11.74126601800686,6.065926900724085,5.199977329799108,-23.966471354166668,22.18155633835565,-13.105451432041832,6.394531779948446,-4.472300124643871,-32.02307240085019,-65.22344322344321,7.545024368374619,30.297031778836075,34.08293647227963,31.543025728576996,1577399224.0,-27.69401772978157,-51.11401248850642,7.785521
21887,1577399224.27,-2.515228554077148,-4.583100527954102,11.732665525512694,-1.667123492580506,-4.5749106064214935,16.25260000625238,1.8343575052897128,14.853570094807944,14.715504465738931,6.0504913330078125,-6.707000732421875,11.125946044921877,3.874429842320884,-5.72930312738186,9.926400533536585,8.648463657924108,6.078084309895833,5.427405947730655,-14.64195263441915,5.7362711555419885,-5.04150195868945,-28.80216162438384,-65.22344322344321,-10.592768201905258,30.392877467277685,33.939167939617214,31.20756581903136,1577399224.0,-27.69401772978157,-51.11401248850642,7.785521
21888,1577399224.28,0.7145494854736327,-3.4674025543212887,8.337687571411132,2.3623179014624616,-1.2876717270269615,20.918899041896918,-0.0259371846516923,-1.2594070780436195,12.644520029703775,6.1115264892578125,-5.883026123046875,12.895965576171877,19.10270132669589,5.1349546851181405,10.963998189786585,10.296412876674108,31.468709309895832,7.350013369605655,-14.822717481757657,4.043600978496815,-3.903098290598285,-28.80216162438384,-65.22344322344321,-10.592768201905258,30.201186090394465,34.08293647227963,31.447180040135382,1577399224.0,-27.69401772978157,-51.11401248850642,7.785521
21889,1577399224.29,-0.2455253802490224,1.6849194183349607,13.279319797973631,3.4349202452124614,1.6787441299066308,3.831481793361757,0.3116452494303379,-0.6800102762858071,20.044997361246743,10.506057739257812,-5.638885498046875,10.271453857421877,1.9213048423208845,-1.1211488305068598,7.942757955411585,7.855006626674108,71.47725423177083,7.197425478980655,-14.822717481757657,4.043600978496815,-3.903098290598285,-31.4862539381058,-64.74863654863654,6.727336998402985,30.249108934615272,34.03501362805883,31.20756581903136,1577399224.0,-27.69401772978157,-51.11401248850642,7.785521
21890,1577399224.3,0.0824802471923829,-3.180098355102539,7.906731272583007,-0.0151243470726941,-0.97642551120665,13.936209900051209,-2.7457502705891925,-11.475465561930337,5.959908994547526,5.2875518798828125,-4.662322998046875,11.034393310546877,10.023721834508384,-4.72222304925686,8.370004049161585,7.137843540736608,51.137288411458336,2.757117861793155,-14.370805363411389,5.454159459367794,-3.9844128383190847,-30.949435475361405,-11.095482295482295,-2.861905794900723,30.32099320094648,33.96312936172762,31.39925719591458,1577399224.0,-27.69401772978157,-51.11401248850642,7.785521
21891,1577399224.31,-1.14095680114746,3.415927218627929,11.634503257446289,-0.9033731629906624,-1.943682981909774,19.57814611220941,3.627614548746745,10.567949123128258,-4.536271083577473,17.341995239257812,3.516387939453125,9.813690185546877,12.236246248570884,3.5175230444931405,10.902963033536585,11.822291782924108,-8.356730143229166,3.2606579008556547,-13.91889324506512,5.360122227309728,-3.089952813390304,-22.8971585341956,-62.84940984940984,-12.005137295492622,30.392877467277685,33.939167939617214,31.30341150747297,1577399224.0,-27.69401772978157,-51.11401248850642,7.785521
21892,1577399224.32,0.5996278057861327,-0.2160766998291015,12.280937705688476,4.0813546934546485,2.080970008812881,11.763471893459412,2.2126413675944003,-0.4310133036295572,0.7190015604654946,2.7851104736328125,-5.852508544921875,9.844207763671877,16.020425936070886,-0.6633851586318598,8.827767721036585,9.899684361049108,-41.34623209635416,17.207191103980655,-14.280422939742136,6.112420083774249,-2.439436431623926,-23.433976996939982,39.234025234025225,-11.782131649136728,30.5366459999401,34.08293647227963,31.20756581903136,1577399224.0,-27.69401772978157,-51.11401248850642,7.785521
21893,1577399224.33,-2.278202589721679,-1.2312182037353514,10.944973179321288,-0.7309906434594123,-1.6228599594488369,2.6008621400414444,-6.602809145100911,-4.692692258707682,11.246306260172526,8.537673950195312,-2.999114990234375,11.476898193359377,23.06998648294589,-3.1353089867568595,11.055550924161585,12.280055454799108,-73.42020670572917,10.737464541480657,-14.280422939742136,6.112420083774249,-2.439436431623926,-92.14674022822172,35.435571835571835,7.247683506566751,30.32099320094648,33.939167939617214,31.20756581903136,1577399224.0,-27.69401772978157,-51.11401248850642,7.785521
21894,1577399224.34,-0.7147889056396475,-2.1027076080322264,7.645763291625975,-1.0518136659203503,-2.8905897385015717,12.72234965835199,-0.903412093098958,-3.5757971842447915,13.787751322428385,2.9071807861328125,-11.650848388671877,13.140106201171877,7.918008943883384,-2.0519349633193595,7.835946431974085,5.199977329799108,-40.78165690104167,22.28836786179315,-14.099658092403626,5.924345619658119,-2.9273237179487124,-31.754663169478007,40.42104192104191,8.697220207880104,30.48872315571929,33.963129361727624,31.447180040135382,1577399224.0,-27.69401772978157,-51.11401248850642,7.785521
21895,1577399224.35,-1.0188525164794913,-2.6677391998291013,12.134891404418944,-1.3846076966820686,0.9628778335199122,11.988526849514098,1.750560447184244,21.53339272664388,21.682631296793616,10.078811645507812,-1.915740966796875,12.834930419921877,0.2123204673208842,-5.02739883050686,9.316048971036585,11.974879673549108,20.360310872395832,9.394691103980657,-13.376598703049591,7.052792404354905,-3.903098290598285,-40.61216780476041,43.03247863247862,7.842365230182486,30.392877467277685,33.939167939617214,31.39925719591458,1577399224.0,-27.69401772978157,-51.11401248850642,7.785521
21896,1577399224.36,-0.2790442034912099,-0.4076128326416015,9.656892686157226,-8.651009735256288,-2.908546250952744,14.85438623672113,-8.597179128011067,-5.983166953531901,15.211104209391276,12.215042114257812,1.258087158203125,12.682342529296877,23.92447867044589,-19.70635390863186,9.834847799161585,11.059352329799108,24.693806966145832,-25.486900692894345,-14.461187787080643,6.676643476122644,-5.204131054131048,-40.61216780476041,46.83093203093203,7.545024368374619,30.34495462305688,34.08293647227963,31.447180040135382,1577399224.0,-27.69401772978157,-51.11401248850642,7.785521
21897,1577399224.37,3.0046033734130857,2.703652224731445,11.834419096069334,4.021499651950743,3.7353633559808497,8.239207049709414,-3.382607912190754,-36.96174223429362,2.9623685160319004,5.6232452392578125,0.601959228515625,10.652923583984377,5.827554842320884,14.25971054449314,6.691537252286585,3.094264439174107,3.148396809895833,5.274818057105655,-14.461187787080643,6.676643476122644,-5.204131054131048,-32.02307240085019,22.140984940984943,9.477739970125754,30.22514751250487,34.03501362805883,31.39925719591458,1577399224.0,-27.69401772978157,-51.11401248850642,7.785521
21898,1577399224.38,1.5908272930908205,-0.441131655883789,7.8133574078369135,1.6572255125464463,-1.870659831275009,5.976686480861756,0.4768451639811199,16.446911299641926,3.030603263346354,10.078811645507812,6.079864501953125,11.644744873046877,18.98063101419589,-7.54509902581936,11.177621236661585,8.846827915736608,-18.152872721354164,18.09220086960565,-14.099658092403626,6.676643476122644,-4.553614672364669,-30.681026243989223,-21.3038258038258,8.697220207880102,30.34495462305688,33.891245095396414,31.423218618024983,1577399224.0,-27.69401772978157,-51.11401248850642,7.785521
21899,1577399224.39,-0.9829394915771474,-4.32213254699707,10.480498057250976,1.2370431211890238,-7.725679991187119,15.780942279201598,5.835068479410807,-12.816218491617835,1.815545920817057,0.2216339111328124,2.997589111328125,11.186981201171877,6.010660311070884,5.3790953101181405,7.607064596036585,5.657741001674108,-51.14237467447917,11.042640322730657,-14.099658092403626,5.548196691425858,-3.903098290598285,-36.31762010280528,-62.374603174603166,-9.998086478289524,30.249108934615272,33.747476562734,31.30341150747297,1577399224.0,-27.69401772978157,-51.11401248850642,7.785521
21900,1577399224.4,-0.5184643695068349,0.6194996795654296,5.153399363403319,5.022275945896055,-0.7681299667730555,6.120338580471132,-7.680199892171224,-3.883452097574869,7.3892473856608065,9.407424926757812,2.021026611328125,11.125946044921877,8.970865389195884,-2.0977113305068595,12.306771627286585,5.474635532924108,-62.67801920572917,20.10636102585565,-13.015069008372578,6.676643476122644,-3.252581908831901,-35.243983177316515,27.838665038665027,-11.782131649136728,30.392877467277685,33.939167939617214,31.25548866325217,1577399224.0,-27.69401772978157,-51.11401248850642,7.785521
21901,1577399224.41,-1.7442956195068358,-3.2543186065673826,6.984963633422851,-3.3562327638207408,-2.456042137183213,7.413207476955506,3.098495981852213,1.5035016377766923,11.820914658610024,2.9682159423828125,-1.244354248046875,12.346649169921877,-0.4438074623666158,0.55731796636814,5.913339010099085,5.825587681361608,-29.871622721354164,14.887855166480657,-13.557363550388102,7.240866868471035,-4.390985576923072,-36.049210871433104,-13.23211233211234,-11.893634472314671,30.392877467277685,33.963129361727624,31.423218618024983,1577399224.0,-27.69401772978157,-51.11401248850642,7.785521
21902,1577399224.42,-1.545576881713867,1.8094179046630856,10.153689530639648,-2.1818768495141,-4.115223887671493,19.97079518447504,0.8766768412272129,-9.186608774820964,18.127241831461586,6.7523956298828125,2.570343017578125,12.133026123046877,11.656412264195884,-1.85357070550686,10.536752096036585,5.108424595424108,-5.884806315104167,4.267737978980655,-13.557363550388102,7.240866868471035,-4.390985576923072,-39.53853087927163,-57.62653642653642,4.720286181199885,30.416838889388085,34.08293647227963,31.25548866325217,1577399224.0,-27.69401772978157,-51.11401248850642,7.785521
21903,1577399224.43,-1.392347975463867,-3.043628860473633,14.490785838012696,-7.4299668885766,-0.638843077124618,8.758748809963318,-3.818352614339192,2.5258257466634104,6.03412924601237,4.9823760986328125,4.645538330078125,12.804412841796877,8.635172029820884,-2.0061585961318595,12.947640767911585,4.803248814174108,-16.169230143229168,-7.512047177269345,-13.557363550388102,6.488569012006514,-2.114178240740737,-39.53853087927163,-57.62653642653642,4.720286181199885,30.201186090394465,33.84332225117561,31.111720130589752,1577399224.0,-27.69401772978157,-51.11401248850642,7.785521
21904,1577399224.44,-0.7123947039794912,0.6817489227294922,7.626609678344725,2.1827527769507427,2.1719496718988185,15.857556732326598,4.757677732340495,1.1443713887532545,4.554512620035807,0.5878448486328125,6.690216064453125,11.431121826171877,10.161050936070884,9.89569687261814,8.339486471036585,6.146022251674108,-22.699991861979168,12.965247744605657,-15.003482329096164,6.488569012006514,-2.439436431623926,-27.728524698895075,-64.27382987382987,-7.619359583826591,30.392877467277685,33.939167939617214,31.447180040135382,1577399224.0,-27.69401772978157,-51.11401248850642,7.785521
21905,1577399224.45,-0.4226963031005849,-0.1657984649658203,7.286633042602538,-1.416929419094179,0.3715100234613189,5.111182580715273,-0.6592035237630209,-10.35617628580729,9.607475223795571,-5.790328979492188,-7.439422607421875,11.278533935546877,3.828653475133384,-2.37236953363186,9.834847799161585,3.429957798549107,-35.776774088541664,20.18265497116815,-13.376598703049591,5.924345619658119,-3.252581908831901,-27.728524698895075,-64.74863654863654,-0.1858380386299192,30.392877467277685,34.058975050169224,31.351334351693776,1577399224.0,-27.69401772978157,-51.11401248850642,7.785521
21906,1577399224.46,-1.1876437335205077,-2.2260089935302734,9.543168107299804,-1.1667353456078495,-2.6427898666754,12.24231222549066,4.836686387125651,-0.6632508646647134,4.853787827555338,1.1676788330078125,-0.5729675292968749,11.919403076171877,-2.412191251429116,4.3109800757431405,8.705697408536585,0.7444109235491072,-35.273234049479164,20.19791376023065,-14.099658092403626,4.419749906729075,-3.5778400997150968,-38.46489395378285,-65.22344322344321,7.545024368374619,30.46476173360889,34.22670500494204,31.447180040135382,1577399224.0,-27.69401772978157,-51.11401248850642,7.785521
21907,1577399224.47,-0.3748122698974599,0.1310825408935546,7.322546067504882,-0.1539880433617561,-4.5198439682379,9.098725445705506,0.4624799540201816,13.26621439412435,17.523903013102213,1.0761260986328125,-2.342987060546875,11.034393310546877,10.130533357945884,-6.24810195550686,11.360726705411585,5.840846470424108,-23.188273111979168,14.521644228980657,-15.36501202377318,4.2316754426129455,-3.7404691951566944,-38.46489395378285,-65.22344322344321,7.545024368374619,30.249108934615272,34.03501362805883,31.447180040135382,1577399224.0,-27.69401772978157,-51.11401248850642,7.785521
21908,1577399224.48,-3.1209615740966794,1.218050094604492,11.58901342590332,-7.678963861232851,1.939712110863662,2.797186676174257,2.887806235758464,-2.758177317301432,19.633194675699865,0.4352569580078124,-1.793670654296875,11.522674560546877,-2.930990079554116,-6.03447890863186,9.651742330411585,2.514430454799107,-2.7720133463541665,10.584876650855657,-14.099658092403626,7.052792404354905,-3.5778400997150968,-37.92807549103848,-65.22344322344321,7.545024368374619,30.48872315571929,34.03501362805883,31.25548866325217,1577399224.0,-27.69401772978157,-51.11401248850642,7.785521
21909,1577399224.49,-0.9542090716552724,1.0480617767333984,8.579501939086914,2.398230926364805,3.472001173363662,10.906347699123474,-4.194242274983724,-9.500249192301432,19.171113755289703,4.0668487548828125,0.769805908203125,10.866546630859377,-1.1304529701791155,11.81830429449314,10.323129049161585,-1.9106183733258928,14.378865559895834,11.805579775855657,-14.461187787080643,5.54819669142586,-2.7646946225071183,-27.728524698895075,-63.32421652421653,7.545024368374619,30.48872315571929,34.03501362805883,31.30341150747297,1577399224.0,-27.69401772978157,-51.11401248850642,7.785521
21910,1577399224.5,-1.820910072631836,-1.7052701324462889,15.417341880493163,0.5331478331030866,-1.5462455063238374,10.275475561672302,-7.518591280110676,-6.5242565287272125,11.330103318277992,-9.238815307617188,-9.819793701171877,11.492156982421877,1.5093175376333845,-2.2350404320693595,11.803231588224085,-0.6593976702008928,42.71443684895834,0.6666637602306547,-14.461187787080643,4.043600978496815,-2.9273237179487124,-34.975573945944326,-63.08681318681317,-2.2300564635590043,30.48872315571929,34.01105220594842,31.423218618024983,1577399224.0,-27.69401772978157,-51.11401248850642,7.785521
21911,1577399224.51,0.8007407452392578,-6.192004043579101,11.23706578186035,3.011146551364805,-3.6651139755621194,9.304626788478943,3.7856318583170574,7.426756545003254,2.6391512919108067,-3.0742645263671875,-2.556610107421875,10.149383544921877,4.301675936070884,9.10223984136814,9.804330221036585,6.207057407924108,11.052449544270834,19.95377313523065,-12.83430416103407,5.360122227309728,-4.065727386039884,-31.4862539381058,-60.95018315018314,-11.70779643368476,30.48872315571929,33.939167939617214,31.447180040135382,1577399224.0,-27.69401772978157,-51.11401248850642,7.785521
