,timestamp,acc_x_dashboard,acc_y_dashboard,acc_z_dashboard,acc_x_above_suspension,acc_y_above_suspension,acc_z_above_suspension,acc_x_below_suspension,acc_y_below_suspension,acc_z_below_suspension,gyro_x_dashboard,gyro_y_dashboard,gyro_z_dashboard,gyro_x_above_suspension,gyro_y_above_suspension,gyro_z_above_suspension,gyro_x_below_suspension,gyro_y_below_suspension,gyro_z_below_suspension,mag_x_dashboard,mag_y_dashboard,mag_z_dashboard,mag_x_above_suspension,mag_y_above_suspension,mag_z_above_suspension,temp_dashboard,temp_above_suspension,temp_below_suspension,timestamp_gps,latitude,longitude,speed
10069,1577397158.42,-1.0740622228110708,0.436854210234851,7.82541892863948,-2.205994051602992,-0.385875233422256,9.946156043075934,-0.735954232267054,-14.501153899104423,6.57506171041349,3.976775378715701,0.9207376619664634,-5.244371367663872,2.344271031821646,-3.5251524390243905,-6.38580322265625,-9.130338343178352,-2.4503382240853657,0.5541545588795732,-15.243023158040518,7.486258489774114,-2.169868456196577,24.969743880458168,18.26818681318681,-15.407105654761905,29.4823434270824,37.91676400994399,39.88160062299697,1577397157.999,-27.71539429786443,-51.10259552038397,4.975412
10070,1577397158.43,-0.2648220616782584,-1.2989419933784292,10.377637898366045,-1.7678551477943978,-0.8503503554925684,10.360352930282966,3.494600101229039,-9.89949830828411,7.784133548792396,-9.1763007931593,-10.950600228658535,-6.465074492663872,0.9709800161966464,-3.8913633765243913,-5.16510009765625,-2.721646936928354,2.5240270102896343,-22.089888409870422,-15.621731807929724,6.025525125915753,-1.8598872481684976,24.969743880458168,18.26818681318681,-17.026270604395606,29.43442058286159,37.91676400994399,39.68990924611376,1577397157.999,-27.71539429786443,-51.10259552038397,4.975412
10071,1577397158.44,1.157333724454554,-0.6309597301948354,10.657759492604324,1.6343054112876334,-2.7872594985589747,11.18156409971656,2.070050113436071,5.224673578922922,15.139121048792395,5.746794909965701,-7.898842416158536,-6.739732695788872,2.008577672446646,-0.8090879858993902,-5.47027587890625,6.097933141196647,-13.741842130335366,-37.592818097370426,-14.86431450815131,6.025525125915753,-1.2399248321123315,-3.060807314378743,18.26818681318681,-17.026270604395606,29.43442058286159,37.9646868541648,39.73783209033456,1577397157.999,-27.71539429786443,-51.10259552038397,4.975412
10072,1577397158.45,-0.4120654637778678,-1.1301507763374137,9.949075801198074,0.5485349584067745,-0.3978462417230372,11.32282199766578,-1.36443216805807,8.709434095280344,12.6216180031381,-0.8755195431592986,-2.9397359708460367,-5.229112578601372,0.1622641958841462,-2.594366306211891,-6.56890869140625,-8.672574671303353,-54.95583138814786,-12.278487042682924,-15.432377482985125,5.477750114468867,-2.9448214762667897,-3.2219024361881505,19.79053571428572,-16.823874985691393,29.19480636175757,37.9886482762752,39.68990924611376,1577397157.999,-27.71539429786443,-51.10259552038397,4.975412
10073,1577397158.46,1.2507075892006478,-3.3052829845893665,12.38397888957698,0.9375927281821648,-4.834301917992568,8.286974292587653,-0.2786617151772103,1.9541941111494852,10.81998125387052,-5.300568371284299,-6.647621713033536,-6.068345977038872,4.999300328696647,-4.227056735899391,-6.84356689453125,-18.560269983803355,-48.80653939596037,7.878373308879573,-16.947212082541945,5.112566773504274,-2.9448214762667897,-3.2219024361881505,18.43733669108669,-16.823874985691393,29.29065205019917,38.10845538682721,39.88160062299697,1577397157.999,-27.71539429786443,-51.10259552038397,4.975412
10074,1577397158.47,-0.9758999547446646,-2.3859095470893665,11.364048982350418,-4.743847811368616,-0.8288025405511622,8.693988574814215,2.819435233064977,0.0603805979658918,10.17594100728849,-3.1033027462842986,1.0428079744664631,-5.061265898913872,3.656526891196646,-13.22974228277439,-4.21905517578125,-14.745572718178352,-49.38637338033536,8.427689715129572,-16.00044045781893,6.75589180784493,-2.7898308722527494,-2.094236583522298,16.23838827838828,-17.026270604395606,29.19480636175757,37.91676400994399,39.83367777877617,1577397157.999,-27.71539429786443,-51.10259552038397,4.975412
10075,1577397158.48,1.4230901087318977,0.5469874866020386,12.012877632252762,-1.904324642423304,3.5406154892339936,15.155938855575934,2.6829657384360703,0.206426899235423,5.064320462854896,2.2677910037157014,-0.9103170255335366,-5.549547148913872,2.191683141196646,-3.0368711890243905,-6.14166259765625,-6.688932093178353,-28.787008145960368,6.199906512004573,-15.621731807929724,4.564791762057388,-2.7898308722527494,-0.1610951218094077,16.914987789987787,-13.787940705128204,29.19480636175757,38.0605325426064,39.88160062299697,1577397157.999,-27.71539429786443,-51.10259552038397,4.975412
10076,1577397158.49,1.0759308680092414,0.1327905993950077,11.140191127125808,0.6012073949302115,-3.28166214138124,6.2447202764743714,2.018574777742711,-2.63908177386028,7.409440988977943,5.914641589653201,-12.278114877096035,-6.343004180163872,6.326814977134147,-2.426519626524391,-6.50787353515625,-2.645352991615854,-11.620870450647868,1.713822527629573,-16.284471945235836,6.482004302121491,-2.867326174259769,-0.4832853654282226,16.914987789987787,-36.86104123740843,29.410459160751195,37.86884116572319,39.78575493455536,1577397157.999,-27.71539429786443,-51.10259552038397,4.975412
10077,1577397158.5,0.8915773401772102,-5.558226746796398,8.127088337819167,0.4874828160727896,-0.2685593520745997,12.527105432724372,1.392491043611852,2.598234357731517,9.503170340784584,-8.6269843869093,2.263511099466464,-3.535386992663872,1.0320151724466462,-8.86572861089939,-5.16510009765625,6.860872594321647,0.2962438071646341,-1.063277081745427,-16.18979478276353,5.842933455433458,-2.9448214762667897,-0.4832853654282228,14.885189255189252,-59.124559294871794,29.19480636175757,37.9646868541648,39.64198640189295,1577397157.999,-27.71539429786443,-51.10259552038397,4.975412
10078,1577397158.51,1.1980351526772102,1.0713176501762571,6.989842549244949,0.3988973546470084,2.0825466781988378,12.340357703232185,1.0788506261313833,-6.142995903498952,8.595767911585364,15.5429374880907,-1.7037740567835369,-3.810045195788872,2.557894078696646,-0.2292540015243902,-6.44683837890625,5.884310094321647,7.528909822789634,-1.185347394245427,-16.18979478276353,5.842933455433458,-2.9448214762667897,-1.1276658526658527,13.193690476190474,-61.95809795673076,29.62611195974481,37.91676400994399,39.88160062299697,1577397157.999,-27.71539429786443,-51.10259552038397,4.975412
10079,1577397158.52,0.7251803247963509,1.569311595488757,12.539601997487136,-0.9227019617592416,-1.709868751488662,8.816092859482184,1.4954417149985708,-2.7982961842606704,11.96919805074552,4.877043933403201,-12.659584603658535,-5.442735625476372,9.149690953696648,-4.135504001524391,-5.47027587890625,-1.9281899056783536,7.162698885289634,-11.103560284870428,-15.43237748298512,5.660341784951159,-1.8598872481684976,25.29193412407698,12.85539072039072,-61.95809795673076,29.24272920597837,38.0605325426064,39.88160062299697,1577397157.999,-27.71539429786443,-51.10259552038397,4.975412
10080,1577397158.53,1.6601160730873663,-1.0571276257026478,10.099910505787918,-0.8305251978432259,1.4001992050543064,12.424154761337654,-1.2279626734291629,-1.3342418690751237,13.701402951868568,5.563689441215701,-2.5277486661585367,-4.267808867663872,4.633089391196647,-5.4935362280868905,-4.89044189453125,3.900667516196647,-1.0617884193978655,-12.309004620807928,-15.811086132874326,5.842933455433458,-2.014877852182537,26.58069509855224,13.193690476190474,-61.95809795673076,29.19480636175757,38.084493964716806,39.59406355767214,1577397157.999,-27.71539429786443,-51.10259552038397,4.975412
10081,1577397158.54,1.7487015345131478,-3.0155845837104605,8.75197497111995,3.1689886754477894,-3.9245052871331936,8.428232190536871,2.591986075350133,1.9613767161299545,7.879901615198646,6.601287097465701,6.413901724466464,-3.108140898913872,7.227083531821647,3.9821717797256095,-5.28717041015625,4.572054234946647,1.211771150914634,-13.331343487995428,-15.811086132874326,5.842933455433458,-2.014877852182537,26.58069509855224,13.193690476190474,-61.95809795673076,29.338574894419985,38.0605325426064,39.546140713451344,1577397157.999,-27.71539429786443,-51.10259552038397,4.975412
10082,1577397158.55,0.927490365079554,-3.4896365124213977,8.962664717213698,0.8681608800376334,-2.684308827172256,5.483364148544684,-0.1326154139076781,11.66028764142292,7.942150858362709,-2.8286445431592986,4.704917349466464,-2.497789336413872,4.205843297446647,-2.0297911108993905,-3.91387939453125,23.004671422446645,4.629739900914634,-1.643111066120427,-15.811086132874326,5.842933455433458,-2.014877852182537,-3.382997557997558,12.85539072039072,-9.740028331043955,29.29065205019917,37.9646868541648,39.88160062299697,1577397157.999,-27.71539429786443,-51.10259552038397,4.975412
10083,1577397158.56,2.083889766935023,1.5525521838676632,9.646209291188308,0.6239523107016959,3.1096591904058686,9.965309656357183,2.359748514314977,1.7028029368330793,10.094538150843178,14.4748222537157,-7.395302377096035,-5.183336211413872,-0.5854164681783537,-8.31641220464939,-3.24249267578125,5.792757359946647,8.139261385289634,16.911576433879574,-16.000440457818932,6.025525125915749,-3.0998120802808256,0.4832853654282225,15.561788766788766,-12.573566992902933,29.266690628088774,37.772995477281576,39.83367777877617,1577397157.999,-27.71539429786443,-51.10259552038397,4.975412
10084,1577397158.57,0.0057227259193968,2.3186967151176634,10.080756892506669,0.8765405858481803,2.429705918921494,9.60378520567359,-1.6361740564858045,-10.158072087580983,9.816810758265053,8.3407890505907,-4.419838509908536,-5.213853789538872,3.732820836509146,2.746209865663109,-5.08880615234375,0.8641684927591462,6.048807283727134,-3.428389386432927,-15.243023158040518,6.39070846688034,-1.8598872481684976,-1.4498560962846678,16.914987789987787,-12.57356699290293,29.5302662713032,38.0605325426064,39.76179351244496,1577397157.999,-27.71539429786443,-51.10259552038397,4.975412
10085,1577397158.58,2.34725194955221,0.1184253894340697,9.07040379192073,2.7978874181235707,-2.092941017113662,8.638921936630622,-0.2140182703529915,5.310864838688548,15.574865750940834,6.875945300590701,-11.499916634908535,-6.007310820788872,3.748079625571646,-3.8303282202743913,-4.67681884765625,-0.7380043588033537,-8.889547208460366,-15.559126691120428,-14.296251533317507,6.208116796398045,-2.324859060210617,-3.382997557997558,16.576688034188034,-12.168775755494504,29.338574894419985,37.9646868541648,39.97744631143858,1577397157.999,-27.71539429786443,-51.10259552038397,4.975412
10086,1577397158.59,-1.1961665074790395,-2.771376014374523,11.390385200612137,-3.5754774012123667,-1.415381947289443,13.353105005478278,0.8059116368735709,4.616546357243236,17.597966153772866,-9.0542304806593,-0.5441060880335366,-4.511949492663872,3.320833531821646,-1.9992735327743905,-2.47955322265625,0.7573569693216463,-24.148336270960368,-7.288863019245427,-14.296251533317507,6.208116796398045,-2.324859060210617,-2.738617070759928,18.26818681318681,-16.216688129578753,29.43442058286159,38.0605325426064,39.68990924611376,1577397157.999,-27.71539429786443,-51.10259552038397,4.975412
10087,1577397158.6,-0.3246771031821646,-0.3412613293159297,11.802187886159013,-1.3333075464760384,-1.6524079116449124,11.406619055771246,1.8497835607016957,1.6609044077803448,9.679144162806068,-2.7676093869092986,2.431357779153964,-2.558824492663872,8.005281774009148,-2.4112608374618905,-2.84576416015625,-2.3706947884908534,-26.162496427210364,-4.359175519245427,-15.905763295346627,6.664595972603784,-2.247363758203603,-2.5775219489505203,17.76073717948718,-54.67185568337912,29.362536316530388,38.0126096983856,39.85763920088657,1577397157.999,-27.71539429786443,-51.10259552038397,4.975412
10088,1577397158.61,-0.3941089513266959,2.7903544421684443,11.076744783131668,-1.9282666590248665,0.763341563452744,13.384229627060307,4.926332694002476,5.547890803044016,10.678723355921305,5.258513659965701,-4.786049447408536,-3.169176055163872,5.884310094321647,-11.67334579839939,-2.02178955078125,4.266878453696647,-5.959859708460366,8.946488543254572,-15.43237748298512,5.842933455433458,-1.084934228098292,-2.738617070759928,-3.382997557997557,-15.81189689217033,29.338574894419985,38.0605325426064,39.64198640189295,1577397157.999,-27.71539429786443,-51.10259552038397,4.975412
10089,1577397158.62,1.1621221277748666,1.3346798327934446,12.941827876393386,0.6287407140220084,0.3084432480230554,11.90940140440406,5.685294620272008,1.4466233591963604,6.328458939417396,17.6791679568407,-20.136391244283537,-5.427476836413872,4.236360875571647,-4.440679782774391,-4.82940673828125,4.968782750571647,12.594827791539634,13.737748308879572,-15.243023158040518,5.660341784951164,-2.169868456196577,-2.738617070759928,-3.382997557997557,-15.81189689217033,29.19480636175757,37.91676400994399,39.68990924611376,1577397157.999,-27.71539429786443,-51.10259552038397,4.975412
10090,1577397158.63,0.8101744837318978,0.446431016875476,8.554453334157058,0.7652102086509146,-0.405028846703506,7.480128333114997,0.5928276891196647,-1.4958504811356703,5.682024491175209,9.4089042849657,-7.639443002096037,-4.023668242663872,6.677767125571647,-0.1682188452743902,-6.62994384765625,3.717562047446646,29.226907869664632,6.291459246379573,-15.243023158040518,5.477750114468867,-2.014877852182537,-3.382997557997558,20.97458485958485,-13.787940705128204,29.338574894419985,37.9646868541648,39.73783209033456,1577397157.999,-27.71539429786443,-51.10259552038397,4.975412
10091,1577397158.64,2.4861156458412728,0.992308995391101,8.773522786061354,-0.5408267969643197,1.9783989059820404,7.447806610702888,-3.042767531827601,-10.21792712908489,5.095445084436928,7.883025378715701,-11.560951791158535,-4.542467070788872,3.488680211509146,-5.340948337461891,-3.07464599609375,16.428133336509145,47.14072622903964,-13.300825909870424,-16.00044045781893,6.39070846688034,-3.4097932883089155,-0.1610951218094078,19.959685592185583,-34.63468943166209,29.4823434270824,37.9646868541648,39.68990924611376,1577397157.999,-27.71539429786443,-51.10259552038397,4.975412
10092,1577397158.65,3.0679066492592417,-1.6868026623237418,8.689725727955887,2.3429891026938834,0.6986981186285252,4.089938782333746,4.588750259920445,5.89026164044636,4.178465848597084,5.227996081840701,-8.814369759908537,-3.718492461413872,5.609651891196647,6.8508241234756095,-4.03594970703125,30.725618688071645,68.62510122903963,-15.223433331745428,-16.00044045781893,6.025525125915753,-2.169868456196577,3.060807314378742,18.26818681318681,-52.24310825892857,29.338574894419985,37.9646868541648,39.83367777877617,1577397157.999,-27.71539429786443,-51.10259552038397,4.975412
10093,1577397158.66,3.22831816048971,-0.9469943493354605,7.298694563405105,1.651064822908727,-2.2437757217035057,0.7931230962985901,-6.335991915372523,-4.754358940608326,15.323474576624427,7.211638659965701,-5.182777963033536,-3.474351836413872,5.609651891196647,-1.3889219702743902,-2.54058837890625,15.863558141196648,43.02085318216464,-16.810347394245426,-14.48560585826211,4.564791762057388,-2.169868456196577,-3.2219024361881505,-3.21384768009768,-50.42154769059066,29.5302662713032,37.9646868541648,39.64198640189295,1577397157.999,-27.71539429786443,-51.10259552038397,4.975412
10094,1577397158.67,2.031217330411585,1.9691432727348508,9.901191767994948,1.878513980623571,-0.4457302749261622,10.49203402159156,0.5880392857993522,-2.750412151057545,24.07667584615568,2.771331042778201,-1.1544576505335369,-4.313585234851372,0.4826987661966463,-6.637945407774391,-2.72369384765625,5.121370641196647,-4.861226895960366,-28.315474347370422,-14.390928695789809,5.021270938263126,-2.712335570245723,-3.382997557997558,-2.706398046398046,-55.076646920787546,29.43442058286159,37.91676400994399,39.498217869230544,1577397157.999,-27.71539429786443,-51.10259552038397,4.975412
10095,1577397158.68,-1.2919345738852896,1.7153578967582883,14.33046483928401,-0.2559167994057259,0.0606433761968846,15.500703894638434,0.031387399813024,4.220305982487375,15.005045755823646,2.1762382693407014,-6.525551400533536,-4.847642852038872,1.2914145865091462,3.7227723656631095,-3.88336181640625,-9.572843225990852,-49.75258431783537,-18.244673566120422,-15.43237748298512,5.842933455433458,-2.324859060210617,-2.658069509855224,-2.790972985347985,-64.89283442794186,29.19480636175757,37.9886482762752,39.76179351244497,1577397157.999,-27.71539429786443,-51.10259552038397,4.975412
10096,1577397158.69,0.0679719690834593,-2.5415326549995227,12.079915278737136,1.8378125524009143,-5.734521742211318,8.406684375595464,8.998869717928256,15.31862777814167,12.222983426722084,-12.9604804806593,-5.610024056783536,-5.122301055163872,2.893587438071646,-0.9006407202743902,-6.47735595703125,-15.203336390053352,-79.17152963033537,9.770463152629572,-14.106897208372905,6.39070846688034,-1.8598872481684976,-2.738617070759928,-2.706398046398046,-62.36288919413919,29.5302662713032,37.62922694461916,39.83367777877617,1577397157.999,-27.71539429786443,-51.10259552038397,4.975412
10097,1577397158.7,1.061565658048304,-3.925381214569836,7.0640628007097925,1.84738935904154,-1.8104252212152243,11.114526453232184,4.205677994295446,-3.0401105519364515,6.962922379358802,-7.650421886909299,3.9724954744664633,-2.864000273913872,-4.003385218178353,-9.81177353277439,-4.09698486328125,-17.156461390053355,-66.47621713033537,21.82490651200457,-15.05366883309592,5.842933455433458,-2.63484026823871,-2.738617070759928,-2.706398046398046,-62.36288919413919,29.338574894419985,38.0605325426064,39.64198640189295,1577397157.999,-27.71539429786443,-51.10259552038397,4.975412
10098,1577397158.71,-0.2181351293052115,0.2776397998344608,11.008510035817215,0.7436623937095084,3.624412547339462,14.408947937607184,2.7907048131431016,3.960535102360423,-0.3274216758169783,2.9696953005907014,3.102744497903964,-2.543565703601372,-5.071500452553353,-0.5649473608993902,-5.71441650390625,-6.902555140053353,-37.82021127096037,34.703324480754574,-15.432377482985125,6.025525125915752,-2.63484026823871,26.74179022036165,-1.5223489010989009,-62.16049357543498,29.410459160751188,37.9646868541648,39.64198640189295,1577397157.999,-27.71539429786443,-51.10259552038397,4.975412
10099,1577397158.72,3.6473034510170543,5.13667206912157,10.90915066692073,1.209334616609899,4.201415147437119,7.615400726913825,-2.255075185636195,-7.720774797541921,4.268248410852944,19.6322929568407,-23.340736947408537,-5.366441680163872,-1.1652504525533536,0.1522157250381091,-2.75421142578125,-7.863858850990852,-1.4127405678353655,2.446244402629573,-14.86431450815131,7.121075148809524,-2.7898308722527494,25.453029245886388,-1.5223489010989009,-54.469460064674905,29.5302662713032,37.94072543205439,39.73783209033456,1577397157.999,-27.71539429786443,-51.10259552038397,4.975412
10100,1577397158.73,2.5986431238686167,-0.903898719452648,8.78309959270198,0.9830825597251334,-5.023443849144912,5.672506079697028,1.2679925572837272,-1.4359954396317642,11.332340409143958,9.5309745974657,-12.079750619283535,-6.190416289538872,2.618929234946646,-10.23901962652439,-1.93023681640625,0.0249350943216463,-18.838277677210368,-13.850142316120428,-17.136566407486544,5.295158443986569,-1.5499060401404114,25.453029245886388,-1.5223489010989009,-53.25508635244964,29.338574894419985,37.9646868541648,39.64198640189295,1577397157.999,-27.71539429786443,-51.10259552038397,4.975412
10101,1577397158.74,1.9689680872475228,-6.472811780976086,4.485507612721511,3.614310184236852,-3.8215546157464746,10.16642259581031,-1.7080001062904917,-7.304183708674733,9.09136765523771,14.5358574099657,-0.7577291349085366,-2.619859648913872,0.0249350943216463,-4.837408298399391,-3.15093994140625,-4.308560999428353,-22.378316739710368,-24.348189191120422,-16.757857757597343,5.295158443986569,-2.7898308722527494,25.453029245886388,-1.8606486568986569,-54.87425130208334,29.338574894419985,38.0605325426064,39.88160062299697,1577397157.999,-27.71539429786443,-51.10259552038397,4.975412
10102,1577397158.75,0.9586149866615852,-1.388724555634289,12.97175539714534,1.2332766332114615,-0.6456461135492096,16.1100282171482,1.5600851598227894,1.585487055485423,16.02377856222013,-14.4100654415968,9.816611685403965,-2.452012969226372,-2.187589319740854,-1.953497165586891,-3.28826904296875,-13.341764124428355,-23.370138028772868,-14.384199933307924,-16.757857757597343,5.295158443986569,-2.7898308722527494,27.708360951218097,-2.5372481684981683,-53.05269073374542,29.24272920597837,38.0126096983856,39.68990924611376,1577397157.999,-27.71539429786443,-51.10259552038397,4.975412
10103,1577397158.76,-0.3342539098227896,3.944359642363757,16.343988435475417,0.3725611363852896,-0.4672780898675684,15.270860535263434,0.8178826451743522,3.254245612614329,17.686551615198645,-11.6177070431593,2.751792349466464,-4.328844023913872,4.724642125571647,5.2944276391006095,-5.07354736328125,-5.071500452553353,-29.275289395960368,-5.579878644245427,-14.296251533317507,5.842933455433458,-2.324859060210617,18.525939008081867,0.0,-52.647899496337,29.43442058286159,38.10845538682721,39.64198640189295,1577397157.999,-27.71539429786443,-51.10259552038397,4.975412
10104,1577397158.77,-0.9447753331626334,-0.7626408215034292,13.746279634205886,0.0134308873618521,-1.566216651879287,15.17748667051734,3.619098587557165,1.709985541813548,12.917301908167396,10.0497734255907,11.449302115091465,-4.267808867663872,4.633089391196647,-3.6472227515243913,-4.21905517578125,-8.886197718178353,-36.38588509908536,2.2631389338795733,-15.243023158040518,4.929975103021979,-1.8598872481684976,28.352741438455723,-3.21384768009768,-15.204710036057692,29.29065205019917,38.10845538682721,39.64198640189295,1577397157.999,-27.71539429786443,-51.10259552038397,4.975412
10105,1577397158.78,0.0727603724037718,-3.2573989513862416,9.228421101491042,2.1059631383384145,-3.1655433608636625,10.266979065536871,1.4978359166587272,-4.644225664241139,11.052218814905675,-8.4743964962843,-2.7413717130335367,-4.115220977038872,3.442903844321646,-1.7246153296493902,-5.10406494140625,-9.282926233803352,-40.07851205221037,1.500199480754573,-14.86431450815131,6.025525125915753,-2.7898308722527494,28.352741438455723,-3.21384768009768,-15.204710036057692,29.29065205019917,37.91676400994399,39.64198640189295,1577397157.999,-27.71539429786443,-51.10259552038397,4.975412
10106,1577397158.79,0.8113715845619759,-2.420625471161632,7.547691536061355,1.0956100377524771,-0.8048605239495997,11.456897290634528,3.408408841463414,2.758645868961984,9.838358573206458,8.8443290896532,-4.221474252096035,-3.520128203601372,3.473421422446646,-5.3714659155868905,-2.18963623046875,-1.4704262338033534,-39.19350228658536,9.755204363567072,-14.48560585826211,5.660341784951164,-1.2399248321123315,25.45302924588639,-2.0297985347985343,-8.728050237522892,29.578189115524005,37.772995477281576,39.68990924611376,1577397157.999,-27.71539429786443,-51.10259552038397,4.975412
10107,1577397158.8,-0.4467813878501334,3.321867210723132,10.995341926686354,-1.643356661466273,1.797636680640244,13.994751050400152,4.016536063143102,-6.174120525080983,5.052349454554115,19.8153984255907,-9.607826791158535,-3.413316680163872,6.067415563071647,-7.156744235899391,-7.05718994140625,1.2151206411966462,-20.272603849085368,-2.4976032536204267,-16.00044045781893,6.75589180784493,-2.4798496642246697,26.258504854933427,17.5915873015873,-15.407105654761905,29.5302662713032,38.0605325426064,39.68990924611376,1577397157.999,-27.71539429786443,-51.10259552038397,4.975412
10108,1577397158.81,0.0272705408608031,0.465584630156726,9.831759919850418,1.4547402867759145,-0.6995156509027247,10.202335620712654,2.630293301912633,5.8567428172041724,6.38352557760099,9.6835624880907,-1.9479146817835369,-3.626939727038872,7.379671422446647,-3.4641172827743905,-4.15802001953125,4.144808141196647,-1.504293302210366,-0.1782673161204268,-15.621731807929724,6.025525125915753,-3.4097932883089155,-1.9331414617128904,17.76073717948718,-16.419083748282965,29.19480636175757,37.9646868541648,39.68990924611376,1577397157.999,-27.71539429786443,-51.10259552038397,4.975412
10109,1577397158.82,-0.3174944982016959,-3.389080042694835,11.23476209270198,0.6455001256431021,-3.392992518578506,11.32761040098609,-2.1030433802162727,-6.243552373225515,12.47437460103849,-4.629181652534299,-9.439980111471035,-3.520128203601372,7.074495641196647,-3.0673887671493905,-5.92803955078125,4.846712438071647,3.9278356040396334,-2.7722614567454267,-14.296251533317507,6.0255251259157525,-2.324859060210624,0.0,19.1139362026862,-16.419083748282965,29.338574894419985,37.91676400994399,39.64198640189295,1577397157.999,-27.71539429786443,-51.10259552038397,4.975412
10110,1577397158.83,1.3273220423256478,-2.6708195446479603,14.17723593303401,1.3015113805259146,-2.338346687279678,10.482457214950935,2.8565453587973986,-0.0329932667802014,9.63245723043302,-4.934357433784299,-3.5348287442835367,-3.565904570788872,8.020540563071647,-3.9523985327743913,-3.89862060546875,6.296297399009148,14.914163729039632,-9.776045636432928,-14.106897208372905,5.660341784951164,-1.8598872481684976,0.0,19.1139362026862,-15.811896892170331,29.43442058286159,37.84487974361278,39.64198640189295,1577397157.999,-27.71539429786443,-51.10259552038397,4.975412
10111,1577397158.84,3.1325500940834603,1.097653868437976,14.076679463307448,1.1865897008384143,2.5087145737066496,9.146492688583749,2.7619743932212266,5.729850129215891,7.278956998499427,7.516814441215701,-11.164223275533535,-3.626939727038872,10.675569859946648,-2.0603086890243905,-2.38800048828125,29.626985875571645,34.10972036966464,-0.1782673161204268,-13.7281885584837,5.660341784951164,-2.169868456196577,0.0,18.43733669108669,-16.419083748282965,29.29065205019917,37.9646868541648,39.68990924611376,1577397157.999,-27.71539429786443,-51.10259552038397,4.975412
10112,1577397158.85,3.175645723966273,2.986678978301257,10.60269285442073,2.273557254549352,1.8934047470464936,9.80250394346656,0.5617030675376334,0.7403338694502668,11.385012845667395,23.5995781130907,-4.541908822408536,-4.664537383288872,10.187288609946648,0.7778260766006098,-3.94439697265625,20.837923375571645,35.20835318216464,3.0565959651295733,-14.48560585826211,3.834425080128205,-1.8598872481684976,0.0,15.730938644688644,-55.27904253949176,29.4823434270824,37.772995477281576,39.68990924611376,1577397157.999,-27.71539429786443,-51.10259552038397,4.975412
10113,1577397158.86,2.257469387296351,-1.168458002899914,7.541706031910965,-0.0033285242592406,-0.8192257339105372,6.718772205185309,0.4635407994712271,-2.9132178639481703,13.020252579554114,20.4867851443407,-7.151161752096037,-4.695054961413872,13.361116734946648,-2.1518614233993905,-4.49371337890625,18.945833531821645,21.261819979039632,-7.960249737995427,-14.201574370845206,6.2994126316391945,-2.247363758203604,0.0,15.730938644688644,-55.27904253949176,29.266690628088774,37.62922694461916,39.68990924611376,1577397157.999,-27.71539429786443,-51.10259552038397,4.975412
10114,1577397158.87,2.143744808438929,-3.9541116344917104,5.931605415455887,3.3174291783774765,-3.472001173363662,6.789401154159918,-0.6234267542397103,-0.97271741839153,9.91377592550138,8.0661308474657,-1.4291158536585369,-4.267808867663872,12.018343297446648,0.1522157250381097,-4.72259521484375,17.32840189119665,16.302713533727132,-9.974409894245428,-14.48560585826211,6.025525125915753,-1.8598872481684976,-1.047118291761149,14.46231456043956,-56.79700967977335,29.338574894419985,37.91676400994399,39.73783209033456,1577397157.999,-27.71539429786443,-51.10259552038397,4.975412
10115,1577397158.88,1.0663540613686164,0.6259961413871947,9.35770799113948,1.1746186925376334,1.5223034897222751,10.81764544737281,3.2934871617759143,-1.9148357716630144,12.2876268715463,9.3478691287157,1.1038431307164631,-3.779527617663872,5.548616734946647,-4.471197360899391,-1.65557861328125,11.621614781821648,7.895120760289634,-5.335738019245427,-14.674960183206712,6.938483478327229,-2.324859060210617,-1.9331414617128904,13.024540598290596,-61.35091110061813,29.5302662713032,37.91676400994399,39.73783209033456,1577397157.999,-27.71539429786443,-51.10259552038397,4.975412
10116,1577397158.89,0.3744297815834603,4.212510228301257,10.365666890065262,0.1714481969321646,2.058604661597275,14.521475415634528,1.5959981847251332,-2.273966020686452,8.58619110494474,10.1718437380907,-2.2225728849085367,-5.824205352038872,11.835237828696648,-0.4733946265243902,-6.05010986328125,10.187288609946648,8.963235994664634,-7.044722394245427,-15.243023158040518,6.025525125915753,-1.5499060401404114,28.19164631664632,12.85539072039072,-55.8862293956044,29.5302662713032,38.0605325426064,39.64198640189295,1577397157.999,-27.71539429786443,-51.10259552038397,4.975412
10117,1577397158.9,-0.2013757176841182,2.606000914336413,9.42115433513362,0.2983408849204459,1.3164021469488376,9.876724194931404,2.1263138524497425,3.737874347965891,4.970946598108802,12.8421318240282,-2.5430074552210367,-5.366441680163872,10.934969274009148,-2.502813571836891,-5.88226318359375,17.664095250571645,32.76694693216464,-8.707930402057928,-13.444157071066794,6.847187643086079,-2.867326174259769,25.6141243676958,14.20858974358974,-17.026270604395606,29.338574894419985,37.9646868541648,39.66594782400336,1577397157.999,-27.71539429786443,-51.10259552038397,4.975412
10118,1577397158.91,1.664904476407679,-1.2821825817573351,8.737609761159012,1.919215408846227,-0.8144373305902247,6.352459351181403,-2.7566604334389293,-5.173344231135671,6.455351627405677,3.4274589724657014,-7.776772103658536,-6.495592070788872,9.363314000571648,0.5642030297256098,-6.72149658203125,16.290804234946645,51.96250357278964,-4.389693097370427,-12.40270828387148,6.573300137362635,-2.63484026823871,26.258504854933427,15.561788766788766,-10.549610805860803,29.43442058286159,37.91676400994399,39.83367777877617,1577397157.999,-27.71539429786443,-51.10259552038397,4.975412
10119,1577397158.92,2.2419070765053357,-1.4066810680854605,8.402421528737136,1.7396502843345083,1.05303996433165,7.961362866806402,-2.5770953089272104,-6.514097160823171,14.35861130758146,3.3664238162157014,-5.182777963033536,-4.786607695788872,8.813997594321647,2.242669826600609,-6.17218017578125,19.708772984946645,45.34018911966464,-13.758589581745428,-13.917542883428302,8.034033501221,-1.7048966441544575,0.1610951218094073,14.20858974358974,-10.549610805860803,29.4823434270824,37.91676400994399,39.546140713451344,1577397157.999,-27.71539429786443,-51.10259552038397,4.975412
10120,1577397158.93,3.1876167322670543,0.2106021533500859,9.30623265544612,2.6063512853110704,1.807213487280869,7.693212280868902,1.4068562535727895,-4.646619865901296,12.653939725550208,12.6285087771532,-6.601845345846037,-5.503770781726372,8.569856969321647,0.7167909203506098,-2.69317626953125,18.274446813071645,28.311380525914632,-15.833784894245428,-14.012220045900603,6.664595972603784,-2.8673261742597664,-2.738617070759928,14.885189255189252,-17.026270604395606,29.338574894419985,37.91676400994399,39.64198640189295,1577397157.999,-27.71539429786443,-51.10259552038397,4.975412
10121,1577397158.94,0.8724237268959603,0.6307845447075072,9.190113874928542,-0.0224821375404915,0.3036548447027429,7.255073377060309,-1.1597279261147102,2.6820314158369856,13.339878501184971,8.5849296755907,-2.3446431974085367,-4.664537383288872,7.990022984946647,-3.5098936499618905,-4.18853759765625,11.270662633384148,10.290750643102132,-5.289961652057928,-15.243023158040518,7.486258489774114,-1.8598872481684976,-2.738617070759928,14.885189255189252,-17.026270604395606,29.43442058286159,37.9646868541648,39.80971635666576,1577397157.999,-27.71539429786443,-51.10259552038397,4.975412
10122,1577397158.95,0.8580585169350228,3.482278721953601,12.07752107707698,0.0277960973227896,1.833549705542588,15.227764905380624,3.8226057286704456,5.023560639469797,10.875047892054114,4.159880847465701,-6.800209603658536,-5.641099883288872,7.623812047446647,-1.6025450171493902,-5.74493408203125,5.029817906821647,-11.453023770960366,-7.105757550495427,-15.243023158040518,7.486258489774114,-1.8598872481684976,-0.8054756090470375,18.60648656898657,-15.407105654761905,29.09896067331596,37.9646868541648,39.64198640189295,1577397157.999,-27.71539429786443,-51.10259552038397,4.975412
10123,1577397158.96,0.467803646329554,1.9092882312309445,10.69846092082698,1.4260098668540395,0.0378984604253992,10.408236963486091,3.887249173494664,-1.653867790705983,3.37640829244474,6.174041003715701,-5.304848275533536,-5.946275664538872,6.250521031821647,4.0126893578506095,-5.65338134765625,6.982942906821647,2.7986852134146343,-5.030562237995427,-15.243023158040518,7.486258489774114,-1.8598872481684976,-3.060807314378743,17.253287545787547,-17.026270604395606,29.43442058286159,37.91676400994399,39.73783209033456,1577397157.999,-27.71539429786443,-51.10259552038397,4.975412
10124,1577397158.97,1.0160758265053351,-0.7865828381049917,8.289894050709792,3.975834634920445,-3.1894853774652248,3.568002820419684,-1.5523769983803353,-1.270795525080983,8.282127494104897,-2.2030341915967986,-0.8340230802210367,-5.030748320788872,7.318636266196647,-3.7998106421493913,-4.24957275390625,7.532259313071647,12.991556307164634,-0.4834430973704268,-14.012220045900603,5.751637620192309,-1.9373825501755173,-0.1610951218094077,18.60648656898657,-17.026270604395606,29.36253631653038,37.9646868541648,39.546140713451344,1577397157.999,-27.71539429786443,-51.10259552038397,4.975412
10125,1577397158.98,1.6194146448647102,0.6451497546684447,2.419311580006667,-0.9310816675697884,1.3583006760015714,7.846441187118902,-1.0555801538979137,-1.2480506093094992,5.5072477699838025,13.1625663943407,-4.694496713033536,-4.450914336413872,3.763338414634146,-5.936041110899391,-5.53131103515625,9.699007359946648,22.77244009622713,-3.5504596989329267,-14.106897208372905,5.660341784951164,-1.5499060401404114,-2.5775219489505203,19.1139362026862,-13.585545086423991,29.62611195974481,37.91676400994399,39.76179351244497,1577397157.999,-27.71539429786443,-51.10259552038397,4.975412
10126,1577397158.99,2.0814955652748663,0.5469874866020386,8.737609761159012,0.0325845006431021,0.8231966049566503,6.721166406845465,-0.8772121302162728,-6.652960857112233,6.299728519495521,9.3783867068407,-12.781654916158535,-5.641099883288872,5.334993688071647,0.3505799828506097,-4.95147705078125,8.356233922446647,37.16147818216464,-1.307417706745427,-14.106897208372905,5.660341784951164,-1.5499060401404114,-2.416426827141113,18.26818681318681,-15.407105654761905,29.4823434270824,37.91676400994399,39.83367777877617,1577397157.999,-27.71539429786443,-51.10259552038397,4.975412
10127,1577397159.0,1.262678597501429,4.281942076445788,10.827747810475415,-0.0440299524818968,3.521461875952744,8.837640674423591,-0.7311658289467415,-11.32404829607708,7.8152581703744275,12.6132499880907,-9.424721322408535,-3.504869414538872,-0.2192055306783537,-3.7082579077743913,-3.42559814453125,10.034700719321648,35.63559927591464,-19.129683331745422,-14.106897208372905,5.660341784951164,-1.5499060401404114,-1.4498560962846678,18.944786324786325,-17.026270604395606,29.43442058286159,37.9646868541648,39.83367777877617,1577397158.999,-27.71541372722366,-51.10264122251099,4.735969
10128,1577397159.01,2.154518715909632,-0.9984696850288204,8.819012617604324,2.2998934728110707,2.0226916366949315,8.21754244444312,-3.292961605313929,5.176789545719798,7.1209396889291146,-5.163239269721799,-3.733193002096036,-5.534288359851372,-0.0361000619283536,6.8203065453506095,-7.88116455078125,14.154573766196648,25.931009432164632,-16.901900128620426,-14.296251533317506,6.3907084668803416,-3.0998120802808296,-1.1276658526658527,17.253287545787547,-16.62147936698718,29.31461347230958,38.0605325426064,39.88160062299697,1577397158.999,-27.71541372722366,-51.10264122251099,4.735969
10129,1577397159.02,1.3273220423256478,0.8989351306450072,10.049632270924636,2.921188803621617,0.2737273239507907,8.369574249863044,0.1534916844809928,-4.038492644221608,11.475992508753333,0.5893242068407013,8.122886099466463,-4.023668242663872,2.130647984946646,-1.2821104468368905,-4.06646728515625,7.2118247427591475,12.167581697789632,-19.831587628620422,-15.243023158040518,6.025525125915753,-2.169868456196577,-1.772046339903483,19.95968559218559,-51.0287345467033,29.338574894419985,37.772995477281576,39.68990924611376,1577397158.999,-27.71541372722366,-51.10264122251099,4.735969
10130,1577397159.03,2.799756063321741,0.829503282500476,8.450305561940262,2.347777506014196,-1.278912452660537,9.615756213974372,8.488904764314976,10.475157819645576,8.231849259241615,-2.4624336056592986,2.934897818216464,-5.488511992663872,2.863069859946646,-1.1142637671493902,-5.89752197265625,2.527376500571646,-1.321187833460366,-1.856734112995427,-13.7281885584837,5.295158443986569,-2.169868456196577,-3.382997557997558,-3.382997557997557,-50.62394330929487,29.62611195974481,38.10845538682721,39.68990924611376,1577397158.999,-27.71541372722366,-51.10264122251099,4.735969
10131,1577397159.04,1.5906842249428352,-0.2885888927924917,7.894850776784011,2.869713467928258,1.0841645859136817,9.44576789610328,-0.218806673673304,2.0092607493330794,7.496829349573646,1.5048515505907014,-5.243813119283536,-5.366441680163872,-2.752164515053354,0.5947206078506098,-3.88336181640625,-0.6464516244283537,-0.5582483803353658,17.949174090129574,-13.7281885584837,5.295158443986569,-2.169868456196577,-3.060807314378743,-3.382997557997557,-55.076646920787546,29.43442058286159,37.86884116572318,39.83367777877617,1577397158.999,-27.71541372722366,-51.10264122251099,4.735969
10132,1577397159.05,0.0009343225990853,2.97231376834032,10.601495753590653,0.4850886144126334,3.116841795386337,8.46773651792945,-0.686873098233851,-9.16447839861614,5.980102597864662,-2.2182929806592995,-2.146278939596036,-4.939195586413872,-2.553800257240854,-0.3360655249618911,-7.10296630859375,-9.221891077553352,10.809549471227134,0.6609660823170733,-13.444157071066794,6.2994126316391945,-2.867326174259766,-2.577521948950521,-3.382997557997557,-53.45748197115385,29.31461347230958,37.94072543205439,39.68990924611376,1577397158.999,-27.71541372722366,-51.10264122251099,4.735969
10133,1577397159.06,3.608996224454554,-0.1066295666206167,5.100817439381668,3.4491102696860705,-1.9732309341058496,0.9176215826267152,1.1075810460532582,2.0403853709151103,5.603015836390052,-1.4858711056592986,-2.2836080411585367,-5.000230742663872,-2.660611780678354,5.0502870141006095,-6.29425048828125,5.701204625571647,19.430765291539632,-6.892134503620427,-14.86431450815131,6.025525125915753,-4.0297557043650745,-2.094236583522298,-2.706398046398046,-55.8862293956044,29.5302662713032,37.91676400994399,39.68990924611376,1577397158.999,-27.71541372722366,-51.10264122251099,4.735969
10134,1577397159.07,4.516398653653773,-4.866302467011241,5.610782392994949,4.203283792635289,-0.9676662368402248,8.636527734970464,0.8202768468345084,-4.88604003191692,17.40882422262052,-7.741974621284299,-2.3446431974085367,-6.037828398913872,-7.726529749428353,-1.4499571265243902,-3.45611572265625,-3.850797327553354,-9.133687833460366,-1.368452862995427,-14.86431450815131,6.39070846688034,-2.7898308722527494,-2.5775219489505203,-3.21384768009768,-49.20717397836538,29.338574894419985,37.91676400994399,39.73783209033456,1577397158.999,-27.71541372722366,-51.10264122251099,4.735969
10135,1577397159.08,-0.4276277745688834,1.3538334460746946,9.573186140553542,-3.484497738126429,5.022626316870713,13.76730189268531,1.5193837316001333,-9.073498735530205,14.475927188929116,2.6645195193407014,9.892905630716465,-3.840562773913872,-4.949430140053353,-5.630865329649391,-4.09698486328125,-12.578824671303352,-39.01039681783536,-13.453413800495428,-14.86431450815131,6.39070846688034,-2.7898308722527494,-3.382997557997558,20.97458485958485,-49.409569597069606,29.19480636175757,37.9646868541648,39.73783209033456,1577397158.999,-27.71541372722366,-51.10264122251099,4.735969
10136,1577397159.09,-1.0237839879477897,2.790354442168445,11.842889314381669,0.1343380711997427,-3.460030165062881,10.82243385069312,3.5353015294516954,7.653591163151438,7.624919138392006,-5.6210029415968,5.971396841653964,-5.717393828601372,3.778597203696646,-3.7387754858993913,-7.25555419921875,-11.068204554115855,-39.08669076314786,-19.251753644245422,-13.822865720956,6.482004302121491,-1.937382550175517,-2.899712192569336,9.979842796092797,-48.19519588484432,29.29065205019917,38.0605325426064,39.78575493455536,1577397158.999,-27.71541372722366,-51.10264122251099,4.735969
10137,1577397159.1,-0.9256217198813832,-1.928617029999523,9.364890596119947,-4.1812104212318975,4.325913633765244,14.042635083603278,12.30526221060404,16.254760627262762,1.4011919228158332,-20.3762519650343,-6.952797494283536,-7.075426055163872,-2.538541468178354,-12.98560165777439,-2.99835205078125,-2.355435999428354,-21.249166349085368,5.040238543254573,-13.34947990859449,6.025525125915753,-1.8598872481684976,-2.899712192569336,-1.5223489010989009,-48.80238274095696,29.4823434270824,37.725072633060776,39.64198640189295,1577397158.999,-27.71541372722366,-51.10264122251099,4.735969
10138,1577397159.11,-1.0692738194907585,3.1542730945121944,11.141388227955886,-0.190076253751429,0.8208024032964939,7.757855725693121,2.556073050447789,-0.5501408253739519,4.824900296839271,-4.598664074409299,-0.3304830411585365,-6.709215117663872,-1.0126625619283538,0.7778260766006098,-11.63482666015625,-6.933072718178353,4.294046541539634,15.965531512004572,-14.48560585826211,7.486258489774114,-2.7898308722527494,28.836026803883943,-2.0297985347985343,-55.8862293956044,29.5302662713032,37.9646868541648,39.68990924611376,1577397158.999,-27.71541372722366,-51.10264122251099,4.735969
10139,1577397159.12,1.6613131739174447,0.585294713164539,7.948720314137527,0.3103118932212271,-3.8694386489496,2.2703455206149963,-4.760607222989711,-10.632124016291923,4.1545238319955216,-0.0057685665967985,-15.863930306783535,-7.243272734851372,3.381868688071646,-7.2788145483993905,-8.94927978515625,-9.740689905678352,27.548441072789632,4.918168230754573,-14.580283020734411,6.847187643086079,-2.2473637582036035,27.8694560730275,-3.382997557997557,-47.7904046474359,29.386497738640788,37.91676400994399,39.64198640189295,1577397158.999,-27.71541372722366,-51.10264122251099,4.735969
10140,1577397159.13,2.6728633753334603,-1.7011678722846792,9.37686160442073,0.7688015111411488,4.106844181860947,9.762999616073982,3.074417709871617,-1.4383896412919206,11.807589438684976,-3.0422675900342986,-11.927162728658535,-6.129381133288872,-7.421353968178352,-6.8057920874618905,-6.21795654296875,3.168245641196646,11.297830721227132,-11.378218487995428,-13.917542883428302,6.573300137362635,-2.9448214762667897,28.19164631664632,7.611744505494506,-15.002314417353478,29.19480636175757,37.94072543205439,39.66594782400336,1577397158.999,-27.71541372722366,-51.10264122251099,4.735969
10141,1577397159.14,3.5060455530678354,-0.9876957775581168,7.820630525319167,5.611074368807164,-1.8559150527581931,4.195283655380621,1.629517007967321,-3.9020231495927016,5.818493985804115,-2.0351875119092986,-1.3985982755335369,-5.488511992663872,-3.606656702553354,9.20067763910061,-5.65338134765625,5.579134313071647,3.3480016196646343,-14.979292706745428,-14.296251533317507,5.112566773504274,-2.014877852182537,28.19164631664632,17.253287545787547,-16.216688129578753,29.19480636175757,38.0605325426064,39.73783209033456,1577397158.999,-27.71541372722366,-51.10264122251099,4.735969
10142,1577397159.15,2.584277913907679,-0.0228325085151479,12.944222078053542,4.507347403475133,-4.139983436547256,1.52096040098609,-1.6026552332436166,4.961311396305735,5.399508695276771,-2.9201972775342986,-5.030190072408536,-7.136461211413872,0.3911460318216463,-7.5839903296493905,-6.50787353515625,2.252718297446646,-2.6944788490853657,-22.028853253620422,-15.243023158040518,6.025525125915753,-2.4798496642246697,28.19164631664632,17.253287545787547,-16.216688129578753,29.338574894419985,37.91676400994399,39.64198640189295,1577397158.999,-27.71541372722366,-51.10264122251099,4.735969
10143,1577397159.16,1.603852334073695,-0.8560146862495229,8.58438085490901,0.4635407994712271,2.2980248276129003,16.372193298935308,4.88563126577982,16.18772298077839,14.672251725061926,-1.1806953244092986,5.177939810403964,-6.312486602038872,-3.637174280678354,-14.57251572027439,-4.40216064453125,7.745882359946647,1.669534822789634,3.3617717463795733,-15.243023158040518,6.025525125915753,-2.4798496642246697,-2.738617070759928,17.5915873015873,-3.263368532509159,29.5063048491928,38.0605325426064,39.64198640189295,1577397158.999,-27.71541372722366,-51.10264122251099,4.735969
10144,1577397159.17,1.233948177579554,2.009844700957507,10.042449665944169,1.7288763768638051,-0.7713417007074124,8.720324793075934,-1.012484524015101,-12.867111266047782,6.183609738977943,-0.7534492306592987,-0.0863424161585365,-6.037828398913872,0.5132163443216462,4.2873475609756095,-8.50677490234375,-12.212613733803352,8.917459627477134,1.7748576838795729,-15.05366883309592,5.112566773504274,-1.084934228098292,-2.0942365835222976,18.26818681318681,-3.870555388621794,29.338574894419985,37.94072543205439,39.71387066822416,1577397158.999,-27.71541372722366,-51.10264122251099,4.735969
10145,1577397159.18,-1.0788506261313833,-1.421046278046398,10.526078401295733,-1.0974786829506478,-2.1743438735589744,5.052407849716559,-0.6330035608803353,7.700278095524484,13.906107193811929,-10.7632148556593,-3.5043111661585367,-6.617662383288872,-2.019742640053354,-10.66626572027439,-6.08062744140625,1.3982261099466462,7.956155916539634,-6.525923566120427,-14.86431450815131,7.121075148809524,-2.169868456196577,-0.8054756090470375,18.26818681318681,-3.668159769917581,29.19480636175757,38.0605325426064,39.68990924611376,1577397158.999,-27.71541372722366,-51.10264122251099,4.735969
10146,1577397159.19,0.8269338953529916,0.9851263904106322,8.608322871510573,-0.2714791101967416,5.870173704566025,14.21980600645484,4.780286392732945,-4.268336003596608,11.291638980921302,1.8405449099657007,0.5240091463414634,-5.793687773913872,-7.390836390053353,-7.3398497046493905,-7.05718994140625,-1.5009438119283538,4.965433260289634,-10.126997784870428,-13.917542883428302,7.303666819291819,-2.324859060210617,-0.8054756090470375,18.60648656898657,-15.407105654761905,29.338574894419985,37.91676400994399,39.64198640189295,1577397158.999,-27.71541372722366,-51.10264122251099,4.735969
10147,1577397159.2,3.1265645899330696,1.875769407988757,10.101107606617996,3.2767277501548207,2.0526191574468844,8.725113196396247,-2.313733126310023,2.977715320866282,8.535912870081459,0.8029472537157014,-10.523354134908535,-6.861803008288872,-4.384854944740853,8.31566787347561,-5.66864013671875,-0.3107582650533538,5.575784822789634,-6.052901105182928,-13.160125583649888,5.842933455433458,-2.324859060210617,1.2082134135705564,15.477213827838826,-16.115490320226648,29.48234342708239,38.0126096983856,39.68990924611376,1577397158.999,-27.71541372722366,-51.10264122251099,4.735969
10148,1577397159.21,1.8492580042397104,1.559734788848132,10.071180085866043,0.7819696202720083,0.887840049780869,5.871224817489996,2.204125406404821,-9.245881255061454,9.539083365686928,-4.415558605659299,6.413901724466464,-5.641099883288872,-4.979947718178353,-3.7082579077743913,-3.88336181640625,-10.137418421303352,1.883157869664634,-9.577681378620428,-14.296251533317507,6.938483478327229,-0.7749530200702122,0.4832853654282225,18.26818681318681,-16.62147936698718,29.19480636175757,37.91676400994399,39.68990924611376,1577397158.999,-27.71541372722366,-51.10264122251099,4.735969
10149,1577397159.22,0.659339779142054,0.8223206775200073,10.255533613698072,4.150611356111852,2.7265869247808685,12.395424341415778,3.4203798497641955,-5.709645403010671,12.814351236780675,-7.864044933784299,16.881431021341463,-4.725572539538872,-11.175016077553352,-1.1447813452743902,-7.05718994140625,0.0249350943216463,-13.406148770960366,-18.946577862995422,-14.106897208372905,7.121075148809524,-1.5499060401404114,0.1610951218094073,13.193690476190474,-12.168775755494504,29.19480636175757,37.91676400994399,39.64198640189295,1577397158.999,-27.71541372722366,-51.10264122251099,4.735969
10150,1577397159.23,1.2782409082924449,1.674656468535632,9.209267488209791,4.351724295564977,2.501531968726181,11.90940140440406,7.023653348299352,7.063420453922922,14.29396786275724,-7.7114570431592995,0.9817728182164634,-6.175157500476372,-6.780484827553353,7.6442811547256095,-7.05718994140625,-0.8600746713033537,-22.256246427210368,-10.432173566120428,-13.633511396011396,6.847187643086079,-1.782391946161474,0.1610951218094073,13.193690476190474,-12.168775755494504,29.386497738640788,37.9646868541648,39.68990924611376,1577397158.999,-27.71541372722366,-51.10264122251099,4.735969
10151,1577397159.24,-1.411644656893102,-1.8950982067573356,9.230815303151198,1.113566550203649,-1.3603153091058495,11.969256445907966,-2.25148388314596,-3.726049327571218,13.247701737268958,-17.2024238400343,5.803550161966464,-5.885240508288872,-6.643155725990853,-5.2188780249618905,-6.17218017578125,-24.053434046303355,-43.58803353658537,-1.551558331745427,-13.917542883428302,6.938483478327229,-2.014877852182537,0.0805475609047036,14.46231456043956,-14.496325370592947,29.29065205019917,38.0126096983856,39.59406355767215,1577397158.999,-27.71541372722366,-51.10264122251099,4.735969
10152,1577397159.25,0.4151312098061165,-1.7035620739448354,15.072667353932449,1.5409315465415396,-2.6795204238519434,13.853493152450934,0.3031292882407584,5.67957189435261,15.866958353479896,-23.7942207150343,-14.521156869283535,-8.967515898913872,-5.498746546303353,0.0759217797256097,-8.30841064453125,-25.548795374428355,-62.96669564596037,14.348099871379572,-13.917542883428302,6.573300137362635,-1.084934228098292,-3.060807314378743,13.193690476190474,-15.407105654761905,29.146883517536764,37.91676400994399,39.83367777877617,1577397158.999,-27.71541372722366,-51.10264122251099,4.735969
10153,1577397159.26,-0.4683292027915396,-0.951782752655773,16.928173640553542,3.042095987459508,-1.1113183364495998,13.118473242782963,-4.257824874356898,-6.46381892595989,15.69218163228849,-15.4018867306593,-7.746254525533536,-7.441636992663872,-6.109098108803353,-3.1284239233993905,-8.27789306640625,-35.46700826505335,-67.78847298971037,16.667435808879574,-12.781416933760685,5.112566773504274,-2.014877852182537,-3.060807314378743,13.193690476190474,-15.407105654761905,29.338574894419985,37.91676400994399,39.546140713451344,1577397158.999,-27.71541372722366,-51.10264122251099,4.735969
10154,1577397159.27,-0.7676044103110709,-0.8655914928901485,12.861622120778152,-1.2363423792397104,0.4856141708746179,12.919754504989998,2.4914296056235705,-9.24109285174114,12.725765775354896,-14.5626533322218,2.919639029153964,-4.023668242663872,-8.275846155678353,-5.508795017149391,-4.21905517578125,-30.919889124428355,-74.74648080221037,4.551957293254573,-13.9175428834283,7.121075148809524,-1.8598872481684945,26.258504854933427,14.885189255189252,-12.978358230311354,29.338574894419985,37.9646868541648,39.68990924611376,1577397158.999,-27.71541372722366,-51.10264122251099,4.735969
10155,1577397159.28,-0.1283525670493521,1.3538334460746946,13.842047700612136,-0.3935833948647103,1.4361122299566502,14.460423273300544,-1.7666580469643198,3.566688929264719,10.448879996546305,-6.704376965034299,-4.419838509908536,-3.321763945788872,-6.7499672494283525,-1.785650485899391,-5.30242919921875,-23.19894185880335,-68.06313119283537,-4.755904034870427,-12.970771258705287,7.121075148809524,-1.5499060401404114,-3.382997557997558,14.37773962148962,-12.978358230311354,29.62611195974481,37.9886482762752,39.71387066822416,1577397158.999,-27.71541372722366,-51.10264122251099,4.735969
10156,1577397159.29,1.954602877286585,6.415175755645008,17.404619770924636,4.823382022615758,1.912558360327744,17.607601355575934,10.066683658357944,6.984411799137765,7.645269852503334,-3.0727851681592986,-26.239906869283537,-9.852525664538872,-6.231168421303353,-4.349127048399391,-5.50079345703125,-25.640348108803355,-38.97987923971037,-10.004927472370428,-14.48560585826211,6.025525125915753,-1.5499060401404114,-2.094236583522298,15.561788766788766,-17.026270604395606,29.43442058286159,38.15637823104801,39.64198640189295,1577397158.999,-27.71541372722366,-51.10264122251099,4.735969
10157,1577397159.3,-2.563255655428258,0.9755495837700072,7.578816157643386,-0.850875911954554,-1.123289344750381,11.191140906357184,1.0237839879477897,3.730691742985423,10.142422184046302,6.235076159965701,6.108725943216464,-3.901597930163872,-0.1886879525533537,-4.623785251524391,-10.26153564453125,-14.470914515053352,-27.596822599085368,9.831498308879572,-13.7281885584837,6.75589180784493,-1.2399248321123315,-2.738617070759928,15.90008852258852,-16.62147936698718,29.29065205019917,37.86884116572318,39.83367777877617,1577397158.999,-27.71541372722366,-51.10264122251099,4.735969
10158,1577397159.31,1.1908525476967415,-4.885456080292492,5.383333235280105,0.7316913854087271,-2.320390174828506,5.739543726181402,-3.1828283289467416,-26.268655058772392,9.395431266077551,-17.8890693478468,-3.641640267721036,-4.344102812976372,-3.240445765053354,-7.7365782202743905,-4.89044189453125,-28.814176233803355,-28.848043302210368,-7.105757550495427,-14.58028302073441,6.116820961156899,-1.6274013421474347,-2.738617070759928,15.90008852258852,-16.62147936698718,29.410459160751188,38.10845538682721,39.68990924611376,1577397158.999,-27.71541372722366,-51.10264122251099,4.735969
10159,1577397159.32,0.1781052454506478,-1.1385304821479605,18.83395816203792,-1.0926902796303355,-2.692688532982803,10.155648688339609,0.4910741185630237,12.689794355290108,11.868641581018958,-11.0683906369093,-6.403481088033536,-3.749010039538872,-0.8295570931783538,-10.23901962652439,-5.14984130859375,-10.656217249428355,-40.73463998189786,-6.937910870807924,-14.86431450815131,5.295158443986569,-1.8598872481684976,-3.060807314378743,6.089395604395604,-33.82510695684524,29.43442058286159,37.9646868541648,39.546140713451344,1577397158.999,-27.71541372722366,-51.10264122251099,4.735969
10160,1577397159.33,1.071142464688929,-1.0283972057807729,15.201954243580886,-0.8245396936928353,0.2126751816168054,14.957220117782963,-4.2913436975990855,-0.0497526784012947,18.031316654261147,-18.3620918087843,-9.790932259908535,-3.871080352038872,0.1470054068216463,-7.5229551733993905,-4.18853759765625,-15.172818811928352,-51.24794564596037,13.249467058879572,-14.86431450815131,5.295158443986569,-1.8598872481684976,-2.738617070759928,18.26818681318681,-55.48143815819597,29.09896067331596,38.10845538682721,39.83367777877617,1577397158.999,-27.71541372722366,-51.10264122251099,4.735969
10161,1577397159.34,2.6608923670326794,2.7520472156059443,15.417432392994948,0.0756801305259146,4.017061619605087,16.740900354599372,4.1338519444907575,-2.771959965998952,17.65782119527677,5.380583972465701,-6.952797494283536,-5.396959258288872,-4.857877405678353,-5.112066501524391,-2.41851806640625,-23.137906702553355,-52.68227181783536,2.3546916682545733,-12.40270828387148,6.938483478327229,-2.324859060210617,-2.738617070759928,18.26818681318681,-55.48143815819597,29.5302662713032,37.91676400994399,39.73783209033456,1577397158.999,-27.71541372722366,-51.10264122251099,4.735969
10162,1577397159.35,-1.8581632665122425,1.7117665942680549,12.213990571705889,1.469105496736852,2.151978526343369,16.894129260849372,3.741202872225133,6.749780036442454,8.945321353968177,11.2399589724657,2.797568716653964,-3.901597930163872,-1.2262856088033538,-1.2363340796493902,-7.66754150390625,-15.508512171303352,-46.24306283346037,4.796097918254573,-13.633511396011396,7.394962654532966,-1.4724107381333944,-2.738617070759928,18.26818681318681,-55.48143815819597,29.338574894419985,37.9646868541648,39.64198640189295,1577397158.999,-27.71541372722366,-51.10264122251099,4.735969
10163,1577397159.36,0.0392415491615843,-6.298035059784679,3.2812241776629176,-2.2143737574135387,-1.834367237816788,4.865660120224371,0.9052710057700551,-4.666970580012624,4.184451352747474,-17.0193183712843,17.278159536966463,-0.3920764457888719,0.7420981802591484,-6.485357517149391,-5.79071044921875,-20.147184046303355,-11.468282560022868,-8.631636456745426,-13.917542883428302,7.668850160256409,-1.7048966441544575,-3.2219024361881505,7.611744505494503,-36.45625,29.19480636175757,37.94072543205439,39.64198640189295,1577397158.999,-27.71541372722366,-51.10264122251099,4.735969
10164,1577397159.37,1.3249278406654914,-1.2342985485542104,8.117511531178543,-0.515687679532679,0.2629534164800867,7.791374548935309,-1.3560524622475227,1.875185456364329,8.526336063440834,-15.2187812619093,-9.699379525533535,-2.864000273913872,-2.538541468178354,-3.4641172827743905,-4.58526611328125,14.398714391196648,7.101663729039634,-5.885054425495427,-13.917542883428302,7.668850160256409,-1.7048966441544575,-2.899712192569336,-2.5372481684981683,-55.68383377690018,29.4823434270824,37.9646868541648,39.73783209033456,1577397158.999,-27.71541372722366,-51.10264122251099,4.735969
10165,1577397159.38,1.9665738855873665,1.7560593249809446,6.803094819752761,0.5880392857993522,-2.483195887719131,13.728994666122809,0.9184391149009146,3.6780193064619855,12.51268182760099,11.7892753787157,-0.7272115567835366,-2.680894805163872,0.9709800161966464,-9.04883407964939,-4.85992431640625,7.440706578696647,5.118021150914634,9.556840105754572,-13.538834233539092,6.938483478327229,-2.9448214762667897,-1.9331414617128904,-2.875547924297924,-63.37486728766025,29.4823434270824,37.91676400994399,39.73783209033456,1577397158.999,-27.71541372722366,-51.10264122251099,4.735969
10166,1577397159.39,-0.3306626073325552,-0.190426624726086,12.398344099537915,0.2181351293052115,0.5191329941168065,10.699132465195076,3.2767277501548207,-1.2983288441727805,11.732172086390053,11.2857353396532,-16.672646127096037,-3.565904570788872,1.8712485708841464,-8.60632919683689,-4.58526611328125,-5.529264124428353,-1.1838587318978655,-2.8332966129954267,-13.065448421177589,5.751637620192309,-1.9373825501755144,-1.9331414617128904,-2.875547924297924,-66.00601033081502,29.386497738640788,38.0126096983856,39.68990924611376,1577397158.999,-27.71541372722366,-51.10264122251099,4.735969
10167,1577397159.4,0.9969222132240853,1.8709810046684443,13.272227705494949,3.1594118688071644,0.6675734970464939,12.735400977157964,1.3015113805259146,-4.974625493342702,12.460009391077552,-4.903839855659299,-14.246498666158535,-3.230211211413872,1.8865073599466464,-14.57251572027439,-2.35748291015625,-3.698209436928354,2.1578160727896343,-4.023482159870427,-13.160125583649888,6.208116796398045,-2.014877852182537,-3.2219024361881505,-2.5372481684981683,-68.63715337396978,29.43442058286159,38.0605325426064,39.64198640189295,1577397158.999,-27.71541372722366,-51.10264122251099,4.735969
10168,1577397159.41,-0.3318597081626334,0.2884137073051635,6.949141121022293,4.224831607576696,0.2294345932378992,15.38817641661109,2.424391959139196,-4.819002385432546,10.587743692835364,6.479216784965701,7.024253286966464,-3.047105742663872,-0.8905922494283537,-2.4875547827743905,-7.39288330078125,0.7268393911966463,-6.173482755335366,-15.040327862995428,-13.160125583649888,6.208116796398045,-2.014877852182537,-2.738617070759928,-1.6914987789987788,-49.409569597069606,29.338574894419985,38.15637823104801,39.73783209033456,1577397158.999,-27.71541372722366,-51.10264122251099,4.735969
10169,1577397159.42,0.9107309534584602,-2.226695136688976,9.151806648366042,1.3493954137290396,1.079376182593369,14.049817688583747,0.1666597936118521,2.552744526188548,10.29086268697599,-7.8945625119092995,-3.458534798971036,-1.856920195788872,0.0554526724466463,-7.6145079077743905,-4.49371337890625,-5.956510218178353,-2.2672327553353657,-10.737349347370428,-14.201574370845206,5.934229290674606,-1.317420134119355,29.480407291121576,-1.6914987789987788,-68.839548992674,29.410459160751195,37.91676400994399,39.73783209033456,1577397158.999,-27.71541372722366,-51.10264122251099,4.735969
10170,1577397159.43,0.6689165857826791,2.079276549102038,12.88197283488948,2.275951456209508,-0.3978462417230372,14.702237640976325,0.6478943273032582,0.9306729014326888,13.015464176233802,4.648162097465701,-20.472084603658537,-2.986070586413872,2.145906774009146,-11.06299423589939,-3.63922119140625,-3.1488930306783534,-9.545675138147866,-5.686690167682927,-13.160125583649888,8.034033501221,-1.7048966441544575,27.38617070759928,-2.706398046398045,-68.839548992674,29.5302662713032,38.0126096983856,39.73783209033456,1577397158.999,-27.71541372722366,-51.10264122251099,4.735969
10171,1577397159.44,1.6289914515053352,-0.1664846081245229,10.801411592213698,2.460304984041539,-1.3986225356683497,10.039529907822027,6.338911673494664,8.157570612614329,3.2638808144173965,9.1952812380907,-23.676430306783537,-3.626939727038872,4.968782750571647,-11.15454697027439,-5.56182861328125,9.821077672446648,20.376810213414632,7.268021746379573,-14.674960183206712,6.938483478327229,-2.014877852182537,27.8694560730275,-2.0297985347985343,-61.553306719322336,29.338574894419985,37.725072633060776,39.64198640189295,1577397158.999,-27.71541372722366,-51.10264122251099,4.735969
10172,1577397159.45,3.721523702481898,-0.999666785858898,11.115052009694168,4.164976566072789,-2.310813368187881,4.317387940048589,0.7652102086509146,5.942934076969797,4.27662811666349,4.129363269340701,-25.080238900533537,-4.481431914538872,2.924105016196646,-9.81177353277439,-3.18145751953125,13.727327672446648,39.78598990091464,13.066361590129572,-14.674960183206712,6.938483478327229,-2.014877852182537,27.8694560730275,-3.382997557997557,-68.02996651785715,29.338574894419985,37.91676400994399,39.73783209033456,1577397158.999,-27.71541372722366,-51.10264122251099,4.735969
10173,1577397159.46,2.640541652921351,0.5218483691703979,4.316716395680495,1.545719949861852,2.0993060898199314,7.058748840927496,-3.513228158048304,-7.217992448909108,3.599069046839271,14.3527519412157,-1.3528219083460369,-3.031846953601372,-1.1957680306783538,-11.58179306402439,-3.54766845703125,3.564974156821646,46.74399771341464,3.727982683879573,-14.769637345679016,7.394962654532964,-1.1624295301053118,-3.2219024361881505,-3.21384768009768,-63.37486728766025,29.24272920597837,37.62922694461916,39.83367777877617,1577397158.999,-27.71541372722366,-51.10264122251099,4.735969
10174,1577397159.47,1.0926902796303353,-0.0922643566596792,5.100817439381668,1.2416563390220083,0.8615038315191497,5.795807465195074,2.1885630956138047,-9.333269615657157,15.396497727259192,2.4814140505907014,-15.497719369283535,-4.664537383288872,4.404207555259147,-8.75891708746189,-5.82122802734375,12.842317906821648,34.35386099466464,-16.459395245807926,-14.296251533317507,6.938483478327229,-0.7749530200702122,9.82680243037386,-2.5372481684981683,-58.71976805746337,29.338574894419985,37.9646868541648,39.68990924611376,1577397158.999,-27.71541372722366,-51.10264122251099,4.735969
10175,1577397159.48,3.673639669278773,-1.4761129162299915,9.417563032643386,1.169830289217321,1.567793321265244,8.816092859482184,0.1738423985923209,5.356354670231516,17.705705228479896,5.258513659965701,-29.108559213033537,-5.030748320788872,3.717562047446646,-11.49024032964939,-3.18145751953125,21.845003453696645,12.472757479039634,-24.531294659870422,-13.538834233539092,7.303666819291819,-1.7048966441544575,27.547265829408687,-3.382997557997557,-54.67185568337912,29.29065205019917,38.0605325426064,39.498217869230544,1577397158.999,-27.71541372722366,-51.10264122251099,4.735969
10176,1577397159.49,2.409501192716273,-1.5407563610542103,12.31933544475276,-0.0871255823647093,-1.956471522484756,14.66752171690406,-3.63054403939596,2.6820314158369856,20.087935880335365,1.4132988162157014,-7.502113900533536,-1.704332305163872,3.717562047446646,-13.59595322027439,-1.65557861328125,1.3066733755716462,-8.797994474085366,-12.415816144245428,-13.538834233539092,7.303666819291819,-1.7048966441544575,21.264556078841792,-1.8606486568986569,-13.585545086423991,29.62611195974481,37.725072633060776,39.64198640189295,1577397158.999,-27.71541372722366,-51.10264122251099,4.735969
10177,1577397159.5,1.84327250008932,-2.3715443371284293,12.400738301198071,2.1275109532798204,-2.4508741653070216,12.838351648544684,2.875698972078649,7.282489905827218,12.184676200159585,-5.3310859494093,5.589927115091463,-1.750108672351372,6.357332555259147,-0.2139952124618911,-3.39508056640625,4.633089391196648,-15.054097989710368,-2.177168683307927,-13.9175428834283,6.3907084668803416,-1.084934228098292,25.6141243676958,-2.706398046398045,-12.57356699290293,29.458382004971995,37.86884116572318,39.66594782400336,1577397158.999,-27.71541372722366,-51.10264122251099,4.735969
10178,1577397159.51,-1.1027926427329455,-2.412245765351085,9.348131184498856,0.8322478551352896,-2.3275727798089747,7.906296228622809,2.831406241365758,-1.998632829768483,12.51986443258146,3.0917656130907014,5.040610708841464,-1.856920195788872,5.457064000571647,-7.5839903296493905,-2.78472900390625,1.3982261099466462,-14.718404630335366,12.333939715129572,-14.48560585826211,7.851441830738705,-2.7898308722527494,27.547265829408687,-2.0297985347985343,-4.072951007326006,29.338574894419985,37.9646868541648,39.64198640189295,1577397158.999,-27.71541372722366,-51.10264122251099,4.735969
10179,1577397159.52,1.5164639734779914,6.807824827910633,10.023296052662918,-2.143744808438929,7.637094529761337,14.11206693174781,4.282292447420446,-2.1374965260575456,9.876665799768958,19.4491874880907,-3.3212056974085367,-3.565904570788872,9.576937047446648,-15.09131454839939,-1.77764892578125,1.3066733755716462,-26.498189786585368,-8.967329816120428,-14.86431450815131,6.39070846688034,-1.8598872481684976,-3.2219024361881505,-3.21384768009768,-11.966380136790292,29.5302662713032,37.91676400994399,39.546140713451344,1577397158.999,-27.71541372722366,-51.10264122251099,4.735969
10180,1577397159.53,-1.0142071813071647,1.849433189727039,6.940761415211746,-1.9881217005287728,2.3363320541754,13.00594576475562,7.940632584139196,6.04349054669636,4.657306180628334,17.1756279177782,-4.908119759908536,-3.428575469226372,15.405794469321648,-0.7175352515243902,-6.01959228515625,-2.385953577553354,-16.518941739710368,-3.5352009098704267,-14.485605858262108,7.121075148809522,-1.2399248321123315,-3.382997557997558,-3.382997557997557,-12.168775755494504,29.31461347230958,37.9646868541648,39.64198640189295,1577397158.999,-27.71541372722366,-51.10264122251099,4.735969
10181,1577397159.54,1.2578901941811165,-5.845530946015148,5.991460456959793,4.285883749910679,-1.2034951003656154,8.4102756780857,-1.184867043546351,-1.0325724598954364,8.508379550989662,-14.6389472775343,-18.274818978658537,-3.077623320788872,3.610750524009146,-10.361089939024389,-4.75311279296875,3.214022008384146,-3.0454309975228657,1.759598894817073,-13.538834233539092,6.208116796398045,-1.084934228098292,-1.772046339903483,9.472393162393162,-3.6681597699175823,29.338574894419985,37.84487974361279,39.76179351244497,1577397158.999,-27.71541372722366,-51.10264122251099,4.735969
10182,1577397159.55,0.3169689417397103,-1.2414811535346792,9.633041182057449,-1.7391247278725228,-3.3570794936761623,19.024968738388434,-3.4150658899818978,2.871173346989329,7.372330863245521,10.2023613162157,-14.765297494283535,-1.734849883288872,11.224886266196648,-15.09131454839939,-2.23541259765625,3.320833531821646,-3.9762171303353657,12.456010027629572,-12.970771258705287,6.025525125915753,-0.6199624160561659,-0.4832853654282228,20.636285103785102,-3.263368532509159,29.43442058286159,37.9646868541648,39.88160062299697,1577397158.999,-27.71541372722366,-51.10264122251099,4.735969
10183,1577397159.56,-0.1044105504477896,-2.2302864391792103,9.137441438405103,0.3198886998618521,-2.0306917739495995,14.083336511825934,5.488970084139195,-9.17644940691692,16.17102196431974,4.037810534965701,-13.300453744283535,-0.5751819145388719,9.180208531821648,-2.1213438452743905,-4.98199462890625,1.1540854849466462,-3.8236292397103657,6.779740496379573,-14.106897208372905,7.851441830738705,-0.6199624160561659,-0.8054756090470375,18.60648656898657,-3.263368532509159,29.43442058286159,37.91676400994399,39.64198640189295,1577397158.999,-27.71541372722366,-51.10264122251099,4.735969
10184,1577397159.57,0.5755427210365853,2.937597844268054,16.286527595631668,-1.5236465784584603,2.9013636459722747,8.662863953232184,-1.3752060755287727,-8.965759660823172,12.747313590296304,3.839446277153201,-17.710243783346037,-0.0106067192263719,3.931185094321646,-6.454839939024391,-1.86920166015625,5.609651891196647,-10.506978849085366,-12.812544659870428,-13.728188558483698,7.66885016025641,-0.7749530200702089,2.4164268271411125,15.90008852258852,-14.597523179945052,29.410459160751188,37.91676400994399,39.88160062299697,1577397158.999,-27.71541372722366,-51.10264122251099,4.735969
10185,1577397159.58,2.529211275724085,-0.0515629284370229,9.431928242604323,1.2572186498130238,1.0721935776129,11.434152374863045,0.0996221471274771,4.754212952702218,10.24537285543302,18.1064140505907,-12.354408822408535,-2.009508086413872,10.828157750571648,-10.162725681211889,-2.95257568359375,23.46243509432165,-8.859029630335366,-11.347700909870428,-14.48560585826211,7.121075148809524,-1.5499060401404114,2.0942365835222976,16.914987789987787,-17.026270604395606,29.146883517536764,37.79695689939198,39.68990924611376,1577397158.999,-27.71541372722366,-51.10264122251099,4.735969
10186,1577397159.59,2.7279300135170543,-2.0626923229682728,12.896338044850417,3.2982755650962265,0.5718054306402429,8.404290173935308,1.6917662511313831,-1.816673503596608,9.85032958150724,1.8710624880907007,-7.990395150533536,-1.765367461413872,8.081575719321647,-3.6167051733993913,-2.14385986328125,2.466341344321646,-7.699361661585366,-13.728072003620428,-12.781416933760685,7.668850160256409,-1.3949154361263716,-3.382997557997558,15.561788766788766,-17.026270604395606,29.5302662713032,37.772995477281576,39.68990924611376,1577397158.999,-27.71541372722366,-51.10264122251099,4.735969
10187,1577397159.6,2.888341524747523,-0.2239454479682729,12.872396028248854,2.3908731358970083,0.7920719833746189,9.53435335752906,4.730008157869664,4.369943586247142,4.152129630335365,12.5522148318407,-3.3517232755335367,-1.124498320788872,11.926790563071648,-13.32129501714939,-1.56402587890625,14.581819859946648,4.568704744664634,0.8288127620045732,-13.34947990859449,6.025525125915753,-1.5499060401404114,-3.382997557997558,15.90008852258852,-55.48143815819597,29.29065205019917,37.91676400994399,39.73783209033456,1577397158.999,-27.71541372722366,-51.10264122251099,4.735969
10188,1577397159.61,2.081495565274867,-0.7578524181831167,2.179891413991043,2.8170410314048207,-0.9676662368402248,1.90403266661109,-0.4079486048256478,5.186366352360422,0.8050357094369269,13.6966240115282,9.892905630716465,-0.2852649223513719,10.339876500571648,3.554925685975609,-1.68609619140625,11.163851109946648,11.435159822789634,18.25434987137957,-14.106897208372905,6.75589180784493,-0.929943624084252,27.547265829408687,13.193690476190474,-54.67185568337912,29.31461347230958,38.0605325426064,39.546140713451344,1577397158.999,-27.71541372722366,-51.10264122251099,4.735969
10189,1577397159.62,1.751095736173304,3.810284349395007,4.533391645924636,0.289961179109899,1.0243095444097747,5.840100195907965,1.0429376012290394,-2.6654179921219985,9.578587693079506,16.9467460818407,-11.408363900533535,-0.1174182426638719,7.745882359946647,-9.15564560308689,-2.95257568359375,-0.3260170541158538,-4.678121427210366,2.614091082317073,-14.296251533317507,7.303666819291819,-0.1549906040140398,12.162681696610266,13.278265415140414,-16.520281557635073,29.19480636175757,37.9646868541648,39.66594782400336,1577397158.999,-27.71541372722366,-51.10264122251099,4.735969
10190,1577397159.63,0.7910208704506478,1.396929075957507,8.395238923756668,-0.9681917933022104,0.6172952621832127,10.74821359922828,0.2193322301352896,-3.7942840748856703,9.347547232874428,16.0312187380907,-24.561440072408537,-4.603502227038872,4.022737828696647,-2.1823790015243905,-1.19781494140625,11.011263219321648,-10.903707364710366,-15.772749737995428,-13.34947990859449,7.851441830738705,-1.2399248321123315,-2.094236583522298,12.85539072039072,-16.216688129578753,29.5302662713032,37.86884116572318,39.64198640189295,1577397158.999,-27.71541372722366,-51.10264122251099,4.735969
10191,1577397159.64,0.2164124720131478,0.666697569609851,11.29222293254573,-0.5779369226967416,-0.1296956557855372,12.30444467832984,0.4300219762290396,4.041937958805735,11.375436039026772,21.7380058474657,-10.401283822408535,-1.948472930163872,10.736605016196648,-4.379644626524391,-0.58746337890625,-2.050260218178354,-16.915670255335368,-23.615767316120422,-13.160125583649888,5.842933455433458,-0.464971812042126,-2.738617070759928,15.561788766788766,-8.525654618818681,29.5302662713032,38.0605325426064,39.68990924611376,1577397158.999,-27.71541372722366,-51.10264122251099,4.735969
10192,1577397159.65,0.0152995325600228,-1.9693184582221792,12.222370277516433,0.6706392430747428,0.1085274094000096,10.373521039413824,3.5364986302817734,4.946946186344797,9.974828067835364,-11.3277900509718,-0.8340230802210362,-0.1326770317263719,2.786775914634146,-7.9502012671493905,-1.12152099609375,8.661409703696648,-5.761495450647866,-1.3989704411204271,-12.781416933760685,6.573300137362635,-0.7749530200702122,-3.060807314378743,15.561788766788766,-12.775962611607143,29.19480636175757,37.9646868541648,39.59406355767214,1577397158.999,-27.71541372722366,-51.10264122251099,4.735969
10193,1577397159.66,4.236277059415492,1.2963726062309446,12.470170149342604,2.170606583162633,5.388939170874619,12.012352075790778,3.0684322057212268,2.045173774235423,4.032419547327552,-11.8923652462843,-18.793617806783537,0.2487926948361281,8.936067906821647,-0.5039122046493902,0.90789794921875,10.431429234946648,11.953958650914634,20.42109791825457,-12.970771258705287,7.851441830738705,-1.2399248321123315,-0.8054756090470375,15.561788766788766,-15.407105654761905,29.146883517536764,37.86884116572318,39.73783209033456,1577397158.999,-27.71541372722366,-51.10264122251099,4.735969
10194,1577397159.67,2.6154025354897104,2.706557384062976,12.870001826588698,6.458621756502477,-1.049069093285537,5.914320447372809,-2.047976742032679,1.2742408396651106,10.822375455530675,16.4584648318407,-6.922279916158536,1.438978241711128,9.210726109946648,-0.5649473608993902,-1.22833251953125,-0.6159340463033537,23.855814119664632,18.37642018387957,-13.917542883428302,6.208116796398045,-1.084934228098292,-2.738617070759928,15.561788766788766,-15.00231441735348,29.4823434270824,37.772995477281576,39.83367777877617,1577397158.999,-27.71541372722366,-51.10264122251099,4.735969
10195,1577397159.68,2.191628841642054,2.7783834338676634,10.214832185475418,-0.9969222132240853,2.4608305405035247,2.3206237554782776,1.6247286046470084,-10.138918474299736,8.988416983850989,26.9870292849657,2.385581411966464,1.927259491711128,9.302278844321648,-16.09839462652439,0.45013427734375,4.205843297446647,21.597513338414632,-0.6055134098704268,-12.781416933760685,6.573300137362635,-1.084934228098292,-3.060807314378743,18.26818681318681,-17.026270604395606,29.29065205019917,38.0605325426064,39.73783209033456,1577397158.999,-27.71541372722366,-51.10264122251099,4.735969
10196,1577397159.69,1.7678551477943978,-0.0862788525092891,7.389674226491043,-0.1733168421303356,0.7465821518316502,9.221910040878669,3.86450425772318,5.371916981022531,8.508379550989662,14.2611992068407,-4.343544564596035,-0.941392852038872,13.467928258384148,0.0759217797256095,-0.20599365234375,25.232454625571645,24.60349478372713,-12.553145245807928,-12.781416933760685,6.573300137362635,-1.3949154361263716,-2.255331705331705,18.60648656898657,-15.204710036057692,29.31461347230958,38.0126096983856,39.61802497978255,1577397158.999,-27.71541372722366,-51.10264122251099,4.735969
10197,1577397159.7,0.1374038172279906,-6.1376235485542106,0.8774457108660424,-1.281832210782679,-3.92689948879335,-5.549117101455315,-4.056711934903773,-3.8804753346512952,8.77772723775724,-16.1037910275343,0.0357278963414634,0.5539684760861281,2.435823766196646,8.04100967035061,-2.47955322265625,12.506624547446648,3.6836949790396334,-3.626753644245426,-12.970771258705287,7.486258489774114,-1.2399248321123315,-3.382997557997558,-3.0446978021978017,-14.597523179945052,29.43442058286159,37.9646868541648,39.83367777877617,1577397158.999,-27.71541372722366,-51.10264122251099,4.735969
10198,1577397159.71,3.20916454720846,1.2748247912895383,10.006536641041825,4.741979166170445,2.0226916366949315,8.085861353134527,-2.6800459803139294,-8.628177226741139,8.466481021936927,-3.3169257931592986,-8.020912728658537,-0.0258655082888719,1.0320151724466462,-10.11694931402439,2.03704833984375,1.1846030630716462,-16.793599942835368,-3.779341534870426,-14.296251533317507,7.303666819291819,-1.3949154361263716,-3.382997557997558,-3.0446978021978017,-14.597523179945052,29.29065205019917,37.772995477281576,39.73783209033456,1577397158.999,-27.71541372722366,-51.10264122251099,4.735969
10199,1577397159.72,3.5862513086830696,0.8702047107231327,10.809791298024246,0.2576394566977896,1.7832714706793065,15.206217090439216,1.4834707066977897,-0.6866103200028582,6.941374564417396,11.8197929568407,-12.064491830221035,1.362684296398628,-3.545621546303354,11.03173232660061,1.39617919921875,12.567659703696648,-13.375631192835366,-4.969527081745427,-14.012220045900603,6.482004302121487,-0.3874765100351028,-2.416426827141113,-3.0446978021978017,-12.168775755494504,29.4823434270824,37.9646868541648,39.73783209033456,1577397158.999,-27.71541372722366,-51.10264122251099,4.735969
10200,1577397159.73,3.539564376310023,4.703321568633288,19.961627143971512,2.935554013582555,1.1631732406988375,7.717154297470465,4.363695303865758,5.859137018864328,10.102917856653724,13.3151542849657,-31.275307259908537,0.1267223823361281,1.6881431021341462,2.517328029725609,1.47247314453125,9.149690953696648,9.039529939977134,1.5764934260670729,-13.7281885584837,6.75589180784493,-0.6199624160561659,-2.4164268271411133,-3.382997557997557,-52.64789949633701,29.146883517536764,37.84487974361278,39.66594782400336,1577397158.999,-27.71541372722366,-51.10264122251099,4.735969
10201,1577397159.74,4.260219076017054,0.0178689197075072,8.76394597942073,4.380454715486851,-4.626006373558975,9.462527307724372,-0.0895197840248656,-0.0258106617997322,11.176717301233802,-10.0307929806593,11.693442740091465,-1.673814727038872,3.564974156821646,-6.973638767149391,2.89154052734375,-1.5924965463033538,7.589944979039634,14.592240496379572,-13.917542883428302,5.842933455433458,-1.084934228098292,-0.8054756090470375,-3.382997557997557,-55.076646920787546,29.146883517536764,37.772995477281576,39.68990924611376,1577397158.999,-27.71541372722366,-51.10264122251099,4.735969
10202,1577397159.75,1.904324642423304,-1.2869709850776478,10.128640925709792,2.908020694490758,-1.295671864281631,9.785744531845468,3.300669766756383,-6.214821953303639,9.776109330042395,0.9555351443407012,16.362632193216463,-1.093980742663872,2.679964391196646,2.029046779725609,-1.62506103515625,-1.5009438119283538,3.5005895102896343,1.133988543254573,-13.34947990859449,7.486258489774114,-0.929943624084252,-2.416426827141113,20.297985347985342,-55.48143815819597,29.338574894419985,37.9646868541648,39.73783209033456,1577397158.999,-27.71541372722366,-51.10264122251099,4.735969
10203,1577397159.76,1.2710583033119758,-0.6800408642280391,12.164909437672684,-0.4797746546303353,0.9405124863043064,13.470420886825934,-3.4988629480873668,1.1617133616377668,9.074608243616614,-11.4803779415968,21.260703482278963,-0.4836291801638719,1.8865073599466464,-0.9311582983993902,-0.64849853515625,7.959505406821647,9.420999666539634,-3.718306378620426,-13.633511396011396,6.847187643086079,-1.1624295301053116,-2.416426827141113,20.297985347985342,-55.48143815819597,29.410459160751188,38.0605325426064,39.64198640189295,1577397158.999,-27.71541372722366,-51.10264122251099,4.735969
10204,1577397159.77,2.782996651700648,3.628325023223132,11.002524531666824,-1.9438289698158824,3.1300099045171965,6.543995483993903,-1.394359688810023,-2.8557570241044203,12.91490770650724,10.6906425662157,3.7893900057164633,2.110364960461128,0.4674399771341462,5.9200379906631095,1.35040283203125,7.5780356802591475,5.606302400914634,-7.868697003620428,-13.917542883428302,7.303666819291819,-1.7048966441544575,-1.9331414617128904,9.134093406593404,-55.48143815819597,29.29065205019917,37.91676400994399,39.66594782400336,1577397158.999,-27.71541372722366,-51.10264122251099,4.735969
10205,1577397159.78,4.695963778165492,2.0960359607231323,9.659377400319167,4.840141434236852,1.1871152573004002,6.553572290634528,5.498546890779821,-1.4455722462723892,8.322828922327552,19.2355644412157,-6.250893197408536,-0.4225940239138719,0.1164878286966463,18.23388076410061,0.87738037109375,6.036897984946647,-9.621969083460366,-12.629439191120428,-13.917542883428302,7.303666819291819,-1.7048966441544575,-3.382997557997558,-3.382997557997557,-49.409569597069606,29.19480636175757,38.0605325426064,39.88160062299697,1577397158.999,-27.71541372722366,-51.10264122251099,4.735969
10206,1577397159.79,3.000869002774867,1.2724305896293822,5.426428865162918,7.926267374178257,-3.6587489028558497,1.0181780523532775,6.755502762361852,1.6070348704268291,2.524072501429115,20.7919609255907,-10.889565072408535,-0.941392852038872,-4.308560999428353,10.05516982660061,0.78582763671875,-2.324918421303354,-8.370748380335366,-9.669234112995428,-13.538834233539092,7.303666819291819,-0.464971812042126,-3.382997557997558,-3.382997557997557,-49.409569597069606,29.43442058286159,38.0605325426064,39.73783209033456,1577397158.999,-27.71541372722366,-51.10264122251099,4.735969
10207,1577397159.8,0.0212850367104134,0.523045470000476,8.920766188160965,2.2340529271567737,-2.617271180687881,13.213044208359138,3.3150349767173206,-1.2492477101395765,12.401351450403723,1.4590751834032014,8.916343130716465,-3.138658477038872,3.137728063071646,-7.7365782202743905,-2.43377685546875,-5.849698694740853,-12.643209317835368,1.713822527629573,-14.012220045900603,7.029779313568374,-0.5424671140491459,-2.4164268271411133,-3.382997557997557,-52.24310825892857,29.24272920597837,37.94072543205439,39.73783209033456,1577397158.999,-27.71541372722366,-51.10264122251099,4.735969
10208,1577397159.81,2.3879533777748665,0.3530571521293822,11.229973689381668,0.7269029820884146,2.705039109839462,18.560493616318123,4.155399759432164,4.748227448551829,11.614856205042395,-10.7021796994093,-1.2460103849085369,-5.763170195788872,-1.3788734994283538,9.53637099847561,-2.38800048828125,-7.360318811928353,-14.260640958460366,6.291459246379573,-12.592062608816082,6.75589180784493,-0.929943624084252,27.708360951218097,-0.1691498778998777,-55.68383377690018,29.43442058286159,37.772995477281576,39.73783209033456,1577397158.999,-27.71541372722366,-51.10264122251099,4.735969
10209,1577397159.82,0.0368473475014281,0.0106863147270385,15.917820539967604,0.7005667638266959,-2.121671437035537,16.362616492294684,1.794716922518102,1.882368061344798,14.806327018030675,-12.5942695431593,12.273276724466465,-2.314683867663872,4.755159703696647,3.005609279725609,-3.66973876953125,-3.301480921303354,-9.316793302210366,14.897416277629572,-12.592062608816082,6.75589180784493,-0.929943624084252,27.547265829408687,-1.353199023199023,-48.59998712225275,29.146883517536764,37.9646868541648,39.64198640189295,1577397158.999,-27.71541372722366,-51.10264122251099,4.735969
10210,1577397159.83,0.3840065882240853,-1.3061245983588978,11.127023017994947,3.8249999303306015,0.1935215683355554,14.519081213974372,2.30707607779154,-10.56987477312786,16.19017557760099,-17.4465644650343,19.963706411966463,0.4013805854611281,-4.674771936928353,2.761468654725609,-1.50299072265625,-20.452359827553355,-14.718404630335366,5.070756121379573,-14.106897208372905,7.486258489774114,-0.6199624160561659,27.547265829408687,-1.353199023199023,-48.59998712225275,29.4823434270824,37.9646868541648,39.73783209033456,1577397158.999,-27.71541372722366,-51.10264122251099,4.735969
10211,1577397159.84,0.7120122156654916,0.6128280322563358,12.362431074635571,-2.038399935392054,0.8279850082769628,15.64315889341773,4.916755887361852,3.539155610172921,13.712176859339271,-2.2335517697217995,2.294028677591464,-1.231309844226372,1.9780600943216464,-1.9534971655868905,-0.06866455078125,1.0320151724466466,-17.327657560022868,-8.784224347370428,-12.023999633982273,6.75589180784493,-0.9299436240842488,27.547265829408687,-3.0446978021978017,-10.347215187156593,29.266690628088774,37.9646868541648,39.57010213556175,1577397158.999,-27.71541372722366,-51.10264122251099,4.735969
10212,1577397159.85,-0.4707234044516959,2.064911339141101,14.232302571217604,1.8928791905845084,-0.797677918969131,8.219936646103278,0.0062482823813834,2.04756797589558,15.141515250452551,9.9277031130907,1.988852896341464,-1.460191680163872,6.372591344321647,9.10912490472561,-5.28717041015625,-2.782682093178354,-19.845357755335368,-0.8496540348704268,-12.970771258705287,7.121075148809524,-0.929943624084252,25.29193412407698,-0.3382997557997558,-3.668159769917581,29.19480636175757,37.91676400994399,39.64198640189295,1577397158.999,-27.71541372722366,-51.10264122251099,4.735969
10213,1577397159.86,0.6186383509193978,-4.538296839569835,5.56529256145198,2.6997251500571644,-6.299553334008193,4.231196680282965,-1.901930440763148,-4.459872136409108,8.358741947229896,0.0705253787157013,0.6460794588414634,-4.695054961413872,5.334993688071647,-6.393804782774391,-1.89971923828125,-6.444791468178353,-28.390279630335368,-4.298140362995427,-12.970771258705287,7.121075148809524,-0.929943624084252,26.258504854933427,-0.6765995115995113,-4.072951007326006,29.5302662713032,37.9646868541648,39.68990924611376,1577397158.999,-27.71541372722366,-51.10264122251099,4.735969
10214,1577397159.87,1.369220571378382,-1.6018085033881952,7.779929097096511,-0.6760991907631478,0.5311040024175867,8.672440759872808,5.311799161287633,12.46473939923542,0.4195692421517707,2.2525322146532005,-2.787148080221036,-2.894517852038872,6.189485875571647,-11.06299423589939,-2.23541259765625,3.564974156821646,-15.969625333460366,4.246781512004573,-13.728188558483698,8.034033501220998,-0.1549906040140398,26.258504854933427,-0.6765995115995113,-4.072951007326006,29.55422769341361,37.9646868541648,39.546140713451344,1577397158.999,-27.71541372722366,-51.10264122251099,4.735969
10215,1577397159.88,2.852428499845179,2.488685032988757,12.884367036549635,2.582409268709508,3.558572001685165,9.965309656357183,1.692963351961461,-6.717604301936452,8.510773752649818,10.5380546755907,-21.265541634908537,-3.504869414538872,0.4064048208841462,3.539666896913109,-3.79180908203125,-1.6230141244283538,6.079324861852134,4.704545183879572,-12.592062608816082,7.851441830738705,-1.8598872481684976,12.887609744752602,8.964943528693528,-8.323259000114469,29.43442058286159,37.9646868541648,39.66594782400336,1577397158.999,-27.71541372722366,-51.10264122251099,4.735969
10216,1577397159.89,1.5667422083412728,1.2245465564262572,14.905073237721512,-1.6601160730873663,-0.3930578384027247,12.512740222763435,-4.430207393888148,-1.7735778737137955,12.91490770650724,19.7238456912157,-10.736977181783535,-3.749010039538872,1.2761557974466462,-0.0461485327743902,-1.96075439453125,6.067415563071647,17.386087557164632,-4.023482159870427,-12.781416933760685,6.938483478327229,-1.084934228098292,-0.8054756090470375,18.26818681318681,-15.407105654761905,29.146883517536764,38.0605325426064,39.83367777877617,1577397158.999,-27.71541372722366,-51.10264122251099,4.735969
10217,1577397159.9,2.1461390100990854,-4.923763306854992,13.004077119557447,0.8681608800376334,-2.997949244652725,8.107409168075934,1.4523460851157584,-2.250024004084889,11.368253434046302,-9.3288886837843,5.925620474466464,-0.4225940239138719,4.144808141196647,0.9609315453506098,2.00653076171875,18.884798375571645,20.224222322789632,-10.615279034870428,-12.781416933760685,6.938483478327229,-1.084934228098292,0.4832853654282225,17.5915873015873,-16.62147936698718,29.146883517536764,37.91676400994399,39.68990924611376,1577397158.999,-27.71541372722366,-51.10264122251099,4.735969
10218,1577397159.91,2.142547707608851,2.71014868655321,14.943380464284012,2.311864481111852,1.6468019760504002,15.469579273056404,-5.761383516935023,1.0731279002119856,13.135174259241614,4.9533378787157005,3.514731802591464,-2.055284453601372,0.8489097036966463,3.310785060975609,0.20599365234375,10.736605016196648,16.256937166539632,-9.364058331745428,-13.254802746122191,7.577554325015264,-1.0074389260912722,0.4832853654282225,17.5915873015873,-16.62147936698718,29.31461347230958,38.0605325426064,39.73783209033456,1577397158.999,-27.71541372722366,-51.10264122251099,4.735969
10219,1577397159.92,2.706382198575648,0.724158409453601,10.873237642018386,0.4635407994712271,1.0757848801031349,13.078968915390387,1.1291288609946646,3.7139323313643287,10.598517600306067,11.2094413943407,7.817710318216464,-1.856920195788872,5.579134313071647,7.0949647484756095,-2.79998779296875,13.208528844321648,18.77463736185213,-12.904097394245428,-13.538834233539092,6.938483478327229,-1.7048966441544575,0.9665707308564448,-2.706398046398046,-16.216688129578756,29.43442058286159,37.91676400994399,39.66594782400336,1577397158.999,-27.71541372722366,-51.10264122251099,4.735969
10220,1577397159.93,2.282608504727992,-3.013190382050304,11.876408137623857,1.9790704503501333,-3.5079141982660063,2.703696021103277,-0.4797746546303353,5.253403998844798,11.255725956018958,1.4743339724657014,8.336509146341463,-1.612779570788872,7.562776891196647,14.48021865472561,1.27410888671875,13.605257359946648,14.761575838414634,0.4015666682545732,-13.538834233539092,6.938483478327229,-0.464971812042126,-3.060807314378743,16.23838827838828,-17.026270604395606,29.43442058286159,38.0605325426064,39.64198640189295,1577397158.999,-27.71541372722366,-51.10264122251099,4.735969
10221,1577397159.94,1.933055062345179,-6.736173963593274,6.841402046315261,4.1721591710532575,-6.311524342308974,4.6860949957126525,-4.988056380704554,-6.447059514338796,12.208618216761144,-2.9507148556592986,18.254722036966463,-2.497789336413872,4.968782750571647,8.25463271722561,-1.68609619140625,3.442903844321646,0.2657262290396341,7.145951433879573,-13.538834233539092,6.938483478327229,-0.464971812042126,-2.738617070759928,15.561788766788766,-53.86227320856226,29.146883517536764,37.91676400994399,39.546140713451344,1577397158.999,-27.71541372722366,-51.10264122251099,4.735969
10222,1577397159.95,3.163674715665492,0.9647756762993044,10.249548109547684,-1.0256526331459603,1.7713004623785251,10.408236963486091,8.541577200838415,0.4530296702315168,10.108903360804115,7.8525078005907005,-2.314125619283536,-0.1479358207888719,-1.8061195931783536,1.5407655297256098,4.29534912109375,5.365511266196647,2.0052281821646343,2.2021037776295733,-12.023999633982273,7.668850160256412,-0.774953020070209,25.6141243676958,14.20858974358974,-15.81189689217033,29.43442058286159,37.91676400994399,39.546140713451344,1577397158.999,-27.71541372722366,-51.10264122251099,4.735969
10223,1577397159.96,3.975309078458461,8.74473397097704,13.595444929616042,3.1462437596763047,6.698567478980087,13.586539667343512,2.808661325594274,-2.866530931575124,9.77371512838224,44.3515312380907,-7.532631478658536,1.072767304211128,5.548616734946648,19.27147842035061,0.19073486328125,6.906648961509147,15.677103182164632,-4.877974347370428,-12.781416933760685,7.668850160256409,-2.324859060210617,11.196110965753824,13.954864926739925,-16.115490320226648,29.338574894419985,37.84487974361279,39.68990924611376,1577397158.999,-27.71541372722366,-51.10264122251099,4.735969
10224,1577397159.97,0.4175254114662728,1.6411376452934443,7.411222041432449,-5.969679061368616,-4.0753399917230375,12.835957446884528,1.0237839879477897,7.367484064762766,12.414519559534584,20.3647148318407,18.376792349466463,-3.413316680163872,1.4287436880716462,2.151117092225609,1.36566162109375,11.011263219321648,3.2869664634146343,-0.7581013004954268,-12.781416933760685,7.668850160256409,-1.3949154361263716,-3.382997557997558,13.53199023199023,-16.62147936698718,29.338574894419985,37.9646868541648,39.68990924611376,1577397158.999,-27.71541372722366,-51.10264122251099,4.735969
10225,1577397159.98,-4.598327066561071,-5.618081788300304,15.11576298381526,-0.7096180140053353,-4.187867469750381,17.10003060362281,-1.2483133875404917,-1.7735778737137955,10.848711673792396,-16.6225898556593,12.761557974466465,-3.871080352038872,5.090853063071647,1.7849061547256098,1.79290771484375,7.990022984946647,15.738138338414634,6.169388933879573,-12.781416933760685,7.668850160256409,-1.3949154361263716,-3.382997557997558,13.53199023199023,-16.62147936698718,29.338574894419985,37.91676400994399,39.546140713451344,1577397158.999,-27.71541372722366,-51.10264122251099,4.735969
10226,1577397159.99,-0.404882858797399,-4.351549110077649,10.243562605397292,-0.2427486902748665,-0.47924909816835,13.414157147812263,2.7236671666587267,-0.8051233021805925,13.481136399134192,-33.1173408322218,35.46663609946646,2.949598358898628,1.1693442740091462,15.822992092225611,1.76239013671875,10.934969274009148,23.96262564310213,0.8440715510670731,-12.592062608816082,7.303666819291819,-1.084934228098292,-2.738617070759928,17.084137667887667,-16.823874985691393,29.410459160751195,37.94072543205439,39.76179351244496,1577397158.999,-27.71541372722366,-51.10264122251099,4.735969
10227,1577397160.0,1.214794564298304,4.499814427520007,12.637764265553542,1.9599168370688835,3.732151622046493,14.428101550888435,2.6901483434165394,5.495218366520579,13.542188541468176,-5.147980480659299,-4.725014291158536,0.035169647961128,7.837435094321647,2.059564357850609,1.85394287109375,18.762728063071645,23.245462557164632,-0.6055134098704268,-13.917542883428302,8.034033501221,-0.7749530200702122,-2.094236583522298,15.90008852258852,-13.787940705128204,29.5302662713032,38.15637823104801,39.64198640189295,1577397159.999,-27.71542650665881,-51.10269103536539,5.2155185
10228,1577397160.01,1.626597249845179,5.866903575469226,14.06231425334651,0.4348103795493521,5.862991099585557,10.82243385069312,-0.477380452970179,-4.926741460139577,5.667659281214271,52.2861015505907,-0.2694478849085365,2.262952851086128,3.107210484946646,10.81810927972561,-1.10626220703125,12.140413609946648,23.153909822789632,-6.281782941120427,-13.538834233539092,6.573300137362635,-0.7749530200702122,-3.382997557997558,18.60648656898657,-14.597523179945052,29.338574894419985,37.9646868541648,39.73783209033456,1577397159.999,-27.71542650665881,-51.10269103536539,5.2155185
10229,1577397160.02,1.9534057764565076,-1.909463416718273,6.757604988209793,6.34130587515482,-3.39059831691835,4.180918445419684,-0.324151546720179,-2.9036410573075453,8.859130094202552,17.1145927615282,-1.825844369283536,-1.612779570788872,9.332796422446648,12.64916396722561,1.64031982421875,11.469026891196648,23.123392244664632,-8.051802472370428,-12.781416933760685,7.303666819291819,-1.3949154361263716,-3.382997557997558,18.26818681318681,-14.597523179945052,29.43442058286159,37.9646868541648,39.68990924611376,1577397159.999,-27.71542650665881,-51.10269103536539,5.2155185
10230,1577397160.03,2.0336115320717414,-3.968476844452648,4.902098701588699,2.9032322911704456,-2.168358369408584,8.93340874082984,0.644303024813024,3.095031202213938,10.675132053431067,-3.5305488400342986,1.5616068025914631,-1.826402617663872,0.6658042349466464,-0.2445127905868902,1.96075439453125,13.651033727134148,11.099466463414634,-2.6959675114329267,-12.592062608816082,7.121075148809524,-0.929943624084252,-3.382997557997558,-3.382997557997557,-17.026270604395606,29.338574894419985,37.9886482762752,39.64198640189295,1577397159.999,-27.71542650665881,-51.10269103536539,5.2155185
10231,1577397160.04,1.2602843958412728,2.519809654570788,9.158989253346512,-0.0583951624428343,2.549416001929306,14.38021751768531,-1.1693047327553352,-4.704080705745046,7.492040946253334,1.0776054568407014,3.545249380716464,0.1267223823361281,6.097933141196647,10.51293349847561,-0.83160400390625,1.8254722036966464,7.223734041539634,4.277299090129573,-13.34947990859449,7.121075148809524,-1.2399248321123315,-3.060807314378743,19.62138583638584,-14.597523179945052,29.43442058286159,37.725072633060776,39.73783209033456,1577397159.999,-27.71542650665881,-51.10269103536539,5.2155185
10232,1577397160.05,0.0416357508217406,5.012173582793445,15.826840876881668,0.7364797887290396,2.441676927222275,11.215082922958748,2.9223859044516955,-0.2652308278153572,6.524783475550208,24.9728691287157,-2.3446431974085367,0.1877575385861281,2.435823766196646,9.20067763910061,3.16619873046875,6.921907750571647,12.716898104039634,-4.450728253620427,-14.48560585826211,6.75589180784493,-0.929943624084252,-2.094236583522298,-3.382997557997557,-16.216688129578753,29.19480636175757,37.91676400994399,39.64198640189295,1577397159.999,-27.71542650665881,-51.10269103536539,5.2155185
10233,1577397160.06,0.755107845548304,1.438827605010242,8.87288215495784,1.2225027257407584,2.3985812973394625,12.481615601181405,5.496152689119664,6.431351215641672,11.341917215784584,9.9582206912157,7.543052115091465,0.2793102729611281,6.189485875571647,1.1135194359756098,-1.65557861328125,12.781282750571648,22.146829744664632,-9.608198956745428,-12.592062608816082,5.660341784951164,-0.6199624160561659,-2.738617070759928,-3.0446978021978017,-17.026270604395606,29.386497738640788,37.9646868541648,39.73783209033456,1577397159.999,-27.71542650665881,-51.10269103536539,5.2155185
10234,1577397160.07,0.5396296961342415,-1.1289536755073355,9.000971943776198,0.4803002110923209,-1.1544139663324122,10.069457428573982,-0.964600490811976,1.6178087778975312,8.5610519875131,-3.9883125119092986,21.275962271341463,0.6455212104611281,2.313753453696646,7.0797059594131095,1.35040283203125,10.156771031821645,29.913553377477136,11.250565691692072,-11.834645309037668,5.660341784951164,0.6199624160561659,-0.7249280481423339,-2.9601228632478627,-48.90358055030906,29.4823434270824,38.0126096983856,39.78575493455536,1577397159.999,-27.71542650665881,-51.10269103536539,5.2155185
10235,1577397160.08,-0.2456684483970084,0.4967092517387572,9.249968916432447,-1.7199711145912728,-0.9628778335199122,10.010799487900153,3.7938753087485706,-12.207508708674736,5.468940543421303,-2.0962226681592986,7.878745474466464,0.4929333198361281,7.196565953696647,-1.6330625952743902,3.25775146484375,3.809114781821646,33.74350943216464,2.2021037776295733,-14.674960183206712,6.208116796398045,0.1549906040140463,-0.6443804872376302,-2.5372481684981683,-48.80238274095696,29.4823434270824,37.772995477281576,39.64198640189295,1577397159.999,-27.71542650665881,-51.10269103536539,5.2155185
10236,1577397160.09,-0.6478943273032584,1.4783319324028197,9.309823957936356,-0.199653060392054,-1.1639907729730372,8.868765296005622,-0.6784933924233041,-0.2604424244950447,4.954187186487709,8.4323417849657,9.374106802591465,1.133802460461128,4.236360875571647,1.4797303734756098,-1.10626220703125,16.199251500571645,45.06553091653964,-11.103560284870428,-13.160125583649888,7.303666819291819,-0.464971812042126,-0.6443804872376302,-2.5372481684981683,-48.80238274095696,29.5302662713032,38.0605325426064,39.68990924611376,1577397159.999,-27.71542650665881,-51.10269103536539,5.2155185
10237,1577397160.1,-0.558111765047399,-1.4186520763862422,5.6383157120867455,1.2799635655845083,-2.5358683242425686,2.2033078741306213,5.433903445955601,5.571832819645579,10.211854032190834,1.8710624880907012,2.629722036966464,0.035169647961128,5.029817906821647,4.5009706078506095,-0.43487548828125,26.666780797446645,52.42026724466464,-7.594038800495427,-12.40270828387148,6.573300137362635,-0.464971812042126,-0.8054756090470375,-3.0446978021978017,-54.26706444597069,29.386497738640788,37.91676400994399,39.68990924611376,1577397159.999,-27.71542650665881,-51.10269103536539,5.2155185
10238,1577397160.11,-0.0445555089438834,4.626707115508288,10.356090083424636,-1.873200020841273,3.875803721655869,12.084178125595466,-1.454214730313929,-2.4319833302567644,9.961659958704503,13.6813652224657,-6.861244759908536,-0.6362170707888719,2.786775914634146,2.105340725038109,1.18255615234375,18.091341344321645,43.50913443216464,-11.668135480182928,-13.7281885584837,6.75589180784493,-0.6199624160561659,-3.2219024361881505,-1.8606486568986569,-52.44550387763278,29.5302662713032,37.9886482762752,39.59406355767215,1577397159.999,-27.71542650665881,-51.10269103536539,5.2155185
10239,1577397160.12,1.3153510340248664,0.7600714343559447,9.707261433522293,1.0596970128501333,-1.314825477562881,4.324570545029059,-0.1062791956459593,3.292552839176829,7.834411783655677,8.3407890505907,-11.560951791158535,-1.399156523913872,6.708284703696647,11.15380263910061,-0.83160400390625,14.215608922446648,30.203470369664632,-8.112837628620428,-13.160125583649888,5.477750114468864,-1.084934228098292,-3.060807314378743,-0.6765995115995113,-48.59998712225275,29.338574894419985,38.0605325426064,39.73783209033456,1577397159.999,-27.71542650665881,-51.10269103536539,5.2155185
10240,1577397160.13,0.6186383509193978,0.781619249297351,8.397633125416824,0.8657666783774771,0.1695795517339929,7.006076404404059,-1.9976985071693976,-0.2005873829911384,10.918143521936928,5.075408191215701,2.965415396341464,0.4929333198361281,3.107210484946646,-11.30713486089939,2.76947021484375,10.584017125571648,25.412210604039632,-5.518843487995427,-13.7281885584837,6.39070846688034,0.0,-3.060807314378743,-3.382997557997557,-49.409569597069606,29.5302662713032,38.0605325426064,39.64198640189295,1577397159.999,-27.71542650665881,-51.10269103536539,5.2155185
10241,1577397160.14,1.5942755274330696,-1.2606347668159292,6.793518013112137,0.7161290746177115,0.7070778244390721,9.005234790634528,0.0732859288657584,1.5435885264326892,8.855538791712318,-2.4166572384717986,7.329429068216463,0.111463593273628,1.2914145865091462,5.3249452172256095,-1.19781494140625,6.143709508384147,16.623148104039632,2.0800334651295733,-12.592062608816082,6.75589180784493,0.3099812080280861,-3.3024499970928543,-1.9452235958485955,-47.68920683808379,29.290652050199174,38.0126096983856,39.73783209033456,1577397159.999,-27.71542650665881,-51.10269103536539,5.2155185
10242,1577397160.15,0.4007659998451791,-1.4186520763862416,9.59952235881526,1.8018995274985707,-3.718603944359756,5.442662720322027,-2.0431883387123664,-0.6099958668778581,8.760967826136145,-8.5964668087843,4.979575552591464,-0.3920764457888719,2.832552281821646,-1.5415098608993902,3.19671630859375,4.663606969321647,12.228616854039634,7.390092058879573,-11.455936659148463,6.39070846688034,-0.929943624084252,-1.9331414617128904,-1.8606486568986569,-47.58800902873169,29.29065205019917,37.9646868541648,39.64198640189295,1577397159.999,-27.71542650665881,-51.10269103536539,5.2155185
10243,1577397160.16,-0.2696104649985709,3.975484263945788,9.45347605754573,-3.0295994226967418,6.337043028296494,14.619637683700937,2.03892549185404,-6.856467998225514,12.43606737447599,7.211638659965701,-2.4056783536585367,0.2487926948361281,0.2995932974466463,-11.55127548589939,0.45013427734375,0.8489097036966463,9.085306307164634,-6.525923566120427,-13.7281885584837,7.121075148809524,0.6199624160561659,28.836026803883943,-3.0446978021978017,-51.0287345467033,29.5302662713032,37.9646868541648,39.73783209033456,1577397159.999,-27.71542650665881,-51.10269103536539,5.2155185
10244,1577397160.17,0.5779369226967416,4.693744761992663,10.2268031937762,-0.7335600306068978,1.2421818954839938,9.22071294004859,-2.4861156458412728,3.045950068180735,7.559078592737708,19.6322929568407,-8.722817025533537,0.6760387885861281,5.945345250571647,6.3015077172256095,-1.80816650390625,10.187288609946648,11.007913729039634,-6.495405987995427,-12.592062608816082,6.39070846688034,-0.929943624084252,28.836026803883943,-3.0446978021978017,-12.168775755494504,29.43442058286159,37.91676400994399,39.64198640189295,1577397159.999,-27.71542650665881,-51.10269103536539,5.2155185
10245,1577397160.18,0.4833659571205697,-0.2119744396674922,9.048855976979324,0.9854767613852896,-0.6719823318109278,7.675255768417732,-0.4450587305580696,-1.9555371998856703,8.262973880823646,-2.782868175971799,8.061850943216465,0.3861217963986281,1.5202964224466462,-2.1060850562118905,1.19781494140625,4.633089391196647,14.624246736852134,-0.6970661442454269,-12.023999633982273,7.303666819291819,-1.084934228098292,27.063980463980464,-2.875547924297924,-12.37117137419872,29.31461347230958,37.84487974361278,39.66594782400336,1577397159.999,-27.71542650665881,-51.10269103536539,5.2155185
10246,1577397160.19,0.870029525235804,-0.4825192272651479,8.845348835866043,0.1714481969321646,2.626030455054306,8.837640674423591,-2.526817074063929,-3.715275420100514,8.06904354635099,-9.6035468869093,3.6673196932164633,1.042249726086128,-2.233365686928354,3.036126857850609,-0.03814697265625,0.8489097036966463,11.068948885289634,-5.885054425495427,-12.023999633982273,7.303666819291819,-1.084934228098292,26.41959997674283,-3.21384768009768,-10.347215187156593,29.338574894419985,38.25222391948962,39.68990924611376,1577397159.999,-27.71542650665881,-51.10269103536539,5.2155185
10247,1577397160.2,1.6218088465248666,0.915694542266101,8.692119929616043,0.2241206334556021,0.5071619858160242,6.1130391851657775,3.875278165193883,7.475223139469797,5.437815921839271,2.0846855349657014,-3.2601705411585367,1.255872772961128,1.0930503286966462,5.0502870141006095,2.22015380859375,8.691927281821647,11.191019197789634,0.0658733088795732,-12.213353958926874,7.121075148809524,-0.3099812080280861,26.41959997674283,-3.21384768009768,-10.347215187156593,29.5302662713032,38.10845538682721,39.64198640189295,1577397159.999,-27.71542650665881,-51.10269103536539,5.2155185
10248,1577397160.21,1.980939095548304,-0.0611397350776485,8.589169258229324,3.817817325350133,0.2294345932378992,5.186483142685309,-2.6728633753334603,-0.6243610768387956,7.523165567835365,2.8018486209032014,-1.1239400724085362,0.5081921088986281,-1.1042152963033538,3.9211366234756095,-0.06866455078125,2.588411656821646,10.397562166539634,4.979203387004573,-12.402708283871476,6.573300137362638,0.6199624160561658,-0.8054756090470375,18.60648656898657,-4.072951007326006,29.5063048491928,37.9646868541648,39.83367777877617,1577397159.999,-27.71542650665881,-51.10269103536539,5.2155185
10249,1577397160.22,1.9857274988686164,2.019421507598132,7.933158003346511,0.9794912572348988,2.8247491928472748,11.53949724790992,-0.6126528467690067,-1.8597691334794209,9.968842563684976,-1.9131171994092984,4.765952505716464,2.903821991711128,-4.476407679115853,-1.6635801733993902,2.92205810546875,-2.111295374428354,6.476053377477134,-0.4834430973704267,-13.538834233539092,6.938483478327229,-1.084934228098292,-0.7249280481423341,19.5368108974359,-2.7573794857486256,29.19480636175757,38.0605325426064,39.68990924611376,1577397159.999,-27.71542650665881,-51.10269103536539,5.2155185
10250,1577397160.23,0.7934150721108041,4.688956358672351,12.800569978444168,0.8107000401938834,2.025085838355088,7.9876990850681215,-0.4127370081459603,1.5256320139815167,9.220654544886148,6.021453113090701,-6.922279916158536,1.042249726086128,-1.3178383431783538,7.3696229516006095,1.09100341796875,1.3066733755716462,6.155618807164634,-0.0867145817454267,-13.538834233539092,6.938483478327229,-1.084934228098292,-2.094236583522298,18.944786324786325,-4.072951007326006,29.43442058286159,38.10845538682721,39.64198640189295,1577397159.999,-27.71542650665881,-51.10269103536539,5.2155185
10251,1577397160.24,-0.9256217198813832,1.9475954577934445,12.321729646412916,1.2799635655845083,-2.9835840346917872,7.563925391220465,1.2248969274009145,0.465000678532298,8.320434720667397,-0.2651679806592987,8.977378286966463,1.286390351086128,0.1164878286966463,-0.1987364233993902,0.20599365234375,1.1235679068216462,9.237894197789634,-0.2087848942454268,-12.213353958926874,6.39070846688034,-1.5499060401404114,-2.094236583522298,18.60648656898657,-17.026270604395606,29.338574894419985,37.772995477281576,39.68990924611376,1577397159.999,-27.71542650665881,-51.10269103536539,5.2155185
10252,1577397160.25,0.2164124720131478,-2.972488953827648,6.8952715836687775,0.2743988683188834,-0.4984027114495997,11.801662329697027,-0.8676353235756478,-0.4352191456864518,12.337905106409584,-17.0345771603468,17.934287466653963,2.400281952648628,-3.331998499428354,-8.68262314214939,5.02777099609375,-1.7145668588033538,6.399759432164634,3.0565959651295733,-13.25480274612219,7.394962654532966,-1.0074389260912686,-3.060807314378743,15.90008852258852,-15.00231441735348,29.36253631653038,37.91676400994399,39.73783209033456,1577397159.999,-27.71542650665881,-51.10269103536539,5.2155185
10253,1577397160.26,-0.3438307164634146,0.8989351306450072,9.05843278361995,0.492271219393102,2.3219668442144625,11.243813342880625,0.7759841161216178,3.162068848698313,11.65076922994474,-9.5119941525343,0.7986673494664634,2.629163788586128,-0.3260170541158536,6.5914247094131095,0.96893310546875,0.4826987661966462,-7.302633145960366,4.368851824504573,-14.106897208372905,8.216625171703297,-0.929943624084252,-3.060807314378743,15.730938644688642,-16.216688129578756,29.5302662713032,37.86884116572319,39.61802497978255,1577397159.999,-27.71542650665881,-51.10269103536539,5.2155185
10254,1577397160.27,0.2858443201576791,2.821479063750476,10.415945124928545,1.7803517125571646,1.127260215796494,7.832075977157965,1.4762881017173208,-0.2484714161942634,10.13045117574552,14.8410331912157,-2.8024068692835367,2.262952851086128,-1.2568031869283538,-1.2973692358993902,3.19671630859375,-8.886197718178353,-18.807760099085368,4.765580340129573,-14.106897208372905,8.216625171703297,-0.929943624084252,-3.382997557997558,15.90008852258852,-15.407105654761905,29.338574894419985,37.91676400994399,39.73783209033456,1577397159.999,-27.71542650665881,-51.10269103536539,5.2155185
10255,1577397160.28,-0.3318597081626334,3.568469981719226,9.848519331471511,-1.86841161752096,0.0953593002691492,9.134521680282964,0.9926593663657584,-5.934700359065358,9.290086393030675,12.9184257693407,-7.227455697408536,1.835706757336128,1.3677085318216462,-6.607427829649391,0.96893310546875,-11.358121546303352,-24.636617520960368,2.2936565120045733,-14.296251533317507,5.842933455433458,0.1549906040140463,-3.382997557997558,15.90008852258852,-15.407105654761905,29.5302662713032,38.0605325426064,39.64198640189295,1577397159.999,-27.71542650665881,-51.10269103536539,5.2155185
10256,1577397160.29,1.0579743555580696,-2.7570108044135853,6.672610829274246,0.998644870516149,-0.7438083816156159,9.18240571348609,1.3242562962973987,4.463317450993235,5.810114279993568,-7.787750988471799,4.537070669778963,2.201917694836128,-2.660611780678354,1.0219667016006095,2.54058837890625,-1.4246498666158536,-6.417623380335366,4.353593035442072,-13.538834233539095,6.755891807844932,-0.464971812042126,-0.8054756090470377,15.22348901098901,-16.216688129578756,29.24272920597837,37.94072543205439,39.68990924611376,1577397159.999,-27.71542650665881,-51.10269103536539,5.2155185
10257,1577397160.3,1.1525453211342416,4.279547874785632,14.3639836625262,-0.228383480313929,1.9795960068121188,11.260572754501716,-1.4039364954506477,-10.759016704280205,9.19192412496427,0.1925956912157013,-9.211098275533535,2.323988007336128,2.069612828696646,-6.393804782774391,1.15203857421875,-8.184293421303353,8.597025057164634,4.887650652629573,-11.834645309037668,7.851441830738705,-0.929943624084252,-2.094236583522298,15.90008852258852,-15.407105654761905,29.5302662713032,37.91676400994399,39.64198640189295,1577397159.999,-27.71542650665881,-51.10269103536539,5.2155185
10258,1577397160.31,1.8085565760170537,2.019421507598132,11.57952713176448,-0.3552761683022103,0.6939097153082127,6.426679602646247,-0.3002095301186165,-3.109542400080983,9.225442948206458,10.4770195193407,2.141440786966464,2.293470429211128,-1.9892250619283536,4.4399354516006095,0.93841552734375,-4.613736780678353,4.446634432164634,-6.831099347370427,-11.834645309037668,7.851441830738705,-0.929943624084252,-1.772046339903483,19.62138583638584,-15.407105654761905,29.43442058286159,38.0605325426064,39.73783209033456,1577397159.999,-27.71542650665881,-51.10269103536539,5.2155185
10259,1577397160.32,0.6976470057045541,0.0226573230278197,8.38087371379573,0.8681608800376334,0.3132316513433679,7.78419194395484,4.363695303865758,12.493469819157294,10.072990335901771,-11.7397773556593,3.545249380716464,0.6150036323361281,-3.637174280678354,-0.5039122046493902,1.91497802734375,7.837435094321647,3.6531774009146334,-2.3144977848704267,-12.40270828387148,6.208116796398045,-0.7749530200702122,-1.772046339903483,19.62138583638584,-10.549610805860803,29.19480636175757,37.9646868541648,39.73783209033456,1577397159.999,-27.71542650665881,-51.10269103536539,5.2155185
10260,1577397160.33,1.0639598597084603,0.2285586658012577,9.259545723073074,0.989068063875524,0.3874519028082127,10.106567554306404,-1.44104662118307,-2.5121890858720004,7.351980149134193,-4.598664074409299,0.3714212557164635,1.103284882336128,-3.042081507240854,-2.090826267149391,0.57220458984375,-4.9189125619283525,7.071146150914634,7.100175066692072,-14.201574370845206,7.577554325015262,0.0774953020070199,-2.980259753474039,-2.283523351648351,-11.865182327438186,29.31461347230958,37.84487974361278,39.498217869230544,1577397159.999,-27.71542650665881,-51.10269103536539,5.2155185
10261,1577397160.34,1.8061623743568975,0.9180887439262572,10.1884959672137,0.1929960118735709,0.619689463843369,7.099450269150153,3.427562454744664,1.326913276188548,9.914973026331458,-2.0657050900342986,-2.2836080411585367,0.4013805854611281,-1.5924965463033538,4.8671815453506095,0.45013427734375,-1.8366371713033536,4.995950838414634,-8.753706769245428,-11.834645309037668,6.75589180784493,0.0,-1.1276658526658527,-0.6765995115995113,-12.978358230311354,29.4823434270824,38.0605325426064,39.73783209033456,1577397159.999,-27.71542650665881,-51.10269103536539,5.2155185
10262,1577397160.35,2.7686314417397107,0.5637468982231323,7.432769856373855,3.013365567537633,0.4688547592535242,2.5935627447360896,0.6742305455649771,6.014760126774485,8.545489676722083,-1.8520820431592984,1.6531595369664631,0.7981091010861281,-5.010465296303353,4.0737245141006095,-0.28228759765625,5.914827672446647,7.864603182164634,-1.368452862995427,-11.834645309037668,6.75589180784493,0.0,-1.4498560962846678,-0.6765995115995113,-12.978358230311354,29.338574894419985,37.91676400994399,39.64198640189295,1577397159.999,-27.71542650665881,-51.10269103536539,5.2155185
10263,1577397160.36,2.7183532068764293,2.0313925158989137,10.80021449138362,1.086033231111852,2.558992808569931,8.727507398056403,-1.502098763517054,-0.5645060353348894,7.853565396936927,-2.798126965034299,1.1801370760289636,1.103284882336128,-7.268766077553353,-6.576910251524391,3.47137451171875,-2.416471155678354,10.672220369664634,4.887650652629573,-12.402708283871478,6.3907084668803416,-0.3099812080280829,-1.4498560962846678,-0.6765995115995113,-12.978358230311354,29.386497738640788,37.91676400994399,39.68990924611376,1577397159.999,-27.71542650665881,-51.10269103536539,5.2155185
10264,1577397160.37,2.498086654142054,0.0322341296684447,8.682543122975417,3.0887829198325547,0.8208024032964937,8.459356812118902,1.1937723058188832,-3.965469493586842,8.3312086281381,-2.3098457150342986,3.575766958841464,-0.7582873832888719,-4.369596155678353,9.47533584222561,0.08392333984375,-6.6126381478658525,8.368143221227134,-5.167891339557927,-11.834645309037668,4.929975103021979,-0.929943624084252,-0.8860231699517414,-2.7909729853479845,-13.484347277071889,29.338574894419985,38.0126096983856,39.52217929134094,1577397159.999,-27.71542650665881,-51.10269103536539,5.2155185
10265,1577397160.38,2.414289596036585,-2.5798398815620227,8.22764480754573,2.8768960729087265,-1.460871778832412,4.183312647079839,-0.3600645716225228,1.575910248844798,9.694706473597083,-13.7844550900343,10.533774771341465,1.072767304211128,-5.376676233803353,-3.5861875952743905,1.21307373046875,0.5437339224466463,13.998636385289634,5.162308855754573,-12.592062608816082,6.025525125915753,-0.929943624084252,-2.5775219489505203,-2.5372481684981683,-10.347215187156593,29.43442058286159,38.15637823104801,39.68990924611376,1577397159.999,-27.71542650665881,-51.10269103536539,5.2155185
10266,1577397160.39,1.1812757410561163,1.2269407580864131,11.857254524342604,-1.329716243985804,6.174237315405869,13.70984105284156,-1.5523769983803353,-0.7057639332841081,10.71942478414396,-16.9277656369093,6.566489615091464,1.561048554211128,-8.031705530678353,-6.027593845274391,0.84686279296875,-6.261685999428353,5.850443025914634,4.643510027629573,-12.592062608816082,6.025525125915753,-0.929943624084252,-2.5775219489505203,-2.5372481684981683,-10.347215187156593,29.43442058286159,38.0605325426064,39.64198640189295,1577397159.999,-27.71542650665881,-51.10269103536539,5.2155185
10267,1577397160.4,1.6972261988197883,2.938794945098132,10.141809034840652,-0.5204760828529915,1.828761302222275,10.997210571884528,1.2799635655845083,0.4051456370283918,8.818428665979896,1.3064872927782014,3.8962015291539633,1.194837616711128,-2.965787561928354,8.89550185785061,1.70135498046875,-7.604459436928353,4.202493807164634,0.9203654963795732,-12.686739771288384,6.2994126316391945,-1.0074389260912722,-2.5775219489505203,-0.5074496336996336,-8.728050237522895,29.31461347230958,37.91676400994399,39.68990924611376,1577397159.999,-27.71542650665881,-51.10269103536539,5.2155185
10268,1577397160.41,1.128603304532679,1.7608477283012571,11.397567805592605,0.6694421422446646,1.5091353805914152,8.75623781797828,0.8992855016196646,0.2866326548506572,12.84427875753263,-5.575226574409299,6.841147818216464,0.8286266792111281,-6.4753090463033525,-0.0919248999618911,1.31988525390625,-6.3837563119283525,-0.9702356850228656,0.6457072932545731,-12.781416933760685,4.747383432539684,-1.7048966441544575,-3.060807314378743,-1.6914987789987783,-12.978358230311356,29.4823434270824,38.084493964716806,39.59406355767214,1577397159.999,-27.71542650665881,-51.10269103536539,5.2155185
10269,1577397160.42,0.7144064173256478,-0.4202699841010854,8.524525813405106,2.386084732576696,-0.012379774437881,11.543088550400151,-1.885171029142054,0.560768744938548,11.07616083150724,-7.955597668159299,19.750083365091463,1.805189179211128,-6.170133265053353,4.7451112328506095,0.69427490234375,-11.754850061928352,-15.756002286585366,-3.992964581745426,-13.538834233539092,6.208116796398045,-0.464971812042126,-3.382997557997558,0.0,-48.59998712225275,29.43442058286159,37.9646868541648,39.64198640189295,1577397159.999,-27.71542650665881,-51.10269103536539,5.2155185
10270,1577397160.43,0.8772121302162728,-0.6094119152534292,8.232433210866043,1.1578592809165396,-0.7426112807855372,7.530406567978278,1.5720561681235707,5.9884239085127655,10.154393192347085,-19.0334785275343,3.423179068216464,0.7065563667111281,-7.177213343178353,11.45897842035061,0.14495849609375,-8.977750452553353,-19.997945645960368,3.758500262004573,-13.160125583649888,5.842933455433458,-1.7048966441544575,-0.1610951218094077,0.0,-51.0287345467033,29.43442058286159,37.91676400994399,39.45029502500974,1577397159.999,-27.71542650665881,-51.10269103536539,5.2155185
10271,1577397160.44,1.4781567469154917,0.6224048388969604,8.875276356617995,1.3015113805259146,1.5881440353765717,10.640474524521249,0.8609782750571646,-2.2224906849930925,9.74737891012052,-3.0422675900342986,-0.7119527677210367,0.2030163276486281,-9.267667444740852,-0.9006407202743903,1.50299072265625,-17.82784810880335,-25.994649747522868,9.251664324504572,-12.876094096232986,6.2994126316391945,-1.6274013421474345,-1.369308535379964,-1.437773962148962,-46.27243750715431,29.290652050199174,37.9886482762752,39.59406355767214,1577397159.999,-27.71542650665881,-51.10269103536539,5.2155185
