,timestamp,acc_x_dashboard,acc_y_dashboard,acc_z_dashboard,acc_x_above_suspension,acc_y_above_suspension,acc_z_above_suspension,acc_x_below_suspension,acc_y_below_suspension,acc_z_below_suspension,gyro_x_dashboard,gyro_y_dashboard,gyro_z_dashboard,gyro_x_above_suspension,gyro_y_above_suspension,gyro_z_above_suspension,gyro_x_below_suspension,gyro_y_below_suspension,gyro_z_below_suspension,mag_x_dashboard,mag_y_dashboard,mag_z_dashboard,mag_x_above_suspension,mag_y_above_suspension,mag_z_above_suspension,temp_dashboard,temp_above_suspension,temp_below_suspension,timestamp_gps,latitude,longitude,speed
18516,1577399190.56,0.126717502500952,2.1683291718273616,13.582773179365947,3.7102534361304302,-3.1588279171827365,12.010892196729708,1.896908456793064,7.962822745867473,13.412317700195311,0.0176778653772865,0.2169725371570121,-7.712759622713414,0.0526614305449695,-2.873118330792683,-9.878763338414634,-6.390269209698933,-0.3721655868902439,-7.665494593178353,-0.9696247329059772,2.351780715811969,-1.7283800690050757,-13.133962691955478,19.429500187312687,-3.147569077557058,28.66765507532872,33.41201665318837,34.70593344715009,1577399190.0,-27.69474741406784,-51.111873785276586,5.2124534
18517,1577399190.57,0.9994040076279052,-1.4684631499499807,10.81747026188548,-0.3934082093773811,0.410926758110232,16.342002999952363,3.0724614719297825,4.208714542742474,10.608707556152345,-8.786643423685213,-0.8664014862804876,-6.812491068025914,-1.5037350538300305,-10.319407393292684,-6.857523104039634,-2.819712569073933,5.456691834984756,7.043978063071647,-2.027397168803418,3.5787967414529898,-1.7283800690050757,-2.450812508805297,21.629066246253743,-1.6726212489433638,28.595770808997518,33.17240243208434,34.94554766825411,1577399190.0,-27.69474741406784,-51.111873785276586,5.2124534
18518,1577399190.58,2.384449668028296,1.9815814423351743,9.299546409346418,1.0574779966773058,1.6176043948289829,8.219673867872284,2.0381663547422826,-2.229293721417683,5.516240625,8.471047006002287,-11.105048947217988,-8.140005716463415,6.125659477419969,2.192799637957317,-8.841165682164634,1.1475725871760671,15.893703553734758,-1.7603432259908538,-2.027397168803418,4.396807425213674,-2.630143583268586,-3.067148096294731,19.612797358891108,-3.8850429918639056,28.66765507532872,33.24428669841555,34.65801060292928,1577399190.0,-27.69474741406784,-51.111873785276586,5.2124534
18519,1577399190.59,3.6294345313095455,-1.4014255034656056,8.626775742842511,3.987980828708555,-1.5068287716749231,1.7493438813000182,-5.6256731594178735,-9.198814754132526,15.021221215820312,9.081398568502289,-19.192207150342988,-8.475699075838415,-0.4051022413300305,-5.284007002667683,-7.773050447789634,-0.1036481159489328,16.046291444359756,1.8254722036966464,-2.027397168803418,4.396807425213674,-2.630143583268586,-0.6018057463369949,19.612797358891108,-1.525126466081995,28.38011801000389,33.17240243208434,34.70593344715009,1577399190.0,-27.69474741406784,-51.111873785276586,5.2124534
18520,1577399190.6,2.386843869688452,-2.141233816453887,7.817535581709698,-2.586496930080507,4.373330505668826,12.410723873975805,1.269627621832126,-20.05891348460128,13.845668200683592,8.532082162252287,-3.994453244092988,-3.9896150914634143,-0.2219967725800304,-19.71882145579268,-4.110941072789634,-4.803355147198933,-11.297458555640244,-26.494840296303355,-2.027397168803418,4.396807425213674,-2.630143583268586,-0.6018057463369949,19.612797358891108,-1.525126466081995,28.61973223110792,33.17240243208434,34.8017791355917,1577399190.0,-27.69474741406784,-51.111873785276586,5.2124534
18521,1577399190.61,2.317412021543921,1.6463932099132994,11.21969614079173,4.454850152439024,0.0829211306688263,8.68893739326291,5.075211160650485,16.648986368914347,5.389347937011719,-2.530539908060213,-3.612983517530488,-6.644644388338414,2.478808891482469,7.899586747332316,-8.200296541539634,15.399281571551068,0.5433617568597562,-24.22128072599085,-1.4103632478632449,2.863037393162391,-0.601175676175679,-1.4235865296562409,19.612797358891108,-1.525126466081995,28.61973223110792,33.12447958786354,34.8017791355917,1577399190.0,-27.69474741406784,-51.111873785276586,5.2124534
18522,1577399190.62,3.610280918028296,0.8132110321789243,12.802263438155013,6.973550298923398,-2.320857336128048,8.59915483100705,2.543342905035251,4.745015714617473,6.035782385253906,4.442726693502286,-7.168281369092988,-7.712759622713414,1.4259524461699695,-12.058909346417684,-7.467874666539634,7.220570634051067,23.67568597560976,20.502230016196645,-1.6748063568376068,3.5787967414529875,-0.8266165547415584,-3.067148096294731,19.612797358891108,-1.2301369003592555,28.61973223110792,33.31617096474676,34.753856291370894,1577399190.0,-27.69474741406784,-51.111873785276586,5.2124534
18523,1577399190.63,2.2575569800400146,-0.5778201323718558,10.266803880049542,1.0311417784155863,2.307134472953982,10.83533918159299,-7.06458835717178,-7.058398469952839,3.5769372802734374,-9.259665884622711,3.2076951934070124,-6.614126810213414,-2.0225338819550305,-5.039866377667683,-9.359964510289634,-1.4159039753239329,42.23037347560975,7.227083531821647,-1.8511017628205124,2.556283386752136,-0.0751469595219649,-9.641394362848688,16.680042613636363,-29.84412477546492,28.66765507532872,33.17240243208434,34.70593344715009,1577399190.0,-27.69474741406784,-51.111873785276586,5.2124534
18524,1577399190.64,1.0221489233993897,1.282474557569549,6.92210416081126,-3.812328180080507,2.299951867973513,5.335857968214081,4.027747934332126,-11.518796162823932,9.10993731689453,0.4754415372522865,10.074150271532012,-6.644644388338414,-0.3745846632050305,6.892506669207317,-9.817728182164634,10.058705399676068,73.78554925685975,-2.233365686928354,-1.8511017628205124,2.556283386752136,-0.0751469595219649,-9.8468395586785,19.429500187312687,-29.40164042688081,28.61973223110792,33.31617096474676,34.89762482403331,1577399190.0,-27.69474741406784,-51.111873785276586,5.2124534
18525,1577399190.65,2.2659366858505616,0.6288575043468937,9.29116670353587,0.5439217405737897,-0.217551177680783,2.716601352003143,-2.120561928949124,-2.232885023907917,8.628702783203124,2.8100362638147875,-8.846748165967988,-8.323111185213415,-1.656322944455031,0.1328631145198171,-6.720194002477134,24.768178055926068,74.96047601467225,-23.45834127286585,-1.9392494658119648,3.476545405982904,-1.0520574333074375,-2.86170290046492,19.796094530469528,-2.7050847289729503,28.739539341659928,33.24428669841555,34.96950909036451,1577399190.0,-27.69474741406784,-51.111873785276586,5.2124534
18526,1577399190.66,4.120245871641577,1.275291952589081,7.590086423994855,0.9736809385718366,6.7890799807664814,9.5376818817883,-10.950377651605374,-3.902840681866901,17.056292626953123,5.388771615377286,1.040947146532012,-6.278433450838414,-3.853588569455032,1.4603777629573171,-6.064066072789634,14.972035477801068,33.38027581935975,-28.692105921303355,-1.4985109508547012,3.3742940705128173,-1.8786739880489929,-3.067148096294731,19.612797358891108,-3.5900534261411665,28.907269296432744,33.31617096474676,34.8017791355917,1577399190.0,-27.69474741406784,-51.111873785276586,5.2124534
18527,1577399190.67,7.110603745176734,3.6120327729015806,8.720149607588604,6.777225762790586,1.6822478396532008,10.55521758735471,-1.5267999172303726,3.557491691179973,17.106570861816405,7.402931771627286,-7.198798947217988,-8.933462747713415,-0.7713131788300305,17.512623856707318,-5.911478182164634,2.734486649676067,-0.4942358993902439,-35.43649068692835,-1.4985109508547012,2.556283386752136,-1.277498311873317,-3.067148096294731,19.612797358891108,-3.5900534261411665,28.61973223110792,33.12447958786354,34.70593344715009,1577399190.0,-27.69474741406784,-51.111873785276586,5.2124534
18528,1577399190.68,3.354101340391577,-1.2015096648425594,11.031751310469463,3.035088567966368,-3.460497326362424,2.927291098096893,2.1363286228086884,5.798464445086223,7.905653881835937,-1.4013895174352125,11.75261706840701,-8.506216653963415,1.5785403367949695,11.653248856707316,-4.171976229039634,-9.045298506573932,-17.767185118140244,-26.159146936928355,-2.027397168803418,2.556283386752136,-1.7283800690050726,-3.067148096294731,19.612797358891108,-1.525126466081995,28.859346452211938,33.22032527630515,34.70593344715009,1577399190.0,-27.69474741406784,-51.111873785276586,5.2124534
18529,1577399190.69,1.7858992529892332,-8.660644937059356,10.719307993819072,3.738983856052305,-3.007993212592892,5.894904055860565,3.1095715976622045,7.157173887224895,3.962403747558594,-30.40834752524772,32.04680652153201,-5.607046732088414,-4.799633491330031,9.455983231707316,-9.115823885289634,1.8037005168635671,8.294826600609756,13.773104039634145,-2.556283386752135,3.3742940705128173,-1.578086149961158,-2.861702900464919,19.79609453046953,-1.8201160318047331,28.81142360799113,33.29220954263636,34.65801060292928,1577399190.0,-27.69474741406784,-51.111873785276586,5.2124534
18530,1577399190.7,2.2072787451767333,-1.2218603789538869,5.487977366377667,1.5363183287085551,5.065254785453982,16.30608997505002,-0.9043074855897476,-9.574704414777058,1.5490484741210937,-6.513083853372714,20.75530261528201,-5.118765482088414,-5.806713569455031,-1.3472394245426829,-6.094583650914634,1.7884417278010671,42.77968988185975,9.058138219321648,-2.556283386752135,2.1472780448717903,-2.179261826136828,-2.450812508805297,19.429500187312687,-3.4425586432797965,28.66765507532872,33.36409380896756,34.70593344715009,1577399190.0,-27.69474741406784,-51.111873785276586,5.2124534
18531,1577399190.71,3.3493129370712653,2.007917660596893,5.253345603682354,4.9073542662085545,3.655070007621951,7.718088620069549,3.817058188238376,-7.379221492413776,9.22485899658203,14.544045052877289,0.6747362090320121,-7.621206888338414,-1.4121823194550305,16.597096512957318,-3.8668004477896334,8.624379227801068,46.74697503810975,-6.719449671303353,-0.7933293269230717,3.783299412393162,-1.8786739880489929,-2.450812508805297,19.429500187312687,-3.4425586432797965,28.66765507532872,33.22032527630515,35.32893042202055,1577399190.0,-27.69474741406784,-51.111873785276586,5.2124534
18532,1577399190.72,2.000180301573218,4.303957052686736,10.652270347334698,3.209865289157774,2.8290704348680444,2.8267346283703305,4.571231711187595,-5.961854109601276,7.536946826171874,16.115700326314787,-11.059272580030488,-9.131827005525915,-4.677563178830031,16.413991044207318,-6.491312166539634,21.685902665301068,52.48427972560975,-22.619107874428355,-0.5288862179487133,2.454032051282052,-1.6532331094831136,-2.450812508805297,19.429500187312687,-3.4425586432797965,28.61973223110792,33.12447958786354,34.89762482403331,1577399190.0,-27.69474741406784,-51.111873785276586,5.2124534
18533,1577399190.73,1.8337832861923584,1.8786307709484555,14.301033677412825,1.6835617308081643,2.8661805606004664,12.348474630811738,-3.954520400628811,-0.1678860920231519,15.672444067382813,1.0552755216272869,13.461601443407012,-7.529654153963414,-2.5718502882050305,9.944264481707316,-5.316385408727134,11.508290360613568,17.251735780297253,-32.94930806974085,-1.14592013888889,2.9652887286324763,-2.179261826136828,-1.6290317254860518,22.36225493256743,-1.0826421174978862,28.907269296432744,33.17240243208434,34.442357803935664,1577399190.0,-27.69474741406784,-51.111873785276586,5.2124534
18534,1577399190.74,2.492188742735328,-3.036665237352324,11.169417905928448,3.681523016208555,-4.856316894233518,12.492126730421116,0.759662668218845,2.549532792254192,16.00523809814453,-8.893454947122713,13.614189334032012,-6.369986185213414,0.6324954149199695,16.352955887957318,-2.8597203696646343,-11.822398115948932,-17.187351133765244,-21.489957483803355,-2.027397168803418,2.351780715811969,-2.0289679070929103,0.219975036982249,-3.849240603146853,-2.70508472897295,28.57180938688711,33.17240243208434,34.61008775870848,1577399190.0,-27.69474741406784,-51.111873785276586,5.2124534
18535,1577399190.75,4.407550070860328,-7.702964272996856,9.538966575362045,8.627943646091367,-7.671898046577267,5.436414437940644,1.9256388767149384,9.26766265065263,10.927136376953124,-24.12172643149772,16.086113162157012,-7.865347513338414,2.280444633669969,11.927907059832316,-8.444437166539634,-3.613169600323933,-22.741550352515244,5.212923375571647,-1.6748063568376068,3.1697913995726466,-2.329555745180745,0.219975036982249,-3.849240603146853,-2.70508472897295,28.475963698445504,33.31617096474676,34.94554766825411,1577399190.0,-27.69474741406784,-51.111873785276586,5.2124534
18536,1577399190.76,0.1219290991806395,2.9141229889660343,10.422426987959698,-2.275250714260194,4.180597272026247,16.46769858711057,4.428776712408298,-1.5637056598942451,12.024877838134763,-6.894553579935212,11.325370974657012,-6.125845560213414,0.1747317430449695,-3.285105635480181,-6.155618807164634,-8.679087569073932,-26.861423399390244,9.683748570884145,-1.6748063568376068,3.1697913995726466,-2.329555745180745,0.4254202328120589,21.99566058941059,-26.009260421069317,28.61973223110792,33.148441009973936,34.921586246143704,1577399190.0,-27.69474741406784,-51.111873785276586,5.2124534
18537,1577399190.77,1.4147979956650143,6.058906869581269,11.571643784834698,0.949738921970274,3.185806482231326,9.197705246046112,5.629468844976657,6.303640995379192,-0.5003881469726562,25.896584115377287,-2.590644650342988,-6.522574075838414,3.9589114305449695,13.636891434832316,-7.834085604039634,7.159535477801067,14.367824647484756,6.342073766196647,-1.4985109508547012,1.3292673611111123,-0.6763226356976347,-1.629031725486053,-4.032537774725275,-28.811661295435336,28.66765507532872,33.12447958786354,34.993470512474914,1577399190.0,-27.69474741406784,-51.111873785276586,5.2124534
18538,1577399190.78,2.8848378150009526,-1.2146777739734185,8.037802134444073,6.300779632419492,-0.3001511349561732,0.964045736768768,0.5896743503477512,-5.262747224835652,0.2992752075195312,-13.013327993997711,-1.430976681592988,-9.086050638338415,-5.165844428830031,6.099049637957317,-5.148538729039634,2.154652665301067,32.15957269435975,4.114290563071647,-2.203692574786324,3.3742940705128173,-2.179261826136828,-3.067148096294731,22.9121464473027,-28.959156078296704,28.66765507532872,33.02863389942193,34.753856291370894,1577399190.0,-27.69474741406784,-51.111873785276586,5.2124534
18539,1577399190.79,3.0787681494736088,-2.586555325242949,3.3930509137409484,5.352675774997618,-2.5842195187452366,-3.623244644090605,1.528201401129001,-7.570757625226276,4.323928198242188,3.893410287252287,16.421806521532012,-7.346548685213414,-1.8089108350800305,-2.323801924542683,-7.681497713414634,2.124135087176067,25.96450433498476,-6.566861780678353,-2.027397168803418,2.351780715811969,-1.1272043928293995,-3.067148096294731,22.9121464473027,-28.959156078296704,28.66765507532872,33.22032527630515,34.70593344715009,1577399190.0,-27.69474741406784,-51.111873785276586,5.2124534
18540,1577399190.8,3.636617136290015,0.402605447462128,5.013925437666729,-0.248559008937928,2.24488522978992,11.873225601270724,2.9000789523985326,-4.315840468243855,11.111489904785156,12.178932748189789,-22.320258908155488,-10.993399271150915,-3.975658881955031,8.281056473894818,-7.528909822789634,6.274525712176068,14.810329530297258,-20.86434713224085,-2.027397168803418,2.351780715811969,-1.1272043928293995,-5.737935642082276,9.16485857892108,-28.369176946851223,28.64369365321832,33.00467247731153,34.72989486926049,1577399190.0,-27.69474741406784,-51.111873785276586,5.2124534
18541,1577399190.81,1.9487049658798583,-0.0487015654773245,13.64502242253001,5.762084258884336,-1.9210256588819543,6.322269052198456,-3.092607802972561,2.3723618694026287,14.968548779296874,6.487404427877286,-6.649482540967988,-9.421743997713415,-3.1211666944550305,10.707203934832316,-6.308206697789634,2.826039384051067,-0.1890601181402439,-13.677457483803352,-0.4407385149572604,2.556283386752136,-0.6763226356976347,-7.792387600380388,24.92841533466533,-22.91186998098056,28.57180938688711,33.31617096474676,34.70593344715009,1577399190.0,-27.69474741406784,-51.111873785276586,5.2124534
18542,1577399190.82,0.1985435523056395,-1.7605557524890432,12.902819907881574,0.3751305235327741,-4.241007067573362,6.408460311964081,0.2496977146055637,-1.4224477619450264,13.934253662109374,-9.320701040872711,23.34929675590701,-5.607046732088414,-2.2971920850800305,-1.6829327839176829,-7.986673494664634,-11.791880537823932,-15.630954649390244,-18.438199671303355,-0.7933293269230717,2.9652887286324763,-1.578086149961158,-7.792387600380388,24.92841533466533,-22.91186998098056,28.61973223110792,33.02863389942193,34.562164914487674,1577399190.0,-27.69474741406784,-51.111873785276586,5.2124534
18543,1577399190.83,1.672174674131811,0.7078661591320494,11.80029004337962,-0.9464687928734749,2.264038843071169,22.938028573682832,3.7715683566954072,2.4633415324885672,16.04833372802734,-10.327781118997711,19.549858279344512,-6.934561380525914,-2.8465084913300305,-0.8589581745426829,-5.941995760289634,-8.709605147198932,-22.894138243140244,-9.008268030678352,-1.586658653846154,2.24952938034188,-1.2023513523513552,-8.203277992040011,-2.9327547452547447,-27.0417239010989,28.78746218588073,33.02863389942193,34.753856291370894,1577399190.0,-27.69474741406784,-51.111873785276586,5.2124534
18544,1577399190.84,-0.4670445092177969,-2.2992511260241995,8.825494480635479,1.5423038328589462,-2.107773388374142,9.373679068067595,-1.2682261379334985,2.702761698504192,15.99925259399414,-0.8673319002477134,7.663261599657012,-9.787954935213415,0.2510256883574694,9.822194169207318,-9.863504549352134,-13.943369795636432,-47.30820074314025,2.557894078696646,-2.027397168803418,2.351780715811969,-1.4277922309172344,-9.435949167018878,-3.849240603146853,-26.74673433537616,28.76350076377033,33.17240243208434,34.61008775870848,1577399190.0,-27.69474741406784,-51.111873785276586,5.2124534
18545,1577399190.85,1.4650762305282958,1.632027999952362,13.475034104658915,-0.0677967835961311,0.363042724907107,12.506491940382052,8.69883537329697,1.6325535564143474,5.523423229980469,7.158791146627286,-10.128486447217988,-12.717642435213415,0.6935305711699695,-5.619700362042683,-8.902200838414634,-16.888316084698932,-48.13217535251525,6.952425328696647,-2.203692574786324,1.738272702991453,-1.277498311873317,-16.421085825232456,-2.5661604020979016,-4.032537774725275,28.66765507532872,33.02863389942193,34.70593344715009,1577399190.0,-27.69474741406784,-51.111873785276586,5.2124534
18546,1577399190.86,1.773928244688452,0.9089790985851744,11.597980003096415,1.77573849472418,-0.8915189450147669,8.292697018507049,-5.72383542748428,-4.455901265362995,1.7453730102539062,4.290138802877286,-1.125800900342988,-9.635367044588415,2.829761039919969,9.608571122332316,-12.137064119664634,-10.113413740948932,-31.530612852515244,4.480501500571647,-2.203692574786324,4.192304754273503,-1.578086149961158,-16.010195433572836,-4.032537774725275,-1.3776316832206257,28.61973223110792,33.17240243208434,34.562164914487674,1577399190.0,-27.69474741406784,-51.111873785276586,5.2124534
18547,1577399190.87,1.630276145079077,-1.394242898485137,5.0594152692096985,2.1707817686499613,-0.4246496212842982,2.9703867279797054,0.0868920017149387,1.4194696086604413,-0.5410895751953124,-9.320701040872711,-1.369941525342988,-13.663687357088415,-3.0601315382050305,2.986256669207317,-10.275491854039634,-5.413706709698933,-9.832614805640244,-0.4023109994283537,-1.14592013888889,2.9652887286324763,-2.780437502312504,-15.804750237743024,-3.849240603146853,1.1297796254226546,28.66765507532872,33.17240243208434,34.70593344715009,1577399190.0,-27.69474741406784,-51.111873785276586,5.2124534
18548,1577399190.88,1.0772155615829833,3.0110881562023617,8.861407505537825,-0.2521503114281624,3.676617822563357,9.44909642036252,3.046125253668064,-10.276205501202838,2.47081611328125,11.522804818502289,-0.4544141815929878,-11.527456888338415,-5.471020210080031,-1.1946515339176829,-10.763773104039634,-6.725962569073933,12.292629334984756,-10.961393030678352,-0.4407385149572604,2.556283386752136,-1.578086149961158,-12.928517496125668,-3.849240603146853,3.1947065854818257,28.475963698445504,33.17240243208434,34.562164914487674,1577399190.0,-27.69474741406784,-51.111873785276586,5.2124534
18549,1577399190.89,2.8608957983993903,2.103685727003143,9.91006783268626,1.5195589170874615,2.0222244753953884,8.826603988721892,2.514612485113376,-0.3905468464176827,11.918335864257813,1.2383809903772869,-5.001533322217988,-12.900747903963415,-2.0530514600800305,10.524098466082316,-12.777933260289634,9.204213212176068,21.53945550685976,-25.396207483803355,-0.9696247329059772,3.1697913995726466,-1.1272043928293995,-2.656257704635109,19.612797358891108,1.1297796254226546,28.66765507532872,33.17240243208434,34.46631922604607,1577399190.0,-27.69474741406784,-51.111873785276586,5.2124534
18550,1577399190.9,0.8617374121689207,-2.210665664598418,7.166312730147198,-0.6424051820336312,-0.1134034054639857,12.518462948682831,0.06055578345322,4.924580839129192,15.030798022460935,-12.708152212747711,13.705742068407012,-8.323111185213415,-0.6187252882050305,-0.7674054401676829,-8.352884432164634,9.661976884051068,1.7030297256097562,-16.485074671303355,-0.0881477029914563,2.556283386752136,-0.0751469595219649,-2.450812508805297,22.36225493256743,-2.852579511834319,28.66765507532872,33.17240243208434,34.70593344715009,1577399190.0,-27.69474741406784,-51.111873785276586,5.2124534
18551,1577399190.91,0.6486534644150146,0.9760167450695494,12.912396714522195,2.9560799131812114,0.9520163333055444,16.56705795600705,0.5370019138243137,6.583762589617473,11.899182250976562,-12.830222525247711,9.006035037157012,-11.008658060213415,-6.996899116330031,6.434742997332317,-11.313089510289634,-2.606089522198933,-0.2195776962652439,-10.228971155678352,-0.7933293269230717,3.783299412393162,-2.780437502312504,-1.629031725486053,19.429500187312687,0.6872952768385466,28.76350076377033,33.22032527630515,34.753856291370894,1577399190.0,-27.69474741406784,-51.111873785276586,5.2124534
18552,1577399190.92,0.2512159888290771,-0.8292113066882625,12.177376804854228,2.0462832823218364,0.152352978813357,13.854427475050022,-2.8771296535584985,1.7402926311213789,15.413870288085937,-2.3321756502477133,5.862724490282012,-10.230459818025915,-3.701000678830032,6.800953934832317,-9.359964510289634,-6.756480147198933,-8.795017149390244,-3.057340296303354,-1.0577724358974336,3.272042735042734,-0.9017635142635172,0.219975036982249,21.07917473151848,-3.8850429918639056,28.547847964776707,33.02863389942193,34.753856291370894,1577399190.0,-27.69474741406784,-51.111873785276586,5.2124534
18553,1577399190.93,0.2488217871689208,-0.6544345854968557,9.840635984541729,1.225072112888243,-2.241848681342892,12.58550059516721,6.670946567144625,-5.542868819073933,15.023615417480467,5.144630990377286,-1.339423947217988,-11.344351419588415,-2.2971920850800305,-0.0960187214176829,-11.129984041539634,-10.815318037823932,-21.215671446265244,-13.646939905678352,-0.9696247329059772,2.7607860576923056,-0.8266165547415584,0.219975036982249,19.97939170204795,-0.0501786374683009,28.61973223110792,33.22032527630515,34.70593344715009,1577399190.0,-27.69474741406784,-51.111873785276586,5.2124534
18554,1577399190.94,1.814629672911108,0.4373213715343932,8.078503562666729,-0.5586081239281624,0.458810791313357,11.33333312690549,6.843329086675875,14.199718070574503,7.845798840332031,6.517922006002286,-5.093086056592988,-9.238638528963415,-0.1609616163300304,2.528492997332317,-10.489114900914634,-7.092173506573933,-15.936130430640244,-8.275846155678353,-0.9696247329059772,3.1697913995726466,-1.1272043928293995,0.0145298411524369,20.895877559940057,-0.1976734203296699,28.57180938688711,33.12447958786354,34.993470512474914,1577399190.0,-27.69474741406784,-51.111873785276586,5.2124534
18555,1577399190.95,-0.0504534203506094,3.281632943800018,10.417638584639386,1.620115386814024,-0.5347828976514857,9.997368600538303,-2.2235126003358414,-6.3521089802067445,8.207323291015625,1.6351095060022869,-1.980293087842988,-10.642447122713415,-1.1070065382050305,2.009694169207317,-11.648782869664634,-9.075816084698932,-17.187351133765244,2.954622594321646,-0.0881477029914563,2.556283386752136,-1.578086149961158,0.0145298411524369,20.162688873626376,-4.032537774725275,28.57180938688711,33.17240243208434,34.753856291370894,1577399190.0,-27.69474741406784,-51.111873785276586,5.2124534
18556,1577399190.96,0.7946997656845458,1.1962832978039244,8.873378513838606,0.2482378355444928,2.6088038821336696,11.40994758003049,-3.767772671136624,-0.766436507062214,9.03332286376953,-3.0340799471227133,-1.827705197217988,-9.940542825838415,-1.5037350538300305,-8.122141768292684,-9.085306307164634,-8.190806319073932,-21.429294493140244,-15.050748499428352,0.4407385149572675,2.351780715811969,-1.1272043928293995,-3.2725932921245406,19.429500187312687,-29.40164042688081,28.61973223110792,33.22032527630515,34.94554766825411,1577399190.0,-27.69474741406784,-51.111873785276586,5.2124534
18557,1577399190.97,0.634288254454077,-0.0989798003406057,7.999494907881573,1.4357618589819927,2.668658923637576,11.974979171827364,3.3190642429258763,10.778403898211224,5.949591125488281,-1.3250955721227131,-0.5154493378429879,-8.567251810213415,0.3273196336699695,-1.5913800495426829,-10.580667635289634,-0.2562360065739328,-8.032077696265244,-8.825162561928353,-0.2644431089743548,2.351780715811969,-2.329555745180745,-2.450812508805297,15.030368069430567,-29.99161955832629,28.66765507532872,33.12447958786354,34.46631922604607,1577399190.0,-27.69474741406784,-51.111873785276586,5.2124534
18558,1577399190.98,0.4738767432236083,-0.963286599657012,10.903661521651104,1.1676112730444927,-0.4581684445264856,7.595984335401581,-4.196334768304592,-3.443153963116901,3.813963244628906,-6.391013540872714,-11.501777462842988,-9.696402200838415,-0.2219967725800304,-2.751048018292683,-11.374124666539634,-10.266001631573932,-5.987399961890244,-2.324918421303354,-2.203692574786324,2.9652887286324763,-1.277498311873317,-12.106736712806422,11.914316152597404,-2.70508472897295,28.57180938688711,33.17240243208434,34.70593344715009,1577399190.0,-27.69474741406784,-51.111873785276586,5.2124534
18559,1577399190.99,2.195307736875952,1.3638774140148615,9.3881318707722,0.2530262388648053,1.7588622927782007,11.644579342725802,1.2025899753477511,-4.393652022198933,9.131485131835936,7.036720834127286,-6.771552853467988,-9.482779153963415,-3.4568600538300305,-9.373362471417684,-9.756693025914634,-6.390269209698933,3.473049256859756,-10.961393030678352,-1.14592013888889,1.738272702991453,-1.578086149961158,-12.928517496125668,12.280910495754243,-3.8850429918639056,28.66765507532872,33.17240243208434,34.17878216072124,1577399190.0,-27.69474741406784,-51.111873785276586,5.2124534
18560,1577399191.0,0.3876854834579833,-0.8914605498523245,13.534889146162822,3.152404449314024,1.179465491020388,13.595853695753146,0.5561555271055637,1.3572203654963786,11.288660827636718,-7.764304556497714,-0.8511426972179879,-7.926382669588414,-3.0601315382050305,-2.598460127667683,-9.237894197789634,2.002064774676067,5.548244569359756,-11.236051233803352,-1.6748063568376068,2.7607860576923056,-0.5260287166537173,-2.0399221171456747,10.997830294705292,-3.737548209002536,28.76350076377033,33.31617096474676,34.89762482403331,1577399191.0,-27.69472633743494,-51.1119207678229,5.388058
18561,1577399191.01,2.0444730322861084,-0.1732000518054495,11.14787009098704,2.0462832823218364,-0.3240931515577356,12.334109420850805,1.506653586187595,1.0747045695979411,9.543287817382812,-9.900535025247711,-5.154121212842988,-7.651724466463414,-2.7854733350800305,-2.232249190167683,-10.336527010289634,-1.4464215534489329,1.886135194359756,-10.534146936928352,-0.9696247329059772,1.5337700320512828,-1.4277922309172344,-1.629031725486053,19.429500187312687,-1.0826421174978862,28.76350076377033,33.31617096474676,34.753856291370894,1577399191.0,-27.69472633743494,-51.1119207678229,5.388058
18562,1577399191.02,1.019754721739233,1.9073611908703303,10.266803880049542,1.4381560606421488,1.6511232180711697,8.546482394483611,-1.8141041164491227,-2.3442154011051826,6.198588098144531,0.8111348966272866,-15.408027462842988,-10.337271341463415,-1.8089108350800305,-1.2862042682926829,-10.031351229039634,-2.789194990948933,13.086086366234756,-10.228971155678352,-0.4407385149572604,3.3742940705128173,-1.8786739880489929,-3.2725932921245406,19.429500187312687,-1.6726212489433638,28.61973223110792,33.31617096474676,34.70593344715009,1577399191.0,-27.69472633743494,-51.1119207678229,5.388058
18563,1577399191.03,3.962228562071265,-0.474869460985137,8.277222300459698,1.591384966892149,0.1320022647020294,8.259178195264862,-0.317728078851467,-1.5409607441227613,8.0828248046875,-1.2335428377477131,-10.494697384717988,-8.994497903963415,-1.2138180616425305,-4.933054854230183,-8.764871736852134,-2.072031905011433,14.047390077172256,-9.496549280678352,-1.8511017628205124,3.3742940705128173,-2.179261826136828,-3.2725932921245406,19.79609453046953,-1.0826421174978862,28.907269296432744,33.148441009973936,34.753856291370894,1577399191.0,-27.69472633743494,-51.1119207678229,5.388058
18564,1577399191.04,2.664571262266578,-0.8316055083484182,6.608463743330792,2.9010132749976174,-0.939402978217892,10.37565246284299,0.3885614108946262,-5.320208064679401,8.760383874511719,-0.4706033846227134,6.289970584032012,-6.431021341463414,-1.7478756788300305,0.9720965129573172,-7.895120760289634,-3.399546553448933,4.205471131859756,-16.942838343178355,-0.7933293269230717,1.738272702991453,-1.578086149961158,0.4254202328120589,19.79609453046953,-3.4425586432797965,28.66765507532872,33.17240243208434,34.46631922604607,1577399191.0,-27.69472633743494,-51.1119207678229,5.388058
18565,1577399191.05,2.070809250547827,1.1412166596203306,7.858237009932354,2.6615931089819926,-2.201147253120236,7.624714755323455,0.6327699802305637,6.265333768816692,12.030863342285157,-0.3790506502477134,4.428398318407012,-7.316031107088414,-2.8159909132050305,-2.781565596417683,-9.726175447789634,-2.667124678448933,-5.285495665015244,-4.949430140053353,0.7933293269230788,2.351780715811969,-1.7283800690050757,-3.2725932921245406,19.429500187312687,-4.032537774725275,28.76350076377033,33.17240243208434,34.8017791355917,1577399191.0,-27.69472633743494,-51.1119207678229,5.388058
18566,1577399191.06,2.245585971739233,0.8012400238781431,10.616357322432354,1.9481210142554304,3.0565195925828883,13.808937643507052,0.3023701511290012,-9.031220637921589,11.784260571289062,-3.3392557283727133,-12.661445431592988,-8.078970560213415,-0.8628659132050305,-7.237132002667683,-10.000833650914634,-15.972788740948932,-15.539401915015244,-7.879117640053353,-1.6748063568376068,1.5337700320512828,-2.329555745180745,-2.2453673129754868,22.54555210414585,-3.8850429918639056,28.57180938688711,33.22032527630515,34.8017791355917,1577399191.0,-27.69472633743494,-51.1119207678229,5.388058
18567,1577399191.07,0.1315059058212645,2.5394304291515803,12.17019419987376,2.3910483213843365,3.1235572390672632,12.396358664014866,2.449969040289157,1.362008768816691,6.804321118164062,-5.261863150247714,0.0949022246570121,-9.940542825838415,-5.745678413205031,5.153004716082317,-10.977396150914634,-4.193003584698933,3.534084413109756,-14.531949671303352,-1.3222155448717956,2.351780715811969,-2.0289679070929103,3.3016529744294165,19.429500187312687,-4.032537774725275,28.76350076377033,33.22032527630515,34.993470512474914,1577399191.0,-27.69472633743494,-51.1119207678229,5.388058
18568,1577399191.08,3.581550498106421,-0.9561039946765432,9.436015903975324,2.7908799986304302,1.347059607231326,7.847375509717987,2.538554501714939,2.499254557390911,7.673416320800781,-0.1043924471227134,-4.848945431592988,-7.590689310213414,-1.2290768507050305,-1.1030987995426829,-8.871683260289634,5.542103837176067,23.49258050685976,-0.4938637338033537,-1.6748063568376068,3.5787967414529875,-1.4277922309172344,3.3016529744294165,21.2624719030969,-27.631703032544383,28.66765507532872,33.12447958786354,34.70593344715009,1577399191.0,-27.69472633743494,-51.1119207678229,5.388058
18569,1577399191.09,5.295798886778297,-1.7868919707507618,9.696983884932354,2.6807467222632426,-0.1349512204053919,8.165804330518768,0.6662888034727512,-4.724051851300495,11.240776794433591,-3.3697733064977133,-11.684882931592988,-10.642447122713415,-4.311352241330031,6.282155106707317,-7.589944979039634,-3.002818037823933,5.548244569359756,-11.632779749428352,-0.9696247329059772,3.5787967414529875,-1.1272043928293995,1.8635366036207368,22.54555210414585,-31.61406216980136,28.907269296432744,33.12447958786354,34.61008775870848,1577399191.0,-27.69472633743494,-51.1119207678229,5.388058
18570,1577399191.1,4.560778977110328,-1.020747439500762,3.972447715498761,2.9105900816382424,-0.1636816403272669,5.848217123487518,3.613551047125095,3.57903950612138,9.619902270507811,11.644875131002289,14.041435427782012,-6.919302591463414,-0.4051022413300305,1.0026140910823171,-8.108743807164634,2.917592118426067,2.618557069359756,-5.498746546303353,-2.203692574786324,2.9652887286324763,-2.179261826136828,-2.861702900464919,20.162688873626376,-32.05654651838546,28.81142360799113,33.17240243208434,34.70593344715009,1577399191.0,-27.69472633743494,-51.1119207678229,5.388058
18571,1577399191.11,3.018913107969703,0.2721214569836119,11.128716477705792,2.6041322691382427,0.4659933962938257,10.50972775581174,-0.6170032863709977,-8.56435131419112,8.825027319335938,-6.177390493997714,0.4611131621570121,-9.391226419588415,-0.7713131788300305,-1.1030987995426829,-6.735452791539634,-5.230601240948933,8.874660584984756,-14.562467249428352,-1.6748063568376068,2.7607860576923056,-2.930731421356421,-2.861702900464919,22.72884927572428,-32.05654651838546,28.66765507532872,33.17240243208434,34.753856291370894,1577399191.0,-27.69472633743494,-51.1119207678229,5.388058
18572,1577399191.12,1.955887570860327,3.645551596143768,9.529389768721416,1.5363183287085551,3.6047917727586696,11.855269088819552,2.9072615573790013,3.5239728679377857,10.77630167236328,6.884132943502286,10.623466677782012,-7.285513528963414,-4.708080756955031,9.303395341082316,-11.191019197789634,5.084340165301067,18.15200433498476,-22.924283655678355,-0.9696247329059772,1.5337700320512828,-0.2254408785658824,-7.176052012890954,-3.48264625999001,-31.90905173552409,28.81142360799113,33.17240243208434,34.61008775870848,1577399191.0,-27.69472633743494,-51.1119207678229,5.388058
18573,1577399191.13,3.3397361304306403,-1.8395644072741997,9.35461304753001,4.675116705173399,-0.7670204586866419,10.93110724799924,0.3239179660704074,1.1561074260432538,15.69878028564453,-9.198630728372711,-7.778632931592988,-11.191763528963415,-2.0225338819550305,2.955739091082317,-8.780130525914634,6.335560868426067,9.790187928734756,-5.681852015053353,-1.3222155448717956,3.1697913995726466,-2.0289679070929103,-3.2725932921245406,-4.032537774725275,-31.171577821217245,28.57180938688711,33.22032527630515,34.89762482403331,1577399191.0,-27.69472633743494,-51.1119207678229,5.388058
18574,1577399191.14,1.0149663184189208,0.9305269135265806,11.925985630537824,1.4501270689429302,2.280798254692263,15.918229306104708,2.648687778082126,-2.954736824445026,9.957484704589843,-2.7594217439977133,16.696464724657012,-7.560171732088414,-4.952221381955031,0.4227801067073171,-7.284769197789634,-6.298716475323933,1.6114769912347562,-4.003385218178353,-2.7325787927350405,1.942775373931624,-1.4277922309172344,-3.2725932921245406,-4.032537774725275,-27.631703032544383,28.76350076377033,33.17240243208434,34.94554766825411,1577399191.0,-27.69472633743494,-51.1119207678229,5.388058
18575,1577399191.15,0.950322873594702,0.2649388520031432,10.54213707096751,2.041494879001524,-0.6113973507764856,10.449872714307832,1.1666769504454075,-3.347385896710651,10.57279453125,-3.980124868997713,-1.308906369092988,-8.445181497713415,0.0526614305449695,11.653248856707316,-9.726175447789634,-2.789194990948933,-1.867526915015244,-8.916715296303353,-0.7933293269230717,1.3292673611111123,-1.578086149961158,-3.2725932921245406,26.02819836413586,-27.631703032544383,28.66765507532872,33.22032527630515,34.70593344715009,1577399191.0,-27.69472633743494,-51.1119207678229,5.388058
18576,1577399191.16,1.908003537657202,-1.078208279344512,9.335459434248762,2.017552862399961,-1.0806608761671106,6.8322340058117375,2.7085428195860324,-2.26281254465987,14.482525842285156,-4.315818228372714,-7.046211056592988,-9.726919778963415,-0.6797604444550305,1.3077898723323171,-7.193216463414634,1.1170550090510671,-19.445651915015244,-16.393521936928355,-0.4407385149572604,3.3742940705128173,-1.578086149961158,-3.2725932921245406,25.29500967782218,-27.631703032544383,28.76350076377033,33.41201665318837,34.753856291370894,1577399191.0,-27.69472633743494,-51.1119207678229,5.388058
18577,1577399191.17,4.060390830137671,-1.3248110503406056,10.489464634444072,2.0989557188452737,1.141158264457888,12.482549923780487,5.390048678961032,10.74249087330888,17.85835018310547,7.433449349752286,0.1254198027820121,-7.621206888338414,1.1512942430449695,1.3993426067073171,-7.650980135289634,-0.0426129596989328,-52.40463629001525,1.9475425161966464,0.0881477029914492,2.7607860576923056,-2.930731421356421,-13.133962691955478,20.895877559940057,-30.58159868977177,28.81142360799113,33.17240243208434,34.753856291370894,1577399191.0,-27.69472633743494,-51.1119207678229,5.388058
18578,1577399191.18,2.276710593321265,-0.0678551787585745,12.54608386051829,3.183529070896055,-2.033553136909298,12.240735556104708,0.7548742648985325,-1.2811898639958077,12.86404552001953,-3.2477029939977133,-1.919257931592988,-10.154165872713415,1.6700930711699695,7.014576981707317,-7.132181307164634,-15.057261397198932,-59.69833746189025,4.144808141196647,-1.4985109508547012,3.3742940705128173,-0.9769104737854758,-16.421085825232456,20.162688873626376,-27.631703032544383,28.66765507532872,33.17240243208434,35.52062179890376,1577399191.0,-27.69472633743494,-51.1119207678229,5.388058
18579,1577399191.19,-1.4319077782607654,-0.6233099639148244,13.142240073897195,-0.5562139222680061,0.9544105349657008,12.334109420850805,5.880860019293063,11.79593960377763,6.459556079101562,2.1233907560022867,16.238701052782012,-5.362906107088414,0.9987063524199696,-5.528147627667683,-8.474954744664634,-9.625132490948932,-44.74472418064025,-1.6230141244283538,0.2644431089743619,2.1472780448717903,-0.6763226356976347,-12.312181908636234,17.596528471528472,-3.737548209002536,28.475963698445504,33.17240243208434,34.70593344715009,1577399191.0,-27.69472633743494,-51.1119207678229,5.388058
18580,1577399191.2,0.9910243018173582,0.5043590180187683,11.791910337569073,-0.3120053529320686,1.660700024711795,13.263059664991427,2.121963412847751,-8.399151399640338,4.829104748535156,1.8182149747522869,-2.956855587842988,-9.635367044588415,3.470630180544969,5.030934403582317,-9.726175447789634,-10.174448897198932,-7.726901915015244,-1.0126625619283538,0.6170339209401732,2.1472780448717903,-1.8786739880489929,-12.106736712806422,14.480476554695304,-2.70508472897295,28.76350076377033,33.17240243208434,34.70593344715009,1577399191.0,-27.69472633743494,-51.1119207678229,5.388058
18581,1577399191.21,0.7875171607040771,0.1452287689953307,8.418480198408917,1.1316982481421491,-0.805327685249142,6.901665853956268,4.906419943609469,5.604534110613567,6.60799658203125,11.309181771627289,-4.421699337842988,-8.048452982088415,2.616137993044969,4.542653153582317,-7.803568025914634,12.194935868426068,13.635402772484756,-15.569547327553352,-0.6170339209401661,0.7157593482905967,-1.7283800690050757,-13.133962691955478,13.563990696803195,-3.737548209002536,28.61973223110792,33.41201665318837,34.562164914487674,1577399191.0,-27.69472633743494,-51.1119207678229,5.388058
18582,1577399191.22,3.648588144590797,-0.513176687547637,9.20138414128001,2.8531292417944925,1.6415464114305445,9.95427297065549,0.7429032565977512,0.04759205739091,12.23915888671875,1.3909688810022869,-5.703437619092988,-9.025015482088415,3.226489555544969,-3.605540205792683,-7.559427400914634,11.554066727801068,17.694240663109756,-4.125455530678353,-0.0881477029914563,3.3742940705128173,-0.3757347976097998,-3.067148096294731,20.71258038836164,-3.8850429918639056,28.57180938688711,33.17240243208434,34.562164914487674,1577399191.0,-27.69472633743494,-51.1119207678229,5.388058
18583,1577399191.23,2.724426303770484,0.6599821259289244,11.387290257002666,0.0543075010718366,-0.1612874386671107,8.53451138618283,-3.9353667873475606,-4.965866218976276,8.015787158203125,3.3135763028772867,-1.308906369092988,-8.109488138338415,4.294604789919969,9.822194169207316,-8.810648104039634,2.703969071551067,6.250148866234756,-10.015348108803352,-0.0881477029914563,1.738272702991453,-3.0810253404003385,-3.2725932921245406,15.030368069430567,-2.2626003803888417,28.955192140653548,32.98071105520113,34.03501362805883,1577399191.0,-27.69472633743494,-51.1119207678229,5.388058
18584,1577399191.24,2.0827802588486084,-2.035888943407012,10.065690940596417,2.6879293272437117,-2.2059356564405483,8.328610043409393,-1.0719016018006853,-1.678627339581745,12.95981358642578,2.7947774747522867,8.212578005907012,-7.224478372713414,4.599780571169969,3.779713700457317,-6.582864900914634,-0.1036481159489328,-9.527439024390244,-16.637662561928355,-2.203692574786324,1.3292673611111123,-1.578086149961158,-1.834476921315863,21.07917473151848,-3.8850429918639056,28.61973223110792,33.22032527630515,34.753856291370894,1577399191.0,-27.69472633743494,-51.1119207678229,5.388058
18585,1577399191.25,1.2112908545517334,0.1907186005382994,8.617198936201886,0.9186143003882428,-0.1253744137647669,13.705986972120334,-1.5651071437928727,3.406656986590129,15.188815332031249,0.8721700528772866,8.853447146532012,-7.651724466463414,4.691333305544969,-6.230051924542683,-5.789407869664634,-2.117808272198933,-28.692478086890244,-20.879605921303355,-0.6170339209401661,3.1697913995726466,-0.5260287166537173,-0.396360550507185,19.429500187312687,-1.6726212489433638,28.57180938688711,33.31617096474676,34.94554766825411,1577399191.0,-27.69472633743494,-51.1119207678229,5.388058
18586,1577399191.26,0.040526242735327,1.596114975050018,13.094356040694072,-1.6455756776390995,0.0326428958055445,13.641343527296115,6.357306149664157,14.154228239031536,9.160215551757812,5.907570443502286,-6.710517697217988,-10.154165872713415,7.559985649294969,3.993336747332317,-9.237894197789634,6.213490555926067,-43.89023199314025,-2.904752405678354,0.2644431089743619,2.9652887286324763,-0.0751469595219649,-2.0399221171456747,19.429500187312687,-1.0826421174978862,28.57180938688711,33.12447958786354,34.8017791355917,1577399191.0,-27.69472633743494,-51.1119207678229,5.388058
18587,1577399191.27,0.5672506079697025,-1.6001442412585745,13.12188935978587,2.0079760557593365,-1.533164989936642,11.759501022413303,1.2241377902891577,1.9653475871760664,16.61336531982422,0.4754415372522867,-0.5917432831554876,-8.323111185213415,4.965991508669969,5.915944169207317,-7.193216463414634,-13.928111006573932,-49.84115972751525,13.208528844321648,-0.5288862179487167,2.454032051282048,-0.7514695952195997,-2.0399221171456747,19.429500187312687,-1.0826421174978862,28.859346452211938,33.17240243208434,34.70593344715009,1577399191.0,-27.69472633743494,-51.1119207678229,5.388058
18588,1577399191.28,-1.503733828065453,0.7485675873547056,10.824652866865948,-0.0318837586937885,0.27206306182117,12.2084138336926,-0.0076789638612329,-6.474213264874714,11.398794104003905,2.9168477872522867,8.548271365282012,-6.736197122713414,4.126758110232469,-1.5761212604801829,-8.200296541539634,-12.325938155011432,-52.08420171970275,-0.7685219369283537,-0.0881477029914563,2.1472780448717903,-0.3757347976097998,-2.245367312975486,19.429500187312687,-1.3776316832206252,28.57180938688711,33.26824812052595,34.753856291370894,1577399191.0,-27.69472633743494,-51.1119207678229,5.388058
18589,1577399191.29,1.019754721739233,0.1236809540539244,8.382567173506573,0.547513043064024,3.7197134524461695,12.55198177192502,3.3669482761290013,5.673965958758099,3.622427111816406,7.677589974752286,-9.762275509717988,-8.994497903963415,2.890796196169969,8.174244950457316,-6.979593416539634,-3.338511397198933,-38.39706793064025,-0.0055824838033536,-1.3222155448717956,1.5337700320512828,-1.7283800690050757,-3.2725932921245406,14.297179383116884,-32.3515360841082,28.61973223110792,33.22032527630515,34.70593344715009,1577399191.0,-27.69472633743494,-51.1119207678229,5.388058
18590,1577399191.3,1.8960325293564209,1.6368164032726744,9.07449145329173,2.3311932798804302,0.5473962527391383,11.443466403272678,5.545671786871188,-2.380128426007526,3.8857892944335934,16.710793099752287,-16.384589962842988,-8.323111185213415,3.531665336794969,2.101246903582317,-6.949075838414634,-7.763560225323933,-26.495212461890244,-0.6159340463033537,0.6170339209401732,0.5112566773504262,-0.9769104737854758,-3.2725932921245406,14.297179383116884,-32.3515360841082,28.76350076377033,33.17240243208434,34.70593344715009,1577399191.0,-27.69472633743494,-51.1119207678229,5.388058
18591,1577399191.31,0.835401193907202,1.1412166596203306,10.296731400801496,3.19310587753668,0.707807763969607,10.409171286085176,1.509047787847751,-6.376050996808307,4.5585599609375,4.274880013814787,0.1254198027820119,-7.117666849275914,5.362720024294969,-2.384837080792683,-8.810648104039634,0.7203264934260671,-0.7383765243902439,-9.588102015053352,0.4407385149572675,1.5337700320512808,-1.4277922309172375,-15.599305041913214,13.563990696803195,-29.99161955832629,28.691616497439128,33.12447958786354,34.70593344715009,1577399191.0,-27.69472633743494,-51.1119207678229,5.388058
18592,1577399191.32,2.0755976538681398,1.1579760712414244,9.742473716475324,1.9612891233862892,0.2840340701219513,9.973426583936735,0.0533731784727517,-1.527792634991901,9.217676391601564,5.266701302877286,-2.285468869092988,-7.804312357088414,5.286426078982469,0.3922625285823171,-7.589944979039634,11.279408524676068,17.86208734279726,-14.913419397865852,-0.7933293269230717,2.9652887286324763,-1.578086149961158,-7.997832796210199,13.93058503996004,-3.295063860418427,28.61973223110792,33.24428669841555,34.753856291370894,1577399191.0,-27.69472633743494,-51.1119207678229,5.388058
18593,1577399191.33,2.195307736875952,-1.4253675200671685,11.744026304365947,1.1364866514624616,-2.1532632199171107,11.637396737745334,3.29751642798447,4.0435146281916925,21.89736838378906,-2.6373514314977133,-15.285957150342988,-9.330191263338415,10.398120414919967,-3.239329268292683,-7.742532869664634,3.863637040301067,-9.222263243140244,-12.121060999428352,-0.7933293269230717,1.3292673611111123,-1.8786739880489929,-2.861702900464919,13.563990696803195,-2.2626003803888417,28.61973223110792,33.12447958786354,34.89762482403331,1577399191.0,-27.69472633743494,-51.1119207678229,5.388058
18594,1577399191.34,1.2519922827743897,-2.8930131377429493,13.17336469547923,-0.5418487123070687,-2.261002294624142,13.45938420112424,-0.063942702874904,-2.8900933796208075,15.492878942871092,8.959328256002287,-1.308906369092988,-8.506216653963415,3.8063235399199695,1.2467547160823171,-6.338724275914634,-6.115611006573933,-26.464694883765244,-8.825162561928353,0.6170339209401732,2.1472780448717903,-1.578086149961158,-2.861702900464919,19.429500187312687,-2.852579511834319,28.66765507532872,33.22032527630515,34.70593344715009,1577399191.0,-27.69472633743494,-51.1119207678229,5.388058
18595,1577399191.35,-0.2886764855361563,-1.1153184050769338,14.050839603926494,-1.244546899562929,0.1535500796434352,12.543602066114474,2.443983536138767,7.407367960711223,8.851363537597656,-6.787742056497714,5.679619021532012,-5.423941263338414,5.545825493044969,-3.1935529011051838,-5.362161775914634,5.236928055926068,-10.015720274390244,2.390047399009146,0.0881477029914563,1.3292673611111103,-1.7283800690050757,-2.7589803025500137,19.5211487731019,-3.2213164689877427,28.691616497439128,33.12447958786354,34.681972025039684,1577399191.0,-27.69472633743494,-51.1119207678229,5.388058
18596,1577399191.36,1.1011575781845455,4.313533859327362,13.585167381026103,-1.0302658509789435,3.5162063113328883,10.859281198194552,1.2073783786680636,-3.414423543195026,6.160280871582031,14.025246224752289,-11.044013790967988,-8.506216653963415,5.912036430544969,3.779713700457317,-6.918558260289634,-1.6600446003239329,7.043605897484756,0.2385581411966463,-0.7933293269230717,0.1022513354700852,-1.8786739880489929,-1.629031725486053,19.429500187312687,-30.58159868977177,28.57180938688711,33.17240243208434,34.61008775870848,1577399191.0,-27.69472633743494,-51.1119207678229,5.388058
18597,1577399191.37,1.2998763159775144,4.303957052686736,8.109628184248761,3.774896880954649,0.0446139041063258,6.197770565870331,4.741220029058689,-8.33450795481612,10.038887561035155,23.027931771627287,-3.750312619092988,-7.834829935213414,2.097339164919969,6.739918778582317,-11.801370760289634,0.5982561809260671,11.346584413109756,-4.155973108803353,-0.0881477029914563,0.9202620192307712,-1.578086149961158,-3.2725932921245406,20.162688873626376,-28.811661295435336,28.61973223110792,32.98071105520113,34.94554766825411,1577399191.0,-27.69472633743494,-51.1119207678229,5.388058
18598,1577399191.38,0.9814474951767332,-2.8163986846179494,4.518325694014385,1.8164399229468364,2.1203867434617947,5.582460739210175,1.5042593845274386,-11.626535237530964,8.777143286132812,8.379494271627287,3.1161424590320124,-5.973257669588414,-1.6563229444550305,-4.124339033917683,-6.979593416539634,9.997670243426068,14.276271913109756,-22.100309046303355,1.3222155448717956,0.5112566773504262,-1.578086149961158,-3.067148096294731,19.612797358891108,-29.84412477546492,28.66765507532872,33.12447958786354,34.89762482403331,1577399191.0,-27.69472633743494,-51.1119207678229,5.388058
18599,1577399191.39,2.7794929419540777,-1.1632024382800588,7.578115415694073,1.7817239988745708,0.6587266299364044,10.625846536329316,5.8784658176329065,10.195415793963177,4.405331054687499,6.243263802877287,-4.543769650342988,-7.834829935213415,5.179614555544968,1.5061541301448171,-7.132181307164634,14.727894852801068,17.38906488185976,-12.685636194740855,0.1762954059829055,2.24952938034188,-1.0520574333074375,-3.169870694209636,19.88774311625874,-28.73791390400465,28.66765507532872,33.31617096474676,34.753856291370894,1577399191.0,-27.69472633743494,-51.1119207678229,5.388058
18600,1577399191.4,2.544861179258765,-0.225872488328887,9.627552036787824,4.385418304294492,-2.9002541378858613,7.2775555146008,-1.914660586175685,-5.9019990680973695,13.876792822265624,11.736427865377289,-3.597724728467988,-5.759634622713414,5.942554008669969,-6.321604658917683,-6.674417635289634,3.863637040301067,17.053371522484756,-5.742887171303353,0.2644431089743619,2.556283386752136,-0.0751469595219649,4.328878953578471,19.612797358891108,-3.5900534261411665,28.61973223110792,33.02863389942193,34.70593344715009,1577399191.0,-27.69472633743494,-51.1119207678229,5.388058
18601,1577399191.41,0.7324505225204833,2.582526059034393,13.642628220869854,-0.0989214051781624,4.217707397758669,15.927806112745332,2.7444558444883764,-0.6299670124333078,9.042899670410156,1.1468282560022869,3.4518358184070124,-6.308951028963414,1.6700930711699695,-5.497630049542683,-6.918558260289634,10.119740555926068,12.384182069359756,-11.297086390053352,-1.3222155448717956,3.5787967414529875,-0.8266165547415584,4.123433757748661,19.429500187312687,-27.631703032544383,28.81142360799113,33.17240243208434,34.70593344715009,1577399191.0,-27.69472633743494,-51.1119207678229,5.388058
18602,1577399191.42,1.1622097205185302,0.977213845899628,10.455945811201886,1.639269000095274,0.5473962527391383,12.860833786085175,-1.739883864984279,-2.1047952350895573,15.12417188720703,-1.6760477205602131,0.9493944121570124,-7.728018411775914,6.980151664919969,6.221119950457317,-9.390482088414634,6.152455399676067,15.893703553734756,-7.909635218178353,0.7933293269230788,0.3067540064102577,-1.7283800690050757,-3.067148096294731,19.612797358891108,-31.319072604078613,28.547847964776714,33.17240243208434,34.8017791355917,1577399191.0,-27.69472633743494,-51.1119207678229,5.388058
18603,1577399191.43,2.640629245665015,0.3774663300304869,9.862183799483136,1.7769355955542585,0.0529936099168731,10.337345236280488,3.742837936773532,0.9514031840998954,12.075156072998046,9.722267709127289,-7.137763790967988,-7.651724466463414,6.247729789919969,-2.369578291730183,-7.330545564977134,8.868519852801068,6.341701600609756,-11.342862757240852,1.6748063568376068,1.738272702991453,-0.0751469595219649,-2.3480899108903905,19.5211487731019,-33.3102521727071,28.61973223110792,33.26824812052595,34.65801060292928,1577399191.0,-27.69472633743494,-51.1119207678229,5.388058
18604,1577399191.44,2.3341714331650145,1.576961361768768,9.098433469893292,0.4900522032202741,-0.2738149166944544,13.100253952100802,-0.494899001703029,2.877538419695598,11.336544860839844,17.321144662252287,-3.841865353467988,-6.888785013338414,8.170337211794969,-1.9270734089176829,-10.031351229039634,4.748646805926067,-2.050632383765244,-3.393033655678354,1.6748063568376068,1.738272702991453,-0.0751469595219649,-3.2725932921245406,21.2624719030969,-34.71145260989011,28.428040854224697,33.17240243208434,34.70593344715009,1577399191.0,-27.69472633743494,-51.1119207678229,5.388058
18605,1577399191.45,0.3733202734970458,-1.183553152391387,8.9667523785847,-0.0917388001976936,-1.4062723019483607,5.192205868604706,3.3334294528868136,-0.2612599567692452,6.979097839355468,3.4661641935022867,-7.320869259717988,-8.201040872713415,8.963794243044969,2.009694169207317,-6.735452791539634,4.199330399676067,1.1231957412347562,-6.170133265053353,1.6748063568376068,1.738272702991453,-0.0751469595219649,-8.819613579529443,-3.849240603146853,-32.79402043269231,28.81142360799113,33.17240243208434,34.70593344715009,1577399191.0,-27.69472633743494,-51.1119207678229,5.388058
18606,1577399191.46,2.0528527380966555,1.598509176710175,8.131175999190166,3.262537725681211,1.2105901126024194,6.1666459442883,-1.2562551296327165,-0.0625412189762764,5.274426257324219,9.935890756002289,-1.232612423780488,-6.980337747713414,3.7147708055449695,-0.1265362995426829,-9.268411775914634,6.610219071551067,15.619045350609756,-5.468228968178353,3.552713678800501e-15,0.409005341880343,-0.3005878380878411,-2.861702900464919,-4.032537774725275,-29.696629992603548,28.739539341659928,32.98071105520113,34.70593344715009,1577399191.0,-27.69472633743494,-51.1119207678229,5.388058
18607,1577399191.47,2.425151096250952,2.2425494232922056,8.784793052412823,2.1240948362769143,2.1132041384813256,8.691331594923065,0.4783439731504857,-8.498510768536823,7.783549597167968,8.593117318502287,-9.884345822217988,-11.557974466463415,3.791064750857469,-0.4011945026676828,-8.444437166539634,4.473988602801067,16.24465570217226,-9.710172327553352,0.9696247329059844,2.9652887286324763,-1.8786739880489929,-2.861702900464919,8.798264235764234,-29.696629992603548,28.66765507532872,33.24428669841555,34.753856291370894,1577399191.0,-27.69472633743494,-51.1119207678229,5.388058
18608,1577399191.48,1.848148496153296,-2.169964236375762,11.526153953291727,1.6679994200171488,-1.233889782417111,5.683017208936737,2.004647531500095,-0.3737874347965889,14.506467858886715,1.8792501310022869,-8.388984494092988,-8.078970560213415,6.858081352419969,0.8805437785823171,-7.681497713414634,7.190053055926067,1.1231957412347562,-20.543912561928355,0.6170339209401732,2.1472780448717903,-0.6763226356976347,-2.861702900464919,23.82863230519481,-29.696629992603548,28.61973223110792,33.22032527630515,34.753856291370894,1577399191.0,-27.69472633743494,-51.1119207678229,5.388058
18609,1577399191.49,1.773928244688452,-0.963286599657012,8.698601792647198,2.539488824314024,-0.3624003781202357,12.932659835889863,3.0437310520079075,2.3556024577815347,10.3812583984375,-10.877097525247711,6.106865115282012,-8.414663919588415,2.982348930544969,-1.2862042682926829,-8.352884432164634,2.002064774676067,-1.7759741806402438,-15.111783655678352,0.6170339209401732,2.1472780448717903,-0.6763226356976347,-1.2181413338264289,23.82863230519481,-32.05654651838546,28.57180938688711,33.22032527630515,34.70593344715009,1577399191.0,-27.69472633743494,-51.1119207678229,5.388058
18610,1577399191.5,1.9965889990829837,1.9432742157726743,12.01097978947337,3.498366589206602,0.9149062075731226,12.274254379346896,0.4220802341368141,2.913451444597942,9.651026892089844,1.8029561856897864,-3.872382931592988,-8.094229349275915,3.058642875857469,1.2772722942073171,-8.810648104039634,3.085438798113567,9.942775819359756,-2.8894936166158534,1.6748063568376068,1.1247646901709418,0.0751469595219524,-1.4235865296562409,23.09544361888112,-32.20404130124683,28.595770808997518,33.24428669841555,34.753856291370894,1577399191.0,-27.69472633743494,-51.1119207678229,5.388058
18611,1577399191.51,0.7132969092392333,1.191494894483612,12.43834478581126,0.0902205259741803,4.457127563774295,11.979767575147678,1.231320395269626,-0.8071379352848702,13.529633581542967,1.9097677091272869,-6.466377072217988,-8.597769388338415,5.545825493044969,-0.5232648151676829,-8.566507479039634,2.246205399676067,9.698635194359756,-6.414273890053353,0.4407385149572675,1.1247646901709418,-0.5260287166537173,-1.2181413338264289,24.19522664835165,-29.696629992603548,28.428040854224697,33.22032527630515,34.8017791355917,1577399191.0,-27.69472633743494,-51.1119207678229,5.388058
18612,1577399191.52,1.5991515234970457,3.7844152924328314,8.669871372725323,2.324010674899961,1.6463348147508572,10.859281198194552,-0.2602672390077165,-7.087128889874713,10.05564697265625,12.316261849752289,-2.132880978467988,-8.506216653963415,6.217212211794969,5.641285966082317,-10.580667635289634,2.734486649676067,5.426174256859756,-9.984830530678352,-0.6170339209401661,2.351780715811969,0.0751469595219524,-10.874065537827557,18.51301432942057,-3.8850429918639056,28.76350076377033,33.17240243208434,34.562164914487674,1577399191.0,-27.69472633743494,-51.1119207678229,5.388058
18613,1577399191.53,2.609504624082984,-2.280097512742949,10.096815562178447,2.4485091612280865,-3.4150074948194558,6.209741574171112,1.99507072485947,2.168854728289348,7.582436657714843,-5.017722525247714,-6.252754025342988,-10.306753763338415,4.782886039919969,1.1552019817073171,-8.017191072789634,3.283803055926067,4.907375428734756,-9.374478968178352,-0.6170339209401661,2.351780715811969,0.0751469595219524,-11.490401125316987,16.496745442057946,1.2772744082840235,28.66765507532872,33.31617096474676,34.562164914487674,1577399191.0,-27.69472633743494,-51.1119207678229,5.388058
18614,1577399191.54,1.7978702612900148,0.5737908661632999,9.57727380192454,0.4661101866187116,3.159470263969607,9.979412088087129,0.1156224216368142,0.6640989848811448,10.332177264404296,6.182228646627288,1.0867235137195124,-7.148184427400915,2.875537407107469,-2.201731612042683,-7.086404939977134,5.694691727801067,3.839260194359756,-11.144498499428352,0.440738514957264,1.9427753739316216,-0.976910473785476,-3.067148096294731,19.612797358891108,-2.115105597527472,28.64369365321832,33.17240243208434,34.8017791355917,1577399191.0,-27.69472633743494,-51.1119207678229,5.388058
18615,1577399191.55,2.4299394995712644,3.1307982392101743,7.824718186690167,3.19310587753668,1.033419189750857,6.923213668897675,0.5920685520079074,-0.3785758381169014,8.034940771484374,10.088478646627289,-12.875068478467988,-8.262076028963415,1.2428469774199695,9.608571122332316,-8.017191072789634,6.152455399676067,8.081203553734756,-13.646939905678352,0.4407385149572675,3.1697913995726466,-0.8266165547415584,0.0145298411524369,19.429500187312687,-1.6726212489433638,28.76350076377033,33.12447958786354,34.46631922604607,1577399191.0,-27.69472633743494,-51.1119207678229,5.388058
18616,1577399191.56,1.390855979063452,-0.6616171904773245,9.17744212467845,-2.787609869533632,0.3199470950242945,7.004616525342987,1.940004086675876,3.65565395924638,11.133037719726564,1.8792501310022869,6.717216677782012,-6.156363138338414,8.506030571169969,-7.542307783917683,-7.010110994664634,5.328480790301067,-1.1961401962652438,-7.665494593178353,1.14592013888889,3.987802083333333,-1.1272043928293995,-2.450812508805297,20.162688873626376,0.6872952768385466,28.61973223110792,33.41201665318837,34.94554766825411,1577399191.0,-27.69472633743494,-51.1119207678229,5.388058
18617,1577399191.57,2.2252352576279053,-0.8926576506824025,7.934851463057354,1.189159087985899,-0.1948062619092982,9.367693563917204,1.200195773687595,-2.384916829327839,9.370905297851564,-1.0504373689977131,2.4752733184070124,-7.300772318025915,4.691333305544969,3.291432450457317,-7.864603182164634,-2.300913740948933,-10.870212461890244,-9.404996546303352,1.0577724358974372,2.863037393162393,-0.4508817571317617,0.8363106244716829,15.39696241258741,-4.032537774725275,28.66765507532872,33.17240243208434,34.70593344715009,1577399191.0,-27.69472633743494,-51.1119207678229,5.388058
18618,1577399191.58,1.1394648047470457,-0.5059940825671683,11.360954038740948,4.682299310153868,-0.7215306271436732,11.338121530225802,2.988664413824314,0.5755135234553631,11.499350573730467,0.8111348966272866,-11.684882931592988,-8.597769388338415,-1.0612301710175305,2.620045731707317,-8.429178377477134,0.0641985637385671,-11.007541563452744,-2.3859535775533534,1.4985109508547012,2.351780715811969,0.3757347976097936,1.041755820301493,19.796094530469528,-0.935147334636517,28.66765507532872,33.17240243208434,34.72989486926049,1577399191.0,-27.69472633743494,-51.1119207678229,5.388058
18619,1577399191.59,1.151435813047827,0.4780227997570495,12.742408396651104,-0.6878950135765999,4.258408825981325,15.544733847120334,1.3989145114805637,-0.670668440655964,7.864952453613281,2.2759786466272867,0.2169725371570121,-6.034292825838414,-0.3745846632050305,-2.293284346417683,-6.827005525914634,0.3846331340510671,-1.4707983993902438,-1.5924965463033538,0.6170339209401732,2.556283386752136,-0.6763226356976347,1.041755820301493,15.21366524100899,-3.8850429918639056,28.81142360799113,33.31617096474676,34.70593344715009,1577399191.0,-27.69472633743494,-51.1119207678229,5.388058
18620,1577399191.6,1.2879053076767333,2.048619088819549,11.243638157393292,2.326404876560117,2.3502301028367945,10.085954061964085,-1.452579665765529,-2.3442154011051826,14.642937353515624,3.0084005216272867,5.130302615282012,-6.064810403963414,7.285327446169969,2.894703934832317,-7.620462557164634,1.5137835246760671,-2.874606993140244,-10.839322718178352,1.3222155448717956,1.738272702991453,-0.3757347976097998,0.8363106244716829,13.563990696803195,-29.99161955832629,28.76350076377033,33.17240243208434,34.94554766825411,1577399191.0,-27.69472633743494,-51.1119207678229,5.388058
18621,1577399191.61,1.4519081213974363,1.931303207471893,11.342997526289777,1.6296921934546489,-2.081437170112423,7.818645089796112,0.9176799777891574,-4.192539082745808,13.259088793945311,2.5506368497522867,-9.151923947217988,-8.643545755525915,5.545825493044969,-1.9270734089176829,-8.017191072789634,6.549183915301067,-8.032077696265244,-17.766812952553355,1.0577724358974372,1.0225133547008545,0.300587838087838,-3.2725932921245406,11.364424637862138,-29.99161955832629,28.61973223110792,33.41201665318837,34.61008775870848,1577399191.0,-27.69472633743494,-51.1119207678229,5.388058
18622,1577399191.62,2.0684150488876707,-1.4564921416491994,9.601215818526104,1.286124255222227,0.9220888125535917,12.634581729200413,1.2217435886290018,6.067812131853802,9.543287817382812,-6.787742056497714,1.529228396532012,-6.156363138338414,1.7006106492949693,-4.795725752667683,-7.528909822789634,4.290883134051067,-8.627170469702744,-8.901456507240853,0.7933293269230788,1.942775373931624,-0.2254408785658824,-0.807250942166807,13.563990696803195,-30.139114341187657,28.57180938688711,33.31617096474676,34.753856291370894,1577399191.0,-27.69472633743494,-51.1119207678229,5.388058
18623,1577399191.63,2.2791047949814205,3.8634239472179863,10.628328330733137,3.34633478378668,-0.0798845822217982,10.308614816358617,-1.1987942897889663,-4.238028914288776,9.387664709472656,4.534279427877286,-9.945380978467988,-9.330191263338415,0.6630129930449695,2.986256669207317,-6.247171541539634,-7.336314131573933,-7.177585508765244,0.7573569693216463,0.7933293269230788,1.5337700320512828,-0.2254408785658824,-2.450812508805297,15.030368069430567,-1.6726212489433638,28.61973223110792,33.31617096474676,34.753856291370894,1577399191.0,-27.69472633743494,-51.1119207678229,5.388058
18624,1577399191.64,0.7252679175400145,1.969610434034393,10.360177744795635,2.7429959654273053,1.3997320437547631,7.011799130323456,3.098797690191501,-8.801377278546589,12.203245861816406,4.168068490377286,-7.015693478467988,-7.590689310213414,0.8766360399199695,0.7584734660823171,-9.390482088414634,-5.261118819073933,-5.682224180640244,-9.496549280678352,0.9696247329059844,2.556283386752136,-0.6763226356976347,-2.0399221171456747,13.563990696803195,-4.032537774725275,28.61973223110792,33.12447958786354,34.753856291370894,1577399191.0,-27.69472633743494,-51.1119207678229,5.388058
18625,1577399191.65,2.204884543516577,-0.4389564360827933,8.971540781905011,-1.246941101223085,2.1646794741746853,10.10630477607541,-0.8923364772889674,-0.9304393207829176,5.634753607177734,-1.5997537752477131,-1.766670040967988,-7.834829935213414,2.722949516482469,0.6364031535823162,-7.269510408727134,-0.2104596393864328,7.989650819359756,-6.612638147865853,0.7933293269230788,1.942775373931624,-1.1272043928293995,-2.861702900464919,17.596528471528472,-1.230136900359256,28.61973223110792,33.26824812052595,34.72989486926049,1577399191.0,-27.69472633743494,-51.1119207678229,5.388058
18626,1577399191.66,2.665768363096656,-0.7011215178699026,9.831059177901103,3.8299635191382415,-3.180375732124143,2.6351984955578307,2.047743161382907,-0.1750686970036202,10.62307276611328,-0.9741434236852132,-1.1563184784679876,-7.926382669588415,3.8978762742949695,2.436940262957317,-7.742532869664634,1.6358538371760671,13.330226991234756,-9.740689905678352,0.7933293269230788,1.942775373931624,-1.1272043928293995,-2.861702900464919,19.429500187312687,-1.6726212489433638,28.81142360799113,33.31617096474676,35.52062179890376,1577399191.0,-27.69472633743494,-51.1119207678229,5.388058
18627,1577399191.67,1.6422471533798582,-0.302486941453887,10.329053123213605,1.2609851377905863,-3.166010522163205,6.487468966749237,4.678970785894626,-5.753558565167682,16.498443640136717,-1.1114725252477131,0.3695604277820121,-7.682242044588414,4.965991508669969,-10.258372237042684,-7.467874666539634,0.3541155559260671,3.412014100609756,-12.365201624428352,1.6748063568376068,1.3292673611111123,-1.277498311873317,-2.861702900464919,19.429500187312687,-1.6726212489433638,28.66765507532872,33.31617096474676,34.8017791355917,1577399191.0,-27.69472633743494,-51.1119207678229,5.388058
18628,1577399191.68,0.7851229590439208,0.6551937226086119,9.6179752301472,-1.9472450868187876,2.845829846489138,14.970125448682834,4.997399606695407,1.5535449016291911,9.852139831542967,-0.1043924471227134,1.864921755907012,-7.224478372713414,0.6630129930449695,-4.337962080792683,-7.254251619664634,-4.315073897198933,0.2687035537347561,-11.358121546303352,1.6748063568376068,2.1472780448717903,0.8266165547415459,-0.8072509421668069,19.429500187312687,-3.737548209002536,28.61973223110792,33.22032527630515,34.70593344715009,1577399191.0,-27.69472633743494,-51.1119207678229,5.388058
18629,1577399191.69,0.4475405249618895,1.845111947706268,11.114351267744857,1.9804427366675397,1.2058017092821076,9.724429611280488,-2.047538778314358,3.926198746844036,9.366116894531247,4.747902474752286,-5.947578244092988,-8.231558450838415,1.4564700242949693,2.330128739519817,-7.803568025914634,-0.1952008503239328,2.145534608422256,-9.008268030678352,2.027397168803418,1.738272702991453,-0.0751469595219649,-3.2725932921245406,19.79609453046953,-2.5575899461115803,28.61973223110792,33.26824812052595,34.63404918081888,1577399191.0,-27.69472633743494,-51.1119207678229,5.388058
18630,1577399191.7,1.678160178282202,1.8882075775890808,9.006256705977275,1.3759068174780864,-0.2762091183546107,12.19524572456174,2.057319968023532,-2.198169099835652,12.5264630859375,2.1233907560022875,-2.056587033155488,-8.307852396150915,3.257007133669969,-9.434397627667684,-10.031351229039634,-4.101450850323933,5.944973084984756,-4.522184046303353,2.027397168803418,1.3292673611111123,-0.9769104737854758,-2.861702900464919,19.79609453046953,-4.032537774725275,28.78746218588073,33.41201665318837,34.993470512474914,1577399191.0,-27.69472633743494,-51.1119207678229,5.388058
18631,1577399191.71,1.1394648047470457,-2.3878365874499807,9.704166489912824,0.7917216123999615,1.7828043093797634,10.967020272901584,4.015776926031345,-4.630677986554401,11.089942089843747,-7.916892447122714,5.008232302782012,-5.484976419588414,1.4259524461699695,-0.9505109089176828,-9.268411775914634,-5.108530928448933,-0.6773413681402439,-8.550504358803353,2.379987980769229,1.738272702991453,-1.277498311873317,-1.834476921315863,19.612797358891108,-2.115105597527472,28.475963698445504,33.17240243208434,35.233084733578934,1577399191.0,-27.69472633743494,-51.1119207678229,5.388058
18632,1577399191.72,1.4171921973251709,0.6647705292492369,7.774439951826886,0.0830379209937116,-1.2291013790967982,7.97905660102658,-2.36477049828506,1.3667971721370036,12.152967626953124,-7.337058462747714,-6.161201290967988,-8.475699075838415,-0.8933834913300305,2.040211747332317,-6.643900057164634,2.581898759051067,-3.301853086890244,-6.536344202553353,1.3222155448717956,2.1472780448717903,-0.6763226356976347,-3.067148096294731,19.97939170204795,-2.70508472897295,28.955192140653548,33.31617096474676,34.70593344715009,1577399191.0,-27.69472633743494,-51.1119207678229,5.388058
18633,1577399191.73,2.1689715186142333,3.1906532807140806,10.61276601994212,2.1911324827612897,0.3043847842332794,8.799070669630096,-0.0495774929139673,-3.8286204304020575,7.830236529541015,5.785500131002286,-12.264716915967988,-9.116568216463415,0.6782717821074695,-6.535227705792683,-8.535989900914634,-6.390269209698933,-0.478977110327744,-10.610440882240852,-0.440738514957264,1.942775373931624,-0.2254408785658823,0.8363106244716829,-3.665943431568431,-1.6726212489433638,28.76350076377033,33.22032527630515,34.72989486926049,1577399191.0,-27.69472633743494,-51.1119207678229,5.388058
18634,1577399191.74,3.3014289038681404,-0.5873969390124808,6.991536008955792,1.8762949644507427,2.441209765922732,10.033281625440646,0.3215237644102512,4.637276639910442,10.70686982421875,-5.506003775247714,1.559745974657012,-9.391226419588415,-1.0154538038300305,-2.659495283917683,-10.519632479039634,-0.0731305378239328,4.052883241234756,-9.801725061928352,0.0881477029914492,1.942775373931624,0.3757347976097936,0.0145298411524369,-2.5661604020979016,-32.05654651838546,28.81142360799113,33.12447958786354,34.61008775870848,1577399191.0,-27.69472633743494,-51.1119207678229,5.388058
18635,1577399191.75,1.627881943418921,-1.6001442412585745,11.50700034001048,3.2936623472632425,-0.0463657589796107,11.618243124464083,2.7947340793516573,-0.7736191120426827,10.371681591796875,-10.480369009622711,-3.719795040967988,-7.254995950838414,-4.647045600705031,0.3312273723323171,-8.352884432164634,-5.718882490948933,1.4283715224847562,-1.2262856088033538,1.4985109508547012,1.5337700320512828,-0.5260287166537173,-1.4235865296562409,21.07917473151848,-31.90905173552409,28.66765507532872,33.22032527630515,34.753856291370894,1577399191.0,-27.69472633743494,-51.1119207678229,5.388058
18636,1577399191.76,0.9335634619736084,0.7078661591320494,13.470245701338603,0.3559769102515241,-0.9178551632764858,11.311785311964083,-2.2354836086366228,-6.938688386945026,11.111489904785156,-6.299460806497714,-3.506171994092988,-9.391226419588415,1.4869876024199695,-8.518870283917684,-8.810648104039634,-7.794077803448933,-3.240817930640244,-5.010465296303353,1.8511017628205124,2.351780715811969,-0.8266165547415584,-1.4235865296562409,21.812363417832167,-31.90905173552409,28.475963698445504,33.31617096474676,34.94554766825411,1577399191.0,-27.69472633743494,-51.1119207678229,5.388058
18637,1577399191.77,1.52612837286228,1.3722571198254088,9.610792625166727,0.0758553160132433,-0.2642381100538299,11.31417951362424,0.7010047275450173,2.611782035418255,12.000935821533202,-0.5926736971227132,-2.346504025342988,-6.843008646150914,0.1289553758574695,-5.558665205792684,-8.413919588414634,-1.9957379596989329,2.038723084984756,-8.657315882240852,1.14592013888889,1.1247646901709418,-0.5260287166537203,-6.046103435826993,8.340021306818183,-30.655346081202453,28.61973223110792,33.17240243208434,34.634049180818884,1577399191.0,-27.69472633743494,-51.1119207678229,5.388058
18638,1577399191.78,3.3038231055282963,3.243325717237518,11.131110679365948,2.0223412657202737,3.839423535453982,10.243971371534396,1.0685146823790013,-3.0648701008122137,10.32379755859375,1.7571798185022869,-13.454902462842988,-10.337271341463415,-4.036694038205031,-1.2251691120426829,-7.925638338414634,-3.948862959698933,3.137355897484756,-10.412076624428352,1.3222155448717956,0.9202620192307712,-0.0751469595219649,-1.629031725486053,-4.032537774725275,-27.631703032544383,28.76350076377033,33.17240243208434,34.70593344715009,1577399191.0,-27.69472633743494,-51.1119207678229,5.388058
18639,1577399191.79,2.8130117651962654,-1.880265835496856,7.06336205876048,1.6967298399390238,1.5170479251024196,10.33734523628049,-2.7023529323670923,0.1026586955745037,11.1474029296875,0.7195821622522866,-3.536689572217988,-8.048452982088415,0.4188723680449695,-0.4011945026676829,-10.092386385289634,-8.160288740948932,-3.973239805640244,-10.595182093178352,1.4985109508547012,1.942775373931624,-0.2254408785658824,-3.067148096294731,-3.48264625999001,-27.48420824968301,28.66765507532872,33.31617096474676,34.562164914487674,1577399191.0,-27.69472633743494,-51.1119207678229,5.388058
18640,1577399191.8,3.181718820860328,-1.7701325591296682,9.886125816084698,3.42294923691168,-1.436199822700314,7.600772738721893,2.855786221685642,0.6233975566584892,8.044517578125,-9.137595572122711,-7.229316525342988,-9.452261575838415,1.5022463914824693,-3.132517744855183,-8.383402010289634,-2.209361006573933,0.7264672256097562,-9.801725061928352,2.379987980769229,2.9652887286324763,-0.0751469595219649,-6.251548631656803,9.439804336288711,-28.885408686866025,28.76350076377033,33.19636385419474,34.84970197981251,1577399191.0,-27.69472633743494,-51.1119207678229,5.388058
18641,1577399191.81,1.8732876135849363,1.1615673737316592,9.216946452071026,1.3016865660132426,1.6415464114305445,11.18010422065549,0.3119469577696262,1.6900143962580974,13.2159931640625,3.023659310689788,-1.751411251905488,-7.285513528963415,-1.5342526319550305,-8.579905440167684,-8.993753572789634,-4.650767256573933,-3.881687071265244,-4.674771936928353,1.7629540598290596,2.65853472222222,0.3005878380878318,-8.614168383699631,19.062905844155846,-25.86176563820795,28.66765507532872,33.17240243208434,34.70593344715009,1577399191.0,-27.69472633743494,-51.1119207678229,5.388058
18642,1577399191.82,1.831389084532202,2.5657666474132994,10.123151780440166,0.1907769957007428,2.9607515261766384,15.140113766553927,0.7165670383360325,-4.264365132550495,13.192051147460935,-1.3861307283727131,-8.419502072217988,-10.367788919588415,-0.4051022413300305,2.467457841082317,-10.397562166539634,-9.716685225323932,-11.663669493140244,-6.780484827553353,2.556283386752135,3.5787967414529875,0.6763226356976285,-8.614168383699631,19.062905844155846,-2.852579511834319,28.907269296432744,33.22032527630515,34.8017791355917,1577399191.0,-27.69472633743494,-51.1119207678229,5.388058
18643,1577399191.83,1.0676387549423585,-1.875477432176543,14.23878443424876,2.3359816832007425,-1.5403475949171106,11.093912960889863,0.06055578345322,-0.3881526447575265,10.946289990234376,-9.259665884622711,7.236015505907012,-7.468618997713414,2.433032524294969,-0.4317120807926829,-9.939798494664634,-3.918345381573933,-17.706149961890244,-8.092740686928353,1.14592013888889,1.5337700320512828,0.0751469595219524,-9.8468395586785,-3.665943431568431,-2.852579511834319,28.57180938688711,33.12447958786354,34.61008775870848,1577399191.0,-27.69472633743494,-51.1119207678229,5.388058
18644,1577399191.84,2.992576889707984,-3.060607253953887,10.403273374678449,2.461677270358946,-0.7346987362745326,11.728376400831271,2.9000789523985326,3.5706598003108323,9.074024291992188,-15.027488150247711,-2.132880978467988,-8.658804544588415,0.3578372117949695,-2.278025557355183,-8.276590486852134,-1.9041852253239329,-17.950290586890244,-9.038785608803352,0.7933293269230788,2.351780715811969,0.3757347976097936,-15.18841465025359,16.863339785214784,-2.852579511834319,28.66765507532872,33.17240243208434,34.72989486926049,1577399191.0,-27.69472633743494,-51.1119207678229,5.388058
18645,1577399191.85,2.531693070127905,1.3578919098644715,12.028936301924542,3.4756216734351177,1.9480042239305448,9.92314834907346,4.365330368414157,-1.0489523029606516,10.237606298828124,5.022560677877288,-4.452216915967988,-8.414663919588415,-0.0999264600800304,3.169362137957317,-8.719095369664634,-3.155405928448933,-8.337253477515244,-3.301480921303354,1.4985109508547012,1.1247646901709418,-0.3757347976097999,0.4254202328120589,16.496745442057946,0.6872952768385466,28.78746218588073,33.31617096474676,34.70593344715009,1577399191.0,-27.69472633743494,-51.1119207678229,5.388058
18646,1577399191.86,0.404444895079077,2.570555050733612,12.021753696944073,2.0750137022437114,3.1139804324266382,11.302208505323458,2.3829313938047822,-9.124594502667682,10.022128149414062,2.4590841153772867,1.773369021532012,-8.475699075838415,0.0221438524199695,-1.3472394245426829,-9.329446932164634,-5.963023115948933,-7.299655821265244,-13.128141077553352,1.6748063568376068,0.9202620192307712,-1.8786739880489929,0.0145298411524369,19.429500187312687,0.6872952768385466,28.907269296432744,33.31617096474676,34.03501362805883,1577399191.0,-27.69472633743494,-51.1119207678229,5.388058
18647,1577399191.87,1.4267690039657956,-1.068631472703887,9.110404478194074,1.6464516050757427,1.4739522952196071,12.305379000928928,-2.4318081447694357,3.935775553484661,6.502651708984375,-11.487449087747711,3.787529177782013,-8.475699075838415,-1.4121823194550305,1.4908953410823171,-9.085306307164634,3.039662430926067,-4.705661680640244,-13.952115686928352,1.6748063568376068,0.9202620192307712,-1.8786739880489929,0.8363106244716829,20.895877559940057,-1.3776316832206257,28.907269296432744,33.22032527630515,34.70593344715009,1577399191.0,-27.69472633743494,-51.1119207678229,5.388058
18648,1577399191.88,1.3597313574814207,-0.2857275298327937,8.971540781905011,2.652016302341368,-0.8364523068311732,11.777457534864476,3.1023889926817354,3.0463296367366133,10.032902056884764,-3.751243033060213,-5.856025509717988,-8.796133646150915,1.8226809617949693,-1.8507794636051829,-9.466776033727134,2.673451493426067,-13.311618711890244,-6.6889320931783525,0.8814770299145316,2.045026709401711,-0.300587838087841,-0.8072509421668069,17.963122814685317,-2.4100951632502112,28.61973223110792,33.24428669841555,34.753856291370894,1577399191.0,-27.69472633743494,-51.1119207678229,5.388058
18649,1577399191.89,2.303046811582983,-2.447691628953887,12.723254783369851,3.731801251071836,0.1092573489305445,12.472973117139864,0.4723584690000949,-0.7712249103825265,7.893682873535155,0.1702657560022865,-12.875068478467988,-9.177603372713415,-1.4426998975800305,2.375905106707317,-9.726175447789634,-5.108530928448933,-0.6468237900152439,-2.446988733803354,1.6748063568376068,1.738272702991453,0.2254408785658761,0.0145298411524369,16.496745442057946,-1.0826421174978862,28.61973223110792,33.17240243208434,34.89762482403331,1577399191.0,-27.69472633743494,-51.1119207678229,5.388058
18650,1577399191.9,2.5759858008407965,0.291275070264862,11.858947984053447,2.94410890488043,-1.2027651608350791,8.180169540479707,-0.2052006008241227,-2.2556299396794013,8.614337573242187,2.9778829435022867,2.3837205840320124,-7.254995950838414,2.066821586794969,1.6434832317073171,-9.085306307164634,-1.2327985065739329,15.130764100609756,-1.2262856088033538,1.6748063568376068,1.738272702991453,0.2254408785658761,1.8635366036207368,16.680042613636363,-2.115105597527472,28.38011801000389,33.02863389942193,34.70593344715009,1577399191.0,-27.69472633743494,-51.1119207678229,5.388058
18651,1577399191.91,2.0205310156845457,0.7389907807140806,11.617133616377666,1.045506988376524,0.7868164187547633,10.526487167432832,5.952686069097751,-7.714409724835651,13.702016101074218,-1.7828592439977131,-2.895820431592988,-9.116568216463415,2.890796196169969,-6.901438643292683,-7.650980135289634,0.1710100871760671,8.813625428734756,-11.419156702553352,1.6748063568376068,1.738272702991453,0.2254408785658761,0.219975036982249,13.74728786838162,-2.70508472897295,28.61973223110792,33.41201665318837,34.70593344715009,1577399191.0,-27.69472633743494,-51.1119207678229,5.388058
18652,1577399191.92,3.1410173926376714,0.6779386383800968,10.698957279707743,1.834396435398008,2.210169305717654,10.4953625458508,-1.1102088283631864,3.059497745867473,10.332177264404296,2.245461068502287,-2.850044064405488,-8.124746927400915,2.463550102419969,3.733937333269817,-8.764871736852134,7.663075516863568,11.224514100609756,-16.95809713224085,0.2644431089743619,1.533770032051283,-0.9769104737854788,-0.7045283442519019,11.089478880494507,-3.6638008175718513,28.715577919549524,33.26824812052595,34.65801060292928,1577399191.0,-27.69472633743494,-51.1119207678229,5.388058
18653,1577399191.93,2.233614963438452,0.0422780976086119,10.003441697432354,2.9872045347632428,-1.2889564206007045,6.767590560987518,4.190553647222751,-1.3075260822575263,10.87925234375,7.708107552877286,12.149345584032012,-6.461538919588414,2.188891899294969,5.244557450457317,-7.620462557164634,2.124135087176067,8.020168397484756,-8.642057093178353,1.3222155448717956,2.9652887286324763,-0.3757347976097998,-3.2725932921245406,10.631235951548453,-3.4425586432797965,28.76350076377033,33.12447958786354,34.89762482403331,1577399191.0,-27.69472633743494,-51.1119207678229,5.388058
18654,1577399191.94,1.7116790015243897,1.275291952589081,6.986747605635479,3.2074710874976176,0.6455585208055445,7.505004672315644,-0.0423948879334977,3.2438512736995047,7.793126403808594,-3.4918436189977133,7.785331912157012,-7.438101419588414,-0.4661373975800305,4.481617997332317,-7.864603182164634,2.826039384051067,10.919338319359756,-8.519986780678353,1.4985109508547012,1.1247646901709418,0.6763226356976285,-2.861702900464919,13.93058503996004,-1.0826421174978862,28.81142360799113,33.31617096474676,34.753856291370894,1577399191.0,-27.69472633743494,-51.1119207678229,5.388058
18655,1577399191.95,3.739567807676734,1.6009033783703306,8.540584483076886,1.4764632872046488,0.8550511660692169,7.83899580390744,1.28040152930283,-0.977126253155964,7.975085729980468,7.006203256002286,-5.093086056592988,-9.116568216463415,3.089160453982469,1.796071122332317,-8.047708650914634,3.115956376238567,12.536769959984756,-10.656217249428352,1.4985109508547012,1.1247646901709418,0.6763226356976285,-3.2725932921245406,13.563990696803195,-2.5575899461115803,28.61973223110792,33.43597807529876,34.8257405577021,1577399191.0,-27.69472633743494,-51.1119207678229,5.388058
18656,1577399191.96,1.975041184141577,-1.057857565233184,7.952807975508526,1.294503961032774,-0.4988698727491419,8.400436093214081,1.5928448459532198,1.958164982195597,12.291831323242189,4.381691537252287,2.3532030059070124,-8.490957864900915,0.7545657274199695,2.833668778582317,-9.420999666539634,2.765004227801067,-1.0740698837652438,0.5742515005716463,1.8511017628205124,2.5562833867521357,-0.676322635697641,-3.2725932921245406,13.563990696803195,-1.6726212489433638,28.64369365321832,32.98071105520113,34.8017791355917,1577399191.0,-27.69472633743494,-51.1119207678229,5.388058
18657,1577399191.97,0.835401193907202,1.3614832123547056,15.543624339033917,0.6576463194312115,2.1203867434617947,12.389176059034396,-0.5379946315858415,-1.7743954059879952,7.376535314941406,-8.954490103372713,6.503593630907012,-7.865347513338414,-2.2666745069550305,-0.6758527057926829,-6.704935213414634,-0.4393414753239328,4.815822694359756,-10.076383265053352,1.8511017628205124,0.7157593482905967,0.0751469595219524,-3.2725932921245406,15.030368069430567,-1.0826421174978862,28.66765507532872,33.31617096474676,34.94554766825411,1577399191.0,-27.69472633743494,-51.1119207678229,5.388058
18658,1577399191.98,1.630276145079077,-0.4796578643054495,12.129492771651105,1.3280227842749617,-0.4533800412061731,10.404382882764866,1.8011403903868135,4.179984122820598,9.78031378173828,-8.435691275247713,7.602226443407012,-6.431021341463414,1.2123293992949695,4.695241044207317,-8.322366854039634,3.955189774676067,20.65444574123476,-2.111295374428354,1.6748063568376068,2.556283386752136,-0.3757347976097998,-2.861702900464919,15.763556755744256,-4.032537774725275,28.66765507532872,33.31617096474676,34.70593344715009,1577399191.0,-27.69472633743494,-51.1119207678229,5.388058
18659,1577399191.99,1.8936383276962645,-0.8292113066882619,10.652270347334698,1.524347320407774,-1.4804925534132043,8.6566156708508,6.642216147222751,-5.9762193195622135,9.888052856445311,-3.858054556497713,-0.6985548065929879,-8.811392435213415,0.6324954149199695,3.230397294207317,-7.101663729039634,3.253285477801067,23.52309808498476,-6.749967249428353,1.6748063568376068,2.556283386752136,-0.3757347976097998,-1.4235865296562409,19.612797358891108,-2.852579511834319,28.76350076377033,33.31617096474676,34.70593344715009,1577399191.0,-27.69472633743494,-51.1119207678229,5.388058
18660,1577399192.0,2.0815831580185304,1.7158250580578305,9.864578001143292,0.9976229551733996,1.6475319155809351,9.90758603828244,1.3582130832579082,-1.957551832989948,11.145008728027342,6.380592904439786,-4.360664181592988,-8.613028177400915,3.928393852419969,3.0167742473323167,-7.284769197789634,8.868519852801068,20.66970453029726,-14.013150843178352,0.3525908119658147,1.4315186965811977,-3.0808688933348094e-15,-2.2453673129754868,17.779825643106893,-3.737548209002536,28.57180938688711,33.24428669841555,34.825740557702105,1577399192.0,-27.69469706043468,-51.11196775267803,5.7457943
18661,1577399192.01,1.4650762305282958,0.2649388520031432,8.325106333662823,0.9904403501929304,-0.0008759274366425,4.775614779737518,-2.3887125148866226,4.462499918719036,12.74912384033203,4.656349740377286,-2.254951290967988,-7.834829935213414,0.2662844774199695,4.603688309832317,-9.176859041539634,5.999867509051067,-7.208103086890244,-19.689420374428355,1.6748063568376068,0.9202620192307712,-0.3757347976097998,-2.450812508805297,19.429500187312687,0.6872952768385466,28.57180938688711,33.12447958786354,34.562164914487674,1577399192.0,-27.69469706043468,-51.11196775267803,5.7457943
18662,1577399192.02,1.6853427832626708,1.4644338837414244,9.359401450850324,1.004805560153868,1.2417147341844508,9.880052719190646,4.015776926031345,2.3986980876643478,11.765106958007811,-6.574119009622714,1.224052615282012,-8.780874857088415,-2.1140866163300305,-1.4082745807926829,-6.613382479039634,0.8729143840510671,-7.452243711890244,-9.618619593178352,1.4985109508547012,1.942775373931624,-0.8266165547415584,4.945214541067904,19.79609453046953,-4.032537774725275,28.76350076377033,33.31617096474676,34.70593344715009,1577399192.0,-27.69469706043468,-51.11196775267803,5.7457943
18663,1577399192.03,1.3884617774032957,-0.9752576079577931,9.273210191084695,-0.5155124940453499,0.9975061648485132,10.75154212348752,3.055702060308689,1.6349477580745035,8.777143286132812,-4.682029165872713,8.121025271532012,-6.629385599275914,1.4564700242949695,3.260914872332317,-7.803568025914634,-4.254038740948933,-10.748142149390244,2.130647984946646,0.7051816239316224,1.0225133547008547,-0.7514695952195966,3.712543366089037,-2.9327547452547447,-25.271786506762464,28.57180938688711,33.17240243208434,34.562164914487674,1577399192.0,-27.69469706043468,-51.11196775267803,5.7457943
18664,1577399192.04,1.218473459532202,1.2848687592297057,9.92922144596751,0.8910809812964459,0.0063066775438263,8.568030209425018,-0.2315368190858414,2.851202201433879,11.052831964111329,0.8111348966272866,-3.231513790967988,-8.048452982088415,1.3954348680449693,2.131764481707317,-7.773050447789634,-5.367930342511433,-19.460910704077744,0.9252036490091462,1.8511017628205124,2.7607860576923056,-0.2254408785658824,3.3016529744294165,19.79609453046953,-26.451744769653423,28.76350076377033,33.24428669841555,34.70593344715009,1577399192.0,-27.69469706043468,-51.11196775267803,5.7457943
18665,1577399192.05,1.1346764014267332,2.364653707960174,11.629104624678448,-1.264897613674256,1.9575810305711696,13.277424874952365,4.729249020757908,-5.801442598370807,9.603142858886718,1.9708028653772869,-11.410224728467988,-8.780874857088415,0.7545657274199695,-1.1336163776676829,-6.613382479039634,-10.082896162823932,-18.987888243140244,-3.301480921303354,2.203692574786324,-0.5112566773504303,0.0751469595219524,-1.629031725486053,19.429500187312687,-32.05654651838546,28.61973223110792,33.17240243208434,34.562164914487674,1577399192.0,-27.69469706043468,-51.11196775267803,5.7457943
18666,1577399192.06,1.017360520079077,-0.465292654344512,11.360954038740948,-0.4676284608422248,0.3510717166063257,10.825762374952363,1.6790361057188448,1.8528201091487224,10.608707556152345,-3.2782205721227133,4.214775271532012,-5.271353372713414,2.463550102419969,5.030934403582317,-7.803568025914634,-0.8971051471989329,-11.602634336890244,-11.266568811928352,0.0881477029914492,-0.1022513354700852,0.6763226356976285,-1.629031725486053,19.429500187312687,-32.05654651838546,28.66765507532872,33.31617096474676,34.70593344715009,1577399192.0,-27.69469706043468,-51.11196775267803,5.7457943
18667,1577399192.07,0.3685318701767333,1.2178311127453303,11.612345213057354,1.2729561460913676,-1.075872472846798,8.836180795362518,2.83782970923447,5.120905375262004,10.67335100097656,-2.8509744783727133,3.3297655059070124,-6.003775247713414,3.165454399294969,-1.6218976276676829,-7.742532869664634,5.755726884051067,1.7945824599847562,-8.275846155678353,0.7933293269230788,1.1247646901709418,-0.2254408785658824,-2.861702900464919,19.429500187312687,-32.3515360841082,28.57180938688711,33.12447958786354,34.753856291370894,1577399192.0,-27.69469706043468,-51.11196775267803,5.7457943
18668,1577399192.08,2.147423703672827,0.3990141449718932,10.475099424483137,2.5203352110327737,3.2025658938524195,11.302208505323458,3.5417249973204075,-1.1471145710270578,10.5344873046875,2.9778829435022867,-8.694160275342988,-8.140005716463415,-0.5271725538300305,-0.6758527057926829,-7.650980135289634,0.9644671184260672,3.808742616234756,-8.733609827553353,0.4407385149572675,1.5337700320512828,-0.2254408785658824,-1.629031725486053,-3.665943431568431,-29.40164042688081,28.76350076377033,33.17240243208434,34.70593344715009,1577399192.0,-27.69469706043468,-51.11196775267803,5.7457943
18669,1577399192.09,2.8513189917587654,-1.4373385283679494,7.532625584151105,3.3487289854468365,1.8139289309617943,10.358893051221896,1.5018651828672822,5.410603776140911,7.728482958984374,2.7032247403772867,0.5831834746570121,-6.919302591463414,1.0292239305449695,5.885426591082317,-7.223734041539634,2.581898759051067,1.1231957412347562,-0.2497231088033537,1.6748063568376068,0.9202620192307712,0.526028716653711,-1.629031725486053,-4.032537774725275,-27.0417239010989,28.66765507532872,33.41201665318837,34.61008775870848,1577399192.0,-27.69469706043468,-51.11196775267803,5.7457943
18670,1577399192.1,1.4519081213974363,0.9041906952648624,9.88492871525462,1.035930181735899,1.4428276736375758,6.731677536085175,-2.075072097406154,-7.14698393137862,6.533776330566406,1.3451925138147869,-2.224433712842988,-7.590689310213415,-2.6023678663300305,2.742116044207317,-7.773050447789634,-3.277476240948933,3.076320741234756,-3.820279749428354,1.14592013888889,0.7157593482905987,-0.2254408785658793,-2.2453673129754868,22.9121464473027,-28.959156078296704,28.64369365321832,33.31617096474676,34.8017791355917,1577399192.0,-27.69469706043468,-51.11196775267803,5.7457943
18671,1577399192.11,1.994194797422827,1.1005152313976745,7.965976084639386,1.9768514341773047,1.3925494387742945,10.74675372016721,-1.0072581569764665,0.612623649187785,7.4699091796875,9.417091927877289,6.839286990282012,-4.661001810213414,-0.6492428663300305,1.4908953410823171,-6.796487947789634,0.5982561809260671,1.3063012099847562,-12.426236780678352,1.14592013888889,1.5337700320512828,-0.2254408785658824,-9.025058775359255,19.429500187312687,-31.171577821217245,28.61973223110792,33.17240243208434,34.562164914487674,1577399192.0,-27.69469706043468,-51.11196775267803,5.7457943
18672,1577399192.12,1.151435813047827,-1.1620053374499806,11.688959666182354,1.8667181578101175,1.550566748344607,11.49374463813596,-6.631237856683499,3.1552658122737234,12.907141149902342,-15.332663931497711,-0.6680372284679879,-8.750357278963415,-0.4661373975800305,6.587330887957317,-7.620462557164634,2.551381180926067,-1.1045874618902438,-4.674771936928353,1.8511017628205124,-0.1022513354700852,0.3757347976097936,-9.8468395586785,18.696311500999,-26.15675520393069,28.61973223110792,33.17240243208434,34.8017791355917,1577399192.0,-27.69469706043468,-51.11196775267803,5.7457943
18673,1577399192.13,-0.1366446801162344,0.2793040619640807,11.78712193424876,3.011146551364805,-1.1764289425733607,13.342068319776583,0.82670031470322,-5.054451680402058,11.456254943847656,5.449806771627286,7.358085818407012,-4.722036966463414,3.440112602419969,0.9720965129573172,-7.193216463414634,-5.596812178448933,-9.924167540015244,-11.815885218178352,0.6170339209401732,1.738272702991453,-0.0751469595219649,-13.133962691955478,19.429500187312687,0.9822848425612848,28.57180938688711,33.12447958786354,34.562164914487674,1577399192.0,-27.69469706043468,-51.11196775267803,5.7457943
18674,1577399192.14,1.2328386694931397,-0.0319421538562308,10.781557236983137,0.6552521177710553,1.7181608645555446,12.856045382764863,2.53137189673447,3.447358414812786,12.222399475097657,-0.2264627596227134,-5.215156369092988,-7.285513528963414,-0.2830319288300305,-0.4622296589176829,-5.850443025914634,2.246205399676067,-12.975925352515244,-8.825162561928353,2.203692574786324,-0.1022513354700852,-0.8266165547415584,-9.435949167018876,16.496745442057946,1.867253539729502,28.76350076377033,33.41201665318837,34.753856291370894,1577399192.0,-27.69469706043468,-51.11196775267803,5.7457943
18675,1577399192.15,1.716467404844702,0.6264633026867369,12.720860581709696,0.7893274107398052,-0.9130667599561731,9.823788980176973,0.0114746494200173,1.6672694804866135,10.951078393554686,0.9026876310022866,-4.787910275342988,-7.651724466463414,3.287524711794969,-0.1875714557926828,-6.216653963414634,-4.620249678448933,-20.269626524390244,0.5589927115091464,2.203692574786324,1.1247646901709418,0.6763226356976285,-7.27877461080586,17.138285542582416,0.7610426682692315,28.57180938688711,33.22032527630515,34.8257405577021,1577399192.0,-27.69469706043468,-51.11196775267803,5.7457943
18676,1577399192.16,0.816247580625952,0.511541622999237,11.51897134831126,1.8379877378882423,-0.1708642453077357,11.69725177924924,5.241608176031344,-4.7384170612614325,7.012616662597656,-0.5621561189977134,0.0033494902820121,-6.980337747713414,4.721850883669969,-0.4927472370426829,-7.254251619664634,-5.901987959698933,-7.848972227515244,-2.660611780678354,2.203692574786324,1.1247646901709418,0.6763226356976285,-3.2725932921245406,16.863339785214784,0.6872952768385466,28.61973223110792,33.17240243208434,34.753856291370894,1577399192.0,-27.69469706043468,-51.11196775267803,5.7457943
18677,1577399192.17,2.317412021543921,-0.4126202178210745,9.390526072432356,0.4732927915991803,0.6718947390672633,10.442690109327366,-0.1621049709413102,-4.961077815655964,7.785943798828124,-3.0951151033727133,-1.858222775342988,-6.705679544588414,1.3038821336699695,3.566090653582317,-6.064066072789634,0.9644671184260672,2.374416444359756,-10.869840296303352,1.6748063568376068,1.738272702991453,-0.3757347976097998,-3.2725932921245406,16.863339785214784,0.6872952768385466,28.61973223110792,33.12447958786354,34.70593344715009,1577399192.0,-27.69469706043468,-51.11196775267803,5.7457943
18678,1577399192.18,1.4028269873642332,0.6240691010265806,10.539742869307354,0.6576463194312115,3.298333960258669,9.324597934034394,-1.6967882351014665,6.902191410418254,8.664615808105468,2.9473653653772867,4.550468630907012,-4.844107278963414,-1.0459713819550305,4.786793778582317,-5.667337557164634,11.065785477801068,9.240871522484756,-11.815885218178352,1.14592013888889,0.3067540064102557,1.5780861499611456,-1.629031725486053,13.563990696803195,-3.147569077557058,28.61973223110792,33.17240243208434,34.61008775870848,1577399192.0,-27.69469706043468,-51.11196775267803,5.7457943
18679,1577399192.19,1.9678585791611083,0.9353153168468932,9.853804093672588,2.3359816832007425,-0.805327685249142,7.641474166944549,-0.3009686672303727,3.466512028094036,9.141061938476565,3.191505990377287,-2.132880978467988,-7.117666849275914,2.555102836794969,4.054371903582317,-7.345804354039634,5.175892899676067,4.083400819359756,-7.116178186928353,2.379987980769229,0.7157593482905987,-0.3757347976097998,-1.629031725486053,15.030368069430567,-3.147569077557058,28.64369365321832,33.17240243208434,34.70593344715009,1577399192.0,-27.69469706043468,-51.11196775267803,5.7457943
18680,1577399192.2,1.659006565000952,-0.503599880907012,8.818311875655011,1.323234380954649,0.6575295291063263,9.765131039503144,3.4172265109922826,-1.3542130146305738,9.10395181274414,-0.7147440096227134,7.907402224657012,-5.118765482088414,2.936572563357469,-1.9270734089176829,-5.758890291539634,-1.1717633503239329,5.075222108422256,-8.321622522865852,2.027397168803418,0.9202620192307712,0.2254408785658761,0.8363106244716818,15.030368069430567,-2.4100951632502112,28.66765507532872,33.19636385419474,34.63404918081888,1577399192.0,-27.69469706043468,-51.11196775267803,5.7457943
18681,1577399192.21,1.2639632910751708,0.6935009491711118,12.292298484541728,2.577796050876524,1.4117030520555447,13.50966243598752,1.8849374484922825,8.30998198659013,8.985438830566405,-3.2782205721227133,-3.963935665967988,-7.377066263338414,-0.9849362257050304,6.587330887957317,-6.796487947789634,9.997670243426068,10.034328553734756,-4.979947718178353,1.6748063568376068,1.3292673611111123,0.2254408785658761,1.247201016131305,10.264641608391608,-2.852579511834319,28.66765507532872,33.17240243208434,34.61008775870848,1577399192.0,-27.69469706043468,-51.11196775267803,5.7457943
18682,1577399192.22,2.147423703672827,0.7581443939953306,10.961122361494857,4.490763177341368,-0.4198612179639857,9.978214987257052,2.042954758062595,-5.059240083722369,11.824961999511718,0.7806173185022866,-7.290351681592988,-6.217398294588414,-0.3440670850800305,7.106129716082317,-6.338724275914634,2.337758134051067,2.130275819359756,-3.698209436928354,1.4985109508547012,2.351780715811969,1.2774983118733108,0.219975036982249,13.74728786838162,-3.8850429918639056,28.81142360799113,33.31617096474676,34.61008775870848,1577399192.0,-27.69469706043468,-51.11196775267803,5.7457943
18683,1577399192.23,1.6087283301376707,-0.4473361418933406,13.42236166813548,-0.2449677064476936,0.4276861697313258,10.794637753370331,0.1922368747618137,-1.3601985187809638,7.175422375488281,-5.109275259622714,5.664360232469512,-5.546011575838414,1.5480227586699695,-4.673655440167683,-5.179056307164634,-0.4393414753239328,-1.989597227515244,-10.351041468178352,1.2340678418803428,2.24952938034188,0.4508817571317554,-9.641394362848688,13.74728786838162,-3.2950638604184275,28.78746218588073,33.22032527630515,34.70593344715009,1577399192.0,-27.69469706043468,-51.11196775267803,5.7457943
18684,1577399192.24,2.355719248106421,-0.0271537505359183,10.214131443526105,3.096140710300352,-0.3193047482374237,9.361708059766816,0.5190454013731424,2.8176833781916915,10.884040747070312,2.5506368497522867,-3.078925900342988,-6.583609232088414,0.8308596727324693,5.748097489519817,-5.530008455602134,4.641835282488567,11.605983827172256,-3.1641518197408534,1.4985109508547012,2.351780715811969,0.9769104737854758,-2.450812508805297,9.3481557504995,-3.885042991863905,28.66765507532872,33.29220954263636,34.753856291370894,1577399192.0,-27.69469706043468,-51.11196775267803,5.7457943
18685,1577399192.25,2.1737599219345456,1.459645480421112,7.168706931807354,0.2697856504858991,1.6008449832078884,7.052500558546112,0.3813788059141574,-10.427040205792682,7.8338278320312495,13.598000131002289,-4.055488400342988,-5.912222513338414,-0.9544186475800304,-2.690012862042683,-3.3174840415396343,-4.223521162823933,0.8790551162347561,-9.404996546303352,2.027397168803418,0.9202620192307712,-0.6763226356976347,-1.629031725486053,9.16485857892108,-4.032537774725275,28.66765507532872,33.31617096474676,34.562164914487674,1577399192.0,-27.69469706043468,-51.11196775267803,5.7457943
18686,1577399192.26,1.5967573218368896,4.196217977979705,8.892532127119855,-0.9895644227562872,3.839423535453982,11.204046237257051,2.1530880344297825,5.920568729754192,9.28231983642578,13.018166146627289,-2.468574337842988,-6.553091653963414,2.555102836794969,3.138844559832317,-7.345804354039634,0.9034319621760672,-4.614108946265244,-16.454557093178355,2.7325787927350405,1.738272702991453,0.526028716653711,-2.450812508805297,13.93058503996004,-0.4926629860524088,28.57180938688711,33.31617096474676,34.8017791355917,1577399192.0,-27.69469706043468,-51.11196775267803,5.7457943
18687,1577399192.27,1.8553311011337643,-0.4772636626452932,6.381014585615948,3.706662133640196,-0.1505135311964081,7.520566983106659,4.202524655523532,0.0356210490901298,9.117119921875,0.4296651700647865,7.052910037157012,-5.195059427400914,-3.380566108517531,3.260914872332317,-4.965433260289634,-2.117808272198933,0.2839623427972561,-4.857877405678353,2.115544871794871,2.045026709401709,0.1502939190439142,0.8363106244716818,14.29717938311688,-0.7876525517751478,28.61973223110792,33.26824812052595,34.873663401922904,1577399192.0,-27.69469706043468,-51.11196775267803,5.7457943
18688,1577399192.28,0.7683635474228271,1.9528510224132996,10.750432615401104,1.313657574314024,0.8562482668992945,14.048357809522678,2.160270639410251,1.4601710368830974,9.440337145996091,-2.7899393221227133,7.297050662157012,-6.644644388338414,-1.2595944288300305,-4.002268721417683,-7.925638338414634,-4.925425459698933,-2.752536680640244,-7.787564905678353,2.027397168803418,0.9202620192307712,0.2254408785658761,-1.629031725486053,13.563990696803195,-1.3776316832206257,28.76350076377033,33.17240243208434,34.70593344715009,1577399192.0,-27.69469706043468,-51.11196775267803,5.7457943
18689,1577399192.29,1.180166232969702,-2.007158523485137,9.634734641768294,0.9593157286108992,-0.4581684445264856,10.842521786573458,-1.0623247951600605,1.1920204509455974,15.5144267578125,-2.0269998689977133,-2.834785275342988,-6.125845560213414,-1.0154538038300305,2.070729325457317,-6.033548494664634,-7.977183272198933,-11.175388243140244,-2.080777796303354,2.027397168803418,0.9202620192307712,0.2254408785658761,-1.2181413338264289,13.563990696803195,-1.6726212489433638,28.66765507532872,33.02863389942193,34.562164914487674,1577399192.0,-27.69469706043468,-51.11196775267803,5.7457943
18690,1577399192.3,0.4224014075302494,1.0394630890636904,14.611082792403057,2.52272941269293,0.161929785453982,14.419459066846896,0.2784281345274387,-1.9970561603825263,18.612523706054688,-6.238425650247713,0.2780076934070121,-6.019034036775914,-2.6634030225800305,-1.9575909870426829,-4.568704744664634,-5.047495772198933,-27.258151915015244,-2.508023890053354,2.027397168803418,1.5337700320512806,0.225440878565873,-1.629031725486053,13.563990696803195,-4.032537774725275,28.61973223110792,33.12447958786354,34.70593344715009,1577399192.0,-27.69469706043468,-51.11196775267803,5.7457943
18691,1577399192.31,2.492188742735328,4.071719491651581,9.5030535504597,1.1855677854956646,0.7676628054735133,13.629372518995334,3.448351132574314,-1.1531000751774485,7.0473325866699215,9.874855599752289,-4.421699337842988,-5.484976419588414,0.8003420946074695,0.8347674113948171,-6.704935213414634,-3.109629561261433,-24.114841368140244,-5.727628382240853,1.14592013888889,0.3067540064102557,0.0751469595219524,1.8635366036207377,17.963122814685317,-4.032537774725275,28.57180938688711,33.31617096474676,34.753856291370894,1577399192.0,-27.69469706043468,-51.11196775267803,5.7457943
18692,1577399192.32,0.1985435523056395,-1.6983065093249807,9.811905564619854,-0.0031533387719124,0.0613733157274195,10.15299170844846,1.3606072849180637,4.448134708758098,9.10514891357422,-0.0433572908727134,0.3390428496570121,-5.851187357088414,2.188891899294969,-8.457835127667684,-4.812845369664634,-2.087290694073933,-5.499118711890244,1.7949546255716462,1.14592013888889,0.3067540064102557,0.0751469595219524,5.766995324387149,16.863339785214784,-27.631703032544383,28.61973223110792,33.22032527630515,34.70593344715009,1577399192.0,-27.69469706043468,-51.11196775267803,5.7457943
18693,1577399192.33,0.9838416968368896,0.0757969208507994,7.372214072920635,1.926573199314024,0.1834776003953883,13.231935043409395,0.702201828375095,-6.74475805247237,9.629479077148437,5.999123177877286,4.916679568407012,-3.6234041539634143,1.3038821336699695,-1.8965558307926829,-7.193216463414634,-7.397349287823933,-2.966159727515244,-0.7990395150533537,1.14592013888889,0.3067540064102557,0.0751469595219524,3.5070981702592268,16.863339785214784,-27.631703032544383,28.66765507532872,33.17240243208434,34.70593344715009,1577399192.0,-27.69469706043468,-51.11196775267803,5.7457943
18694,1577399192.34,-0.2096678307510005,0.0518549042492374,8.20539625065501,1.9983992491187117,0.8107584353563257,8.93673726508908,-2.699958730706936,-8.425487617902057,10.517727893066406,-1.5387186189977131,-1.812446408155488,-5.515493997713414,-0.8018307569550305,4.573170731707317,-8.322366854039634,-1.1717633503239329,0.8180199599847561,-7.970670374428353,2.468135683760682,0.409005341880341,-0.601175676175676,3.712543366089037,17.963122814685313,-26.74673433537616,28.595770808997518,33.17240243208434,34.70593344715009,1577399192.0,-27.69469706043468,-51.11196775267803,5.7457943
18695,1577399192.35,1.7978702612900144,-0.3096695464343558,9.24687397282298,0.9341766111792588,0.6946396548387478,8.448320126417206,3.4627163425352507,2.3160981303889576,6.823474731445312,-4.468406118997714,-11.166084103467988,-7.163443216463414,-0.2525143507050305,-2.888377119855183,-6.064066072789634,-0.4698590534489328,-11.938327696265244,-8.123258265053352,1.4985109508547012,-0.9202620192307712,-0.5260287166537173,1.6580914077909268,18.879608672577422,-33.82648391272189,28.66765507532872,33.26824812052595,34.8257405577021,1577399192.0,-27.69469706043468,-51.11196775267803,5.7457943
18696,1577399192.36,0.5480969946884521,-0.6496461821765432,12.385672349287823,3.3990072203101174,-1.4278201168897668,10.342133639600805,-0.6433395046327165,5.908597721453411,12.452242834472656,-3.980124868997713,-8.358466915967988,-6.522574075838414,0.9987063524199696,-3.605540205792683,-7.864603182164634,-0.6834821003239329,-17.004245665015244,3.748079625571646,2.379987980769229,1.3292673611111123,0.526028716653711,-2.861702900464919,20.895877559940057,-32.05654651838546,28.428040854224697,33.17240243208434,34.46631922604607,1577399192.0,-27.69469706043468,-51.11196775267803,5.7457943
18697,1577399192.37,0.9479286719345458,-0.6592229888171682,13.685723850752666,1.5794139585913676,3.2696035403367945,14.16806789253049,-2.865158645257717,-9.680049287823932,10.73799444580078,-9.259665884622711,-1.980293087842988,-3.9896150914634143,-3.0906491163300305,-9.037669112042684,-5.331644197789634,-12.707407881573932,-7.910007383765244,-4.400113733803353,2.379987980769229,1.3292673611111123,0.526028716653711,-3.2725932921245406,19.429500187312687,-32.3515360841082,28.66765507532872,33.41201665318837,34.562164914487674,1577399192.0,-27.69469706043468,-51.11196775267803,5.7457943
18698,1577399192.38,1.247203879454077,3.6623110077648615,13.520523936201885,0.5558927488745714,1.4464189761278108,11.036452121046112,3.1945657565977514,1.6205825481135667,10.350133776855468,-2.042258658060214,-7.793891720655488,-5.408682474275914,3.180713188357469,-0.6911114948551829,-7.849344393102134,1.3001604778010671,3.228908631859756,-7.726529749428353,1.4103632478632484,0.818010683760684,-0.6011756761756791,-3.169870694209636,7.973426963661339,-29.770377384034237,28.57180938688711,33.36409380896757,34.65801060292928,1577399192.0,-27.69469706043468,-51.11196775267803,5.7457943
18699,1577399192.39,3.0165189063095466,-4.635991946336699,8.145541209151105,4.5889254454077735,-1.861170617378048,5.417260824659393,-3.69355241967178,1.8240896892268477,9.749189160156249,-1.2640604158727131,0.2780076934070121,-5.912222513338414,-2.2361569288300305,-0.0655011432926829,-5.514749666539634,3.619496415301067,-4.797214415015244,-12.884000452553352,2.027397168803418,-0.7157593482906008,-0.3757347976097998,-3.2725932921245406,-4.032537774725275,-29.696629992603548,28.57180938688711,33.31617096474676,34.46631922604607,1577399192.0,-27.69469706043468,-51.11196775267803,5.7457943
18700,1577399192.4,4.216013938047828,-2.8187928862781058,7.496712559248761,3.310421758884336,-0.4581684445264856,9.236012472608612,2.93359777564072,2.650089261980755,9.579200842285156,4.229103646627286,3.940117068407013,-4.538931497713414,2.463550102419969,-5.619700362042683,-6.155618807164634,2.887074540301067,-1.7149390243902438,-3.515103968178354,2.379987980769229,1.3292673611111123,-0.3757347976097998,-3.2725932921245406,22.36225493256743,-32.05654651838546,28.81142360799113,33.17240243208434,34.70593344715009,1577399192.0,-27.69469706043468,-51.11196775267803,5.7457943
18701,1577399192.41,2.2360091650986083,3.820328317335174,10.525377659346416,1.4716748838843363,1.004688769828982,10.57437120063596,2.3637777805235323,-1.5086390217106511,6.83783994140625,14.879738412252289,-3.567207150342988,-7.499136575838414,6.278247368044969,-4.429514815167683,-7.345804354039634,-0.1341656940739328,2.252346131859756,2.771517125571646,2.379987980769229,1.3292673611111123,-0.3757347976097998,-3.2725932921245406,22.36225493256743,-32.05654651838546,28.475963698445504,33.17240243208434,34.562164914487674,1577399192.0,-27.69469706043468,-51.11196775267803,5.7457943
18702,1577399192.42,1.9499020667099365,1.2393789276867369,8.778807548262431,1.114938836521055,2.5046561099168727,6.933987576368378,2.080064883795017,-2.513006618146198,6.271611248779297,4.595314584127286,-6.649482540967988,-6.690420755525914,-0.2372555616425304,2.757374833269817,-6.796487947789634,2.948109696551067,7.425075624047256,-9.145597132240852,0.5288862179487204,0.0,-0.9017635142635172,-9.025058775359254,17.963122814685313,-16.717089100803044,28.66765507532872,33.12447958786354,34.63404918081888,1577399192.0,-27.69469706043468,-51.11196775267803,5.7457943
18703,1577399192.43,0.9910243018173582,-0.321640554735137,9.242085569502668,2.625680084079649,-0.2259308834913294,8.776325753858613,-1.7925563015077164,-1.51582162669112,7.484274389648437,-6.238425650247714,4.428398318407012,-6.186880716463414,1.1207766649199695,-3.239329268292683,-7.376321932164634,6.457631180926067,9.118801209984756,-10.442594202553352,0.9696247329059844,0.1022513354700852,0.526028716653711,-3.2725932921245406,13.563990696803195,1.2772744082840235,28.66765507532872,33.17240243208434,34.70593344715009,1577399192.0,-27.69469706043468,-51.11196775267803,5.7457943
18704,1577399192.44,3.1505941992782964,0.3176112885265807,7.712190708662823,2.2737324400366803,-0.5754843258741419,10.763513131788304,0.6519235935118137,-2.394493635968464,11.59990704345703,2.5811544278772867,-3.536689572217988,-7.285513528963414,3.165454399294969,-1.4387921589176829,-6.735452791539634,2.093617509051067,7.928615663109756,-10.015348108803352,1.4985109508547012,0.3067540064102557,0.3757347976097936,-11.28495592948718,15.21366524100899,5.554623111263735,28.61973223110792,33.17240243208434,34.753856291370894,1577399192.0,-27.69469706043468,-51.11196775267803,5.7457943
18705,1577399192.45,2.5700002966904054,-1.413396511766387,11.63389302799876,1.189159087985899,-1.0782666745069545,12.76985412299924,1.123581320562595,6.684319059344036,12.497732666015624,3.618752084127287,-0.3628614472179876,-6.720938333650915,2.097339164919969,2.681080887957317,-5.758890291539634,5.358998368426067,6.952053163109756,-7.848600061928353,1.8511017628205129,0.9202620192307692,-0.375734797609803,-1.4235865296562409,15.21366524100899,1.7197587568681325,28.739539341659928,33.17240243208434,34.70593344715009,1577399192.0,-27.69469706043468,-51.11196775267803,5.7457943
18706,1577399192.46,2.422756894590796,0.983199350050018,12.960280747725324,2.280915045017149,1.2141814150926544,12.617822317579318,2.86296882666611,-2.411253047589558,10.224438189697263,-7.123435415872714,1.742851443407012,-7.132925638338414,-0.1151852491425304,2.436940262957317,-6.262430330602134,5.252186844988568,4.098659608422256,-12.868741663490852,1.8511017628205124,1.1247646901709418,-0.2254408785658824,-0.190915354677374,17.596528471528472,-1.967610814666103,28.428040854224697,33.19636385419474,34.63404918081888,1577399192.0,-27.69469706043468,-51.11196775267803,5.7457943
18707,1577399192.47,2.9614522681259525,2.1683291718273616,11.564461179854227,3.300844952243711,1.318329187309451,10.397200277784396,-1.9098721828553729,8.008312577410441,11.123460913085935,7.128273568502286,-2.102363400342988,-7.926382669588414,2.524585258669969,8.845631669207316,-8.078226229039634,11.126820634051068,13.208156678734756,-13.616422327553352,1.6748063568376068,1.738272702991453,0.2254408785658761,-3.2725932921245406,13.563990696803195,-2.852579511834319,28.81142360799113,33.36409380896756,34.70593344715009,1577399192.0,-27.69469706043468,-51.11196775267803,5.7457943
18708,1577399192.48,3.6294345313095455,-1.387060293504668,7.242927183272198,4.28486183456793,1.177071289360232,10.684504477003149,6.383642367925876,8.429692069597943,9.583989245605467,6.670509896627286,1.407158084032012,-6.644644388338414,-0.3745846632050305,5.610768387957317,-5.941995760289634,9.173695634051068,14.581447694359756,6.616731969321647,2.556283386752135,0.7157593482905967,-0.5260287166537173,-3.2725932921245406,13.563990696803195,-1.3776316832206257,28.76350076377033,33.22032527630515,34.61008775870848,1577399192.0,-27.69469706043468,-51.11196775267803,5.7457943
18709,1577399192.49,2.270725089170874,0.5211184296398619,8.326303434492901,3.722224444431211,2.498670605766482,9.49219205024533,-0.6002438747499039,-7.18529115794112,7.855375646972655,3.756081185689786,1.590263552782012,-7.178702005525914,1.4259524461699695,6.648366044207317,-6.033548494664634,-6.817515303448933,11.987453553734756,3.259798375571646,2.2918402777777764,0.818010683760684,-0.3005878380878411,0.0145298411524369,10.631235951548453,-4.032537774725275,28.691616497439128,32.98071105520113,34.8017791355917,1577399192.0,-27.69469706043468,-51.11196775267803,5.7457943
18710,1577399192.5,1.4818356421493897,0.2745156586437682,2.12172983219798,1.2023271971167588,0.5976744876024195,6.256428506544159,1.6562911899473614,0.3911599956233329,9.95987890625,10.637795052877289,14.895927615282012,-4.447378763338414,0.5409426805449695,4.435841630144817,-6.918558260289634,7.464711259051068,11.667018983422256,-10.198453577553352,2.203692574786324,1.5337700320512828,0.6763226356976285,0.8363106244716818,10.44793877997003,-4.032537774725275,28.66765507532872,33.36409380896757,34.825740557702105,1577399192.0,-27.69469706043468,-51.11196775267803,5.7457943
18711,1577399192.51,4.026872006895484,-0.1899594634265433,8.279616502119854,1.2011300962866802,2.355018506157107,10.35649884956174,1.1978015720274386,-3.6753915241520576,8.008604553222655,6.334816537252286,-6.680000119092988,-7.956900247713414,0.3883547899199695,3.230397294207317,-5.056985994664634,16.101185868426068,11.773830506859756,-16.088346155678355,1.6748063568376068,1.738272702991453,-0.3757347976097998,0.0145298411524369,14.297179383116884,-4.032537774725275,28.66765507532872,33.36409380896756,34.94554766825411,1577399192.0,-27.69469706043468,-51.11196775267803,5.7457943
18712,1577399192.52,2.647811850645484,2.017494467237518,9.024213218428448,2.7908799986304302,-0.0822787838819544,13.773024618604708,-0.4613801784608414,-0.3043555866520577,11.927912670898436,11.583839974752289,6.351005740282012,-4.935660013338414,2.921313774294969,6.984059403582317,-6.643900057164634,4.748646805926067,1.3978539443597562,-14.745572718178352,1.4985109508547012,-0.5112566773504303,-0.2254408785658824,0.0145298411524369,14.297179383116884,-4.032537774725275,28.57180938688711,33.12447958786354,34.562164914487674,1577399192.0,-27.69469706043468,-51.11196775267803,5.7457943
18713,1577399192.53,3.0213073096298584,-0.5574694182605281,11.09759185612376,4.848696325534727,-0.4378177304151581,12.376007949903537,0.631572879400486,-0.3330860065739327,16.37394515380859,0.6432882169397889,3.757011599657013,-6.431021341463415,-0.5576901319550304,3.642384598894817,-6.521829744664634,-0.0883893268864328,-17.477268125952744,-12.899259241615852,1.4985109508547012,-0.5112566773504303,-0.2254408785658824,0.1172524390673429,11.089478880494504,-3.9587903832945903,28.739539341659928,33.17240243208434,34.7778177134813,1577399192.0,-27.69469706043468,-51.11196775267803,5.7457943
18714,1577399192.54,0.0357378394150145,-0.1229218169421682,9.732896909834698,-0.9967470277367562,0.238544238578982,16.22947552192502,6.49616984595322,13.16063455006669,12.89756434326172,-6.543601431497714,12.149345584032012,-5.576529153963414,-1.1070065382050305,1.2772722942073171,-6.003030916539634,3.161732743426067,-30.065769102515244,1.2151206411966462,3.614055822649576,0.3067540064102557,0.9769104737854758,-0.396360550507185,13.563990696803195,-1.9676108146661029,28.66765507532872,33.12447958786354,34.70593344715009,1577399192.0,-27.69469706043468,-51.11196775267803,5.7457943
18715,1577399192.55,2.626264035704078,1.6870946381359555,9.392920274092512,2.857917645114805,0.276851465141482,11.797808248975803,2.2991343356993137,6.823182755633098,8.398859423828124,10.668312631002289,-0.6070020722179879,-6.827749857088414,1.0597415086699695,11.134450028582316,-7.223734041539634,-2.087290694073933,-26.495212461890244,17.175814000571645,2.203692574786324,0.3067540064102557,-0.8266165547415584,-2.656257704635109,14.113882211538462,-3.8850429918639056,28.66765507532872,33.17240243208434,34.61008775870848,1577399192.0,-27.69469706043468,-51.11196775267803,5.7457943
18716,1577399192.56,1.3884617774032957,0.2242374237804869,10.925209336592513,3.999951837009336,-0.9896812130811732,9.963849777296115,-0.1070383327577165,-5.643425288800495,7.656656909179687,13.872658334127289,-5.947578244092988,-7.651724466463414,3.073901664919969,-2.781565596417683,-6.277689119664634,-11.639292647198932,-19.476169493140244,4.175325719321647,2.027397168803418,0.9202620192307712,0.8266165547415459,-3.067148096294731,13.74728786838162,-1.2301369003592555,28.66765507532872,33.17240243208434,34.753856291370894,1577399192.0,-27.69469706043468,-51.11196775267803,5.7457943
18717,1577399192.57,1.5345080786728271,0.3666924225597843,7.936048563887432,1.1460634581030864,2.032998382866092,9.846533895948456,6.688903079595797,-1.0010682697575268,6.393715533447265,0.0176778653772865,-1.354682736280488,-6.492056497713414,1.9294924852324693,1.7655535442073171,-6.460794588414634,1.7731829387385671,3.457790467797256,-7.604459436928353,2.027397168803418,0.9202620192307712,0.8266165547415459,-3.067148096294731,13.74728786838162,-3.8850429918639056,28.57180938688711,33.24428669841555,34.8257405577021,1577399192.0,-27.69469706043468,-51.11196775267803,5.7457943
18718,1577399192.58,1.9822237891220456,1.768497494581268,5.8303482037800105,2.7573611753882425,-0.6401277706983607,5.424443429639863,3.33582365454697,-9.52203197825362,5.111620544433594,12.957130990377289,0.7662889434070121,-5.851187357088414,1.1207766649199695,4.237477372332317,-6.003030916539634,7.891957352801067,19.89150628810976,-11.419156702553352,3.2614650106837644,-0.1022513354700852,-0.5260287166537173,-2.0399221171456747,14.297179383116884,-4.032537774725275,28.61973223110792,33.22032527630515,34.46631922604607,1577399192.0,-27.69469706043468,-51.11196775267803,5.7457943
