,timestamp,acc_x_dashboard,acc_y_dashboard,acc_z_dashboard,acc_x_above_suspension,acc_y_above_suspension,acc_z_above_suspension,acc_x_below_suspension,acc_y_below_suspension,acc_z_below_suspension,gyro_x_dashboard,gyro_y_dashboard,gyro_z_dashboard,gyro_x_above_suspension,gyro_y_above_suspension,gyro_z_above_suspension,gyro_x_below_suspension,gyro_y_below_suspension,gyro_z_below_suspension,mag_x_dashboard,mag_y_dashboard,mag_z_dashboard,mag_x_above_suspension,mag_y_above_suspension,mag_z_above_suspension,temp_dashboard,temp_above_suspension,temp_below_suspension,timestamp_gps,latitude,longitude,speed
3659,1577399041.99,0.2500743634033203,1.82617731628418,9.630556467895508,-0.2952459413109749,2.140825050316787,7.14266268935785,0.924560874430338,2.3295012105305988,9.702046189371746,0.5573272705078125,1.013946533203125,0.261688232421875,1.0973302329458845,-2.5249574242568595,0.3438810022865852,0.6833757672991072,-1.0325113932291667,0.5445934477306548,1.9884133207235888,-0.6582606244064564,0.4878872863247865,-21.2867031459624,-2.548962148962147,9.626410401029688,31.25548866325217,41.79851439182916,36.86246143708629,1577399041.0,-27.71751642310172,-51.09930014716574,6.3315387
3660,1577399042.0,0.2704250775146484,1.5089455963134766,10.096228690795895,1.0024113584937115,0.9281619094476464,10.893179589992616,0.2972800394694008,2.01586079305013,10.520863157145182,0.0843048095703124,-0.1304626464843749,0.597381591796875,-0.0165613686166156,0.37421249761814,1.1373380335365852,0.6070818219866072,0.3712972005208333,0.5903698149181548,2.4403254390698588,-1.3165212488129143,0.2439436431623932,-14.84488159302974,-32.461782661782664,9.403404754673788,31.20756581903136,41.702668703387545,36.64680863809267,1577399041.0,-27.71751642310172,-51.09930014716574,6.3315387
3661,1577399042.01,0.6858190655517578,1.043273373413086,9.812515794067382,-0.0223069520531624,1.6739557265863183,7.080413446193788,0.7545725565592442,0.9360758443196604,9.27108989054362,1.0761260986328125,0.8918762207031251,0.200653076171875,0.5785314048208843,0.0995542944931402,0.5575040491615852,-0.2931867327008928,-0.2085367838541666,0.7276989164806548,1.4461187787080658,-1.5986329449871084,1.951549145299146,-12.697607742052195,-29.13813593813593,7.842365230182486,31.20756581903136,41.65474585916674,36.52700152754066,1577399041.0,-27.71751642310172,-51.09930014716574,6.3315387
3662,1577399042.02,0.199796128540039,1.225232699584961,10.61936175354004,1.1771880796851175,1.039492286644912,12.723546759182067,-0.0355139912923173,0.7541165181477855,9.359675351969402,-0.5413055419921875,-0.2677917480468749,0.536346435546875,-1.4051111733041155,4.7687437476181405,0.4049161585365852,0.0425066266741072,-0.5747477213541667,0.9718395414806548,1.626883626046571,-1.7867074091032429,1.1384036680911775,-12.697607742052195,-29.13813593813593,7.842365230182486,31.25548866325217,41.75059154760835,36.86246143708629,1577399041.0,-27.71751642310172,-51.09930014716574,6.3315387
3663,1577399042.03,0.3207033123779296,1.417965933227539,9.285791428833006,0.4613217832983991,1.1496255630120995,9.606296197658631,0.924560874430338,1.838689870198568,10.384393662516276,0.4199981689453124,0.449371337890625,0.612640380859375,0.7006017173208843,-5.24102187738186,1.1068204554115852,0.3476824079241072,0.5849202473958333,0.9413219633556548,2.892237557416128,-1.5986329449871084,0.9757745726495798,-19.13942929498485,-1.5993487993488031,-6.132655274787254,31.20756581903136,41.75059154760835,36.67077006020308,1577399041.0,-27.71751642310172,-51.09930014716574,6.3315387
3664,1577399042.04,0.3602076397705077,1.512536898803711,11.12214410217285,0.351188506931212,1.488405097924209,10.38560883803949,0.5654306254069008,1.235351051839192,9.866049003092447,0.2216339111328124,-0.3288269042968749,0.933074951171875,0.6548253501333844,3.0597593726181405,0.6032804163490852,0.1493181501116072,1.729329427083333,1.2159801664806549,3.79606179410867,-1.0344095526387171,1.1384036680911775,-22.36034007145119,-4.448188848188844,-6.132655274787254,31.39925719591458,41.65474585916674,36.742654326534286,1577399041.0,-27.71751642310172,-51.09930014716574,6.3315387
3665,1577399042.05,0.1638831036376953,1.3593079925537108,10.351211167602536,-0.1970836732445686,1.3124312759027246,8.504963433986756,-0.1408588643391923,1.5753276875813802,9.814573667399088,1.2897491455078125,2.234649658203125,0.658416748046875,-0.3980310951791157,-5.02739883050686,1.9307950647865848,0.7138933454241072,2.263387044270833,-0.3709338960193452,3.615296946770161,-1.2224840167548476,-0.3252581908831888,-17.5289739067517,-2.074155474155475,7.024677860210852,31.20756581903136,41.75059154760835,36.71869290442388,1577399041.0,-27.71751642310172,-51.09930014716574,6.3315387
3666,1577399042.06,0.1399410870361328,1.294664547729492,10.006446128540038,-1.3295410584984748,1.8702802627191308,9.75473670058832,1.3818533915201816,0.3423138326009106,11.739511802164714,-0.4497528076171875,-0.7255554199218749,0.536346435546875,1.9213048423208845,4.3720152319931405,0.1912931116615852,0.6223406110491072,2.324422200520833,0.2089000883556547,1.807648473385084,-2.7270797296838944,0.9757745726495798,-23.433976996939982,-4.448188848188844,-4.6459509657479225,31.447180040135382,41.84643723604996,36.52700152754066,1577399041.0,-27.71751642310172,-51.09930014716574,6.3315387
3667,1577399042.07,0.5014655377197265,1.379658706665039,9.69879121520996,2.2593672300757426,0.4600954848870997,11.466590887600036,-0.3730964253743486,0.9145280293782542,9.46262602335612,0.3131866455078124,0.4951477050781251,0.688934326171875,0.1512853110708842,2.0526792944931405,1.0457852991615852,0.1645769391741072,4.735310872395833,1.0633922758556549,3.9768266414471753,-1.2224840167548476,0.9757745726495798,-6.255786189119516,-4.448188848188844,-4.94329182755579,31.23152724114176,41.65474585916674,36.67077006020308,1577399041.0,-27.71751642310172,-51.09930014716574,6.3315387
3668,1577399042.08,0.2237381451416015,1.2707225311279295,10.636121165161132,0.0315625853003527,1.430944258080459,9.57397447524652,0.4624799540201816,0.9911424825032542,9.523678165690106,0.0995635986328124,-0.2983093261718749,0.688934326171875,0.1055089438833842,0.11481308355564,0.8626798304115852,0.1645769391741072,4.231770833333333,0.6514049711681548,1.9884133207235888,-1.410558480870978,1.1384036680911775,-5.718967726375147,-3.0237688237688234,8.21404130744232,31.063797286368946,41.702668703387545,36.790577170755085,1577399041.0,-27.71751642310172,-51.09930014716574,6.3315387
3669,1577399042.09,0.4655525128173827,0.9259574920654297,10.142915623168944,1.524347320407774,0.7857069106683497,11.555176349025816,0.7186595316569003,0.8020005513509104,8.392417881266276,0.1911163330078124,0.1594543457031251,0.841522216796875,1.1278478110708845,-2.3723695336318595,1.1983731897865852,0.0425066266741072,-1.1545817057291667,0.4225231352306547,2.1691781680620985,-2.350930801451634,1.951549145299146,-10.55033389107465,3.1487179487179446,6.9503426447588845,31.20756581903136,41.75059154760835,36.57492437176146,1577399041.0,-27.71751642310172,-51.09930014716574,6.3315387
3670,1577399042.1,0.0154426007080078,1.3233949676513672,10.193193858032226,-0.1348344300805061,2.150401856957412,6.869723700100038,1.2453838968912754,1.553779872639974,9.096313169352214,0.9235382080078124,1.319122314453125,0.749969482421875,-0.0013025795541157,-1.4873597680068598,0.7406095179115852,0.6223406110491072,-4.542032877604167,-0.1878284272693452,2.349943015400604,-1.410558480870978,0.4878872863247865,-23.433976996939982,-4.448188848188844,7.396353937470683,31.25548866325217,41.65474585916674,36.86246143708629,1577399041.0,-27.71751642310172,-51.09930014716574,6.3315387
3671,1577399042.11,0.132758482055664,1.4263456390380858,9.655695585327148,0.7342607725562116,1.0969531264886625,10.22519732680902,0.1117294108072909,1.0162815999348953,10.085118454996744,0.2979278564453125,0.4493713378906252,0.536346435546875,-0.0928553139291157,0.2674009741806404,0.9084561975990852,0.6528581891741072,-4.007975260416667,0.8192516508556548,3.253767252093146,-1.5986329449871084,0.6505163817663843,-13.771244667540955,-32.936589336589336,6.9503426447588845,31.32737292958337,41.702668703387545,36.76661574864468,1577399041.0,-27.71751642310172,-51.09930014716574,6.3315387
3672,1577399042.12,-0.0731428607177724,1.6418237884521485,10.552324107055664,-0.5131182923851937,2.073787403832412,8.725229986721132,1.0610303690592442,0.0167024068196605,10.015686606852212,1.1066436767578125,-0.3288269042968749,0.292205810546875,0.1818028891958842,0.9235289038681402,1.0152677210365852,0.0119890485491072,-3.5349527994791665,0.7276989164806548,1.9884133207235888,-1.410558480870978,1.4636618589743662,-14.84488159302974,-32.936589336589336,7.0990130756628185,31.111720130589752,41.65474585916674,36.81453859286549,1577399041.0,-27.71751642310172,-51.09930014716574,6.3315387
3673,1577399042.13,0.1351526837158203,1.3353659759521483,10.85399351623535,0.882701275485899,0.0339275893792872,12.871987262111755,0.6133146586100253,3.296758681233723,10.903935422770182,-0.6328582763671875,-0.1152038574218748,0.688934326171875,-0.2149256264291157,1.7169859351181402,0.4659513147865852,0.1950945172991072,-0.8799235026041667,0.6056286039806548,1.9884133207235888,-3.2913031220322875,0.8131454772079753,-21.82352160870679,-34.36100936100936,7.024677860210852,31.447180040135382,41.65474585916674,36.86246143708629,1577399041.0,-27.71751642310172,-51.09930014716574,6.3315387
3674,1577399042.14,0.142335288696289,1.1007342132568358,9.410289915161131,-0.2593329164086311,1.5422746352777246,8.2727258729516,0.6396508768717442,2.2983765889485674,10.046811228434244,-0.2056121826171875,0.1899719238281251,0.414276123046875,1.4025060141958845,-5.72930312738186,1.5645841272865852,0.6223406110491072,0.4323323567708333,0.1478649321056547,2.7114727100776186,-2.539005265567764,1.1384036680911775,-18.60261083224046,-34.36100936100936,7.024677860210852,31.20756581903136,41.65474585916674,36.57492437176146,1577399041.0,-27.71751642310172,-51.09930014716574,6.3315387
3675,1577399042.15,0.573291587524414,1.5376760162353516,9.498875376586913,1.1424721556128523,1.7409933730706937,11.34209240127191,0.2182713846842441,0.7792556355794261,10.258698075358073,-0.2513885498046875,-0.847625732421875,0.597381591796875,-0.9168299233041156,3.2123472632431405,0.4201749475990852,0.1798357282366072,0.3102620442708332,0.8345104399181549,1.626883626046571,-0.6582606244064564,1.1384036680911775,-13.234426204796575,-28.188522588522588,-4.571615750295955,31.27945008536257,41.82247581393956,36.57492437176146,1577399041.0,-27.71751642310172,-51.09930014716574,6.3315387
3676,1577399042.16,0.6379350323486328,1.3688847991943358,8.97693941467285,-0.2353908998070686,1.7242339614495996,6.467497821193788,-0.4209804585774736,3.1770485982259107,10.472979123942055,0.7709503173828125,0.4646301269531251,0.505828857421875,1.1888829673208845,-5.17998672113186,1.1373380335365852,0.3781999860491072,-0.1475016276041666,0.5140758696056548,1.4461187787080658,-1.2224840167548476,0.9757745726495798,-31.4862539381058,-3.973382173382172,-6.058320059335285,31.111720130589752,41.75059154760835,36.81453859286549,1577399041.0,-27.71751642310172,-51.09930014716574,6.3315387
3677,1577399042.17,0.333871421508789,1.2802993377685543,9.8388520123291,0.3631595152319928,2.0450569839105373,9.572777374416445,0.6492276835123691,0.7636933247884105,10.149761899820962,-0.0530242919921875,-1.000213623046875,0.231170654296875,1.2804357016958845,5.8368589819931405,-0.1749178258384147,0.1035417829241072,-0.7578531901041667,0.1478649321056547,2.7114727100776186,-2.162856337335503,1.4636618589743662,-14.84488159302974,-27.23890923890924,7.693694799278552,31.063797286368946,41.75059154760835,36.71869290442388,1577399041.0,-27.71751642310172,-51.09930014716574,6.3315387
3678,1577399042.18,0.5146336468505859,1.35332248840332,9.522817393188475,2.017552862399961,0.337991200219131,10.92789551406488,0.8718884379069004,0.6942614766438793,10.173703916422523,0.1148223876953125,0.876617431640625,0.200653076171875,-0.7947596108041157,0.4962828101181402,1.0152677210365852,-0.2321515764508928,-0.5442301432291667,-0.2793811616443452,1.8076484733850824,-2.162856337335503,0.4878872863247898,-29.875798549872645,-4.448188848188844,9.329069539221818,31.15964297481056,41.75059154760835,36.81453859286549,1577399041.0,-27.71751642310172,-51.09930014716574,6.3315387
3679,1577399042.19,0.1878251202392578,1.292270346069336,10.456556040649414,-0.5095269898949593,1.785286103783584,8.828180658107849,0.6899291117350259,0.4548413106282542,9.521283964029948,0.2521514892578124,-0.2067565917968749,0.292205810546875,1.5398351157583845,-1.38054824456936,0.5575040491615852,-0.0643048967633927,-0.4679361979166667,-0.1573108491443452,2.1691781680620985,-2.350930801451634,0.6505163817663843,-29.875798549872645,-3.4985754985754958,8.511382169250185,31.39925719591458,41.702668703387545,36.83850001497589,1577399041.0,-27.71751642310172,-51.09930014716574,6.3315387
3680,1577399042.2,0.1088164654541015,1.5699977386474608,9.793362180786133,1.380695220798399,1.525515223656631,10.959020135646911,-0.4664702901204424,0.356679042561848,10.09948366495768,0.6183624267578125,1.654815673828125,0.383758544921875,-0.9168299233041156,0.3436949194931402,0.6795743616615852,0.7444109235491072,-0.1169840494791666,1.1244274321056549,2.1691781680620985,-0.8463350885225869,0.3252581908831954,-20.749884683218028,-2.074155474155475,9.403404754673788,31.39925719591458,41.65474585916674,36.71869290442388,1577399041.0,-27.71751642310172,-51.09930014716574,6.3315387
3681,1577399042.21,0.1112106671142578,1.8525135345458985,9.36001168029785,-0.1563822450219124,1.841549842797256,8.006969488674256,0.2063003763834628,1.659124745686849,9.48896224161784,0.2826690673828124,0.2815246582031251,0.231170654296875,0.9447423423208844,-2.7690980492568595,0.6185392054115852,-0.2626691545758928,-0.6357828776041667,0.7276989164806548,2.7114727100776186,-1.410558480870978,0.4878872863247865,-20.213066220473635,-4.448188848188844,9.329069539221818,31.447180040135382,41.55890017072513,36.81453859286549,1577399041.0,-27.71751642310172,-51.09930014716574,6.3315387
3682,1577399042.22,0.2273294476318359,1.3772645050048826,10.039964951782226,0.2865450621069928,1.228634217797256,10.056406109768004,-0.0594560078938798,1.6663073506673176,9.314185520426433,-0.7854461669921875,-1.320648193359375,0.399017333984375,0.2428380454458842,3.609075778868141,0.6795743616615852,0.2561296735491072,-2.1006266276041665,-0.0047229585193452,3.2537672520931444,-2.162856337335504,0.9757745726495765,-20.749884683218028,-26.76410256410256,9.403404754673788,31.23152724114176,41.65474585916674,36.71869290442388,1577399041.0,-27.71751642310172,-51.09930014716574,6.3315387
3683,1577399042.23,0.4152742779541015,1.6992846282958984,9.084678489379884,0.1057828367651964,1.5817789626703027,8.913174817043396,0.5091668863932285,1.8554492818196613,8.996953800455728,1.6254425048828125,2.539825439453125,-0.135040283203125,-0.1233728920541157,-1.2279603539443598,0.8169034632240852,0.4239763532366072,-4.191080729166667,-0.0504993257068452,2.7114727100776186,-1.7867074091032429,1.1384036680911775,-14.576472361657554,-26.526699226699225,8.845890638784036,31.25548866325217,41.582861592835535,36.86246143708629,1577399041.0,-27.71751642310172,-51.09930014716574,6.3315387
3684,1577399042.24,0.247680161743164,1.3664905975341797,9.465356553344726,1.160428668064024,1.508755812035537,10.118655352932068,0.6396508768717442,0.7876353413899729,9.484173838297526,-0.8464813232421875,-0.1152038574218748,0.261688232421875,-0.1538904701791157,3.4564878882431405,0.0692227991615852,-0.2931867327008928,-3.5349527994791665,0.8192516508556548,2.1691781680620985,0.6582606244064602,0.9757745726495798,-14.30806313028537,-26.76410256410256,7.322018722018717,31.20756581903136,41.55890017072513,36.57492437176146,1577399041.0,-27.71751642310172,-51.09930014716574,6.3315387
3685,1577399042.25,0.3003525982666015,1.3281833709716797,9.077495884399411,-0.1875068666039436,0.7258518691644434,9.398000653225038,1.3794591898600252,1.534626259358724,10.231164756266276,-0.5413055419921875,0.7392883300781251,0.078582763671875,-0.2454432045541157,-2.4334046898818595,1.3509610804115852,-0.3542218889508928,-1.9785563151041667,1.1549450102306549,1.807648473385084,-1.2224840167548476,0.9757745726495798,-20.749884683218028,-2.074155474155475,-5.760979197527418,31.20756581903136,41.65474585916674,36.67077006020308,1577399041.0,-27.71751642310172,-51.09930014716574,6.3315387
3686,1577399042.26,0.2871844891357421,1.465849966430664,9.502466679077148,-0.4915704774437874,2.361091603051162,7.44912050185785,0.9987811258951816,0.969594667561848,9.939072153727214,-0.0988006591796875,-0.3288269042968749,0.368499755859375,0.3649083579458843,-1.5178773461318598,0.0387052210365852,-0.6593976702008928,-0.9714762369791669,0.9413219633556548,1.53650120237732,-1.316521248812915,0.7318309294871798,-6.255786189119516,-2.548962148962147,-5.835314412979392,31.11172013058975,41.75059154760835,36.86246143708629,1577399041.0,-27.71751642310172,-51.09930014716574,6.3315387
3687,1577399042.27,0.4416104962158202,1.6154875701904297,10.09503158996582,0.4421681700171491,1.469251484642959,10.53883774428949,0.331995963541666,2.409706966145833,9.5787448038737,-0.1750946044921875,-0.0846862792968748,0.231170654296875,-0.8863123451791157,0.8472349585556405,0.8016446741615852,-0.4152570452008928,0.4781087239583332,-0.0504993257068452,1.9884133207235888,-1.7867074091032429,0.8131454772079753,-10.550333891074628,-2.548962148962147,-5.463638335719557,31.447180040135382,41.60682301494594,36.64680863809267,1577399041.0,-27.71751642310172,-51.09930014716574,6.3315387
3688,1577399042.28,0.008259995727539,1.4167688323974608,9.939408482055663,-0.4580516542015999,2.188709083519912,7.042106219631288,1.0442709574381503,2.681448854573566,9.90315912882487,-0.1445770263671875,-0.1152038574218748,0.261688232421875,1.4330235923208845,-3.2878968773818595,0.4964688929115852,-0.2626691545758928,-0.9714762369791669,-0.0657581147693452,1.807648473385084,-2.350930801451634,0.3252581908831954,-6.255786189119516,3.1487179487179446,-7.1733482911147926,31.20756581903136,41.60682301494594,36.86246143708629,1577399041.0,-27.71751642310172,-51.09930014716574,6.3315387
3689,1577399042.29,0.391332261352539,1.3904326141357422,9.81969839904785,0.7558085874976178,1.3267964858636625,10.841704254299255,1.0610303690592442,0.883403407796223,10.705216684977213,-0.1445770263671875,-0.2677917480468749,0.048065185546875,0.2733556235708843,5.9894468726181405,0.4049161585365852,-0.2626691545758928,-0.1780192057291666,0.3920055571056547,1.2653539313695563,-2.539005265567764,1.1384036680911775,-34.17034625182773,-3.4985754985755,7.545024368374619,31.20756581903136,41.84643723604996,36.67077006020308,1577399041.0,-27.71751642310172,-51.09930014716574,6.3315387
3690,1577399042.3,0.659482847290039,1.4215572357177733,8.787797483520507,0.5499072447241807,1.0167473708734278,9.237589141994569,1.0945491923014317,2.754472005208332,10.069556144205729,-0.3887176513671875,0.3883361816406251,0.139617919921875,-0.1386316811166157,-2.9522035180068595,0.6643155725990852,-0.3694806780133928,-0.3306070963541667,0.4835582914806547,1.8980308970543365,-1.504595712929045,0.5692018340455888,-4.108512338141983,-4.448188848188844,6.9503426447588845,31.23152724114176,41.67870728127714,36.69473148231347,1577399041.0,-27.71751642310172,-51.09930014716574,6.3315387
3691,1577399042.31,-0.1162384906005849,1.052850180053711,10.774984861450196,-0.2401793031273811,1.1903269912347558,10.030069891506288,1.147221628824869,1.1276119771321604,10.0875126566569,-0.0835418701171875,-0.2372741699218749,0.261688232421875,0.0292149985708842,3.700628513243141,0.1302579554115852,0.6528581891741072,-2.4058024088541665,0.1783825102306547,1.807648473385084,-0.8463350885225869,0.9757745726495798,-5.718967726375147,-3.973382173382172,7.322018722018717,31.25548866325217,41.65474585916674,36.81453859286549,1577399041.0,-27.71751642310172,-51.09930014716574,6.3315387
3692,1577399042.32,0.4511873028564452,1.4526818572998046,9.630556467895508,-0.2306024964867561,1.065828504906631,10.540034845119568,0.2805206278483066,1.1084583638509105,9.388405771891277,0.4047393798828124,1.074981689453125,0.078582763671875,-0.4285486733041157,-1.4568421898818598,0.3743985804115852,0.4087175641741072,-5.701700846354167,-0.2183460053943452,1.807648473385084,-0.8463350885225869,0.9757745726495798,-5.182149263630755,-32.936589336589336,7.545024368374619,31.25548866325217,41.65474585916674,36.71869290442388,1577399041.0,-27.71751642310172,-51.09930014716574,6.3315387
3693,1577399042.33,-0.1784877337646474,1.6825252166748046,9.582672434692382,1.064660601657774,1.6811383315667872,7.1235090760766,1.3172099466959628,0.0334618184407543,8.418754099527995,0.0690460205078124,-0.0846862792968748,0.048065185546875,-0.6116541420541157,-0.4802796898818597,0.8016446741615852,0.0425066266741072,-6.830851236979167,-0.5845569428943452,2.1691781680620985,-1.2224840167548476,0.0,-16.99215544400731,-30.087749287749283,6.9503426447588845,31.25548866325217,41.65474585916674,36.86246143708629,1577399041.0,-27.71751642310172,-51.09930014716574,6.3315387
3694,1577399042.34,0.1148019696044921,1.225232699584961,9.895115751342772,0.0411393919409777,1.2214516128167872,9.062812420803162,1.3974157023111973,2.275631673177083,9.822953373209636,-0.6938934326171875,-1.976776123046875,0.261688232421875,-1.4203699623666155,-0.4192445336318595,0.5269864710365852,0.0119890485491072,-3.443400065104167,0.5140758696056548,2.2595605917313515,-2.068819105277436,1.0570891203703787,-16.992155444007295,-31.03736263736264,7.024677860210852,31.25548866325217,41.702668703387545,36.62284721598228,1577399041.0,-27.71751642310172,-51.09930014716574,6.3315387
3695,1577399042.35,0.4056974713134765,1.5771803436279297,9.599431846313475,0.0207886778296491,1.7697237929925684,9.781072918850038,1.0370883524576815,1.7740464253743489,9.742747617594402,0.5573272705078125,0.6477355957031251,-0.043487548828125,1.5245763266958845,0.9845640601181402,0.2218106897865852,-0.3847394670758928,-2.9246012369791665,-0.2793811616443452,2.7114727100776186,-2.539005265567764,1.1384036680911775,-17.5289739067517,-25.81448921448921,-3.97693402668022,31.20756581903136,41.65474585916674,36.81453859286549,1577399041.0,-27.71751642310172,-51.09930014716574,6.3315387
3696,1577399042.36,-0.0037110125732412,1.208473287963867,10.468527048950197,1.007199761814024,0.8671097671136622,11.191257696682069,-0.0738212178548173,0.2537283711751293,9.773872239176432,-0.8769989013671875,-1.000213623046875,0.078582763671875,-2.595296720179116,1.2287046851181402,0.5269864710365852,-0.8730207170758928,-3.2297770182291665,0.1173473539806547,2.7114727100776186,-2.539005265567764,1.1384036680911775,-17.5289739067517,-25.81448921448921,-3.97693402668022,31.25548866325217,41.463054482283525,36.52700152754066,1577399041.0,-27.71751642310172,-51.09930014716574,6.3315387
3697,1577399042.37,0.5912480999755859,1.713649838256836,9.330084159545898,-0.0151243470726936,1.480025392113662,8.823392254787539,0.5606422220865879,1.2736582784016923,10.17130971476237,-1.0295867919921875,-0.0541687011718748,0.154876708984375,-0.6116541420541157,-5.33257461175686,0.9847501429115852,-0.8730207170758928,-1.9785563151041667,0.6971813383556548,1.8980308970543347,-1.1284467846967825,0.8944600249287774,-20.749884683218028,0.7746845746845754,-5.760979197527418,31.35133435169377,41.463054482283525,36.81453859286549,1577399041.0,-27.71751642310172,-51.09930014716574,6.3315387
3698,1577399042.38,0.1183932720947265,1.2012906829833985,9.204388572387694,0.5020232115210558,1.7900745071038968,9.16576309218988,0.523532096354166,2.7688372151692704,10.028854715983073,-1.5789031982421875,-2.068328857421875,0.017547607421875,-0.565877774866616,2.4036314429306405,0.4354337366615852,-0.8730207170758928,-1.5207926432291667,0.8955455961681548,1.9884133207235888,-1.0344095526387171,1.1384036680911775,-21.82352160870681,0.2998778998778988,-5.760979197527418,31.20756581903136,41.702668703387545,36.71869290442388,1577399041.0,-27.71751642310172,-51.09930014716574,6.3315387
3699,1577399042.39,0.7289146954345702,1.495777487182617,9.228330588989255,0.3080928770483991,0.5127679214105372,10.21921182265863,0.3978365091959628,2.7197560811360666,9.151379807535807,-0.4497528076171875,-0.7255554199218749,0.109100341796875,-2.442708829554116,-4.90532851800686,0.9237149866615852,-0.8730207170758928,-1.7344156901041667,-1.4085315522693451,1.9884133207235888,-1.0344095526387171,1.1384036680911775,-36.31762010280528,-25.33968253968253,8.437046953798218,31.20756581903136,41.60682301494594,36.67077006020308,1577399041.0,-27.71751642310172,-51.09930014716574,6.3315387
3700,1577399042.4,0.2668337750244141,1.6633716033935546,9.223542185668943,-0.7621152650414437,2.406581434594131,7.772337725978944,1.5877547342936191,0.912133827718098,9.326156528727214,-0.1750946044921875,-0.7255554199218749,0.383758544921875,2.7452794516958843,-2.5249574242568595,0.8016446741615852,-0.5068097795758928,-1.4902750651041667,-1.0423206147693451,1.9884133207235888,-1.0344095526387171,1.1384036680911775,-30.949435475361405,-2.548962148962147,8.139706091990352,31.25548866325217,41.79851439182916,36.71869290442388,1577399041.0,-27.71751642310172,-51.09930014716574,6.3315387
3701,1577399042.41,0.2823960858154296,1.227626901245117,10.080666380004882,0.3523856077612902,1.3746805190667872,10.838112951809022,0.6133146586100253,0.3794239583333329,9.791828751627603,-0.8922576904296875,-0.618743896484375,0.032806396484375,-2.030721524866616,1.5033628882431405,0.1607755335365852,-1.4833722795758928,-0.3153483072916667,0.1173473539806547,2.259560591731351,-2.4449680335097,0.8944600249287774,-24.50761392242875,-3.4985754985754958,7.916700445634452,31.27945008536257,41.630784437056334,36.76661574864468,1577399041.0,-27.71751642310172,-51.09930014716574,6.3315387
3702,1577399042.42,0.391332261352539,1.962646810913086,9.357617478637694,0.0447306944312116,1.0921647231683498,8.507357635646914,0.7976681864420566,1.2018322285970042,8.641414853922525,-0.7549285888671875,-0.4508972167968749,0.292205810546875,1.5856114829458845,-3.5320375023818595,0.9237149866615852,-1.6664777483258928,-1.3071695963541667,0.4835582914806547,2.1691781680620985,-1.2224840167548476,0.0,-21.2867031459624,-0.6497354497354497,9.923751262837555,31.20756581903136,41.55890017072513,36.57492437176146,1577399041.0,-27.71751642310172,-51.09930014716574,6.3315387
3703,1577399042.43,0.285987388305664,1.1174936248779297,10.111791001586914,0.2171132139624615,1.056251698266006,9.718823675685975,0.0674366800944003,2.6575068379720044,10.166521311442056,-1.1516571044921875,-0.3288269042968749,-0.318145751953125,-2.320638517054116,1.6864683569931402,0.2218106897865852,-1.5444074358258928,-0.4831949869791667,1.0939098539806549,2.1691781680620985,-1.2224840167548476,0.0,-20.749884683218028,-0.1749287749287778,9.403404754673788,31.20756581903136,41.75059154760835,36.81453859286549,1577399041.0,-27.71751642310172,-51.09930014716574,6.3315387
3704,1577399042.44,0.3003525982666015,1.4047978240966796,9.740689744262694,0.6001854795874616,1.487207997094131,11.332515594631287,0.5726132303873691,2.8897443990071605,10.439460300699867,-1.1821746826171875,0.1594543457031251,-0.104522705078125,-3.449788907679116,1.5643980444931402,0.4354337366615852,-1.4833722795758928,0.4018147786458333,0.0257946196056547,2.1691781680620985,-1.2224840167548476,0.0,-14.30806313028537,-26.76410256410256,9.403404754673788,31.20756581903136,41.75059154760835,36.57492437176146,1577399041.0,-27.71751642310172,-51.09930014716574,6.3315387
3705,1577399042.45,0.4416104962158207,1.5795745452880858,9.925043272094726,0.6959535459937114,1.7565556838617091,9.641012121730896,0.6085262552897128,2.056562221272785,10.09469526163737,-0.7549285888671875,0.3273010253906251,-0.135040283203125,0.1818028891958842,-0.5718324242568598,0.9847501429115852,-0.9340558733258928,-0.0712076822916666,-0.0657581147693452,2.4403254390698588,-1.504595712929043,1.0570891203703787,-14.576472361657554,-26.05189255189255,7.879532837908469,31.20756581903136,41.60682301494593,36.67077006020308,1577399041.0,-27.71751642310172,-51.09930014716574,6.3315387
3706,1577399042.46,0.7576451153564452,1.311423959350586,9.424655125122069,0.2626030455054303,1.717051356469131,9.330963006740664,0.0171584452311191,-0.1461033060709634,10.72676449991862,-0.7549285888671875,-0.1152038574218748,-0.135040283203125,-3.602376798304116,0.2521421851181402,0.5575040491615852,-1.5444074358258928,0.5238850911458333,0.3004528227306547,2.892237557416128,-0.470186160290326,0.3252581908831954,-13.77124466754098,-4.448188848188844,6.9503426447588845,31.25548866325217,41.55890017072513,36.81453859286549,1577399041.0,-27.71751642310172,-51.09930014716574,6.3315387
3707,1577399042.47,0.4224568829345703,1.3353659759521483,9.606614451293945,0.4254087583960553,1.939712110863662,9.144215277248476,0.9796275126139316,0.2872471944173168,10.3939704691569,-0.9990692138671876,-0.7255554199218749,-0.074005126953125,0.5785314048208843,-0.8770082055068598,0.8931974085365852,-1.0866437639508928,0.9206136067708331,1.0633922758556549,3.79606179410867,-1.410558480870978,1.4636618589743662,-26.65488777340629,-4.448188848188844,-6.132655274787254,31.30341150747297,41.55890017072513,36.67077006020308,1577399041.0,-27.71751642310172,-51.09930014716574,6.3315387
3708,1577399042.48,0.592445200805664,1.6490063934326171,9.491692771606443,-0.1803242616234749,1.4656601821527246,10.362863922268003,0.7138711283365878,0.7996063496907542,9.172927622477214,0.0690460205078124,0.2815246582031251,0.322723388671875,0.5480138266958843,0.9540464819931402,0.6490567835365852,-0.8119855608258928,1.3478597005208333,0.3920055571056547,3.79606179410867,-1.410558480870978,1.4636618589743662,-25.58125084791753,-3.4985754985755,-6.132655274787254,31.25548866325217,41.75059154760835,36.86246143708629,1577399041.0,-27.71751642310172,-51.09930014716574,6.3315387
3709,1577399042.49,0.3087323040771484,1.5005658905029295,10.338043058471678,0.3918899351538678,0.8778836745843653,10.419127661281678,0.4385379374186196,1.375411848958333,9.4638231241862,-0.6481170654296875,0.3120422363281251,0.063323974609375,-0.1081141029916155,-1.7009828148818595,0.9542325647865852,-0.5678449358258928,1.9734700520833333,-0.5692981538318452,3.2537672520931444,-2.162856337335501,0.3252581908831955,-6.255786189119516,-2.074155474155474,-6.429996136595124,31.30341150747297,41.630784437056334,36.71869290442388,1577399041.0,-27.71751642310172,-51.09930014716574,6.3315387
3710,1577399042.5,0.2907757916259765,1.754351266479492,9.853217222290038,0.1764117857398053,2.50953210598085,8.404406964260195,0.6707754984537754,1.5896928975423177,10.472979123942055,-0.3276824951171875,-0.6340026855468749,0.200653076171875,1.2194005454458845,-1.5178773461318598,1.2594083460365852,-1.0256086077008928,0.8900960286458333,0.4835582914806547,2.892237557416128,-1.5986329449871084,0.3252581908831954,-6.255786189119516,-4.448188848188844,6.9503426447588845,31.20756581903136,41.75059154760835,36.81453859286549,1577399041.0,-27.71751642310172,-51.09930014716574,6.3315387
3711,1577399042.51,0.6714538555908203,1.134253036499023,10.118973606567382,1.1484576597632428,1.1927211928949122,10.437084173732847,0.1057439066569003,-0.1030076761881509,10.046811228434244,-1.8840789794921875,-3.166961669921875,0.078582763671875,-0.9168299233041156,4.2499449194931405,0.6185392054115852,-1.3613019670758928,1.4699300130208333,1.1244274321056549,2.7114727100776186,-2.539005265567764,1.4636618589743662,-5.718967726375147,-3.973382173382172,9.403404754673788,31.111720130589752,41.75059154760835,36.57492437176146,1577399041.0,-27.71751642310172,-51.09930014716574,6.3315387
3712,1577399042.52,0.3865438580322265,1.3305775726318358,10.265019907836914,2.2928860533179303,0.7090924575433497,9.9582438417016,-0.0211487813313798,3.67504254353841,10.1641271097819,-0.0530242919921875,0.8918762207031251,0.170135498046875,-2.412191251429116,-1.91460586175686,0.4659513147865852,-0.0795636858258928,3.6366780598958335,0.6056286039806548,2.7114727100776186,-2.539005265567764,1.4636618589743662,-13.234426204796588,-3.0237688237688283,7.024677860210852,31.111720130589752,41.79851439182916,36.71869290442388,1577399041.0,-27.71751642310172,-51.09930014716574,6.3315387
3713,1577399042.53,0.4619612103271484,1.2791022369384766,9.65330138366699,0.6217332945288678,1.6021296767816309,8.526511248928163,1.681128599039713,6.335000587972004,9.773872239176432,-0.1140594482421875,0.4951477050781251,-0.028228759765625,-0.2454432045541157,-0.6023500023818598,0.6795743616615852,-0.1405988420758928,4.521687825520833,-1.7442249116443451,2.7114727100776186,-2.7270797296838944,0.8131454772079819,-14.84488159302974,-3.4985754985755,6.9503426447588845,31.27945008536257,41.463054482283525,36.71869290442388,1577399041.0,-27.71751642310172,-51.09930014716574,6.3315387
3714,1577399042.54,0.6163872174072265,1.543661520385742,10.123762009887692,0.5977912779273054,1.3866515273675684,10.484968206935974,0.4732538614908848,-0.1413149027506514,10.155747403971354,-0.7854461669921875,0.1899719238281251,-0.348663330078125,-1.3440760170541155,1.3812925757431405,0.2065519007240852,-0.6593976702008928,0.6459554036458331,-1.1796497163318451,1.807648473385084,-1.5986329449871084,0.0,-5.718967726375147,-32.461782661782664,7.3220187220187185,31.30341150747297,41.63078443705634,36.57492437176146,1577399041.0,-27.71751642310172,-51.09930014716574,6.3315387
3715,1577399042.55,0.6642712506103515,1.6609774017333985,9.43662613342285,1.6847588316382427,2.2988423598871,7.762760919338319,0.4696625590006504,1.2066206319173167,8.634232248942057,0.4657745361328124,1.624298095703125,-0.165557861328125,-0.2759607826791157,-0.4497621117568597,0.4659513147865852,-1.3002668108258928,-1.4597574869791667,-0.3709338960193452,2.349943015400604,-3.2913031220322875,1.1384036680911775,-5.718967726375147,-30.56255596255596,7.470689152922654,31.447180040135382,41.55890017072513,36.71869290442388,1577399041.0,-27.71751642310172,-51.09930014716574,6.3315387
3716,1577399042.56,0.0872686505126953,1.493383285522461,9.221147984008788,0.4732927915991803,1.6931093398675685,10.111472747951598,0.6659870951334629,1.0414207173665355,9.120255185953775,-0.4497528076171875,-0.3898620605468749,0.139617919921875,-1.6187342201791155,0.0690367163681402,0.0081876429115852,-0.0490461077008927,-0.9409586588541669,1.0023571196056549,2.349943015400604,-3.2913031220322875,1.1384036680911775,-23.433976996939982,-29.13813593813593,-4.199939673036125,31.20756581903136,41.55890017072513,36.81453859286549,1577399041.0,-27.71751642310172,-51.09930014716574,6.3315387
3717,1577399042.57,0.5182249493408203,1.356913790893555,10.238683689575195,0.2769682554663683,1.1592023696527247,9.892403296047302,0.5331089029947915,0.653560048421223,9.42431879679362,-0.2513885498046875,0.3425598144531251,-0.196075439453125,-1.0541590248666155,-0.3734681664443597,-0.3885408727134147,-0.4762922014508928,-0.3916422526041667,0.1173473539806547,2.2595605917313515,-2.256893569393568,1.219718215811973,-21.82352160870681,-14.65653235653236,-4.757453788925876,31.183604396920963,41.55890017072513,36.694731482313486,1577399041.0,-27.71751642310172,-51.09930014716574,6.3315387
3718,1577399042.58,0.3171120098876953,1.6921020233154296,10.40148940246582,0.0303654844702741,1.776906397973037,10.370046527248476,1.8798473368326816,0.7732701314290354,9.27108989054362,-0.1445770263671875,1.593780517578125,-0.379180908203125,0.1818028891958842,-0.4192445336318597,1.0457852991615852,-0.5373273577008928,-0.9104410807291669,0.6971813383556548,0.7230593893540329,-2.7270797296838944,1.3010327635327683,-29.875798549872645,-4.448188848188844,-7.322018722018729,31.30341150747297,41.75059154760835,36.81453859286549,1577399041.0,-27.71751642310172,-51.09930014716574,6.3315387
3719,1577399042.59,0.362601841430664,0.6003460662841796,9.1876291607666,-0.2593329164086311,1.0155502700433496,9.089148639064884,3.115255393473307,2.3486548238118488,9.338127537027995,-1.5483856201171875,-0.1457214355468749,-0.379180908203125,-1.2830408608041155,1.93060898199314,-0.5106111852134148,0.0425066266741072,1.5004475911458333,-0.0962756928943452,0.3615296946770146,-1.974781873219373,0.6505163817663843,-40.61216780476041,-27.23890923890924,-4.94329182755579,31.25548866325217,41.463054482283525,36.86246143708629,1577399041.0,-27.71751642310172,-51.09930014716574,6.3315387
3720,1577399042.6,0.0932541546630864,1.7268179473876952,10.242274992065427,0.5523014463843366,1.0730111098870996,11.239141729885192,-1.1464235616048173,1.915304323323568,8.380446872965495,0.0690460205078124,-0.0389099121093748,-0.211334228515625,-0.8252771889291157,-1.3042542992568598,-0.2054354039634147,-0.6288800920758928,-0.3611246744791667,0.1478649321056547,0.3615296946770146,-1.974781873219373,0.6505163817663843,-40.61216780476041,-26.28929588929589,-6.876007429306919,31.20756581903136,41.60682301494594,36.71869290442388,1577399041.0,-27.71751642310172,-51.09930014716574,6.3315387
3721,1577399042.61,0.5685031842041015,0.6937199310302734,9.44380873840332,-0.1156808167992566,1.3674979140863184,9.412365863185974,0.9880072184244784,1.7812290303548175,10.11265177408854,-0.4192352294921875,-1.702117919921875,-0.043487548828125,-0.0623377358041157,0.1605894507431406,0.4506925257240852,-0.1863752092633928,-0.4831949869791667,-0.6303333100818452,2.349943015400604,-1.7867074091032429,0.8131454772079753,-34.170346251827745,-15.843549043549045,0.8548549776976153,31.20756581903136,41.63078443705634,36.742654326534286,1577399041.0,-27.71751642310172,-51.09930014716574,6.3315387
3722,1577399042.62,0.1638831036376953,1.2324153045654296,9.254666807250976,0.8779128721655866,1.7721179946527246,10.063588714748477,-0.2126849141438798,1.9344579366048176,11.184057017008463,-0.3582000732421875,-1.457977294921875,0.078582763671875,-2.045980313929116,-1.7925355492568598,-0.5106111852134148,0.7138933454241072,1.8666585286458333,0.5140758696056548,2.7114727100776186,-1.0344095526387171,1.4636618589743662,-23.433976996939982,-0.6497354497354497,7.545024368374619,31.30341150747297,41.55890017072513,36.71869290442388,1577399041.0,-27.71751642310172,-51.09930014716574,6.3315387
3723,1577399042.63,0.439216294555664,1.7782932830810545,9.683228904418945,0.4589275816382429,1.4704485854730371,8.466656207424256,0.1871467631022128,1.7740464253743489,10.21440534464518,0.7404327392578125,-1.122283935546875,-0.196075439453125,2.1654454673208843,-1.2432191430068598,0.9542325647865852,-0.3542218889508928,2.415974934895833,0.2089000883556547,1.9884133207235888,-1.0344095526387171,0.4878872863247865,-29.875798549872645,-25.33968253968253,9.329069539221818,31.25548866325217,41.75059154760835,36.81453859286549,1577399041.0,-27.71751642310172,-51.09930014716574,6.3315387
3724,1577399042.64,0.1471236920166015,1.2000935821533203,10.121367808227538,0.6911651426733991,0.8599271621331934,10.286249469143003,1.3698823832194005,1.4915306294759114,11.081106345621745,0.0385284423828124,-0.4203796386718749,0.109100341796875,-0.0928553139291157,0.9845640601181402,-0.2664705602134147,0.6833757672991072,2.415974934895833,0.3309704008556547,1.9884133207235888,-1.0344095526387171,0.4878872863247865,-27.728524698895075,-27.23890923890924,9.329069539221818,31.20756581903136,41.55890017072513,36.57492437176146,1577399041.0,-27.71751642310172,-51.09930014716574,6.3315387
3725,1577399042.65,0.5708973858642578,2.000954037475586,10.609784946899412,0.4517449766577741,1.690715138207412,9.59432518935785,-0.1659979817708334,0.7517223164876292,9.720002701822915,1.3813018798828125,0.3730773925781251,0.078582763671875,-0.6116541420541156,-1.7620179711318595,0.2523282679115852,-0.0795636858258928,0.8748372395833333,0.1631237211681547,1.2653539313695563,-0.6582606244064564,0.8131454772079753,-19.13942929498485,-27.23890923890924,7.545024368374619,31.111720130589752,41.702668703387545,36.69473148231347,1577399041.0,-27.71751642310172,-51.09930014716574,6.3315387
3726,1577399042.66,0.5134365460205077,0.7823053924560547,9.836457810668945,-0.3359473695336311,0.6947272475824122,12.297378863674256,0.7114769266764316,0.6798962666829417,9.690075181070965,-1.0295867919921875,-1.671600341796875,0.292205810546875,0.6700841391958843,1.5949156226181402,0.1912931116615852,-0.2931867327008928,0.8290608723958333,-0.1267932710193452,3.79606179410867,-1.410558480870978,-0.162629095441591,-10.01351542833026,-26.76410256410256,8.511382169250187,31.20756581903136,41.55890017072513,36.81453859286549,1577399041.0,-27.71751642310172,-51.09930014716574,6.3315387
3727,1577399042.67,0.3123236065673828,0.7990648040771484,10.5666893170166,0.8372114439429303,1.7314165664300685,9.8816293885766,0.4193843241373691,0.3040066060384105,10.367634250895184,0.5573272705078125,-0.8781433105468749,0.231170654296875,-0.3980310951791157,-0.0530335961318597,0.6490567835365852,0.4697527204241072,3.087361653645833,0.3920055571056547,3.253767252093146,-1.974781873219373,0.3252581908831954,-10.55033389107465,-27.23890923890924,8.139706091990352,31.20756581903136,41.75059154760835,36.81453859286549,1577399041.0,-27.71751642310172,-51.09930014716574,6.3315387
3728,1577399042.68,0.5517437725830078,1.3736732025146483,9.662878190307616,-0.0773735902367561,1.6009325759515527,10.745936187893006,0.9006188578287754,1.1012757588704425,11.334891721598307,1.3813018798828125,0.922393798828125,-0.012969970703125,1.6008702720083845,0.2979185523056402,0.7100919397865852,0.5765642438616072,10.701497395833334,0.3309704008556547,3.253767252093146,-1.974781873219373,0.3252581908831954,-18.602610832240455,-13.944322344322345,1.077860624053513,31.23152724114176,41.53493874861473,36.67077006020308,1577399041.0,-27.71751642310172,-51.09930014716574,6.3315387
3729,1577399042.69,0.0106541973876953,1.2587515228271484,10.1453098248291,0.7725679991187115,1.1879327895745997,11.191257696682069,3.2038408548990884,3.9743177510579417,11.375593149820965,0.0385284423828124,-1.274871826171875,0.170135498046875,0.3343907798208843,2.0526792944931405,-0.8157869664634148,0.3171648297991072,17.552693684895832,-1.3474963960193451,3.0730024047546407,-1.7867074091032429,-0.162629095441591,-14.84488159302974,-0.6497354497354497,-5.835314412979392,31.447180040135382,41.55890017072513,36.57492437176146,1577399041.0,-27.71751642310172,-51.09930014716574,6.3315387
3730,1577399042.7,0.6187814190673827,1.4502876556396485,10.214741672973632,0.6600405210913678,0.3882694350824122,11.574329962307068,-0.95967583211263,1.1874670186360667,9.508115854899089,1.1371612548828125,1.074981689453125,0.078582763671875,-0.3064783608041157,-0.0835511742568597,0.5880216272865852,-0.0490461077008927,17.155965169270832,-1.2559436616443451,2.7114727100776186,-1.410558480870978,1.1384036680911775,-35.243983177316515,-23.44045584045584,-7.1733482911147926,31.20756581903136,41.55890017072513,36.67077006020308,1577399041.0,-27.71751642310172,-51.09930014716574,6.3315387
3731,1577399042.71,0.2165555401611328,1.4167688323974608,10.154886631469726,0.3248522886694928,2.408975636254287,7.250401764064882,-0.6723716328938798,1.678278358968099,8.322986033121744,1.1066436767578125,0.4951477050781251,0.261688232421875,2.4706212485708843,-2.4944398461318595,0.4964688929115852,1.0495867047991072,10.686238606770834,-0.9812854585193452,2.349943015400604,-1.7867074091032429,1.1384036680911775,-3.571693875397591,-31.51216931216931,-4.720286181199891,31.39925719591458,41.55890017072513,37.0062299697487,1577399041.0,-27.71751642310172,-51.09930014716574,6.3315387
3732,1577399042.72,0.592445200805664,1.197699380493164,10.200376463012692,0.7977071165503522,1.6739557265863183,9.85529317031488,0.924560874430338,0.3231602193196615,8.358899058024088,0.2521514892578124,0.1899719238281251,0.063323974609375,1.0210362876333845,1.839056247618141,-0.2817293492759147,0.6223406110491072,-0.2543131510416667,0.7734752836681548,3.0730024047546407,-1.0344095526387171,0.4878872863247865,-30.949435475361405,-3.4985754985754958,7.693694799278552,31.20756581903136,41.43909306017312,36.742654326534286,1577399041.0,-27.71751642310172,-51.09930014716574,6.3315387
3733,1577399042.73,0.5278017559814453,1.5484499237060545,9.661681089477538,-0.0103359437523811,0.165608680687881,8.519328643947695,-0.5215369283040361,0.9815656758626292,8.509733762613932,1.6559600830078125,1.502227783203125,-0.104522705078125,3.1114903891958843,-2.4944398461318595,0.3743985804115852,0.8969988141741072,-5.854288736979167,-0.1267932710193452,1.626883626046571,-2.539005265567764,1.1384036680911775,-20.213066220473635,-2.548962148962147,7.0990130756628185,31.20756581903136,41.84643723604996,36.71869290442388,1577399041.0,-27.71751642310172,-51.09930014716574,6.3315387
3734,1577399042.74,0.295564194946289,1.455076058959961,7.820540012817382,0.2386610289038678,1.6595905166253808,9.000563177639101,1.231018686930338,3.766022206624348,9.555999888102214,1.5949249267578125,2.539825439453125,-0.196075439453125,-0.5811365639291157,0.3131773413681402,-0.0223299352134147,1.2326921735491072,-3.718058268229168,-0.7676624116443452,1.4461187787080658,-1.5986329449871084,0.6505163817663843,-22.36034007145118,-34.83581603581603,6.9503426447588845,31.20756581903136,41.463054482283525,36.81453859286549,1577399041.0,-27.71751642310172,-51.09930014716574,6.3315387
3735,1577399042.75,0.4176684796142577,1.234809506225586,10.627741459350585,0.6073680845679303,1.1759617812738183,11.543205340725036,1.6212735575358066,1.7620754170735675,11.172086008707682,1.2134552001953125,-1.000213623046875,0.048065185546875,1.0362950766958845,4.4025328101181405,-0.3885408727134147,1.9956316266741072,-2.0701090494791665,-1.1033557710193451,2.4403254390698583,-1.5045957129290453,0.7318309294871832,-23.433976996939982,-30.087749287749283,9.031728677413954,31.25548866325217,41.65474585916674,36.81453859286549,1577399041.0,-27.71751642310172,-51.09930014716574,6.3315387
3736,1577399042.76,0.3410540264892577,1.486200680541992,10.130944614868165,1.1723996763648052,1.1771588821038963,9.07837473159418,-0.1145226460774741,1.253307564290364,10.707610886637369,2.3578643798828125,0.9529113769531252,-0.043487548828125,0.3496495688833844,-0.4039857445693597,0.0234464319740851,1.6904558454241072,-0.3153483072916667,-0.2183460053943451,2.349943015400604,-1.7867074091032429,0.4878872863247865,-5.987376957747332,-25.1022792022792,7.136180683388801,31.25548866325217,41.65474585916674,36.694731482313486,1577399041.0,-27.71751642310172,-51.09930014716574,6.3315387
3737,1577399042.77,0.372178648071289,1.0097545501708984,10.140521421508788,0.7558085874976178,2.4281292495355373,9.108302252346132,1.5733895243326816,-0.1915931376139322,12.21356373087565,0.4962921142578124,-0.9391784667968748,0.017547607421875,-0.1538904701791157,2.3578550757431405,-0.2359529820884147,0.8664812360491072,0.0356038411458333,1.2464977446056549,2.7114727100776186,-0.6582606244064564,1.1384036680911775,-6.255786189119516,-25.33968253968253,7.247683506566751,31.20756581903136,41.65474585916674,36.81453859286549,1577399041.0,-27.71751642310172,-51.09930014716574,6.3315387
3738,1577399042.78,0.2811989849853515,1.725620846557617,9.374376890258787,-0.2808807313500374,0.5606519546136622,10.88958828750238,-0.7585628926595048,1.3215423116048175,10.858445591227213,0.3131866455078124,0.7392883300781251,-0.104522705078125,1.0973302329458845,0.1300718726181402,-0.2969881383384147,1.3242449079241072,2.293904622395833,1.0633922758556549,2.1691781680620985,-2.7270797296838944,0.3252581908831954,-30.41261701261704,-3.0237688237688283,-7.099013075662825,31.30341150747297,41.75059154760835,36.57492437176146,1577399041.0,-27.71751642310172,-51.09930014716574,6.3315387
3739,1577399042.79,0.6894103680419921,1.35332248840332,8.897930759887695,-0.1300460267601936,1.537486231957412,9.82416854873285,0.0722250834147128,1.6543363423665365,10.571141392008464,0.8625030517578125,0.2052307128906251,0.109100341796875,1.3414708579458845,-2.0977113305068595,-0.0833650914634147,1.8735613141741072,1.9887288411458333,-0.9202503022693452,2.530707862739113,-0.470186160290326,0.813145477207982,-31.4862539381058,-3.973382173382172,-7.099013075662825,31.27945008536257,41.75059154760835,36.81453859286549,1577399041.0,-27.71751642310172,-51.09930014716574,6.3315387
3740,1577399042.8,0.7241262921142577,1.016937155151367,8.5364063092041,0.648069512790587,1.4081993423089747,9.26991086440668,1.3100273417154942,1.0498004231770832,10.16532421061198,0.5268096923828125,0.1594543457031251,0.170135498046875,0.4564610923208844,1.8237974585556405,0.2675870569740852,1.2937273297991072,4.933675130208333,-0.8134387788318451,2.892237557416128,-0.0940372320580652,0.6505163817663843,-34.170346251827745,-13.944322344322345,0.631849331341714,31.39925719591458,41.60682301494593,36.86246143708629,1577399041.0,-27.71751642310172,-51.09930014716574,6.3315387
3741,1577399042.81,1.147899985961914,1.751957064819336,9.228330588989255,0.6289158995093366,1.5422746352777246,10.06119451308832,-0.3707022237141923,-0.6584624613444009,8.864075608317059,0.7099151611328125,0.5256652832031251,-0.318145751953125,-1.801839688929116,4.0973570288681405,-0.3275057164634147,0.5613054547991072,3.484090169270833,-1.1338733491443451,0.7230593893540329,-1.2224840167548476,0.6505163817663843,-32.02307240085019,-0.6497354497354497,8.139706091990352,31.20756581903136,41.84643723604996,36.81453859286549,1577399041.0,-27.71751642310172,-51.09930014716574,6.3315387
3742,1577399042.82,1.061708726196289,1.9865888275146484,8.751884458618163,1.7422196714819926,1.9253469009027249,11.040422992092225,0.2733380228678378,1.103669960530598,9.160956614176431,1.8695831298828125,1.563262939453125,-0.226593017578125,2.2264806235708843,0.4962828101181402,0.4659513147865852,1.2326921735491072,0.4933675130208333,-0.4014514741443452,3.434532099431656,-1.7867074091032429,0.1626290954415977,-32.02307240085019,-4.448188848188844,8.139706091990352,31.25548866325217,41.75059154760835,36.71869290442388,1577399041.0,-27.71751642310172,-51.09930014716574,6.3315387
3743,1577399042.83,0.4906916302490234,1.0863690032958984,9.198403068237305,-0.4676284608422248,0.6181127944574122,8.418772174221132,0.6492276835123691,2.0757158345540363,9.115466782633463,0.9540557861328124,2.463531494140625,-0.241851806640625,2.2264806235708843,-2.8301332055068595,-0.2969881383384147,1.2326921735491072,-0.6357828776041667,0.4835582914806547,2.621090286408366,-2.256893569393568,1.0570891203703718,-21.82352160870679,-3.973382173382172,8.065370876538386,31.25548866325217,41.55890017072513,36.910384281307095,1577399041.0,-27.71751642310172,-51.09930014716574,6.3315387
3744,1577399042.84,0.4990713360595702,1.6801310150146482,9.539576804809569,0.4864609007300397,1.095756025658584,10.422718963771912,0.0937728983561196,-0.0180135172526045,9.030472623697916,0.8625030517578125,0.3425598144531251,0.322723388671875,0.5480138266958844,2.3273374976181405,-0.4343172399009147,0.5307878766741072,-2.3295084635416665,0.4072643461681547,2.892237557416128,-3.479377586148418,1.3010327635327683,-27.191706236150686,-3.973382173382172,9.403404754673788,31.30341150747297,41.55890017072513,36.790577170755085,1577399041.0,-27.71751642310172,-51.09930014716574,6.3315387
3745,1577399042.85,0.2069787335205078,1.505354293823242,9.13735092590332,-0.5274835023461312,1.448900770531631,10.0348582948266,1.175952048746744,3.4763238057454418,8.780278550211587,1.7475128173828125,1.532745361328125,-0.043487548828125,1.8297521079458845,1.83905624761814,0.9542325647865852,1.0190691266741072,-3.718058268229168,0.0868297758556547,2.530707862739113,-1.974781873219373,0.3252581908831954,-14.30806313028537,-31.51216931216931,9.403404754673788,31.20756581903136,41.60682301494594,36.81453859286549,1577399041.0,-27.71751642310172,-51.09930014716574,6.3315387
3746,1577399042.86,0.0298078106689453,1.055244381713867,9.403107310180664,0.4852637998999616,2.100123622094131,9.022110992580506,1.118491208902994,1.2976002950032552,9.321368125406902,0.9235382080078124,-0.5424499511718749,0.566864013671875,0.9142247641958844,1.1371519507431402,-0.2054354039634147,1.2021745954241072,-4.419962565104167,0.1173473539806547,1.2653539313695563,-2.162856337335503,1.4636618589743662,-12.160789279307805,-31.51216931216931,7.470689152922654,31.25548866325217,41.55890017072513,36.67077006020308,1577399041.0,-27.71751642310172,-51.09930014716574,6.3315387
3747,1577399042.87,0.2823960858154296,1.7208324432373046,10.165660538940427,0.7246839659155865,1.2837008559808496,9.26751666274652,0.4313553324381504,0.8139715596516918,9.699651987711588,1.0608673095703125,2.021026611328125,0.032806396484375,0.7463780845083844,0.4047300757431404,0.6948331507240852,0.8969988141741072,-1.7191569010416667,0.7276989164806548,2.621090286408366,-1.8807446411613056,0.8944600249287775,-15.650109287146329,-9.433658933658933,1.040693016327534,31.111720130589752,41.534938748614735,36.71869290442388,1577399041.0,-27.71751642310172,-51.09930014716574,6.3315387
3748,1577399042.88,0.630752427368164,0.8062474090576172,8.043200767211912,-0.1946894715844124,1.582976063500381,9.579959979396913,0.8407638163248691,-0.2586307840983072,8.9382958597819,0.0690460205078124,0.3730773925781251,0.200653076171875,0.5785314048208843,2.7240660132431405,-0.0528475133384147,0.2256120954241072,0.0050862630208333,0.3309704008556547,2.349943015400604,-2.162856337335503,0.8131454772079753,-20.213066220473635,-23.44045584045584,-5.835314412979392,31.111720130589752,41.65474585916674,36.67077006020308,1577399041.0,-27.71751642310172,-51.09930014716574,6.3315387
3749,1577399042.89,0.5565321759033203,1.6226701751708985,9.6090086529541,1.160428668064024,2.6053001723871,10.501727618557068,1.8870299418131504,1.24971626180013,10.68127466837565,-0.1750946044921875,-0.5119323730468749,0.139617919921875,-2.290120938929116,3.822698825743141,-0.0223299352134147,0.3476824079241072,1.1342366536458333,-0.1573108491443452,4.157591488785688,-2.915154193800025,0.1626290954415977,-20.213066220473635,-23.44045584045584,-5.835314412979392,31.25548866325217,41.31928594962111,36.71869290442388,1577399041.0,-27.71751642310172,-51.09930014716574,6.3315387
3750,1577399042.9,0.8294711651611327,1.6717513092041014,9.333675462036132,0.1165567442358991,0.6396606093988184,10.796214422756286,-0.3347891988118486,1.8865739034016928,7.899212339274088,1.2439727783203125,2.127838134765625,0.200653076171875,-0.7337244545541157,2.0526792944931405,0.4964688929115852,-0.0795636858258928,1.6530354817708333,-0.1573108491443452,2.078795744392842,-1.880744641161308,0.5692018340455853,-20.213066220473635,-27.23890923890924,-4.348610103940056,31.25548866325217,41.65474585916674,36.71869290442388,1577399041.0,-27.71751642310172,-51.09930014716574,6.3315387
3751,1577399042.91,0.6523002423095703,1.6753426116943355,9.925043272094726,-0.2210256898461316,1.8080310195550684,9.626646911769958,0.4229756266276039,0.7469339131673177,8.834148087565104,0.1605987548828124,0.0679016113281251,-0.104522705078125,1.0362950766958845,1.0455992163681405,0.2828458460365852,-0.2779279436383928,1.8666585286458333,0.4530407133556547,2.892237557416128,-1.5986329449871084,0.6505163817663843,-5.450558495002952,-16.55575905575905,1.2636986626834306,31.447180040135382,41.55890017072513,36.62284721598228,1577399041.0,-27.71751642310172,-51.09930014716574,6.3315387
3752,1577399042.92,0.3961206646728515,1.7375918548583984,9.166081345825194,1.7972863096655864,1.2645472426995996,8.718047381740663,0.4648741556803378,2.0565622212727863,9.532057871500651,-0.4802703857421875,2.936553955078125,-0.196075439453125,-1.862874845179116,3.0597593726181405,0.0387052210365852,-0.2016339983258928,0.0966389973958333,-0.3098987397693452,2.892237557416128,-1.5986329449871084,0.6505163817663843,-4.645330800886364,-0.1749287749287778,7.024677860210852,31.20756581903136,41.75059154760835,36.910384281307095,1577399041.0,-27.71751642310172,-51.09930014716574,6.3315387
3753,1577399042.93,0.7217320904541015,0.9211690887451172,8.82371050842285,-0.0318837586937874,0.5630461562738185,9.431519476467226,1.214259275309244,-0.2131409525553384,8.591136619059244,-1.3347625732421875,0.0068664550781251,-0.257110595703125,0.8531896079458843,-0.9990785180068598,0.0081876429115852,-0.7204328264508928,-4.053751627604167,-1.3169788178943451,3.0730024047546407,-2.539005265567764,1.788920049857555,-14.84488159302974,0.299877899877894,7.0990130756628185,31.447180040135382,41.55890017072513,36.910384281307095,1577399041.0,-27.71751642310172,-51.09930014716574,6.3315387
3754,1577399042.94,0.2488772625732421,1.4395137481689453,8.512464292602537,0.3104870787085553,2.3730626113519437,9.675728045803163,0.6420450785319004,0.6607426534016917,8.674933677164713,0.1605987548828125,2.783966064453125,-0.272369384765625,0.5785314048208843,3.3954527319931405,0.3133634241615852,-0.4762922014508928,-6.220499674479167,-0.1573108491443452,2.078795744392842,-2.256893569393569,0.5692018340455888,-5.718967726375147,-3.973382173382172,8.214041307442319,31.15964297481056,41.65474585916674,36.81453859286549,1577399041.0,-27.71751642310172,-51.09930014716574,6.3315387
3755,1577399042.95,0.0226252056884765,1.8596961395263671,10.50922847717285,0.3619624144019152,1.3722863174066309,9.107105151516054,1.0047666300455722,1.5621595784505202,9.98456198527018,0.8625030517578125,2.783966064453125,-0.623321533203125,-2.320638517054116,2.2052671851181405,-0.1749178258384147,-0.2321515764508928,-5.167643229166667,0.1020885649181547,2.1691781680620985,-1.974781873219373,0.3252581908831954,-16.992155444007295,-30.56255596255596,8.139706091990352,31.20756581903136,41.60682301494593,36.69473148231347,1577399041.0,-27.71751642310172,-51.09930014716574,6.3315387
3756,1577399042.96,0.324294614868164,1.514931100463867,10.444585032348632,0.5834260679663679,1.1592023696527247,9.40278905654535,1.1783462504069004,1.65194214070638,8.880835019938152,-0.9990692138671876,0.5561828613281251,-0.257110595703125,1.2804357016958845,-2.8911683617568595,1.2899259241615852,-0.9035382952008928,-5.427042643229167,-0.4624866303943452,2.1691781680620985,-1.974781873219373,0.3252581908831954,-14.84488159302974,-31.986975986975985,6.9503426447588845,31.20756581903136,41.463054482283525,36.81453859286549,1577399041.0,-27.71751642310172,-51.09930014716574,6.3315387
3757,1577399042.97,0.4248510845947265,1.3497311859130858,8.852440928344725,-0.6136747621117561,2.126459840355849,7.487427728420351,0.3379814676920566,0.1435950948079418,8.1721513285319,-1.7314910888671875,0.7698059082031251,-0.318145751953125,-0.7947596108041157,-0.5718324242568598,0.8626798304115852,-0.7204328264508928,-5.213419596354167,-0.1878284272693452,2.349943015400604,-1.7867074091032429,2.4394364316239328,-14.84488159302974,-32.936589336589336,6.9503426447588845,31.111720130589752,41.75059154760835,36.71869290442388,1577399041.0,-27.71751642310172,-51.09930014716574,6.3315387
3758,1577399042.98,0.2033874310302734,1.773504879760742,9.289382731323242,-0.3694661927758186,1.3004602676019434,10.48736240859613,1.2382012919108063,0.5075137471516918,10.29101979777018,-0.9685516357421876,-0.603485107421875,-0.180816650390625,-2.930990079554116,3.3954527319931405,-0.4495760289634147,-1.6969953264508928,-4.206339518229167,0.7276989164806548,2.5307078627391157,-2.162856337335503,1.1384036680911709,-11.623970816563412,-4.448188848188844,-4.348610103940056,31.25548866325217,41.65474585916674,36.57492437176146,1577399041.0,-27.71751642310172,-51.09930014716574,6.3315387
3759,1577399042.99,0.6834248638916015,1.3353659759521483,8.629780173950195,0.4625188841284777,1.0718140090570216,9.019716790920349,0.3032655436197914,1.809959450276692,9.783449045817058,-1.3347625732421875,-0.7560729980468749,0.078582763671875,-0.6726892983041158,-0.96856093988186,1.1831144007240852,-1.6359601702008928,1.4241536458333337,1.3533092680431549,2.7114727100776186,-2.162856337335503,1.1384036680911775,-22.36034007145119,-12.99470899470899,0.5575141158897483,31.111720130589752,41.60682301494593,36.69473148231347,1577399041.0,-27.71751642310172,-51.09930014716574,6.3315387
3760,1577399043.0,0.199796128540039,0.5476736297607422,9.12537991760254,0.4685043882788678,1.9061932876214749,8.169775201564882,0.5055755839029942,3.2536630513509106,10.386787864176432,-1.2432098388671875,-0.2372741699218749,-0.135040283203125,-1.984945157679116,0.6488707007431402,0.4964688929115852,-0.4762922014508928,4.063924153645833,-1.5306018647693451,2.7114727100776186,-2.162856337335503,1.1384036680911775,-30.949435475361405,-2.548962148962147,7.247683506566751,31.20756581903136,41.463054482283525,36.86246143708629,1577399043.0,-27.71741783562944,-51.09941474697109,8.569921
3761,1577399043.01,0.764827720336914,1.4814122772216796,9.709565122680663,1.4453386656226177,0.9365416152581936,11.351669207912536,0.3762886942545566,-0.3998886820475259,11.662897349039714,-1.9145965576171875,-0.2372741699218749,-0.501251220703125,-4.365316251429116,7.85101913824314,-0.1138826695884147,-1.2087140764508928,5.711873372395833,-1.866295224144345,1.4461187787080658,-1.5986329449871084,1.6262909544159574,-30.949435475361405,-2.548962148962147,6.9503426447588845,31.20756581903136,41.75059154760835,36.81453859286549,1577399043.0,-27.71741783562944,-51.09941474697109,8.569921
3762,1577399043.02,0.7791929302978515,1.5735890411376952,9.075101682739255,0.1512726683081652,1.7374020705804594,9.508133929592226,-0.1276907552083334,1.050997524007161,9.771478037516276,-0.7244110107421875,1.959991455078125,-0.424957275390625,-0.8252771889291157,-1.0601136742568602,0.7253507288490852,-1.8801007952008928,6.474812825520833,-0.3709338960193453,2.349943015400604,-2.350930801451634,1.4636618589743664,-26.65488777340629,-12.994708994708994,8.66005260015412,31.327372929583376,41.43909306017312,36.694731482313486,1577399043.0,-27.71741783562944,-51.09941474697109,8.569921
3763,1577399043.03,0.0968454571533203,1.8118121063232424,10.157280833129882,0.9042490904273052,2.0402685805902245,11.198440301662536,-0.1456472676595048,2.0589564229329427,9.706834592692058,-0.4802703857421875,2.173614501953125,-0.348663330078125,-2.198568204554116,3.4564878882431405,0.6490567835365852,-1.3613019670758928,3.178914388020833,1.2770153227306549,1.084589084031051,-1.2224840167548476,0.6505163817663843,-21.2867031459624,-23.44045584045584,9.626410401029688,31.20756581903136,41.60682301494594,36.86246143708629,1577399043.0,-27.71741783562944,-51.09941474697109,8.569921
3764,1577399043.04,-0.0084994158935537,1.292270346069336,10.128550413208009,0.0327596861304303,0.2589825454339747,8.162592596584412,1.5829663309733066,2.310347597249349,10.274260386149088,-2.6775360107421875,1.776885986328125,-0.684356689453125,-3.815999845179116,1.1371519507431402,0.3133634241615852,-1.8190656389508928,-2.4668375651041665,-0.1573108491443452,1.084589084031051,-1.2224840167548476,0.6505163817663843,-21.2867031459624,-23.44045584045584,9.626410401029688,31.20756581903136,41.65474585916674,36.71869290442388,1577399043.0,-27.71741783562944,-51.09941474697109,8.569921
3765,1577399043.05,0.4990713360595702,1.7902642913818358,9.652104282836913,0.9521331236304303,1.5303036269769434,9.278290570217225,0.8455522196451816,1.47955962117513,8.718029307047525,-1.3347625732421875,2.875518798828125,-0.226593017578125,-2.259603360804116,2.0526792944931405,0.4659513147865852,-1.6969953264508928,-5.335489908854167,-0.9812854585193452,1.084589084031051,-1.2224840167548476,0.6505163817663843,-18.60261083224046,-34.36100936100936,8.214041307442319,31.25548866325217,41.463054482283525,36.67077006020308,1577399043.0,-27.71741783562944,-51.09941474697109,8.569921
3766,1577399043.06,-0.208415254516601,1.561618032836914,8.60703525817871,-0.4412922425805066,1.8690831618890529,8.84853137221918,0.6420450785319004,0.7050353841145833,8.514522165934244,-2.2960662841796875,1.685333251953125,-0.135040283203125,-0.8557947670541156,-0.7854554711318598,0.8779386194740852,-1.7427716936383928,-9.470621744791666,-0.0047229585193452,3.253767252093148,-1.41055848087098,0.6505163817663808,-13.771244667540968,-26.28929588929589,8.36271173834625,31.23152724114176,41.702668703387545,36.694731482313486,1577399043.0,-27.71741783562944,-51.09941474697109,8.569921
3767,1577399043.07,0.0800860455322265,1.428739840698242,9.429443528442382,0.3535827085913678,0.7952837173089747,9.469826703029726,0.6827465067545566,0.050221230061848,9.211234849039714,-3.2268524169921875,0.0373840332031251,-0.318145751953125,-3.602376798304116,4.1278746069931405,0.9847501429115852,-2.398899623325893,-9.607950846354166,2.0094371977306547,2.7114727100776186,-0.6582606244064564,0.4878872863247865,-23.433976996939982,-4.448188848188844,-5.835314412979392,31.20756581903136,41.463054482283525,36.71869290442388,1577399043.0,-27.71741783562944,-51.09941474697109,8.569921
3768,1577399043.08,-0.0659602557373037,2.252345211791992,9.331281260375976,0.0447306944312116,1.8678860610589747,8.926342926174257,0.9532912943522128,2.2983765889485674,10.29341399943034,-0.2971649169921875,1.868438720703125,-0.104522705078125,-1.984945157679116,-2.3723695336318595,0.6185392054115852,-2.276829310825893,-7.471720377604167,1.7652965727306549,2.7114727100776186,-0.6582606244064564,0.4878872863247865,-22.8971585341956,-1.1245421245421217,-6.950342644758893,31.111720130589752,41.75059154760835,36.71869290442388,1577399043.0,-27.71741783562944,-51.09941474697109,8.569921
3769,1577399043.09,-0.3209427325439443,0.9175777862548828,9.084678489379884,-1.1164571107445689,1.1544139663324122,9.244771746975038,0.4959987772623691,2.75566910603841,9.778660642496746,-2.5096893310546875,-0.3593444824218749,-0.043487548828125,-1.5271814858041155,-1.85357070550686,1.3509610804115852,-2.276829310825893,-4.450480143229167,-0.8592151460193452,2.078795744392842,-1.3165212488129143,0.7318309294871832,-22.8971585341956,-3.973382173382172,-5.760979197527418,31.25548866325217,41.463054482283525,36.67077006020308,1577399043.0,-27.71741783562944,-51.09941474697109,8.569921
3770,1577399043.1,0.2333149517822265,1.6921020233154296,10.990463010864255,0.3799189268530871,1.1999037978753808,9.577565777736757,0.250593107096354,0.754116518147786,11.685642264811197,-3.0132293701171875,-1.274871826171875,0.017547607421875,-3.205648282679116,1.4423277319931402,0.2523282679115852,-2.276829310825893,0.4628499348958332,0.4988170805431548,1.626883626046571,-0.6582606244064564,0.1626290954415977,-6.255786189119516,-15.843549043549045,1.3008662704094145,31.20756581903136,41.582861592835535,36.83850001497589,1577399043.0,-27.71741783562944,-51.09941474697109,8.569921
3771,1577399043.11,0.046567222290039,1.495777487182617,10.2985387310791,-0.0031533387719124,2.2533525283441307,11.186469293361757,0.3954423075358066,1.1180351704915354,10.678880466715494,-1.1821746826171875,1.593780517578125,0.017547607421875,-1.6797693764291155,-2.2502992211318595,0.9237149866615852,-2.124241420200893,6.718953450520833,0.7276989164806548,3.0730024047546407,-1.7867074091032429,0.1626290954415977,-6.255786189119516,-31.03736263736264,7.545024368374619,31.20756581903136,41.75059154760835,36.71869290442388,1577399043.0,-27.71741783562944,-51.09941474697109,8.569921
3772,1577399043.12,0.3075352032470703,1.0791863983154295,9.522817393188475,0.7198955625952741,1.525515223656631,8.67495175185785,0.6827465067545566,3.555332460530598,9.515298459879558,-2.1892547607421875,0.2204895019531251,-0.135040283203125,1.2804357016958845,-1.6094300805068598,0.8626798304115852,-2.124241420200893,7.970174153645833,-1.1338733491443451,1.9884133207235888,-3.2913031220322875,0.8131454772079753,-22.36034007145118,0.299877899877894,6.9503426447588845,31.20756581903136,41.55890017072513,36.81453859286549,1577399043.0,-27.71741783562944,-51.09941474697109,8.569921
3773,1577399043.13,0.4882974285888671,1.2814964385986327,9.71076222351074,-0.5011472840844123,1.1400487563714747,10.36525812392816,0.7809087748209629,-0.3448220438639321,10.274260386149088,-2.8148651123046875,-1.015472412109375,0.017547607421875,-2.930990079554116,-1.7925355492568598,0.8931974085365852,-1.2392316545758928,7.268269856770833,-1.957847958519345,2.1691781680620967,-2.539005265567765,0.6505163817663808,-23.433976996939982,0.299877899877894,7.0990130756628185,31.15964297481056,41.55890017072513,36.81453859286549,1577399043.0,-27.71741783562944,-51.09941474697109,8.569921
3774,1577399043.14,0.6906074688720703,1.4335282440185546,9.065524876098632,0.9461476194800396,0.9928053542718652,10.725585473781678,0.4062162150065102,2.220565034993489,10.378408158365884,-0.9990692138671876,0.1289367675781251,-0.318145751953125,-3.190389493616616,1.2592222632431405,0.0692227991615852,-2.124241420200893,9.602864583333334,0.3004528227306547,1.9884133207235888,-2.162856337335503,-0.4878872863247798,-18.60261083224048,-18.69238909238909,7.0990130756628185,31.447180040135382,41.55890017072513,36.790577170755085,1577399043.0,-27.71741783562944,-51.09941474697109,8.569921
3775,1577399043.15,0.8725667950439452,1.1749544647216796,9.139745127563476,0.4278029600562116,1.017944471703506,9.400394854885194,-0.1552240743001298,-0.0575178446451822,9.46262602335612,-1.3957977294921875,-0.1457214355468749,-0.165557861328125,0.5480138266958843,-3.1353089867568595,1.7171720179115852,-2.368382045200893,9.770711263020834,-0.6455920991443452,2.1691781680620985,-0.8463350885225869,-0.6505163817663776,-14.84488159302974,-31.986975986975985,6.9503426447588845,31.063797286368946,41.75059154760835,36.71869290442388,1577399043.0,-27.71741783562944,-51.09941474697109,8.569921
3776,1577399043.16,0.6810306622314453,1.4622586639404296,9.6090086529541,-0.6926834168969124,2.562204542504287,9.8816293885766,0.1225033182779941,0.806788954671223,10.238347361246744,-0.1140594482421875,1.654815673828125,-0.196075439453125,-1.923910001429116,2.2052671851181405,0.3133634241615852,-1.1781964983258928,7.176717122395833,-0.9812854585193452,2.530707862739113,-0.470186160290326,1.6262909544159574,-14.84488159302974,-27.23890923890924,6.9503426447588845,31.30341150747297,41.463054482283525,36.57492437176146,1577399043.0,-27.71741783562944,-51.09941474697109,8.569921
3777,1577399043.17,0.5517437725830078,1.3856442108154297,10.020811338500977,3.111703021091368,0.4505186782464747,11.397159039455506,1.1232796122233066,0.5362441670735668,10.446642905680338,-1.4415740966796875,1.242828369140625,-0.623321533203125,-3.510824063929116,5.7147886694931405,0.0387052210365852,-1.5138898577008928,6.474812825520833,-0.2793811616443452,2.349943015400606,-0.8463350885225869,0.4878872863247899,-19.13942929498485,-4.448188848188844,-4.94329182755579,31.351334351693776,41.463054482283525,36.81453859286549,1577399043.0,-27.71741783562944,-51.09941474697109,8.569921
3778,1577399043.18,0.2404975567626953,1.3066355560302734,10.047147556762694,0.0351538877905871,1.4632659804925685,9.718823675685975,0.4385379374186191,1.891362306722005,10.707610886637369,-1.1821746826171875,1.532745361328125,-0.257110595703125,1.0362950766958845,-2.93694472894436,0.4812101038490852,-1.8495832170758928,8.885701497395834,0.4225231352306547,3.0730024047546407,-2.539005265567764,0.1626290954415977,-6.255786189119516,-4.448188848188844,-7.322018722018729,31.30341150747297,41.534938748614735,36.76661574864468,1577399043.0,-27.71741783562944,-51.09941474697109,8.569921
3779,1577399043.19,0.1495178936767578,0.8493430389404296,9.671257896118163,1.4429444639624611,1.3651037124261622,10.362863922268003,1.3938243998209627,2.861013979085285,10.789013743082682,-0.1445770263671875,1.471710205078125,-0.226593017578125,-4.487386563929116,3.700628513243141,-0.2969881383384147,-0.6288800920758928,10.167439778645834,-1.5000842866443451,2.892237557416128,-2.350930801451634,0.6505163817663843,-6.255786189119516,-4.448188848188844,-7.322018722018729,31.111720130589752,41.463054482283525,36.81453859286549,1577399043.0,-27.71741783562944,-51.09941474697109,8.569921
3780,1577399043.2,0.228526548461914,1.265934127807617,10.224318479614256,0.0758553160132428,1.4225645522699122,11.641367608791445,0.3212220560709629,2.176272304280599,9.9342837504069,-1.3957977294921875,0.9223937988281252,-0.409698486328125,-1.984945157679116,3.1207945288681405,0.5880216272865852,-0.3847394670758928,7.970174153645833,-1.4390491303943451,1.4461187787080658,-1.974781873219373,0.9757745726495798,-40.61216780476041,-4.448188848188844,7.247683506566751,31.30341150747297,41.65474585916674,36.71869290442388,1577399043.0,-27.71741783562944,-51.09941474697109,8.569921
3781,1577399043.21,0.4823119244384765,1.0492588775634766,9.397121806030272,0.2003538023413683,1.1903269912347558,9.85529317031488,0.2805206278483071,1.3562582356770834,9.114269681803384,0.0080108642578123,0.632476806640625,-0.394439697265625,0.1512853110708841,0.5268003882431402,0.3438810022865852,-0.1100812639508928,4.079182942708333,-0.9812854585193452,1.2653539313695583,-1.5986329449871102,0.813145477207982,-29.60738931850044,-3.26117216117216,8.474214561524203,31.27945008536257,41.55890017072513,36.742654326534286,1577399043.0,-27.71741783562944,-51.09941474697109,8.569921
3782,1577399043.22,0.0633266339111328,1.7758990814208984,9.695199912719726,-0.3551009828148811,2.7393754653558497,9.649391827541445,-1.057838100179036,-0.3113032206217447,8.148209311930339,1.3507843017578125,2.570343017578125,-0.257110595703125,-0.8252771889291157,-0.8159730492568598,-0.5716463414634148,-0.1100812639508928,-1.4597574869791667,1.4296032133556549,2.530707862739113,-2.350930801451634,0.0,-23.433976996939982,-29.13813593813593,9.626410401029688,31.25548866325217,41.55890017072513,36.71869290442388,1577399043.0,-27.71741783562944,-51.09941474697109,8.569921
3783,1577399043.23,0.1878251202392578,1.1701660614013671,9.78139117248535,0.4325913633765241,0.7833127090081935,9.338145611721131,2.1408153177897127,2.6982082661946607,10.6238138285319,-1.2737274169921875,-0.1457214355468749,-0.104522705078125,-0.3369959389291157,6.8134214819931405,-0.4495760289634147,0.1340593610491072,-2.1921793619791665,0.1783825102306547,1.4461187787080658,-1.5986329449871084,0.0,-23.433976996939982,-29.13813593813593,9.626410401029688,31.30341150747297,41.463054482283525,36.71869290442388,1577399043.0,-27.71741783562944,-51.09941474697109,8.569921
3784,1577399043.24,0.3877409588623046,1.3688847991943358,9.298959537963864,0.1835943907202741,0.4313650649652247,12.845651043850037,0.0818018900553378,0.1004994649251293,9.852880893961588,0.9540557861328124,0.983428955078125,0.032806396484375,-2.869954923304116,-0.8464906273818598,-0.6326814977134148,-0.2321515764508928,-0.8494059244791667,-0.4930042085193452,2.892237557416128,-3.855526514380679,0.3252581908831954,-14.30806313028537,-30.56255596255596,9.403404754673788,31.25548866325217,41.55890017072513,36.71869290442388,1577399043.0,-27.71741783562944,-51.09941474697109,8.569921
3785,1577399043.25,0.400909067993164,0.7583633758544921,10.001657725219726,0.3068957762183215,2.2330018142328028,9.043658807521911,0.6384537760416665,2.0038897847493486,10.501709543863932,1.4118194580078125,0.4951477050781251,0.139617919921875,1.2041417563833845,-0.0072572289443599,0.2523282679115852,0.6223406110491072,3.850301106770833,0.1478649321056547,2.1691781680620985,-1.2224840167548476,-0.3252581908831888,-10.55033389107465,-26.28929588929589,8.139706091990352,31.25548866325217,41.55890017072513,36.76661574864468,1577399043.0,-27.71741783562944,-51.09941474697109,8.569921
3786,1577399043.26,0.3697844464111328,0.7966706024169922,11.071865867309567,2.4700569761694924,-0.0618404770269617,12.263860040432068,1.5805721293131505,0.739751308186848,10.705216684977213,0.1605987548828124,0.3425598144531251,0.139617919921875,-1.3440760170541155,2.7851011694931405,-0.1138826695884147,1.3242449079241072,4.796346028645833,-0.6150745210193452,1.9884133207235888,-2.915154193800025,-0.4878872863247798,-10.01351542833026,-23.915262515262512,8.214041307442319,31.20756581903136,41.31928594962111,36.86246143708629,1577399043.0,-27.71741783562944,-51.09941474697109,8.569921
3787,1577399043.27,0.4918887310791015,1.5676035369873047,11.706329307250977,-0.3335531678734749,1.1759617812738183,10.413142157131286,0.8575232279459628,0.4548413106282543,9.419530393473307,1.2897491455078125,0.2204895019531251,0.017547607421875,1.5550939048208845,-3.0132386742568595,0.2218106897865852,0.7138933454241072,2.965291341145833,0.0257946196056547,1.9884133207235888,-0.6582606244064564,-0.162629095441591,-23.433976996939982,-1.5993487993488031,-5.835314412979392,31.30341150747297,41.75059154760835,36.57492437176146,1577399043.0,-27.71741783562944,-51.09941474697109,8.569921
3788,1577399043.28,0.754053812866211,1.5891513519287108,9.458173948364257,-0.1468054383812874,2.614876979027725,10.918318707424255,-0.8567251607259111,2.023043398030599,8.097931077067058,1.4423370361328125,2.143096923828125,-0.272369384765625,3.874429842320884,2.2357847632431405,-0.7852693883384148,1.4768327985491072,-1.1240641276041667,-0.4624866303943452,1.084589084031051,-1.974781873219373,1.6262909544159574,-18.06579236949609,-4.448188848188844,-4.794621396651859,31.25548866325217,41.463054482283525,36.67077006020308,1577399043.0,-27.71741783562944,-51.09941474697109,8.569921
3789,1577399043.29,0.3937264630126952,1.3473369842529297,8.641751182250976,-0.3562980836449598,1.1101212356195216,9.425533972316831,-0.3335920979817709,0.846293282063802,10.28024589029948,0.5573272705078125,0.4341125488281251,-0.043487548828125,1.0973302329458845,1.2592222632431405,0.1607755335365852,1.4463152204241072,-1.4597574869791663,0.4072643461681547,2.1691781680620985,-2.350930801451634,0.6505163817663843,-32.55989086359458,-3.4985754985754958,0.0371676077259826,31.20756581903136,41.60682301494594,36.83850001497589,1577399043.0,-27.71741783562944,-51.09941474697109,8.569921
3790,1577399043.3,0.180642515258789,1.225232699584961,9.618585459594726,2.6208916807593363,0.8886575820550684,10.6094666932641,1.860693723551432,0.7541165181477855,9.74993022257487,1.1066436767578125,1.074981689453125,-0.226593017578125,-1.801839688929116,8.46137070074314,-1.0294100133384148,0.4392351422991072,1.7445882161458333,0.6361461821056548,2.530707862739113,-1.974781873219373,-0.6505163817663776,-29.875798549872645,-4.448188848188844,6.9503426447588845,31.447180040135382,41.55890017072513,36.67077006020308,1577399043.0,-27.71741783562944,-51.09941474697109,8.569921
3791,1577399043.31,0.6666654522705078,1.4215572357177733,9.146927732543944,-0.1324402284203499,1.9133758926019435,11.545599542385194,0.0746192850748691,3.677436745198567,7.683734189860026,1.7169952392578125,1.624298095703125,0.109100341796875,1.0057774985708845,-3.98980117425686,0.3743985804115852,1.0190691266741072,0.8595784505208333,-0.8897327241443452,2.7114727100776186,-3.2913031220322875,-0.162629095441591,-4.108512338141983,-4.448188848188844,6.9503426447588845,31.20756581903136,41.65474585916674,36.57492437176146,1577399043.0,-27.71741783562944,-51.09941474697109,8.569921
3792,1577399043.32,0.003471592407227,0.881664761352539,9.275017521362305,-0.3850285035668347,1.4704485854730371,8.720441583400818,0.7042943216959628,-0.3065148173014321,9.44945791422526,1.5796661376953125,1.883697509765625,-0.028228759765625,2.2264806235708843,2.5562193335556405,-0.4800936070884147,1.8583025251116072,-2.741495768229167,-1.3627551850818451,3.253767252093146,-3.479377586148418,0.0,-5.182149263630755,-4.448188848188844,6.9503426447588845,31.15964297481056,41.582861592835535,36.910384281307095,1577399043.0,-27.71741783562944,-51.09941474697109,8.569921
3793,1577399043.33,-0.2287659686279286,1.3856442108154297,10.897089146118162,2.5275178160132428,0.6875446426019435,9.034082000881288,0.7066885233561191,2.817918349202473,10.001321396891276,1.6559600830078125,0.9834289550781252,-0.043487548828125,-1.3135584389291155,3.944769138243141,0.0387052210365852,2.514430454799107,-3.2908121744791665,0.3614879789806547,2.530707862739113,-3.103228657916157,0.0,-5.182149263630755,-31.03736263736264,6.9503426447588845,31.25548866325217,41.60682301494594,36.57492437176146,1577399043.0,-27.71741783562944,-51.09941474697109,8.569921
3794,1577399043.34,0.209372935180664,0.9786299285888672,10.322480747680665,-0.8578833314476936,0.950906825219131,10.36765232558832,1.5997257425944005,1.3742147481282552,10.233558957926432,1.4423370361328125,0.2204895019531251,0.017547607421875,1.0362950766958845,-5.21050429925686,-0.7547518102134148,1.7820085797991072,-3.5044352213541665,-0.4319690522693452,1.626883626046571,-1.7867074091032429,0.4878872863247865,-5.182149263630755,-31.03736263736264,6.9503426447588845,31.20756581903136,41.463054482283525,36.71869290442388,1577399043.0,-27.71741783562944,-51.09941474697109,8.569921
3795,1577399043.35,0.6834248638916015,1.7878700897216795,8.957785801391601,-0.8961905580101936,2.648395802269913,9.879235186916445,0.1320801249186191,1.323936513264974,10.020475010172524,3.792190551757813,3.058624267578125,-0.379180908203125,4.667886873570884,1.0761167944931402,-0.2664705602134147,1.7820085797991072,-2.3447672526041665,0.8192516508556548,2.349943015400604,-1.410558480870978,1.1384036680911775,-20.213066220473635,-33.88620268620268,-4.199939673036125,31.111720130589752,41.79851439182916,36.81453859286549,1577399043.0,-27.71741783562944,-51.09941474697109,8.569921
3796,1577399043.36,-0.1282094989013661,1.3066355560302734,9.69160861022949,0.1692291807593371,1.228634217797256,9.699670062404724,0.6815494059244785,1.521458150227864,10.410729880777994,1.7169952392578125,0.7392883300781251,-0.440216064453125,1.5093175376333845,1.0608580054306402,-0.7089754430259148,1.6904558454241072,-0.2237955729166667,-0.5692981538318452,3.253767252093146,-1.974781873219373,0.9757745726495798,-25.58125084791753,-3.4985754985754958,-6.504331352047089,31.27945008536257,41.60682301494594,36.76661574864468,1577399043.0,-27.71741783562944,-51.09941474697109,8.569921
3797,1577399043.37,0.1758541119384765,1.5460557220458984,10.238683689575195,1.2585909361304302,0.9556952285394434,10.547217450100035,1.5853605326334628,1.5394146626790364,9.359675351969402,1.0456085205078125,-1.702117919921875,-0.165557861328125,1.5550939048208845,0.8930113257431402,-0.8157869664634148,2.239772251674107,-0.3306070963541667,-0.2793811616443452,2.349943015400604,0.0940372320580652,0.4878872863247865,-40.61216780476041,-4.448188848188844,-5.983984843883323,31.447180040135382,41.65474585916674,36.67077006020308,1577399043.0,-27.71741783562944,-51.09941474697109,8.569921
3798,1577399043.38,0.8198943585205077,2.36247848815918,9.508452183227538,-0.8052108949242561,2.444888661156631,9.398000653225038,-0.5382963399251298,4.359784218343098,9.364463755289714,2.7545928955078125,1.136016845703125,-0.287628173828125,3.782877107945884,-2.9827210961318595,0.0387052210365852,1.7820085797991072,-1.2461344401041667,-0.8286975678943452,3.253767252093146,-2.7270797296838944,1.951549145299146,-40.61216780476041,-4.448188848188844,-5.983984843883323,31.30341150747297,41.75059154760835,36.71869290442388,1577399043.0,-27.71741783562944,-51.09941474697109,8.569921
3799,1577399043.39,0.4559757061767577,1.218050094604492,8.973348112182617,0.3799189268530866,1.6619847182855372,9.67812224746332,-1.4002089375813798,0.6966556783040355,9.606278122965495,1.5644073486328125,-0.572967529296875,-0.241851806640625,2.6232091391958843,1.83905624761814,0.0692227991615852,2.087184361049107,-3.3823649088541665,-0.4014514741443452,2.349943015400606,-1.7867074091032409,0.3252581908831954,-32.02307240085019,-4.448188848188844,7.842365230182486,31.27945008536257,41.463054482283525,36.81453859286549,1577399043.0,-27.71741783562944,-51.09941474697109,8.569921
3800,1577399043.4,0.0729034405517578,1.244386312866211,9.498875376586913,1.4704777830542584,0.8563358596429591,8.721638684230898,1.3591084757486973,2.556950368245442,10.22158794962565,1.7169952392578125,-0.9391784667968748,-0.287628173828125,0.9600011313833844,1.9306089819931405,-0.3885408727134147,2.346583775111607,-2.4058024088541665,-0.4930042085193452,2.892237557416128,-1.2224840167548476,0.3252581908831954,-25.312841616545327,-13.232112332112337,9.366237146947803,31.063797286368946,41.60682301494594,36.59888579387187,1577399043.0,-27.71741783562944,-51.09941474697109,8.569921
3801,1577399043.41,0.621175620727539,1.704073031616211,9.735901340942382,-1.0278716493187874,1.4201703506097558,10.4562377870141,0.0674366800944003,0.0190966084798168,10.0492054300944,3.0292510986328125,0.3120422363281251,-0.562286376953125,2.4401036704458843,-4.44756484613186,-1.0294100133384148,1.4463152204241072,-1.4292399088541667,-0.0352405366443452,0.7230593893540329,-1.5986329449871084,0.9757745726495798,-27.191706236150686,-28.66332926332926,9.403404754673788,31.20756581903136,41.65474585916674,36.71869290442388,1577399043.0,-27.71741783562944,-51.09941474697109,8.569921
3802,1577399043.42,0.3673902447509765,1.8189947113037108,9.92264907043457,-0.7070486268578499,2.847114540062881,11.447437274318789,-0.6627948262532548,1.259293068440755,9.38601157023112,3.0597686767578125,1.624298095703125,-0.348663330078125,3.2335607016958843,1.1066343726181402,0.0692227991615852,0.8664812360491072,-3.2297770182291665,0.7276989164806548,2.892237557416128,-1.974781873219373,0.6505163817663843,-18.60261083224046,-34.36100936100936,9.403404754673788,31.20756581903136,41.75059154760835,36.71869290442388,1577399043.0,-27.71741783562944,-51.09941474697109,8.569921
3803,1577399043.43,-0.0372298358154291,1.4490905548095705,10.23509238708496,-0.0893445985375374,0.6564200210199123,10.29103787246332,-0.1671950826009111,2.1235998677571613,10.223982151285806,1.5491485595703125,-0.542449951171875,-0.028228759765625,1.7992345298208845,-0.5718324242568598,0.7711270960365852,1.6904558454241072,-2.3447672526041665,-0.5235217866443452,3.0730024047546367,-1.5986329449871104,0.4878872863247899,-19.13942929498485,-26.28929588929589,8.139706091990352,31.183604396920963,41.65474585916674,36.71869290442388,1577399043.0,-27.71741783562944,-51.09941474697109,8.569921
3804,1577399043.44,0.4248510845947265,1.9195511810302728,10.351211167602536,1.5411067320288676,1.6548021133050683,8.629461920314881,0.849143522135416,1.3526669331868484,10.749509415690104,1.3507843017578125,-0.6034851074218749,-0.012969970703125,-0.5963953529916157,2.9224302710556405,-0.2817293492759147,1.7057146344866072,-0.4526774088541667,0.2089000883556547,2.530707862739113,-0.8463350885225869,0.9757745726495798,-18.60261083224046,-3.973382173382172,7.173348291114784,31.30341150747297,41.60682301494594,36.790577170755085,1577399043.0,-27.71741783562944,-51.09941474697109,8.569921
3805,1577399043.45,0.5661089825439453,1.4885948822021484,9.824486802368163,-0.7597210633812874,1.2406052260980371,11.636579205471133,0.6324682718912754,0.9839598775227856,9.55839408976237,0.7709503173828125,-0.6340026855468749,0.017547607421875,1.4940587485708845,-2.3418519555068595,-0.6937166539634148,1.4768327985491072,3.331502278645833,-0.5235217866443452,2.530707862739113,-0.8463350885225869,0.9757745726495798,-5.718967726375147,-3.973382173382172,7.173348291114784,31.30341150747297,41.463054482283525,36.67077006020308,1577399043.0,-27.71741783562944,-51.09941474697109,8.569921
3806,1577399043.46,1.3107056988525392,1.553238327026367,7.7199835430908195,0.0351538877905866,1.767329591332412,10.32934509902582,0.0075816385904941,0.8020005513509104,9.814573667399088,1.8390655517578125,0.4035949707031251,-0.012969970703125,2.3485509360708843,-1.7620179711318598,0.0997403772865852,0.9885515485491072,5.315144856770833,0.0868297758556547,1.2653539313695563,-3.667452050264546,-0.4878872863247798,-5.718967726375147,-3.973382173382172,7.470689152922654,31.30341150747297,41.55890017072513,36.52700152754066,1577399043.0,-27.71741783562944,-51.09941474697109,8.569921
3807,1577399043.47,0.3685873455810546,1.389235513305664,9.480918864135742,0.7055303526343366,1.812819422875381,9.682910650783631,-0.2797225606282549,2.691025661214192,9.084342161051431,0.9845733642578124,0.998687744140625,-0.012969970703125,1.6466466391958845,2.2968199194931405,0.4964688929115852,1.3242449079241072,5.009969075520833,-1.4085315522693451,3.524914523100908,-2.82111696174196,0.2439436431623999,-6.255786189119516,-3.4985754985755,-4.794621396651859,31.32737292958337,41.60682301494594,36.81453859286549,1577399043.0,-27.71741783562944,-51.09941474697109,8.569921
3808,1577399043.48,0.6858190655517578,1.7878700897216795,9.805333189086912,1.754190679782774,1.160399470482803,9.480600610500428,0.6312711710611972,0.1076820699055985,9.978576481119791,1.6559600830078125,1.776885986328125,-0.409698486328125,-1.435628751429116,3.792181247618141,-1.0599275914634148,1.3089861188616072,2.354939778645833,-0.4624866303943452,3.0730024047546407,-2.915154193800025,0.4878872863247865,-27.996933930267275,-3.735978835978836,7.730862407004535,31.30341150747297,41.582861592835535,36.76661574864468,1577399043.0,-27.71741783562944,-51.09941474697109,8.569921
3809,1577399043.49,0.534984360961914,2.032078659057617,9.716747727661131,-1.1380049256859748,1.1472313613519434,9.675728045803163,-0.1432530659993486,2.7245444844563798,8.15299771525065,0.4962921142578124,1.563262939453125,-0.348663330078125,3.2945958579458843,-7.04155898675686,0.2523282679115852,0.0119890485491072,-2.3752848307291665,0.1478649321056547,3.0730024047546407,-2.915154193800025,0.4878872863247865,-4.645330800886364,1.7242979242979288,7.619359583826587,31.25548866325217,41.463054482283525,36.81453859286549,1577399043.0,-27.71741783562944,-51.09941474697109,8.569921
3810,1577399043.5,0.9587580548095702,1.4167688323974608,8.04559496887207,-1.5186829896508185,2.1336424453363185,7.901624615627382,-0.3922500386555986,2.626382216389973,8.679722080485025,1.1676788330078125,2.967071533203125,-0.501251220703125,0.7311192954458843,2.0831968726181405,-0.2054354039634147,0.3476824079241072,-3.1992594401041665,0.0868297758556547,2.1691781680620985,-1.974781873219373,0.6505163817663843,-4.645330800886364,1.7242979242979288,7.619359583826587,31.01587444214814,41.463054482283525,36.71869290442388,1577399043.0,-27.71741783562944,-51.09941474697109,8.569921
3811,1577399043.51,-0.0420182391357416,1.360505093383789,10.091440287475583,1.6416632017554302,1.1089241347894434,9.1537920838891,0.5965552469889316,4.55610875447591,8.624655442301432,-0.1445770263671875,0.1136779785156251,-0.119781494140625,0.1207677329458842,4.7687437476181405,0.4049161585365852,1.2937273297991072,-6.037394205729167,-1.6526721772693451,2.1691781680620985,-1.7867074091032409,-0.4878872863247832,-16.455336981262917,-33.41139601139601,7.470689152922654,31.23152724114176,41.463054482283525,36.71869290442388,1577399043.0,-27.71741783562944,-51.09941474697109,8.569921
3812,1577399043.52,-0.0156820208740224,2.214037985229492,10.31050973937988,0.0076205686987902,1.354329804955459,8.344551922756287,0.9568825968424473,0.198661732991536,9.885202616373697,1.9611358642578125,1.410675048828125,-0.043487548828125,-0.7489832436166157,0.2674009741806402,-0.3275057164634147,0.4392351422991072,-6.586710611979167,-0.2183460053943452,2.1691781680620985,-1.974781873219373,-0.3252581908831888,-18.06579236949609,-31.03736263736264,6.9503426447588845,31.25548866325217,41.55890017072513,36.742654326534286,1577399043.0,-27.71741783562944,-51.09941474697109,8.569921
3813,1577399043.53,0.4033032696533202,2.249951010131836,10.202770664672853,-1.3750308900414436,1.448900770531631,11.35645761123285,0.3595292826334629,2.3654142354329424,9.675709971110027,1.0456085205078125,1.593780517578125,-0.409698486328125,1.8907872641958845,-1.82305312738186,1.0763028772865852,-0.7814679827008928,-4.633585611979167,1.7958141508556549,2.1691781680620985,-1.974781873219373,-0.3252581908831888,-22.8971585341956,-34.36100936100936,-4.868956612103822,31.20756581903136,41.65474585916674,36.67077006020308,1577399043.0,-27.71741783562944,-51.09941474697109,8.569921
3814,1577399043.54,0.0130483990478515,0.7918821990966797,8.833287315063476,0.4254087583960553,1.9157700942621,7.082807647853945,0.5438828104654941,2.240915749104817,9.223205857340496,-0.9075164794921876,-0.5119323730468749,-0.165557861328125,2.2264806235708843,-1.7315003930068598,0.2218106897865852,-0.3237043108258928,-2.9246012369791665,0.2089000883556547,1.9884133207235888,-2.539005265567764,1.1384036680911775,-21.2867031459624,-4.448188848188844,-4.94329182755579,31.39925719591458,41.60682301494594,36.71869290442388,1577399043.0,-27.71741783562944,-51.09941474697109,8.569921
3815,1577399043.55,-0.0815225665283198,0.988206735229492,9.575489829711913,1.3950604307593364,0.5534693496331935,9.53566724868402,2.00195162150065,1.829113063557943,10.589097904459637,-1.2737274169921875,-1.107025146484375,-0.226593017578125,-1.878133634241616,-0.6176087914443595,-0.1444002477134147,0.5918230329241072,1.5309651692708333,-0.5845569428943452,1.80764847338508,-1.5986329449871104,0.9757745726495765,-16.18692774989073,-15.606145706145703,0.4460112927117947,31.27945008536257,41.43909306017312,36.64680863809267,1577399043.0,-27.71741783562944,-51.09941474697109,8.569921
3816,1577399043.56,0.927633433227539,1.8932149627685544,9.364800083618164,-2.054984161525818,1.4034109389886622,10.599889886623474,0.1368685282389316,0.0837400533040355,10.326932822672523,0.8930206298828125,-0.0236511230468748,-0.287628173828125,0.5174962485708843,-1.3042542992568598,-0.3885408727134147,-0.2321515764508928,3.514607747395833,-0.6761096772693452,2.349943015400604,-1.0344095526387171,1.1384036680911775,-14.84488159302974,-27.23890923890924,8.288376522894284,31.30341150747297,41.60682301494594,36.52700152754066,1577399043.0,-27.71741783562944,-51.09941474697109,8.569921
3817,1577399043.57,0.6666654522705078,2.412756723022461,11.23706578186035,1.9361500059546488,1.5757934585199125,12.390752728420347,0.2422134012858066,2.353443227132161,10.33650962931315,0.7404327392578125,0.5867004394531251,-0.074005126953125,1.2194005454458845,2.3273374976181405,1.0457852991615852,-1.4223371233258928,4.613240559895833,-0.5540393647693452,2.349943015400604,-1.0344095526387171,1.1384036680911775,-32.02307240085019,-4.448188848188844,9.329069539221818,31.20756581903136,41.55890017072513,36.71869290442388,1577399043.0,-27.71741783562944,-51.09941474697109,8.569921
3818,1577399043.58,0.2321178509521489,1.0911574066162109,10.485286460571288,1.1101504332007428,1.219057411156631,6.029358917385195,-0.2174733174641923,1.3957625630696613,8.674933677164713,-0.8922576904296875,0.3120422363281251,-0.150299072265625,1.0668126548208845,-3.68462539300686,1.8697599085365848,-0.8425031389508928,4.369099934895833,-1.5000842866443451,2.4403254390698583,-2.63304249762583,0.2439436431623965,-23.433976996939982,-2.548962148962147,9.329069539221818,31.135681552700152,41.65474585916674,36.71869290442388,1577399043.0,-27.71741783562944,-51.09941474697109,8.569921
3819,1577399043.59,-0.2287659686279286,1.725620846557617,11.835616196899412,0.5247681272925397,1.8511266494378809,10.261110351711364,1.5123373819986972,0.7205976949055989,9.368055057779948,-0.6633758544921875,0.3730773925781251,-0.440216064453125,-1.908651212366616,3.2276060523056405,-0.2664705602134147,-0.7967267717633928,-1.154581705729167,-0.0810169038318452,1.2653539313695563,-2.539005265567764,-0.162629095441591,-18.06579236949609,-2.548962148962147,9.329069539221818,31.25548866325217,41.55890017072513,36.694731482313486,1577399043.0,-27.71741783562944,-51.09941474697109,8.569921
3820,1577399043.6,0.1734599102783203,2.0177134490966795,10.071089573364256,-1.1858889588891,0.261376747094131,11.842480548244568,-0.9285512105305986,3.200990614827473,9.14419720255534,0.8625030517578125,2.204132080078125,-0.562286376953125,-0.6116541420541157,-3.4710023461318595,0.3743985804115852,-1.2087140764508928,-4.877726236979167,1.1244274321056549,2.7114727100776186,-1.410558480870978,0.8131454772079753,-16.455336981262917,-26.76410256410256,7.916700445634452,31.447180040135382,41.55890017072513,36.71869290442388,1577399043.0,-27.71741783562944,-51.09941474697109,8.569921
3821,1577399043.61,0.0393846173095703,1.7471686614990234,9.8771592388916,-1.734161139064881,1.9492889175042871,10.305403082424256,0.7952739847819004,1.876997096761068,10.032446018473308,0.3131866455078124,1.654815673828125,-0.135040283203125,2.3180333579458843,-1.6704652367568598,1.4119962366615852,-1.0256086077008928,-3.1992594401041665,1.3380504789806549,2.7114727100776186,-1.410558480870978,0.8131454772079753,-14.84488159302974,-34.83581603581603,7.545024368374619,31.25548866325217,41.65474585916674,36.81453859286549,1577399043.0,-27.71741783562944,-51.09941474697109,8.569921
3822,1577399043.62,-0.1713051287841787,1.1605892547607422,10.764210953979491,2.462874371189024,1.5231210219964746,7.212094537502382,0.4529031473795566,2.082898439534505,9.99892719523112,-1.3500213623046875,-0.5882263183593748,0.002288818359375,-0.1844080483041157,5.0434019507431405,0.7100919397865852,-0.5678449358258928,-0.4526774088541667,-0.0962756928943452,2.349943015400606,-1.7867074091032409,3.302913498259841e-15,-14.84488159302974,-34.83581603581603,7.545024368374619,31.23152724114176,41.65474585916674,36.81453859286549,1577399043.0,-27.71741783562944,-51.09941474697109,8.569921
3823,1577399043.63,-0.0851138690185537,1.502960092163086,10.959338389282223,0.657646319431212,1.1759617812738183,10.311388586574646,1.136447721354166,2.953190743001301,10.480161728922525,-0.7854461669921875,0.3120422363281251,-0.440216064453125,-2.763143399866616,-0.7244203148818598,0.1760343225990852,-0.6288800920758928,1.0426839192708333,-0.4624866303943452,4.157591488785688,-2.915154193800025,0.8131454772079753,-22.36034007145118,-3.4985754985755,-5.983984843883323,31.20756581903136,41.60682301494594,36.64680863809267,1577399043.0,-27.71741783562944,-51.09941474697109,8.569921
3824,1577399043.64,0.3985148663330077,1.6921020233154296,9.975321506958007,-0.1084982118187874,1.3267964858636625,9.967820648342224,1.1017317972819003,-0.4597437235514321,10.970973069254557,-0.1140594482421875,-0.0846862792968748,-0.409698486328125,-0.5201014076791157,1.7780210913681402,0.1302579554115852,-0.6593976702008928,-0.2695719401041667,-0.4624866303943452,2.1691781680620985,-2.350930801451634,0.0,-16.99215544400731,-3.4985754985755,6.9503426447588845,31.25548866325217,41.463054482283525,36.57492437176146,1577399043.0,-27.71741783562944,-51.09941474697109,8.569921
3825,1577399043.65,0.8103175518798827,1.2012906829833985,9.616191257934569,0.777356402439024,0.9892140517816308,11.3373039979516,-0.7418034810384111,1.0342381123860669,10.06835904337565,-1.4263153076171875,-0.2372741699218749,-0.318145751953125,1.7381993735708845,-0.6328675805068598,1.0152677210365852,-0.4152570452008928,-0.0559488932291666,0.5751110258556548,2.1691781680620985,-2.350930801451634,0.0,-23.433976996939982,0.299877899877894,-4.94329182755579,31.39925719591458,41.75059154760835,36.81453859286549,1577399043.0,-27.71741783562944,-51.09941474697109,8.569921
3826,1577399043.66,0.2033874310302734,1.3210007659912109,9.892721549682616,0.8384085447730089,1.6583934157953029,7.935143438869569,0.1081381083170571,0.4859659322102855,9.676907071940104,-0.7549285888671875,-0.481414794921875,-0.165557861328125,-0.2607019936166155,-1.1821839867568595,0.5880216272865852,-0.4762922014508928,0.4475911458333332,0.3767467680431547,2.078795744392842,-2.256893569393569,0.4065727386039876,-6.255786189119516,-33.41139601139601,8.139706091990352,31.20756581903136,41.51097732650433,36.69473148231347,1577399043.0,-27.71741783562944,-51.09941474697109,8.569921
3827,1577399043.67,-0.4011484881591787,1.553238327026367,11.196364353637694,0.8180578306616804,1.690715138207412,10.700446356350035,1.7673198588053378,2.353443227132161,9.089130564371745,1.0456085205078125,1.319122314453125,-0.440216064453125,-3.480306485804116,3.0902769507431405,-0.3885408727134147,-0.8730207170758928,-1.6123453776041667,-0.8897327241443452,2.892237557416128,-3.103228657916157,0.9757745726495798,-6.255786189119516,-33.88620268620268,8.139706091990352,31.20756581903136,41.60682301494594,36.81453859286549,1577399043.0,-27.71741783562944,-51.09941474697109,8.569921
3828,1577399043.68,0.448793101196289,1.6466121917724608,9.946591087036133,-0.8195761048851936,0.6205069961175684,10.010916278225038,1.147221628824869,1.716585585530599,9.658950559488932,-1.2737274169921875,-0.2677917480468749,-0.440216064453125,-2.015462735804116,-0.6633851586318598,0.2218106897865852,-0.6593976702008928,-2.9551188151041665,-1.2559436616443451,1.2653539313695563,-1.410558480870978,0.1626290954415977,-22.36034007145118,-29.13813593813593,7.247683506566751,31.111720130589752,41.60682301494594,36.57492437176146,1577399043.0,-27.71741783562944,-51.09941474697109,8.569921
3829,1577399043.69,0.7025784771728515,1.3473369842529297,8.203612278442382,-0.0941330018578499,2.0259033706292877,10.480179803615664,0.0411004618326816,1.3335133199055988,9.364463755289714,-0.6938934326171875,1.410675048828125,-0.562286376953125,2.4401036704458843,-0.3582093773818597,0.6490567835365852,0.2561296735491072,-5.732218424479167,-0.5235217866443452,1.2653539313695563,-1.410558480870978,0.1626290954415977,-19.676247757729243,-31.51216931216931,7.322018722018717,31.20756581903136,41.75059154760835,36.81453859286549,1577399043.0,-27.71741783562944,-51.09941474697109,8.569921
3830,1577399043.7,0.2979583966064452,1.4047978240966796,9.709565122680663,1.0467040892066026,1.9828077407464744,8.98739506850824,0.2877032328287758,0.3674529500325521,9.613460727945965,-0.6481170654296875,-0.2372741699218749,-0.257110595703125,-1.2220057045541155,-0.8922669945693598,0.5880216272865852,-0.5831037248883928,-7.837931315104167,0.2089000883556547,1.807648473385084,-2.350930801451634,1.3010327635327652,-12.160789279307805,-30.56255596255596,7.693694799278552,31.375295773804176,41.534938748614735,36.67077006020308,1577399043.0,-27.71741783562944,-51.09941474697109,8.569921
3831,1577399043.71,-0.1329979022216787,1.2132616912841796,9.810121592407226,0.3703421202124616,1.0969531264886625,8.12667957168207,1.2741143168131503,0.758904921468098,9.752324424235027,-0.5107879638671875,0.1899719238281251,-0.562286376953125,-3.022542813929116,0.7099058569931402,-0.2969881383384147,-0.9035382952008928,-5.457560221354167,0.2089000883556547,1.9884133207235888,-1.7867074091032429,1.1384036680911775,-23.433976996939982,-31.03736263736264,-4.794621396651859,31.30341150747297,41.55890017072513,36.71869290442388,1577399043.0,-27.71741783562944,-51.09941474697109,8.569921
3832,1577399043.72,0.2141613385009765,2.039261264038086,10.212347471313477,-1.1763121522484747,1.4919964004144437,11.887970379787538,0.7928797831217441,2.36062583211263,11.30137289835612,-0.1140594482421875,0.8003234863281251,-0.592803955078125,-1.1304529701791155,-0.0225160180068597,-0.7547518102134148,-0.1405988420758928,-3.748575846354168,0.0868297758556547,2.530707862739113,-2.7270797296838944,0.3252581908831954,-19.13942929498485,-0.6497354497354497,-7.1733482911147926,31.20756581903136,41.55890017072513,36.81453859286549,1577399043.0,-27.71741783562944,-51.09941474697109,8.569921
3833,1577399043.73,0.2524685650634765,2.0081366424560545,9.66646949279785,0.0519132994116803,1.209480604516006,9.290261578518006,0.1105323099772128,0.5553977803548168,9.99174459025065,-1.7620086669921875,-1.122283935546875,-0.287628173828125,-0.6726892983041157,0.1605894507431402,0.4049161585365852,-1.1476789202008928,-1.5513102213541667,0.0563121977306547,2.530707862739113,-2.7270797296838944,0.3252581908831954,-38.46489395378285,-3.4985754985755,-5.537973551171519,31.39925719591458,41.55890017072513,36.57492437176146,1577399043.0,-27.71741783562944,-51.09941474697109,8.569921
3834,1577399043.74,0.7504625103759764,1.304241354370117,8.659707694702147,0.652857916110899,1.6631818191156154,9.137032672268006,-0.778913606770833,1.4616031087239578,9.559591190592448,-1.3805389404296875,-1.747894287109375,-0.135040283203125,-0.7184656654916156,-1.3652894555068595,1.1983731897865852,0.0577654157366072,-0.7578531901041666,-0.9965442475818452,1.80764847338508,-1.9747818732193712,0.6505163817663808,-40.61216780476041,-3.4985754985755,-5.537973551171519,31.25548866325217,41.60682301494593,36.790577170755085,1577399043.0,-27.71741783562944,-51.09941474697109,8.569921
3835,1577399043.75,0.410485874633789,1.1366472381591797,9.029611851196288,-0.7285964417992561,2.148007655297256,8.986197967678162,-0.3156355855305986,1.508290041097005,9.958225767008464,-0.2361297607421875,-0.4508972167968749,-0.226593017578125,-1.2830408608041155,1.3202574194931402,0.5269864710365852,0.6528581891741072,-2.2837320963541665,-0.7981799897693452,2.7114727100776186,-2.162856337335503,1.4636618589743662,-30.949435475361405,-4.448188848188844,6.9503426447588845,31.39925719591458,41.55890017072513,36.81453859286549,1577399043.0,-27.71741783562944,-51.09941474697109,8.569921
3836,1577399043.76,0.1950077252197265,2.015319247436523,9.134956724243164,0.4828695982398053,1.1208951430902248,11.971767437893003,-0.2078965108235674,-0.6608566630045571,9.177716025797526,0.3437042236328124,-0.3593444824218749,0.170135498046875,-1.832357267054116,2.9682066382431405,-0.6937166539634148,-0.9645734514508928,-2.5278727213541665,0.0563121977306547,1.626883626046571,-2.539005265567764,0.1626290954415977,-27.191706236150686,-2.074155474155475,7.916700445634452,31.20756581903136,41.65474585916674,36.71869290442388,1577399043.0,-27.71741783562944,-51.09941474697109,8.569921
3837,1577399043.77,0.5337872601318359,1.5652093353271483,8.95898290222168,-0.4628400575219124,0.912599598656631,8.938313934475039,1.5063518778483065,1.3718205464680988,10.121031479899088,-0.3276824951171875,-1.000213623046875,-0.424957275390625,-1.0694178139291155,-2.7690980492568595,0.4049161585365852,-0.9645734514508928,-3.4434000651041665,0.8497692289806548,1.80764847338508,-2.350930801451634,0.4878872863247865,-22.8971585341956,-24.864875864875863,7.619359583826587,31.25548866325217,41.31928594962111,36.71869290442388,1577399043.0,-27.71741783562944,-51.09941474697109,8.569921
3838,1577399043.78,0.0729034405517578,1.483806478881836,9.055948069458006,0.6169448912085553,1.460871778832412,9.609887500148863,-0.089383528645833,1.3490756306966143,9.39917967936198,-1.4263153076171875,-1.061248779296875,0.109100341796875,0.6853429282583843,-1.5178773461318595,0.2370694788490852,-0.3389630998883928,-4.206339518229167,0.6514049711681548,2.1691781680620985,-1.2224840167548476,0.6505163817663843,-15.918518518518525,-34.83581603581603,8.437046953798218,31.111720130589752,41.60682301494594,36.742654326534286,1577399043.0,-27.71741783562944,-51.09941474697109,8.569921
3839,1577399043.79,0.1878251202392578,1.1941080780029296,9.510846384887694,0.2123248106421491,2.052239588891006,9.247165948635194,0.5965552469889316,4.144306068929035,11.02603970743815,-0.1445770263671875,-0.4508972167968749,-0.104522705078125,-1.4661463295541155,1.1676695288681402,0.5575040491615852,-0.3847394670758928,-0.9104410807291669,0.3004528227306547,2.892237557416128,-3.103228657916157,0.0,-21.2867031459624,-33.88620268620268,8.139706091990352,31.20756581903136,41.55890017072513,36.81453859286549,1577399043.0,-27.71741783562944,-51.09941474697109,8.569921
3840,1577399043.8,-0.1258152972412099,1.8357541229248049,9.908283860473633,0.7725679991187115,1.9445005141839744,7.963873858791445,1.5829663309733066,3.0429733052571604,11.536004661051432,0.9235382080078124,-0.5424499511718749,-0.226593017578125,-1.5882166420541155,-1.5178773461318598,-0.0223299352134147,-0.2626691545758928,0.4018147786458333,-0.9507678803943452,3.79606179410867,-4.043600978496809,0.4878872863247865,-14.84488159302974,-2.548962148962147,-5.983984843883323,31.30341150747297,41.41513163806272,36.71869290442388,1577399043.0,-27.71741783562944,-51.09941474697109,8.569921
3841,1577399043.81,0.5313930584716796,1.5927426544189451,9.994475120239256,-0.1922952699242561,0.998790858422256,11.919095001369568,0.6085262552897128,1.5226552510579423,10.089906858317056,-0.1445770263671875,-0.969696044921875,-0.302886962890625,-1.6187342201791155,3.0597593726181405,0.3133634241615852,0.1340593610491072,0.6459554036458333,-0.0962756928943452,2.982619981085384,-3.0091914258580914,0.4065727386039909,-19.13942929498485,-4.448188848188844,6.9503426447588845,31.20756581903136,41.55890017072513,36.71869290442388,1577399043.0,-27.71741783562944,-51.09941474697109,8.569921
3842,1577399043.82,1.0928333477783203,1.505354293823242,9.1493219342041,0.2769682554663679,1.7421904739007714,10.455040686184022,0.5486712137858066,1.8279159627278645,9.393194175211589,-2.2502899169921875,-1.824188232421875,-0.196075439453125,0.0597325766958842,-0.3887269555068597,0.0844815882240852,-0.6746564592633928,0.8290608723958333,0.0715709867931547,4.157591488785688,-2.915154193800025,-0.162629095441591,-21.2867031459624,-0.6497354497354495,-0.1858380386299223,31.30341150747297,41.48701590439393,36.83850001497589,1577399043.0,-27.71741783562944,-51.09941474697109,8.569921
3843,1577399043.83,0.4799177227783202,1.1294646331787108,9.132562522583006,1.9457268125952736,0.6588142226800685,8.174563604885194,-0.8710903706868486,1.276052480061849,8.100325278727214,0.9540557861328124,0.4341125488281251,0.017547607421875,0.7616368735708843,-2.7996156273818595,0.3743985804115852,-0.8119855608258928,1.8056233723958333,1.0939098539806549,2.892237557416128,-0.8463350885225869,0.3252581908831954,-36.85443856554967,-22.965649165649168,-4.125604457584156,31.25548866325217,41.65474585916674,36.57492437176146,1577399043.0,-27.71741783562944,-51.09941474697109,8.569921
3844,1577399043.84,0.353025034790039,1.457470260620117,10.703158811645508,-1.2313787904320683,3.1775143691644434,9.113090655666443,1.3243925516764317,1.5561740743001302,10.659726853434243,-0.2361297607421875,-1.366424560546875,0.170135498046875,-1.4356287514291155,-1.3652894555068598,0.0081876429115852,-0.2626691545758928,3.148396809895833,0.0257946196056547,2.892237557416128,-2.7270797296838944,-0.3252581908831888,-2.4980569499088072,-32.461782661782664,-2.341559286736952,31.20756581903136,41.55890017072513,36.67077006020308,1577399043.0,-27.71741783562944,-51.09941474697109,8.569921
3845,1577399043.85,0.3386598248291015,1.2779051361083984,10.24706339538574,1.3064749693335551,0.9712575393304592,9.788255523830506,1.6775372965494784,0.6990498799641923,8.758730735270182,0.6488800048828125,-0.2677917480468748,-0.119781494140625,-1.5882166420541155,2.2357847632431405,-0.0833650914634147,-0.0337873186383927,-1.0630289713541663,-1.5306018647693451,2.892237557416128,-2.350930801451634,0.1626290954415977,-12.160789279307805,-0.1749287749287731,7.099013075662818,31.23152724114176,41.702668703387545,36.62284721598228,1577399043.0,-27.71741783562944,-51.09941474697109,8.569921
3846,1577399043.86,0.5038597393798827,2.096722103881836,9.43662613342285,-0.3574951844750374,1.2645472426995996,10.025281488185977,-0.2653573506673173,-1.5227692606608072,7.829780491129557,0.6488800048828125,0.9834289550781252,-0.531768798828125,1.4025060141958845,-2.1587464867568595,0.5575040491615852,-1.2392316545758928,-5.762736002604167,-0.1267932710193452,3.79606179410867,-2.915154193800025,-0.4878872863247798,-19.13942929498485,-4.448188848188844,7.396353937470683,31.063797286368946,41.55890017072513,36.57492437176146,1577399043.0,-27.71741783562944,-51.09941474697109,8.569921
3847,1577399043.87,0.841442173461914,0.9810241302490234,8.761461265258788,0.3009102720679303,2.169555470238662,9.694881659084412,-0.6580064229329423,0.9839598775227856,8.741971323649087,-0.6023406982421875,-0.3288269042968749,-0.379180908203125,0.4259435141958843,-2.5249574242568595,0.4049161585365852,-0.0490461077008927,-6.586710611979167,0.7276989164806548,1.9884133207235888,-0.6582606244064564,-1.138403668091164,-19.13942929498485,-32.936589336589336,6.9503426447588845,31.20756581903136,41.75059154760835,36.86246143708629,1577399043.0,-27.71741783562944,-51.09941474697109,8.569921
3848,1577399043.88,0.151912095336914,1.6609774017333985,9.537182603149413,0.7725679991187115,2.543050929223037,10.133020562893003,-0.7322266743977861,1.0725453389485666,8.107507883707681,0.7709503173828125,1.013946533203125,0.017547607421875,-0.1844080483041157,2.2663023413681405,0.3133634241615852,0.7444109235491072,-5.121866861979167,0.6666637602306548,3.253767252093146,-2.350930801451634,-0.6505163817663776,-19.13942929498485,-27.23890923890924,-3.7539283803243206,31.30341150747297,41.463054482283525,36.81453859286549,1577399043.0,-27.71741783562944,-51.09941474697109,8.569921
3849,1577399043.89,0.127970078735352,1.3545195892333983,9.55154781311035,-0.023504052883241,1.3938341323480372,8.402012762600037,1.9265342692057283,1.8470695760091145,10.492132737223306,0.1453399658203124,-0.6492614746093749,-0.165557861328125,-0.8863123451791156,0.4047300757431402,0.0081876429115852,0.1493181501116072,-1.1088053385416663,0.4682995024181548,2.349943015400606,-2.350930801451634,-0.4878872863247832,-18.06579236949608,-15.843549043549045,-4.348610103940056,31.11172013058975,41.39117021595232,36.69473148231347,1577399043.0,-27.71741783562944,-51.09941474697109,8.569921
3850,1577399043.9,0.3290830181884765,1.962646810913086,9.046371262817384,0.6480695127905866,0.8742923720941309,12.048381891018003,1.3579113749186191,2.1331766743977862,8.928719053141277,-0.1445770263671875,-1.030731201171875,-0.409698486328125,0.5174962485708843,2.6019957007431405,-0.8768221227134148,0.3476824079241072,0.6154378255208333,-1.1033557710193451,1.626883626046571,-2.162856337335503,0.8131454772079753,-32.02307240085019,-25.33968253968253,-6.132655274787254,31.30341150747297,41.65474585916674,36.67077006020308,1577399043.0,-27.71741783562944,-51.09941474697109,8.569921
3851,1577399043.91,0.8629899884033202,1.1581950531005858,9.292974033813476,-0.5418487123070687,0.7665532973870997,11.73952987685785,0.7090827250162753,0.6128586201985669,8.928719053141277,-0.5413055419921875,-2.861785888671875,-0.409698486328125,1.0973302329458845,-3.1963441430068595,0.4964688929115852,-0.1100812639508928,-0.3916422526041667,-0.2183460053943452,2.1691781680620985,-3.103228657916157,-0.9757745726495664,-32.02307240085019,-27.23890923890924,-5.686643982075456,31.30341150747297,41.463054482283525,36.57492437176146,1577399043.0,-27.71741783562944,-51.09941474697109,8.569921
3852,1577399043.92,0.4440046978759765,1.37247610168457,9.873567936401368,0.7534143858374616,1.3914399306878809,7.815433355861757,0.0219468485514316,3.1578949849446603,9.611066526285809,0.5115509033203125,-1.122283935546875,0.093841552734375,2.5316564048208843,-4.14238906488186,0.4659513147865852,0.0119890485491072,-0.8188883463541667,-0.4624866303943452,0.3615296946770146,-1.974781873219373,0.0,-28.80216162438384,-3.4985754985755,8.139706091990352,31.11172013058975,41.55890017072513,36.81453859286549,1577399043.0,-27.71741783562944,-51.09941474697109,8.569921
3853,1577399043.93,0.2141613385009765,1.5963339569091797,10.389518394165036,0.2626030455054308,1.6212832900628809,9.53087884536371,0.5127581888834634,2.289996883138021,10.083921354166666,0.7404327392578125,-0.4508972167968749,-0.165557861328125,-0.0623377358041157,1.1981871069931405,0.0844815882240852,0.4087175641741072,-0.1932779947916667,-0.4472278413318452,2.349943015400604,-1.7867074091032429,0.1626290954415977,-25.04443238517312,-4.448188848188844,9.329069539221818,31.20756581903136,41.630784437056334,36.64680863809267,1577399043.0,-27.71741783562944,-51.09941474697109,8.569921
3854,1577399043.94,0.104028062133789,1.1558008514404297,10.265019907836914,0.9521331236304303,1.1735675796136622,8.382859149318788,1.9947690165201812,0.2920355977376293,8.904777036539715,-0.4497528076171875,-1.061248779296875,-0.196075439453125,-2.503743985804116,-0.4802796898818597,-0.2664705602134147,-0.2016339983258928,-1.7954508463541667,-0.7676624116443452,1.9884133207235888,-2.539005265567764,0.8131454772079753,-22.36034007145118,-4.448188848188844,9.329069539221818,31.30341150747297,41.463054482283525,36.81453859286549,1577399043.0,-27.71741783562944,-51.09941474697109,8.569921
3855,1577399043.95,0.448793101196289,1.9315221893310544,9.738295542602538,-0.6807124085961311,1.0059734634027246,11.009298370510193,-0.0426965962727861,0.4572355122884106,9.089130564371745,1.4118194580078125,-0.2372741699218749,-0.684356689453125,2.2569982016958843,-2.9827210961318595,-0.2359529820884147,-1.0866437639508928,-2.4363199869791665,0.2699352446056547,2.530707862739113,-1.5986329449871084,-0.3252581908831888,-21.82352160870679,-26.76410256410256,7.619359583826587,31.20756581903136,41.41513163806272,36.71869290442388,1577399043.0,-27.71741783562944,-51.09941474697109,8.569921
3856,1577399043.96,0.3697844464111328,1.2707225311279295,10.253048899536132,0.8372114439429303,0.8718981704339747,9.453067291408631,0.4409321390787754,0.8522787862141917,10.820138364664713,-0.0072479248046875,-0.4051208496093749,-0.394439697265625,-0.0623377358041157,0.7709410132431402,-0.0833650914634147,-1.1781964983258928,-0.4831949869791667,0.6361461821056548,2.7114727100776186,-1.7867074091032429,-0.4878872863247798,-21.82352160870679,-26.76410256410256,7.619359583826587,31.27945008536257,41.55890017072513,36.71869290442388,1577399043.0,-27.71741783562944,-51.09941474697109,8.569921
3857,1577399043.97,-0.1904587420654286,1.3784616058349608,11.533946787719726,0.7605969908179303,1.1448371596917872,10.356878418117615,-0.1648008809407548,0.7050353841145823,10.22158794962565,0.8625030517578125,0.1594543457031251,0.170135498046875,0.0139562095083842,-3.0284974633193595,0.0692227991615852,0.5765642438616072,0.8443196614583333,-0.0810169038318452,2.7114727100776186,-1.7867074091032429,-0.4878872863247798,-21.82352160870681,-14.419129019129018,0.6318493313417157,31.25548866325217,41.582861592835535,36.64680863809267,1577399043.0,-27.71741783562944,-51.09941474697109,8.569921
3858,1577399043.98,0.5756857891845703,1.127070431518555,10.518805283813476,-0.5083298890648812,2.5286857192621,8.957467547756288,0.6899291117350254,2.0038897847493486,10.630996433512369,0.2826690673828124,-1.213836669921875,-0.012969970703125,-0.5811365639291157,0.8624937476181402,0.9847501429115852,0.9580339704241072,1.0426839192708333,-0.7371448335193452,4.519121183462703,-2.915154193800025,0.4878872863247865,-22.8971585341956,-3.973382173382172,-6.058320059335285,31.30341150747297,41.27136310540031,36.71869290442388,1577399043.0,-27.71741783562944,-51.09941474697109,8.569921
3859,1577399043.99,0.1974019268798828,1.5676035369873047,9.767025962524412,1.1747938780249616,2.2341989150628807,10.082742328029724,-0.2869051656087236,1.5130784444173175,10.633390635172525,0.0080108642578124,-1.488494873046875,0.109100341796875,-0.6726892983041157,1.4728453101181402,0.1607755335365852,0.6223406110491072,1.4088948567708333,-0.6761096772693452,1.4461187787080658,-2.350930801451634,0.0,-14.84488159302974,-2.548962148962147,-6.727336998402988,31.25548866325217,41.55890017072513,36.67077006020308,1577399043.0,-27.71741783562944,-51.09941474697109,8.569921
3860,1577399044.0,0.0968454571533208,1.6753426116943355,9.412684116821287,0.3942841368140241,1.324402284203506,8.773114019924257,1.808021287027994,1.6016639058430988,11.401929368082682,0.7404327392578125,0.876617431640625,-0.684356689453125,1.4940587485708845,2.6325132788681405,-0.0528475133384147,-0.0490461077008927,3.7587483723958335,-0.2183460053943452,0.7230593893540329,-1.974781873219373,0.6505163817663843,-36.31762010280528,-2.548962148962147,-5.537973551171519,31.375295773804176,41.41513163806272,36.81453859286549,1577399044.0,-27.71735529090476,-51.09948652028439,9.869196
3861,1577399044.01,0.0417788189697265,1.244386312866211,10.217135874633788,0.5714550596655866,1.1663849746331931,9.235194940334411,0.7485870524088535,2.457590999348957,10.419109586588542,0.1605987548828124,0.8003234863281251,-0.470733642578125,-0.1233728920541156,-1.21270156488186,-0.8768221227134148,-0.4915509905133928,7.481892903645833,-0.5540393647693452,0.7230593893540329,-1.974781873219373,0.6505163817663843,-3.840103106769787,-16.080952380952382,2.601732540818833,31.20756581903136,41.582861592835535,36.83850001497589,1577399044.0,-27.71735529090476,-51.09948652028439,9.869196
