,timestamp,acc_x_dashboard,acc_y_dashboard,acc_z_dashboard,acc_x_above_suspension,acc_y_above_suspension,acc_z_above_suspension,acc_x_below_suspension,acc_y_below_suspension,acc_z_below_suspension,gyro_x_dashboard,gyro_y_dashboard,gyro_z_dashboard,gyro_x_above_suspension,gyro_y_above_suspension,gyro_z_above_suspension,gyro_x_below_suspension,gyro_y_below_suspension,gyro_z_below_suspension,mag_x_dashboard,mag_y_dashboard,mag_z_dashboard,mag_x_above_suspension,mag_y_above_suspension,mag_z_above_suspension,temp_dashboard,temp_above_suspension,temp_below_suspension,timestamp_gps,latitude,longitude,speed
7680,1577399082.2,1.0676942303466797,-0.3333925811767578,10.88751233947754,1.6225095884741805,0.4277737624749903,11.468985089260192,0.241016300455729,0.7301745015462239,3.9703274149576817,-1.0601043701171875,-1.503753662109375,0.337982177734375,-0.6421717201791157,4.6924498023056405,0.1455167444740852,1.0343279157366072,12.288411458333332,-2.934410458519345,0.90382423669254,-0.4701861602903241,-0.8131454772079719,-14.039653898913151,0.5372812372812394,8.325544130620269,30.99191302003774,38.44391529637284,35.08931620091653,1577399082.0,-27.712885391777743,-51.104230180581766,22.450054
7681,1577399082.21,-0.0827196673583974,0.5572504364013672,9.199600169067384,0.5116000181616803,0.567834559594131,6.0916081605492565,2.533464390055338,-2.109348667399088,6.457902939860026,-1.5789031982421875,-0.4814147949218749,-0.135040283203125,2.6537267173208843,-3.83721328363186,0.6185392054115852,-1.9716535295758928,-20.258585611979168,1.4906383696056549,0.7230593893540329,-0.0940372320580652,-0.6505163817663776,-28.80216162438384,-0.6497354497354497,-7.322018722018729,31.20756581903136,38.58768382903526,34.94554766825411,1577399082.0,-27.712885391777743,-51.104230180581766,22.450054
7682,1577399082.22,-0.0228646258544912,-0.7116764434814453,8.524435300903319,-1.0613904725609749,-0.6172952621832117,9.462644098049257,0.2709438212076816,-3.8954231058756505,14.088223630777994,-1.8230438232421875,-1.671600341796875,-0.348663330078125,-6.348958829554116,2.5714781226181405,-0.0528475133384147,-1.4223371233258928,-12.415568033854166,1.6737438383556549,1.2653539313695563,0.0940372320580652,-0.162629095441591,-30.949435475361405,-4.448188848188844,7.0990130756628185,31.01587444214814,38.49183814059364,35.13723904513733,1577399082.0,-27.712885391777743,-51.104230180581766,22.450054
7683,1577399082.23,0.295564194946289,-0.4171896392822265,9.355223276977538,1.3304169859351176,-1.2589413071050866,11.052394000393006,1.750560447184244,0.7253860982259105,13.36996313273112,0.6488800048828125,-2.159881591796875,0.414276123046875,-3.541341642054116,1.4728453101181402,-0.1138826695884147,2.087184361049107,3.6061604817708335,3.932044619605655,0.1807648473385091,0.4701861602903297,0.4878872863247865,-5.182149263630755,-4.448188848188844,7.0990130756628185,31.063797286368946,38.39599245215204,34.8017791355917,1577399082.0,-27.712885391777743,-51.104230180581766,22.450054
7684,1577399082.24,-0.2838326068115224,-0.1562216583251953,10.644500870971678,0.944950518649962,0.2793332595453033,9.911556909328551,-0.2450066365559897,3.1471210774739573,10.584309501139323,0.3284454345703124,-1.534271240234375,0.078582763671875,-1.0541590248666155,-5.10369277581936,0.4964688929115852,-0.4915509905133928,5.727132161458333,0.8955455961681548,0.451912118346271,0.7522978564645234,-0.0813145477207955,-4.645330800886369,-4.448188848188844,7.545024368374619,31.08775870847935,38.49183814059365,35.11327762302693,1577399082.0,-27.712885391777743,-51.104230180581766,22.450054
7685,1577399082.25,0.0968454571533203,-0.6829460235595702,7.224383799438476,-1.1212455140648812,-0.2414056015386804,7.264766974025819,-1.539072633870442,-0.4334075052897134,11.1218077738444,-2.2197723388671875,-2.800750732421875,0.139617919921875,-0.9168299233041156,-7.4993226586318595,0.6795743616615852,2.758571079799107,9.648640950520834,-1.6526721772693451,0.7230593893540329,-0.0940372320580652,-0.3252581908831888,-4.108512338141983,-4.448188848188844,7.247683506566751,31.20756581903136,38.58768382903526,34.993470512474914,1577399082.0,-27.712885391777743,-51.104230180581766,22.450054
7686,1577399082.26,0.113604868774414,-1.312621060180664,9.25227260559082,0.1141625425757428,-0.6244778671636805,12.338080291896912,1.4034012064615875,-0.0694888529459634,8.368475864664713,0.5268096923828125,-1.427459716796875,0.322723388671875,0.2123204673208842,3.0597593726181405,0.7711270960365852,0.3476824079241072,6.566365559895833,-2.7207874116443453,1.084589084031051,0.6582606244064602,-0.9757745726495664,-5.182149263630755,0.299877899877894,6.9503426447588845,30.92002875370653,38.49183814059364,35.13723904513733,1577399082.0,-27.712885391777743,-51.104230180581766,22.450054
7687,1577399082.27,-0.0970848773193349,0.4351461517333984,12.324033335571288,-0.5813530396996472,0.6983185500726465,9.220829730373476,0.0183555460611977,-2.6121310160319005,10.155747403971354,3.1513214111328125,-1.366424560546875,0.749969482421875,0.029214998570884,-2.57073379144436,-0.1291414586509147,0.7444109235491072,-0.5442301432291667,0.0715709867931548,0.3615296946770146,0.6582606244064602,0.0,-12.697607742052185,4.573137973137975,9.77508083193362,30.92002875370653,38.635606673256056,34.8497019798125,1577399082.0,-27.712885391777743,-51.104230180581766,22.450054
7688,1577399082.28,0.7025784771728515,-0.3477577911376953,10.709144315795898,0.5139942198218366,-0.3706924911871179,10.67889854140863,-0.0714270161946611,-0.4358017069498697,17.27730024210612,0.9235382080078124,-1.808929443359375,0.093841552734375,2.1654454673208843,5.3790953101181405,-0.9683748570884148,2.331324986049107,18.987019856770832,0.4225231352306547,1.0845890840310493,0.2821116961741974,-0.975774572649573,-18.06579236949609,6.9471713471713485,-4.348610103940056,30.967951597927332,38.49183814059364,34.993470512474914,1577399082.0,-27.712885391777743,-51.104230180581766,22.450054
7689,1577399082.29,0.9898826763916014,-0.2160766998291015,11.62732065246582,2.4700569761694924,-0.533498204077743,13.779389691310977,0.7354189432779941,2.128388271077474,19.046615268961585,1.7169952392578125,-2.007293701171875,0.170135498046875,1.8297521079458845,-8.44536758050686,0.9542325647865852,0.4392351422991072,49.26045735677084,-0.3098987397693452,1.626883626046571,0.8463350885225905,0.1626290954415977,-35.780801640060886,-2.074155474155475,-6.653001782951026,30.92002875370653,38.58768382903526,34.993470512474914,1577399082.0,-27.712885391777743,-51.104230180581766,22.450054
7690,1577399082.3,0.7791929302978515,0.2268506072998046,12.324033335571288,-0.6735298036156624,-0.859109629858993,9.412365863185975,0.4840277689615879,3.536178847249348,16.86310335489909,1.9611358642578125,-1.030731201171875,-0.104522705078125,2.2264806235708843,-1.4263246117568598,0.7100919397865852,0.9885515485491072,74.28487141927083,-4.765465146019345,0.0,0.2821116961741993,-1.3010327635327552,-27.728524698895075,-2.548962148962147,-7.1733482911147926,31.111720130589752,38.44391529637284,34.94554766825411,1577399082.0,-27.712885391777743,-51.104230180581766,22.450054
7691,1577399082.31,0.7552509136962889,0.4902127899169921,12.862728709106444,2.3934425230444925,0.218281117211319,14.622148675685974,-0.1193110493977865,-1.011607206217448,4.977089213053385,3.1208038330078125,0.1289367675781251,0.200653076171875,0.5632726157583844,2.2663023413681405,-0.5258699742759148,-0.4305158342633928,54.23482259114584,-3.575279599144345,0.903824236692542,0.0940372320580652,-0.8131454772079686,-23.43397699693996,-2.548962148962147,0.1858380386299134,31.111720130589752,38.46787671848324,35.065354778806125,1577399082.0,-27.712885391777743,-51.104230180581766,22.450054
7692,1577399082.32,-0.2299630694580068,-0.4542997650146484,11.088625278930664,-0.5322719056664437,-0.7393995468511805,8.289485284572693,-0.6292760030110673,-0.4094654886881509,1.4013490336100258,1.9153594970703125,0.8308410644531251,0.109100341796875,7.139810701695884,-7.6824281273818595,1.4730313929115852,1.6599382672991072,0.5238850911458333,1.1549450102306549,0.6326769656847783,0.0,-0.5692018340455787,-10.01351542833026,12.170044770044768,7.173348291114784,31.11172013058975,38.49183814059364,34.993470512474914,1577399082.0,-27.712885391777743,-51.104230180581766,22.450054
7693,1577399082.33,-1.3420697406005857,-0.192134683227539,6.621044981079101,-0.5394545106469124,0.5247389297113184,6.285538495021913,-0.1240994527180986,-1.3144737162272135,3.764426072184244,0.2826690673828124,0.4951477050781251,0.566864013671875,1.4025060141958845,1.96112656011814,-1.2735506383384148,4.650660923549108,-29.139200846354168,2.7723766508556547,0.1807648473385091,0.4701861602903297,-0.4878872863247798,-22.8971585341956,12.170044770044768,-8.734387815606093,31.063797286368946,38.635606673256056,34.8017791355917,1577399082.0,-27.712885391777743,-51.104230180581766,22.450054
7694,1577399082.34,0.2644395733642578,-0.6829460235595702,7.341699680786132,0.2793624571265241,-2.62363625339415,12.340474493557068,-0.0498792012532548,-1.4222127909342448,6.565642014567057,-0.7549285888671875,-5.577850341796875,0.444793701171875,3.4777013266958843,1.1981871069931402,1.1678556116615852,5.169459751674108,-35.364786783854164,3.2606579008556547,1.084589084031051,1.7867074091032429,-1.3010327635327552,-6.255786189119516,4.098331298331297,7.545024368374619,31.01587444214814,38.49183814059364,34.993470512474914,1577399082.0,-27.712885391777743,-51.104230180581766,22.450054
7695,1577399082.35,0.1878251202392578,1.033696566772461,10.253048899536132,-1.7221901307641,0.3499622085199122,9.235194940334411,0.7665435648600254,1.6136349141438802,9.567970896402995,5.6842803955078125,0.0984191894531251,1.055145263671875,1.4940587485708845,-2.5859925805068595,0.3438810022865852,1.9956316266741072,-35.395304361979164,1.5516735258556549,0.5422945420155274,-0.2821116961741956,-0.4878872863247798,-6.255786189119516,4.098331298331297,7.545024368374619,31.063797286368946,38.58768382903526,34.993470512474914,1577399082.0,-27.712885391777743,-51.104230180581766,22.450054
7696,1577399082.36,0.396120664672852,-0.1047463226318359,9.996869321899412,0.0040292662085558,-0.3299910629644622,7.838178271633241,-0.1085371419270834,0.9037541219075516,14.407849552408852,3.1055450439453125,0.678253173828125,0.719451904296875,2.6537267173208843,1.9306089819931405,0.801644674161585,2.605983189174107,-17.542521158854168,-0.1878284272693452,1.717266049715828,0.564223392348393,-0.4065727386039843,-10.013515428330248,2.6739112739112727,1.37520148586138,31.08775870847935,38.46787671848324,35.065354778806125,1577399082.0,-27.712885391777743,-51.104230180581766,22.450054
7697,1577399082.37,1.1263521710205078,0.0712274993896484,9.40550151184082,2.654410504001524,0.8551387588128809,14.39469951797113,0.2517902079264316,-2.375105051676432,14.392287241617838,-1.1821746826171875,-4.540252685546875,0.780487060546875,2.0433751548208843,2.2052671851181405,0.6795743616615852,2.300807407924107,8.794148763020834,-0.2793811616443452,0.0,0.2821116961741993,-0.6505163817663776,-31.4862539381058,5.522751322751323,-7.099013075662825,31.063797286368946,38.58768382903526,34.94554766825411,1577399082.0,-27.712885391777743,-51.104230180581766,22.450054
7698,1577399082.38,0.4559757061767577,0.0736217010498046,10.236289487915036,-1.217013580471131,1.4441123672113183,8.998168975978944,-0.7465918843587236,-0.3615814554850259,8.981391489664714,0.8930206298828125,-0.3288269042968749,0.322723388671875,5.797037264195884,-5.79033828363186,1.8392423304115848,2.117701939174107,11.815388997395834,-1.866295224144345,1.9884133207235888,1.2224840167548552,0.4878872863247865,-28.80216162438384,3.1487179487179446,7.247683506566751,31.111720130589752,38.49183814059364,35.13723904513733,1577399082.0,-27.712885391777743,-51.104230180581766,22.450054
7699,1577399082.39,1.405276664428711,0.364517202758789,8.447820847778319,0.4589275816382429,-1.1512022323980555,9.314203595119569,-0.3970384419759111,-3.2226524393717444,8.435513511149088,1.2592315673828125,-0.0236511230468748,0.246429443359375,5.613931795445884,1.80853866949314,-1.1514803258384148,0.6528581891741072,2.782185872395833,0.1783825102306547,1.807648473385084,0.6582606244064602,-1.3010327635327552,-21.2867031459624,3.1487179487179446,7.247683506566751,31.063797286368946,38.635606673256056,34.993470512474914,1577399082.0,-27.712885391777743,-51.104230180581766,22.450054
7700,1577399082.4,0.6810306622314453,0.5117606048583984,8.08390219543457,1.3794981199683214,0.2302521255121002,9.316597796779725,0.5558538187662754,1.1695105061848954,7.318618436686197,1.3202667236328125,1.929473876953125,0.444793701171875,-1.0541590248666155,-2.18926406488186,0.7406095179115852,1.8277849469866072,-7.761637369791666,2.802894228980655,1.2653539313695563,-1.410558480870978,-1.138403668091164,-10.550333891074647,-0.6497354497354495,7.396353937470685,31.01587444214814,38.63560667325606,34.873663401922904,1577399082.0,-27.712885391777743,-51.104230180581766,22.450054
7701,1577399082.41,0.697790073852539,0.7080851409912109,8.569925132446288,-0.6615587953148812,-0.1193013168707117,10.39159434218988,-0.0139661763509111,-0.2251119608561197,10.868022397867838,1.4423370361328125,2.631378173828125,0.780487060546875,3.1725255454458843,4.4635679663681405,1.1983731897865852,0.9275163922991072,-3.5654703776041665,0.6666637602306548,1.626883626046571,0.4701861602903297,-0.8131454772079686,-2.4980569499088072,7.42197802197802,-7.099013075662825,31.01587444214814,38.49183814059364,35.13723904513733,1577399082.0,-27.712885391777743,-51.104230180581766,22.450054
7702,1577399082.42,0.7672219219970703,0.7583633758544921,11.04552964904785,0.9234027037085554,-2.149584324683212,12.706787347560974,-1.2613452412923172,0.940864247639973,11.804155246988932,0.1605987548828124,2.570343017578125,0.536346435546875,-3.022542813929116,7.1796324194931405,1.7782071741615852,0.2866472516741072,0.6764729817708333,1.2770153227306549,1.084589084031051,0.2821116961741993,-0.3252581908831888,-5.718967726375147,7.42197802197802,7.768030014730519,31.01587444214814,38.39599245215204,35.08931620091653,1577399082.0,-27.712885391777743,-51.104230180581766,22.450054
7703,1577399082.43,0.166277305297852,0.613514175415039,10.59182843444824,0.8036926207007429,1.6883209365472558,11.351669207912536,0.5295176005045567,0.7445397115071605,6.673381089274089,0.5725860595703124,5.896759033203125,0.231170654296875,-1.2525232826791155,3.2428648413681405,0.3133634241615852,-0.8425031389508928,-1.6428629557291667,-0.8286975678943452,1.626883626046571,1.2224840167548552,-1.138403668091164,-5.718967726375147,7.42197802197802,7.768030014730519,31.11172013058975,38.635606673256056,34.993470512474914,1577399082.0,-27.712885391777743,-51.104230180581766,22.450054
7704,1577399082.44,-0.6214150408935537,-1.0468646759033202,8.591472947387695,-0.9847760194359748,-0.1097245102300874,7.09836995864496,0.547474112955729,-0.5603001932779952,8.810206070963542,-2.9827117919921875,-0.0846862792968748,0.475311279296875,2.6384679282583843,2.0221617163681405,1.656136861661585,-1.0256086077008928,-12.797037760416666,-0.6303333100818451,1.626883626046571,1.2224840167548552,-1.138403668091164,-19.94465698910145,1.486894586894588,8.176873699716335,31.063797286368946,38.44391529637284,34.94554766825411,1577399082.0,-27.712885391777743,-51.104230180581766,22.450054
7705,1577399082.45,-0.5735310076904286,-0.7308300567626953,7.116644724731445,2.304857061618711,-1.9460771835699304,8.718047381740663,0.7042943216959628,-0.6057900248209634,8.749153928629557,-2.1587371826171875,-1.396942138671875,0.688934326171875,-2.351156095179116,6.2946226538681405,0.4354337366615852,-7.403782435825892,-16.749064127604168,0.6971813383556548,0.3615296946770146,-0.470186160290326,-0.6505163817663776,-16.455336981262917,7.42197802197802,7.024677860210852,31.063797286368946,38.58768382903526,35.13723904513733,1577399082.0,-27.712885391777743,-51.104230180581766,22.450054
7706,1577399082.46,0.0992396588134765,0.3058592620849609,8.131786228637694,0.288939263767149,1.2549704360589746,9.398000653225038,0.5223349955240879,0.3518906392415356,8.646203257242838,-0.4497528076171875,-2.526092529296875,0.933074951171875,3.2945958579458843,-8.26226211175686,2.785287252286585,-1.0561261858258928,-13.849894205729166,0.5140758696056548,1.9884133207235888,0.4701861602903297,-1.138403668091164,-28.80216162438384,10.745624745624742,7.0990130756628185,31.111720130589752,38.39599245215204,34.70593344715009,1577399082.0,-27.712885391777743,-51.104230180581766,22.450054
7707,1577399082.47,0.7384915020751952,1.1605892547607422,9.156504539184567,-0.3814372010765999,0.5343157363519435,8.627067718654725,0.0363120585123691,-3.351939329020182,8.308620823160807,0.5268096923828125,1.441192626953125,0.841522216796875,-2.717367032679116,5.1959898413681405,0.1302579554115852,1.8735613141741072,-14.002482096354166,3.4132457914806547,1.084589084031051,0.2821116961741993,-0.3252581908831888,-4.645330800886364,-0.1749287749287778,7.916700445634452,31.111720130589752,38.58768382903526,35.08931620091653,1577399082.0,-27.712885391777743,-51.104230180581766,22.450054
7708,1577399082.48,0.1004367596435551,-0.3034650604248046,9.837654911499024,1.0012142576636338,-0.333582365454697,9.12745586562738,-0.0702299153645834,2.269646169026692,9.471005729166666,-1.8077850341796875,-1.259613037109375,0.765228271484375,-1.6492517983041155,-4.60015273675686,1.839242330411585,-0.2626691545758928,-12.461344401041666,3.642127627418155,0.903824236692542,-0.2821116961741956,-1.138403668091164,-17.797383138123873,10.983028083028085,-0.0743352154519727,31.08775870847935,38.61164525114566,34.993470512474914,1577399082.0,-27.712885391777743,-51.104230180581766,22.450054
7709,1577399082.49,-0.0875080706787099,-0.364517202758789,9.652104282836913,-2.892954742580506,-0.6986981186285243,8.519328643947695,0.0027932352701816,-0.9481608622233072,11.959778354899088,-1.0906219482421875,-0.6340026855468749,1.177215576171875,4.179605623570884,4.9213316382431405,0.9542325647865852,-0.1711164202008928,-13.880411783854166,0.9108043852306548,0.903824236692542,-0.2821116961741956,-1.138403668091164,-6.255786189119516,13.594464794464791,-7.322018722018729,31.01587444214814,38.39599245215204,34.993470512474914,1577399082.0,-27.712885391777743,-51.104230180581766,22.450054
7710,1577399082.5,0.4440046978759765,0.5668272430419922,8.608232359008788,0.7893274107398053,-2.2836596176519617,10.192875604396912,0.1991177714029941,-3.179556809488932,12.24468835245768,-1.6399383544921875,-0.0541687011718748,1.146697998046875,-5.128255704554116,0.0995542944931402,0.1912931116615852,-0.8119855608258928,-6.678263346354167,0.2699352446056547,1.4461187787080658,-0.0940372320580652,-0.6505163817663776,-6.255786189119516,13.594464794464791,6.9503426447588845,31.20756581903136,38.49183814059364,34.8017791355917,1577399082.0,-27.712885391777743,-51.104230180581766,22.450054
7711,1577399082.51,-0.0875080706787099,0.5452794281005859,10.104608396606444,-0.1659590516625378,1.0646314040765528,9.852898968654724,1.3782620890299473,-0.1891989359537764,8.595925022379557,-0.4497528076171875,0.2815246582031251,1.207733154296875,0.0749913657583841,-2.46392226800686,2.464852681974085,-0.2779279436383928,0.5849202473958335,1.0939098539806549,0.1807648473385091,-1.0344095526387171,-1.7889200498575484,-6.255786189119516,-2.5489621489621466,9.329069539221818,31.20756581903136,38.276185341600026,34.873663401922904,1577399082.0,-27.712885391777743,-51.104230180581766,22.450054
7712,1577399082.52,0.5122394451904296,0.1885433807373046,9.209176975708006,1.5027995054663676,-0.1576085434332117,8.05006511855707,0.8862536478678379,0.0621922383626293,6.733236130777994,-2.280807495117188,-0.267791748046875,1.116180419921875,-5.647054532679116,1.7780210913681402,0.4049161585365852,-2.185276576450893,-13.697306315104166,-0.8897327241443452,1.1749715077003038,0.0,-0.4065727386039843,-19.13942929498485,-0.6497354497354497,7.545024368374619,31.15964297481056,38.58768382903526,34.94554766825411,1577399082.0,-27.712885391777743,-51.104230180581766,22.450054
7713,1577399082.53,0.8653841900634764,-0.0915782135009765,8.239525303344726,0.9712867369116804,-0.1911273666753992,12.962966925197692,-0.2581747456868486,-1.3120795145670572,12.666067844645182,-3.2268524169921875,-1.305389404296875,0.688934326171875,-0.6116541420541157,1.5643980444931402,2.449593892911585,-3.039768763950893,-8.265177408854166,0.9718395414806548,1.084589084031051,-0.0940372320580652,-0.3252581908831888,-40.61216780476041,-21.54122914122913,-6.429996136595121,31.20756581903136,38.635606673256056,34.993470512474914,1577399082.0,-27.712885391777743,-51.104230180581766,22.450054
7714,1577399082.54,1.305917295532227,-0.642244595336914,9.925043272094726,-0.5705791322289436,1.2837008559808496,9.105908050685976,-0.0714270161946611,1.486742226155599,16.10892983194987,-1.0295867919921875,0.4035949707031251,0.536346435546875,-2.351156095179116,-2.6165101586318595,2.083382955411585,-7.007053920200892,12.090047200520834,1.0328746977306549,1.084589084031051,1.0344095526387171,-0.6505163817663776,-23.433976996939982,-21.54122914122913,-6.429996136595121,31.01587444214814,38.68352951747686,34.753856291370894,1577399082.0,-27.712885391777743,-51.104230180581766,22.450054
7715,1577399082.55,0.9036914166259764,0.9020154754638672,11.996027708129882,1.6177211851538675,0.9006285903558497,9.668545440822694,1.1256738138834628,1.0701511372884105,13.530374643961588,0.4352569580078124,2.387237548828125,0.444793701171875,-1.5882166420541155,2.0221617163681405,2.571664205411585,-4.718235560825892,37.02290852864584,1.6432262602306549,1.807648473385084,0.6582606244064602,-0.6505163817663776,-23.433976996939982,-3.4985754985755,7.0990130756628185,31.063797286368946,38.39599245215204,34.8017791355917,1577399082.0,-27.712885391777743,-51.104230180581766,22.450054
7716,1577399082.56,0.3302801190185552,-0.3980360260009765,11.835616196899412,-0.9680166078148812,0.9544981277093652,10.719599969631286,-0.7705339009602861,0.6822904683430985,5.355373075358073,-1.5941619873046875,2.616119384765625,0.261688232421875,-1.939168790491616,2.9376890601181405,0.7406095179115852,-2.627781459263393,16.957600911458332,-0.9049915132068452,1.084589084031049,0.2821116961741974,-1.138403668091164,-6.255786189119516,3.148717948717949,0.2601732540818813,30.99191302003773,38.58768382903526,35.065354778806125,1577399082.0,-27.712885391777743,-51.104230180581766,22.450054
7717,1577399082.57,-0.6046556292724599,0.6769605194091797,10.454161838989256,2.52272941269293,-0.399422911108993,10.846492657619567,-1.5797740620930985,-0.9409782572428383,4.932796482340494,-3.5015106201171875,0.5256652832031251,0.170135498046875,2.0738927329458843,1.86957382574314,1.9002774866615848,-3.253391810825893,-15.528361002604166,1.3380504789806549,1.2653539313695563,0.8463350885225905,-0.8131454772079686,-6.255786189119516,10.745624745624742,-6.727336998402988,31.063797286368946,38.635606673256056,34.8017791355917,1577399082.0,-27.712885391777743,-51.104230180581766,22.450054
7718,1577399082.58,-0.7674613421630849,-0.6542156036376953,8.419090427856444,-2.248914495998475,-3.3873865829839933,4.992669598537538,0.1512337381998691,-0.0742772562662759,7.372487974039713,-4.630661010742188,0.7087707519531251,0.170135498046875,0.8226720298208843,-4.78325820550686,1.5951017054115852,2.819606236049107,-20.228068033854168,0.7276989164806548,0.0,1.0344095526387171,0.6505163817663843,-6.255786189119516,10.745624745624742,6.9503426447588845,31.063797286368946,38.39599245215204,34.94554766825411,1577399082.0,-27.712885391777743,-51.104230180581766,22.450054
7719,1577399082.59,-0.4741716387939443,0.0412999786376953,8.49211357849121,-2.8115518861351934,1.1711733779535058,8.818603851467225,-0.0379081929524736,-4.467637302652994,11.0451933207194,-0.2819061279296875,1.425933837890625,0.795745849609375,-6.684652188929116,-3.3489320336318595,-0.5411287633384148,3.338405064174107,-16.993204752604168,3.3827282133556547,1.355736355038811,0.1880744641161322,-0.8944600249287675,-6.255786189119516,5.047944647944651,9.329069539221818,31.23152724114176,38.635606673256056,34.993470512474914,1577399082.0,-27.712885391777743,-51.104230180581766,22.450054
7720,1577399082.6,0.0729034405517578,0.3274070770263672,10.26741410949707,0.5738492613257432,0.4912201064691315,9.98338295913324,1.0071608317057286,3.762430904134114,10.72676449991862,1.8085479736328125,1.959991455078125,0.963592529296875,-1.038900235804116,-1.2279603539443602,1.5035489710365852,-1.9716535295758928,-5.930582682291666,1.9789196196056549,0.7230593893540329,-0.0940372320580652,-1.6262909544159505,-16.455336981262917,-1.5993487993488031,1.7468775631212154,31.01587444214814,38.61164525114566,35.01743193458532,1577399082.0,-27.712885391777743,-51.104230180581766,22.450054
7721,1577399082.61,0.0729034405517578,-1.0803834991455077,11.651262669067382,0.1476813658179303,-0.0450810654058679,10.513698626857847,0.8742826395670567,-2.0830124491373696,16.68353823038737,-1.8535614013671875,-1.366424560546875,0.322723388671875,-3.724447110804116,-2.6775453148818595,0.6185392054115852,1.3547624860491072,14.500935872395834,-0.0962756928943452,0.7230593893540329,-0.0940372320580652,-1.6262909544159505,-39.53853087927163,-19.64200244200244,-5.983984843883323,31.111720130589752,38.58768382903526,34.993470512474914,1577399082.0,-27.712885391777743,-51.104230180581766,22.450054
7722,1577399082.62,0.3769670513916015,-0.4722562774658203,11.938566868286133,1.0862084165991803,0.021956581078506,13.91585918593988,-0.3922500386555986,-0.8763348124186195,16.49679050089518,-2.5249481201171875,-1.152801513671875,0.597381591796875,2.3485509360708843,0.7404234351181402,0.0997403772865852,-2.429417201450893,28.508504231770832,-1.5306018647693451,1.9884133207235888,-0.6582606244064564,-1.138403668091164,-39.53853087927163,-19.64200244200244,-5.983984843883323,31.111720130589752,38.44391529637284,35.08931620091653,1577399082.0,-27.712885391777743,-51.104230180581766,22.450054
7723,1577399082.63,0.725323392944336,0.4650736724853515,9.86518823059082,0.9784693418921492,0.6372664077386622,12.01246886611566,-0.2174733174641923,-1.913024131266276,9.886399717203776,-0.5870819091796875,0.1289367675781251,0.307464599609375,-3.571859220179116,8.88861679449314,0.4354337366615852,1.1106218610491072,34.00166829427084,-1.7442249116443451,1.53650120237732,-0.3761489282322608,-0.5692018340455788,-5.182149263630755,-21.54122914122913,-6.281325705691191,31.01587444214814,38.49183814059364,35.08931620091653,1577399082.0,-27.712885391777743,-51.104230180581766,22.450054
7724,1577399082.64,0.3099294049072265,-1.0612298858642577,8.680058408813476,1.1520489622534775,0.3523564101800684,10.562779760891052,-0.3683080220540361,-0.2526452799479166,8.965829178873697,-1.0906219482421875,1.349639892578125,0.170135498046875,-0.1081141029916155,-2.5249574242568595,1.1373380335365852,2.361842564174107,24.846394856770832,1.4143444242931549,1.4461187787080658,-0.470186160290326,-0.6505163817663776,-16.455336981262917,5.522751322751323,-0.1858380386299223,31.25548866325217,38.515799562704046,35.065354778806125,1577399082.0,-27.712885391777743,-51.104230180581766,22.450054
7725,1577399082.65,0.2811989849853515,-0.4339490509033203,7.985739927368163,-0.6519819886742562,-1.117683409155868,9.079571832424255,-1.5486494405110671,-1.300108506266276,10.551987778727211,0.0995635986328124,2.234649658203125,0.200653076171875,-0.4590662514291157,-0.8464906273818598,-0.0528475133384147,2.117701939174107,21.397908528645832,1.2464977446056549,1.4461187787080658,-0.470186160290326,-0.6505163817663776,-19.13942929498485,15.49369149369149,-7.322018722018729,31.063797286368946,38.58768382903526,34.8017791355917,1577399082.0,-27.712885391777743,-51.104230180581766,22.450054
7726,1577399082.66,-0.1401805072021474,-0.5009866973876953,9.458173948364257,-0.7908456849633186,-1.2565471054449304,12.82410322890863,-1.325988686116536,0.7325687032063792,9.591912913004558,0.7709503173828125,1.959991455078125,0.505828857421875,1.8297521079458845,2.2663023413681405,-1.0904451695884148,-1.0866437639508928,23.289998372395832,-1.805260067894345,2.349943015400604,0.8463350885225905,-1.4636618589743595,-6.255786189119516,6.9471713471713485,-5.983984843883323,31.20756581903136,38.49183814059364,35.52062179890376,1577399082.0,-27.712885391777743,-51.104230180581766,22.450054
7727,1577399082.67,0.2249352459716797,0.0604535919189453,11.596196030883789,0.1752146849097277,0.5403012405023341,11.427086560207458,0.1943293680826821,1.4903335286458328,12.09385364786784,1.6712188720703125,2.677154541015625,0.994110107421875,0.5785314048208842,3.5022642554306405,0.7711270960365852,-1.7122541155133928,17.751057942708332,-0.5082629975818452,0.7230593893540327,-0.0940372320580652,-0.6505163817663809,-20.213066220473635,15.018884818884814,7.247683506566751,30.99191302003773,38.53976098481445,35.13723904513733,1577399082.0,-27.712885391777743,-51.104230180581766,22.450054
7728,1577399082.68,-0.3269282366943349,0.7200561492919921,13.276925596313475,0.5786376646460554,1.0035792617425685,11.466590887600036,-0.1743776875813799,-0.5698769999186197,9.457837620035807,2.5409698486328125,5.561065673828125,0.444793701171875,-0.3980310951791157,3.639593356993141,0.4354337366615852,0.8969988141741072,4.704793294270833,-0.6761096772693452,0.903824236692542,0.0940372320580652,0.4878872863247865,-13.77124466754098,-2.548962148962147,-4.794621396651859,31.111720130589752,38.39599245215204,34.89762482403331,1577399082.0,-27.712885391777743,-51.104230180581766,22.450054
7729,1577399082.69,-0.4179078997802724,-1.401206521606445,10.966520994262694,1.809257317966368,0.0147739760980372,12.962966925197692,2.2270065775553376,-1.1468796000162758,11.265459873453777,-0.8159637451171875,-0.1152038574218748,0.749969482421875,3.1420079673208843,4.9823667944931405,0.3743985804115852,2.148219517299107,6.169637044270833,-0.7371448335193452,0.903824236692542,0.0940372320580652,0.4878872863247865,-13.77124466754098,-2.548962148962147,-4.794621396651859,31.111720130589752,38.49183814059364,34.993470512474914,1577399082.0,-27.712885391777743,-51.104230180581766,22.450054
7730,1577399082.7,0.1950077252197265,-1.4490905548095705,10.08186348083496,0.0950089292944928,-1.881433738745712,8.052459320217226,-0.1480414693196611,0.174719716389973,10.822532566324869,0.9693145751953124,-0.1914978027343749,0.749969482421875,-0.8863123451791157,1.2287046851181402,-0.7547518102134148,4.589625767299108,5.742390950520833,-1.3169788178943451,1.5365012023773184,0.3761489282322627,-0.4065727386039843,-14.84488159302974,-2.548962148962147,-7.024677860210856,31.063797286368946,38.39599245215204,35.13723904513733,1577399082.0,-27.712885391777743,-51.104230180581766,22.450054
7731,1577399082.71,1.1766304058837889,1.4694412689208984,11.126932505493164,0.3835102293433209,1.7026861465081935,11.648550213771912,0.6061320536295566,-2.0662530375162755,9.67930127360026,5.3485870361328125,1.136016845703125,0.658416748046875,4.469522615758384,1.1676695288681405,-0.2664705602134147,3.170558384486608,-4.114786783854167,2.375648135230655,2.349943015400604,1.2224840167548552,-0.8131454772079686,-7.866241577352692,4.098331298331298,7.322018722018717,31.063797286368946,38.58768382903526,34.96950909036451,1577399082.0,-27.712885391777743,-51.104230180581766,22.450054
7732,1577399082.72,0.1662773052978515,0.9977835418701172,10.96891519592285,0.2865450621069928,-2.314784239233993,9.060418219143006,-0.1456472676595048,3.5242078389485667,9.235176865641275,4.0668487548828125,1.898956298828125,0.322723388671875,3.1420079673208843,0.0385191382431402,1.1373380335365852,2.483912876674107,-3.748575846354168,2.9859996977306547,0.3615296946770146,-0.0940372320580652,-0.3252581908831888,-18.06579236949609,10.745624745624742,-7.024677860210856,31.111720130589752,38.30014676371043,34.8017791355917,1577399082.0,-27.712885391777743,-51.104230180581766,22.450054
7733,1577399082.73,-0.1425747088623037,-0.7260416534423828,7.952221104125976,-0.3694661927758186,-1.1679616440191491,10.398776947170347,-1.7353971700032549,1.6064523091634113,12.802537339274089,3.792190551757813,4.065704345703125,0.475311279296875,4.759439607945884,-3.65410781488186,0.6795743616615852,4.467555454799108,2.782185872395833,0.8497692289806548,0.3615296946770146,-0.0940372320580652,-0.3252581908831888,-17.5289739067517,11.220431420431424,-7.099013075662825,31.111720130589752,38.39599245215204,35.233084733578934,1577399082.0,-27.712885391777743,-51.104230180581766,22.450054
7734,1577399082.74,-0.0575805499267573,-0.3034650604248046,9.86399112976074,-0.6831066102562874,-0.983608116187118,9.599113592678163,-0.8998207906087236,2.6191996114095044,10.25271257120768,1.4270782470703125,-0.176239013671875,0.841522216796875,5.858072420445884,0.1300718726181402,-0.8157869664634148,2.544948032924107,-1.7649332682291667,-1.2254260835193451,1.5365012023773184,-0.3761489282322608,-0.7318309294871798,-0.8876015616756432,3.1487179487179446,-5.983984843883323,31.01587444214814,38.635606673256056,34.94554766825411,1577399082.0,-27.712885391777743,-51.104230180581766,22.450054
7735,1577399082.75,-0.93026705505371,0.8661024505615234,10.047147556762694,0.5068116148413678,-0.5730025314703215,12.16809197402582,0.9305463785807292,-0.0503352396647133,9.725988205973309,4.2499542236328125,4.492950439453125,0.841522216796875,2.1044103110708843,2.4494078101181405,0.3591397913490852,1.7820085797991072,-9.577433268229166,-0.8744739350818451,1.084589084031051,1.0344095526387171,-0.3252581908831888,-10.281924659702444,5.285347985347987,0.5946817236157327,31.063797286368946,38.63560667325606,34.94554766825411,1577399082.0,-27.712885391777743,-51.104230180581766,22.450054
7736,1577399082.76,0.0681150372314453,0.4926069915771484,9.326492857055664,-1.0925150941430062,0.5343157363519435,8.291879486232851,1.7170416239420565,-1.826832871500651,13.769794809977212,3.0292510986328125,2.509307861328125,0.902557373046875,4.240640779820884,0.3436949194931402,0.8626798304115852,2.911158970424107,-2.9246012369791665,3.5047985258556547,2.7114727100776186,0.0940372320580652,0.4878872863247865,-19.13942929498485,-0.6497354497354497,-4.348610103940056,31.111720130589752,38.58768382903526,34.94554766825411,1577399082.0,-27.712885391777743,-51.104230180581766,22.450054
7737,1577399082.77,0.4080916729736327,-0.1011550201416015,11.826039390258789,2.0702252989233987,-0.4257591293707117,13.211963897853945,-0.2102907124837236,-0.0359700297037759,13.942177329508462,3.609085083007813,1.074981689453125,0.780487060546875,-0.7337244545541157,3.761663669493141,0.0692227991615852,1.2937273297991072,4.338582356770833,2.4366832914806547,1.626883626046571,-0.2821116961741956,-0.8131454772079686,-19.13942929498485,-0.6497354497354497,-4.348610103940056,31.01587444214814,38.44391529637284,34.993470512474914,1577399082.0,-27.712885391777743,-51.104230180581766,22.450054
7738,1577399082.78,0.0250194073486328,-1.1258733306884765,13.300867612915038,0.7079245542944929,-0.3180200546636804,12.809738018947693,-0.2581747456868486,-0.3591872538248697,10.384393662516276,2.2663116455078125,0.8003234863281251,0.505828857421875,1.4940587485708845,-2.5859925805068595,-0.9378572789634148,3.918239048549107,4.521687825520833,-1.7137073335193451,1.626883626046571,-0.2821116961741956,-0.8131454772079686,-40.61216780476041,-3.4985754985755,6.9503426447588845,31.111720130589752,38.39599245215204,35.13723904513733,1577399082.0,-27.712885391777743,-51.104230180581766,22.450054
7739,1577399082.79,1.2987346905517578,0.6266822845458984,8.371206394653319,0.1859885923804308,-0.2282374924078216,10.92789551406488,0.5558538187662754,-0.6584624613444009,8.157786118570963,1.6254425048828125,1.441192626953125,0.490570068359375,4.118570467320884,2.3731138648056405,0.1607755335365852,3.063746861049107,-4.038492838541667,0.4530407133556548,0.7230593893540329,-0.470186160290326,3.3306690738754696e-15,-11.623970816563418,8.846398046398045,8.139706091990352,31.11172013058975,38.49183814059364,35.01743193458532,1577399082.0,-27.712885391777743,-51.104230180581766,22.450054
7740,1577399082.8,-0.2479195819091786,0.6889315277099609,9.527605796508787,-0.3670719911156624,0.2877129653558498,8.459473602443788,-3.39218471883138,2.272040370686849,6.529728989664713,3.4259796142578125,1.227569580078125,1.024627685546875,2.0738927329458843,1.1371519507431402,0.3438810022865852,2.209254673549107,-7.898966471354167,1.8873668852306549,0.7230593893540329,0.6582606244064602,-0.3252581908831888,-16.99215544400731,1.2494912494912471,-7.322018722018729,31.25548866325217,38.39599245215204,34.89762482403331,1577399082.0,-27.712885391777743,-51.104230180581766,22.450054
7741,1577399082.81,-0.7363367205810537,0.1215057342529296,10.679216795043944,-1.1571585389672248,1.4417181655511622,10.743541986232849,0.0818018900553378,-0.1173728861490884,9.733170810953776,2.5714874267578125,2.051544189453125,1.146697998046875,3.5997716391958843,-1.88408828363186,0.2218106897865852,3.338405064174107,-5.640665690104167,2.8639293852306547,1.807648473385084,0.2821116961741993,-0.6505163817663776,-16.99215544400731,1.2494912494912471,-7.322018722018729,30.92002875370653,38.44391529637284,35.13723904513733,1577399082.0,-27.712885391777743,-51.104230180581766,22.450054
7742,1577399082.82,0.3865438580322265,0.4351461517333984,9.98010991027832,-0.176732959133241,-1.195494963110946,9.898388800197694,-0.2629631490071616,-0.5890306131998696,11.06554403483073,3.609085083007813,3.394317626953125,0.872039794921875,1.2041417563833845,0.3436949194931402,0.5422452600990852,1.0648454938616072,1.4851888020833333,1.7805553617931549,1.807648473385084,0.2821116961741993,-0.6505163817663776,-4.645330800886369,12.170044770044772,0.185838038629913,31.01587444214814,38.46787671848324,34.92158624614371,1577399082.0,-27.712885391777743,-51.104230180581766,22.450054
7743,1577399082.83,-0.6429628558349599,-0.6254851837158203,10.710341416625976,-2.845070709377381,0.0913884292230372,11.002115765529725,0.0818018900553378,0.0334618184407543,8.713240903727213,1.1219024658203125,0.647735595703125,0.917816162109375,0.1512853110708842,-1.2737367211318598,0.1912931116615852,1.8125261579241072,-2.3752848307291665,-0.3098987397693452,0.7230593893540329,0.094037232058067,-0.4878872863247832,-4.108512338141983,-0.6497354497354497,7.247683506566751,30.89606733159613,38.44391529637284,34.993470512474914,1577399082.0,-27.712885391777743,-51.104230180581766,22.450054
7744,1577399082.84,-0.1904587420654286,1.052850180053711,11.292132420043943,1.0024113584937115,1.458477577172256,11.478561895900818,0.1512337381998691,2.5354025533040354,8.368475864664713,2.6630401611328125,1.166534423828125,1.329803466796875,2.0738927329458843,2.6325132788681405,0.9237149866615852,1.5378679547991072,-13.971964518229166,-1.6526721772693451,1.9884133207235888,1.5986329449871122,-0.8131454772079686,-4.108512338141983,-0.6497354497354497,7.247683506566751,31.01587444214814,38.44391529637284,35.13723904513733,1577399082.0,-27.712885391777743,-51.104230180581766,22.450054
7745,1577399082.85,0.2500743634033203,0.5117606048583984,10.669639988403318,1.1077562315405869,-2.04184524997618,9.802620733791445,1.6188793558756502,1.266475673421224,9.196869639078775,1.8085479736328125,0.7087707519531251,0.841522216796875,1.4330235923208845,0.4352476538681402,1.2899259241615852,3.765651157924107,-14.979044596354166,-1.3474963960193451,1.084589084031051,1.0344095526387171,-0.6505163817663776,-14.84488159302974,-0.6497354497354497,-6.281325705691191,31.25548866325217,38.39599245215204,34.89762482403331,1577399082.0,-27.712885391777743,-51.104230180581766,22.450054
7746,1577399082.86,0.0142454998779301,0.3309983795166015,10.469724149780273,-0.3048227479516003,0.8204228347406158,8.773114019924256,-0.6496267171223955,-1.5323460673014322,9.98456198527018,1.3202667236328125,-0.3288269042968749,0.673675537109375,0.4106847251333843,1.21344589605564,0.1149991663490851,1.4920915876116072,-11.515299479166666,2.1467662992931547,1.4461187787080676,0.0940372320580651,-0.3252581908831888,-23.70238622831216,-0.4123321123321088,7.284851114292733,31.039835864258546,38.37203103004163,34.96950909036451,1577399082.0,-27.712885391777743,-51.104230180581766,22.450054
7747,1577399082.87,0.4631583111572265,-0.010175357055664,8.67048160217285,-0.4867820741234749,-1.5989179428472742,7.640656634670351,1.8535111185709627,-1.4820678324381509,5.591201938883463,-0.0835418701171875,0.2204895019531251,0.536346435546875,2.5621739829458843,4.5246031226181405,0.5880216272865852,-0.8425031389508928,-18.976847330729168,2.8639293852306547,1.807648473385084,1.0344095526387171,0.3252581908831954,-5.718967726375147,1.7242979242979288,7.619359583826587,31.111720130589752,38.39599245215204,34.94554766825411,1577399082.0,-27.712885391777743,-51.104230180581766,22.450054
7748,1577399082.88,-0.2191891619873036,0.5476736297607422,7.839693626098632,1.4046372373999614,-1.977201805151961,8.969438556057069,0.4959987772623691,0.4668123189290356,9.158562412516275,0.0690460205078124,-0.1152038574218748,1.024627685546875,0.6700841391958843,5.3180601538681405,1.1068204554115852,-2.795628138950893,-20.411173502604168,4.145667666480655,2.349943015400604,-0.6582606244064564,-0.8131454772079686,-5.718967726375147,1.7242979242979288,7.619359583826587,31.111720130589752,38.25222391948962,34.94554766825411,1577399082.0,-27.712885391777743,-51.104230180581766,22.450054
7749,1577399082.89,-0.6645106707763663,0.6266822845458984,9.376771091918943,-0.8411239198265998,1.219057411156631,8.639038726955507,0.1272917215983066,1.4556176045735676,12.86478658243815,1.1676788330078125,0.9529113769531252,0.719451904296875,2.8368321860708843,-3.83721328363186,2.327523580411585,4.131862095424108,-10.004679361979166,4.176185244605655,0.0,-0.8463350885225869,-0.3252581908831888,-5.718967726375147,3.623524623524626,-7.247683506566755,31.063797286368946,38.49183814059364,34.8017791355917,1577399082.0,-27.712885391777743,-51.104230180581766,22.450054
7750,1577399082.9,-0.2012326495361323,0.3884592193603515,9.914269364624024,-0.4077734193383192,-0.966848704566024,10.753118792873474,0.221862687174479,-0.8571811991373696,9.001742203776042,0.7251739501953125,1.471710205078125,0.963592529296875,-0.6269129311166156,3.868475192930641,0.7711270960365852,-0.1558576311383928,-3.504435221354167,-0.2488635835193452,0.0,-0.8463350885225869,-0.3252581908831888,-6.255786189119533,4.098331298331297,1.077860624053515,31.01587444214814,38.41995387426245,34.8017791355917,1577399082.0,-27.712885391777743,-51.104230180581766,22.450054
7751,1577399082.91,-1.0380061297607412,-0.2519897247314453,9.891524448852538,0.4613217832983991,-0.6436314804449305,7.853740582424256,0.6588044901529941,1.1946496236165354,5.100390598551432,-2.1282196044921875,0.6782531738281251,0.414276123046875,-1.6492517983041155,-1.91460586175686,2.876839986661585,-0.6899152483258928,-20.777384440104168,-0.4624866303943452,0.5422945420155274,-1.410558480870978,-1.138403668091164,-8.403060040097083,3.1487179487179446,8.288376522894284,31.01587444214814,38.49183814059364,35.28100757779974,1577399082.0,-27.712885391777743,-51.104230180581766,22.450054
7752,1577399082.92,-0.0300472308349599,0.0831985076904296,6.57076674621582,-2.2273666810570685,-0.7274285385503992,9.0388704042016,-0.1049458394368486,-1.031957920328776,10.264683579508462,-3.3489227294921875,-3.075408935546875,1.055145263671875,1.4940587485708845,5.0739195288681405,1.3814786585365852,1.6294206891741072,-26.911417643229168,-1.2864612397693451,1.4461187787080658,0.2821116961741993,-0.6505163817663776,-8.403060040097083,3.1487179487179446,8.288376522894284,30.92002875370653,38.39599245215204,34.993470512474914,1577399082.0,-27.712885391777743,-51.104230180581766,22.450054
7753,1577399082.93,0.1447294903564453,-0.1657984649658203,8.0767195904541,1.7398254698218365,1.1807501845941308,6.3142689149437885,2.401783298746744,1.469982814534505,10.83450357462565,-4.783248901367188,-3.563690185546875,0.872039794921875,-1.4661463295541155,3.3344175757431405,1.9002774866615848,0.1645769391741072,-15.436808268229166,1.4601207914806549,-0.1807648473385055,0.8463350885225905,-0.162629095441591,-5.718967726375147,5.522751322751323,-7.247683506566755,31.20756581903136,38.44391529637284,34.8017791355917,1577399082.0,-27.712885391777743,-51.104230180581766,22.450054
7754,1577399082.94,0.6331466290283202,0.6063315704345703,9.176855253295898,-0.9728050111351936,0.3882694350824122,6.7835324403344135,2.430513718668619,0.5817339986165355,10.71958189493815,-1.0906219482421875,-0.5271911621093749,0.399017333984375,-2.381673673304116,-0.1140687523818597,0.2523282679115852,0.5918230329241072,-15.253702799479166,0.6361461821056548,0.1807648473385091,-1.0344095526387171,0.1626290954415977,-5.718967726375147,5.522751322751323,7.024677860210852,31.08775870847935,38.635606673256056,34.8017791355917,1577399082.0,-27.712885391777743,-51.104230180581766,22.450054
7755,1577399082.95,0.927633433227539,1.0696095916748043,9.058342271118162,0.4433652708472272,0.7737359023675685,9.363284729152772,1.1400390238444005,-2.1907515238444004,9.73676211344401,-1.4568328857421875,0.2204895019531251,0.170135498046875,-1.2067469154916155,-2.6470277367568595,1.396737447599085,-3.177097865513393,-13.971964518229166,2.970740908668155,2.530707862739113,0.2821116961741993,0.0,-5.987376957747332,4.335734635734634,7.061845467936836,30.92002875370653,38.515799562704046,34.96950909036451,1577399082.0,-27.712885391777743,-51.104230180581766,22.450054
7756,1577399082.96,-0.5831078143310536,-0.0796072052001953,9.59703764465332,-0.0677967835961311,-0.3778750961675867,4.628750946193788,0.4265669291178379,1.2042264302571604,10.34369223429362,-3.1047821044921875,-2.678680419921875,0.444793701171875,-1.2525232826791155,-7.7739808617568595,1.6561368616615852,-1.1781964983258928,-5.610148111979167,2.5282360258556547,0.5422945420155274,-1.7867074091032429,-1.138403668091164,-6.255786189119516,5.997557997557995,6.9503426447588845,30.92002875370653,38.25222391948962,34.8017791355917,1577399082.0,-27.712885391777743,-51.104230180581766,22.450054
7757,1577399082.97,-0.5400121844482412,0.1741781707763671,9.987292515258789,-0.2210256898461311,-0.1312723251714929,9.347722418361757,-2.3770432149251297,-2.7462063090006508,11.694021970621744,-2.9521942138671875,-1.030731201171875,0.383758544921875,-5.494466642054116,0.9540464819931402,0.5880216272865852,-3.467014857700893,-1.2766520182291667,1.3380504789806549,1.084589084031051,-0.0940372320580652,0.0,-6.255786189119516,5.997557997557995,6.9503426447588845,30.92002875370653,38.49183814059364,34.993470512474914,1577399082.0,-27.712885391777743,-51.104230180581766,22.450054
7758,1577399082.98,-0.0084994158935541,-0.1957259857177734,10.582251627807617,-0.6088863587914436,-0.3826634994878992,11.457014080959413,-1.9724231343587235,1.1012757588704416,12.333273813883462,-2.4944305419921875,-0.634002685546875,0.383758544921875,-2.930990079554116,-5.75982070550686,1.3509610804115852,-1.4833722795758928,7.146199544270833,1.2770153227306549,0.7230593893540329,0.2821116961741993,-1.3010327635327552,-6.255786189119516,5.047944647944651,-6.132655274787254,31.20756581903136,38.39599245215204,34.8017791355917,1577399082.0,-27.712885391777743,-51.104230180581766,22.450054
7759,1577399082.99,0.305141001586914,-0.7428010650634765,9.664075291137694,-0.4532632508812879,-0.1564114426031341,10.74952749038324,1.4105838114420566,1.6088465108235677,8.691693088785806,-2.3723602294921875,-1.335906982421875,0.444793701171875,-3.327718595179116,1.4423277319931405,1.3357022913490852,4.391261509486608,11.327107747395834,-1.4390491303943451,0.903824236692542,-0.2821116961741956,0.4878872863247865,-5.718967726375135,2.673911273911277,7.9910356610864195,31.111720130589752,38.41995387426244,34.96950909036451,1577399082.0,-27.712885391777743,-51.104230180581766,22.450054
7760,1577399083.0,1.6674417462158204,0.3465606903076171,9.383953696899413,2.625680084079649,1.592552870141006,7.446726300197694,-2.2788809468587234,-0.5579059916178384,10.200040134684244,-1.7925262451171875,0.1594543457031251,0.292205810546875,-2.503743985804116,3.639593356993141,1.4119962366615852,-1.3613019670758928,7.298787434895833,-0.8592151460193452,-0.1807648473385055,0.0940372320580652,-0.162629095441591,-10.55033389107465,-4.448188848188844,7.545024368374619,30.92002875370653,38.68352951747686,34.8017791355917,1577399083.0,-27.712761380640988,-51.10441537170127,22.643301
7761,1577399083.01,0.4823119244384765,0.9379285003662108,8.70878882873535,0.9138258970679304,2.013932362328506,8.880853094631288,-0.2102907124837236,-1.9082357279459636,7.240806882731119,-2.3113250732421875,1.136016845703125,-0.104522705078125,-2.168050626429116,3.4564878882431405,0.4354337366615852,-2.276829310825893,-1.3376871744791667,-0.5540393647693452,1.4461187787080658,0.2821116961741993,-0.6505163817663776,-16.455336981262917,11.220431420431424,-7.247683506566755,30.872105909485725,38.30014676371043,34.8017791355917,1577399083.0,-27.712761380640988,-51.10441537170127,22.643301
7762,1577399083.02,0.2452859600830078,-0.1813607757568359,10.200376463012692,-0.1192721192894905,-0.4066055160894621,9.450673089748475,-0.1839544942220053,-1.9046444254557289,10.11265177408854,-2.7843475341796875,1.395416259765625,-0.424957275390625,-3.495565274866616,2.6935484351181405,0.0234464319740852,-3.2076154436383923,-6.037394205729166,1.0939098539806549,0.903824236692542,1.2224840167548552,-0.4878872863247798,-16.992155444007295,12.170044770044766,0.1115028231779473,31.039835864258546,38.49183814059365,34.89762482403331,1577399083.0,-27.712761380640988,-51.10441537170127,22.643301
7763,1577399083.03,0.946787046508789,0.2795230438232421,7.1932591778564445,1.2490141294898052,1.6428311050042872,8.799450238185976,0.6133146586100253,2.252886757405599,9.496144846598307,-2.7690887451171875,0.7698059082031251,-0.226593017578125,-0.0623377358041157,1.86957382574314,1.9918302210365848,-3.283909388950893,7.848103841145833,5.518958682105655,1.084589084031051,-0.0940372320580652,-0.3252581908831888,-14.84488159302974,10.745624745624742,7.545024368374619,31.063797286368946,38.39599245215204,34.993470512474914,1577399083.0,-27.712761380640988,-51.10441537170127,22.643301
7764,1577399083.04,-0.0922964739990224,-0.8768763580322265,9.805333189086912,0.2649972471655866,-1.6324367660894616,10.765089801174256,0.3810770975748691,3.246480446370441,10.425095090738932,-2.0671844482421875,0.0984191894531251,-0.104522705078125,1.1888829673208845,-1.94512343988186,0.9542325647865852,4.314967564174108,11.296590169270834,-0.5540393647693452,1.2653539313695563,-0.2821116961741956,0.1626290954415977,-14.84488159302974,10.745624745624742,7.0990130756628185,30.872105909485725,38.39599245215204,34.70593344715009,1577399083.0,-27.712761380640988,-51.10441537170127,22.643301
7765,1577399083.05,-1.143351002807616,-0.8361749298095703,12.436560813598632,-1.9759755067406624,-0.6891213119878993,10.398776947170347,0.6348624735514317,-2.018369004313151,9.14419720255534,-1.6704559326171875,-0.2372741699218749,-0.012969970703125,-5.189290860804116,1.3812925757431402,-0.6326814977134148,0.5002702985491072,1.1647542317708333,-2.6597522553943453,0.0,1.0344095526387171,0.0,-14.84488159302974,10.745624745624742,7.0990130756628185,31.111720130589752,38.15637823104801,34.993470512474914,1577399083.0,-27.712761380640988,-51.10441537170127,22.643301
7766,1577399083.06,-0.969771382446288,-0.2699462371826172,9.151716135864255,0.2925305662573835,0.2290550246820221,8.855713977199647,-0.7154672627766927,0.3842123616536458,9.723594004313153,-0.4650115966796875,1.090240478515625,-0.257110595703125,-2.213826993616616,-0.7244203148818598,0.5575040491615852,-2.047947474888393,-4.664103190104167,-1.4695667085193451,0.3615296946770146,-0.470186160290326,0.6505163817663843,-3.5716938753975795,8.846398046398045,8.585717384702152,31.11172013058975,38.44391529637284,34.8497019798125,1577399083.0,-27.712761380640988,-51.10441537170127,22.643301
7767,1577399083.07,0.7887697369384765,0.0975637176513671,8.325716563110351,-0.1396228334008186,-1.206268870581649,9.395606451564882,-0.0259371846516923,1.7237681905110676,8.17933393351237,-4.935836791992188,-5.333709716796875,0.109100341796875,-1.3440760170541155,6.1420347632431405,1.1678556116615852,0.0730242047991072,-1.4597574869791667,-0.1878284272693452,0.7230593893540329,-0.8463350885225869,0.3252581908831954,-19.13942929498485,5.997557997557995,7.545024368374619,31.063797286368946,38.25222391948962,35.13723904513733,1577399083.0,-27.712761380640988,-51.10441537170127,22.643301
7768,1577399083.08,0.439216294555664,-0.441131655883789,10.399095200805665,0.7294723692358991,-0.0977535019293054,9.783467120510194,-0.3300007954915361,1.8889681050618488,7.6310617533365885,-0.8464813232421875,-0.6034851074218749,-0.104522705078125,-3.846517423304116,-0.2971742211318597,0.5575040491615852,-0.9645734514508928,-2.0701090494791665,-0.8897327241443452,0.5422945420155274,0.0940372320580652,0.4878872863247865,-19.13942929498485,5.997557997557995,7.545024368374619,31.20756581903136,38.44391529637284,34.8017791355917,1577399083.0,-27.712761380640988,-51.10441537170127,22.643301
7769,1577399083.09,0.372178648071289,0.0688332977294921,10.85399351623535,0.4301971617163678,1.1951153945550683,9.429125274807069,0.8192160013834628,-1.388693967692057,11.701204575602214,0.3131866455078124,-0.5729675292968749,0.292205810546875,0.4564610923208843,1.7475035132431402,1.4119962366615852,-1.4528547014508928,-1.7344156901041667,-0.7981799897693452,1.2653539313695563,0.4701861602903297,-0.8131454772079686,-19.13942929498485,5.997557997557995,7.545024368374619,31.20756581903136,38.49183814059364,34.993470512474914,1577399083.0,-27.712761380640988,-51.10441537170127,22.643301
7770,1577399083.1,0.3063381024169921,-0.364517202758789,11.72308871887207,1.640466100925352,-0.1276810226812591,9.623055609279724,1.3208012491861971,0.1304269856770829,11.150538193766277,0.1605987548828124,0.5867004394531251,-0.074005126953125,-3.220907071741616,2.8613951148056405,0.3133634241615852,0.8359636579241072,-0.0406901041666667,-0.2641223725818452,0.903824236692542,-0.0940372320580652,-1.4636618589743529,-24.77602315380093,3.386121286121285,7.061845467936834,31.11172013058975,38.61164525114566,34.993470512474914,1577399083.0,-27.712761380640988,-51.10441537170127,22.643301
7771,1577399083.11,-0.0180762225341787,0.0568622894287109,9.391136301879882,0.3966783384741804,0.1057536391839747,10.140203167873477,1.951673386637369,-0.1604685160319009,10.523257358805338,-1.2126922607421875,0.6172180175781251,-0.135040283203125,4.637369295445884,-7.7129457055068595,1.4730313929115852,-2.704075404575893,-4.542032877604167,2.9554821196056547,1.2653539313695563,-0.2821116961741956,-2.114178240740737,-18.60261083224046,10.27081807081807,7.619359583826587,31.01587444214814,38.58768382903526,34.94554766825411,1577399083.0,-27.712761380640988,-51.10441537170127,22.643301
7772,1577399083.12,-0.9733626849365224,-0.1083376251220703,10.997645615844725,0.1309219541968366,-0.0618404770269617,8.052459320217226,1.8319633036295568,0.5553977803548168,8.840133591715496,-2.3723602294921875,-2.587127685546875,-0.165557861328125,-1.2220057045541155,-7.04155898675686,0.2218106897865852,0.3171648297991072,-3.3518473307291665,1.6737438383556549,1.807648473385084,-0.0940372320580652,-0.3252581908831888,-6.255786189119516,11.695238095238096,6.9503426447588845,31.063797286368946,38.58768382903526,34.8017791355917,1577399083.0,-27.712761380640988,-51.10441537170127,22.643301
7773,1577399083.13,-0.7914033587646475,-0.7811082916259765,9.170869749145506,-0.1468054383812874,-0.0163506454839929,11.73234727187738,-1.5414668355305985,-0.2586307840983072,10.985338279215494,-0.9380340576171876,-3.197479248046875,0.231170654296875,-0.3675135170541157,-3.4099671898818595,0.0081876429115852,-2.276829310825893,0.7680257161458333,-0.1267932710193452,2.530707862739113,0.2821116961741993,0.0,-20.749884683218028,-3.0237688237688283,7.024677860210852,31.20756581903136,38.58768382903526,34.993470512474914,1577399083.0,-27.712761380640988,-51.10441537170127,22.643301
7774,1577399083.14,-0.3341108416748042,-0.3118447662353515,10.045950455932616,-0.5705791322289436,-1.1344428207769617,10.777060809475037,-0.4497108784993486,-1.5227692606608072,10.690851475016276,0.6641387939453125,-1.625823974609375,0.597381591796875,-1.5882166420541155,-2.0061585961318595,-0.1444002477134147,0.8664812360491072,5.406697591145833,-1.988365536644345,1.7172660497158274,1.5045957129290486,-0.569201834045582,-20.749884683218028,-3.0237688237688283,7.024677860210852,31.063797286368946,38.44391529637284,34.993470512474914,1577399083.0,-27.712761380640988,-51.10441537170127,22.643301
7775,1577399083.15,0.1758541119384765,-0.9798270294189452,10.897089146118162,0.5463159422339464,0.2529970412835846,9.700867163234802,1.118491208902994,1.595678401692708,9.482976737467448,-0.1140594482421875,-2.861785888671875,0.688934326171875,-0.0318201576791155,-1.9451234398818595,0.6490567835365852,-1.1476789202008928,2.660115559895833,-1.3322376069568451,1.4461187787080658,0.6582606244064602,0.3252581908831954,-4.913740032258559,-0.4123321123321137,8.176873699716335,31.25548866325217,38.32410818582083,34.8257405577021,1577399083.0,-27.712761380640988,-51.10441537170127,22.643301
7776,1577399083.16,-0.5759252093505849,0.3393780853271484,12.4054361920166,-1.3103874452172248,0.146455067406631,7.489821930080507,1.137644822184244,-1.1444853983561196,9.905553330485024,0.6183624267578125,-3.594207763671875,0.963592529296875,1.7687169516958845,-2.6165101586318595,0.0997403772865852,-0.3847394670758928,-1.6123453776041667,0.7887340727306548,1.4461187787080658,0.6582606244064602,0.3252581908831954,-14.30806313028537,3.623524623524626,7.024677860210852,31.063797286368946,38.44391529637284,34.8017791355917,1577399083.0,-27.712761380640988,-51.10441537170127,22.643301
7777,1577399083.17,-0.1258152972412099,0.5213374114990235,10.992857212524411,0.5068116148413678,0.0913884292230372,9.706852667385194,1.970826999918619,-2.1213196756998696,9.02209291788737,2.6630401611328125,-2.281951904296875,0.048065185546875,0.6700841391958843,-2.8606507836318595,-1.0904451695884148,1.4463152204241072,0.3712972005208333,-1.866295224144345,0.1807648473385091,0.0940372320580652,-1.4636618589743595,-22.8971585341956,-0.1749287749287778,-7.247683506566755,31.01587444214814,38.39599245215204,34.993470512474914,1577399083.0,-27.712761380640988,-51.10441537170127,22.643301
7778,1577399083.18,0.4930858319091796,-0.0341173736572265,10.461344443969724,1.8643239561499612,-0.0594462753668054,11.473773492580506,1.195105662027994,1.4364639912923176,9.285455100504558,0.4657745361328124,-4.204559326171875,0.002288818359375,-0.8863123451791157,-4.63067031488186,0.5269864710365852,1.8125261579241072,6.139119466145833,0.2699352446056547,1.9884133207235892,0.8463350885225889,-0.1626290954415944,-32.02307240085019,-4.448188848188844,6.9503426447588845,31.183604396920963,38.49183814059364,34.993470512474914,1577399083.0,-27.712761380640988,-51.10441537170127,22.643301
7779,1577399083.19,1.4280215802001954,-0.6661866119384765,9.546759409790038,0.6504637144507432,-0.241405601538681,9.382438342434025,-0.1468443684895834,0.3686500508626298,8.196093345133463,0.3131866455078124,-3.044891357421875,0.109100341796875,1.8602696860708845,0.0385191382431406,0.4812101038490852,0.0425066266741072,0.9053548177083331,2.1467662992931547,1.4461187787080658,-0.0940372320580652,-0.3252581908831888,-21.82352160870679,10.745624745624742,7.024677860210852,31.01587444214814,38.46787671848324,35.13723904513733,1577399083.0,-27.712761380640988,-51.10441537170127,22.643301
7780,1577399083.2,-0.2646789935302724,-0.805050308227539,11.071865867309567,0.7534143858374616,-1.3187963486089929,13.93022439590082,-2.2333911153157544,-0.0742772562662759,12.536780954996743,2.9987335205078125,-2.739715576171875,0.933074951171875,2.5926915610708843,-4.84429336175686,0.4354337366615852,2.270289829799107,-2.6194254557291665,0.6056286039806548,1.4461187787080658,-0.0940372320580652,-0.3252581908831888,-5.182149263630755,11.695238095238096,6.9503426447588845,31.25548866325217,38.39599245215204,34.993470512474914,1577399083.0,-27.712761380640988,-51.10441537170127,22.643301
7781,1577399083.21,-0.5998672259521474,0.3058592620849609,11.452543931274413,-0.2329966981469124,1.2908834609613185,8.895218304592225,0.0961671000162753,-0.8188739725748696,15.45770698038737,3.5480499267578125,-2.068328857421875,0.475311279296875,-0.1844080483041157,-5.72930312738186,0.0997403772865852,-2.368382045200893,13.615926106770834,1.9484020414806549,1.626883626046571,-0.6582606244064564,-1.7889200498575484,-5.182149263630755,11.695238095238096,6.9503426447588845,31.20756581903136,38.44391529637284,34.89762482403331,1577399083.0,-27.712761380640988,-51.10441537170127,22.643301
7782,1577399083.22,0.2548627667236333,-0.0939724151611328,10.717524021606444,0.0255770811499621,0.5810026687249903,11.429480761867614,-0.1468443684895835,0.321963118489583,8.864075608317057,1.7780303955078125,-3.166961669921875,0.505828857421875,0.8837071860708844,-0.0530335961318597,-0.1444002477134147,0.7444109235491072,25.13631184895833,-3.178551083519345,1.4461187787080636,0.4701861602903279,-0.3252581908831854,-5.718967726375135,-3.4985754985754958,8.288376522894284,31.15964297481056,38.34806960793124,34.94554766825411,1577399083.0,-27.712761380640988,-51.10441537170127,22.643301
7783,1577399083.23,0.2668337750244141,-0.2256535064697265,9.3408580670166,0.2530262388648053,0.3236259902581935,9.649391827541445,1.3842475931803375,2.0661390279134118,3.1730582621256502,0.7709503173828125,-2.404022216796875,0.322723388671875,4.057535311070884,2.0831968726181405,0.4659513147865852,2.056666782924107,0.9206136067708331,-2.9649280366443453,1.2653539313695563,0.0940372320580652,-0.8131454772079686,-21.2867031459624,1.2494912494912471,9.923751262837555,31.01587444214814,38.58768382903526,34.993470512474914,1577399083.0,-27.712761380640988,-51.10441537170127,22.643301
7784,1577399083.24,0.1854309185791015,-0.0915782135009765,9.333675462036132,0.8204520323218366,0.8599271621331934,8.026123101955507,0.6851407084147129,-0.5411465799967446,4.011028843180338,0.8319854736328125,-3.258514404296875,0.383758544921875,-1.3135584389291155,-4.96636367425686,-1.5787264195884148,1.9040788922991072,-19.617716471354168,-0.7371448335193452,1.2653539313695563,0.0940372320580652,-0.8131454772079686,-14.84488159302974,-2.548962148962147,6.9503426447588845,31.01587444214814,38.25222391948962,34.993470512474914,1577399083.0,-27.712761380640988,-51.10441537170127,22.643301
7785,1577399083.25,0.2716221783447265,0.2280477081298828,8.796177189331054,1.1963416929663675,-0.0977535019293054,7.274343780666444,-0.6963136494954424,-3.105336558024088,10.628602231852213,1.8390655517578125,-3.121185302734375,0.292205810546875,3.813394686070884,-0.9380433617568598,0.3743985804115852,2.209254673549107,-19.617716471354168,1.4906383696056549,1.9884133207235877,0.6582606244064602,-0.8131454772079753,-30.949435475361405,-1.5993487993488031,-6.727336998402988,31.111720130589752,38.25222391948962,34.562164914487674,1577399083.0,-27.712761380640988,-51.10441537170127,22.643301
7786,1577399083.26,0.161488901977539,-0.0915782135009765,9.479721763305664,-0.1922952699242566,-0.0438839645757903,10.66573043227777,1.0610303690592442,-1.169624515787761,10.66810655924479,2.0221710205078125,-3.929901123046875,0.627899169921875,1.7534581626333845,-4.63067031488186,-1.2277742711509148,0.7138933454241072,-6.861368815104166,2.7113414946056547,2.349943015400604,0.4701861602903297,-0.4878872863247798,-22.36034007145119,0.7746845746845707,0.2601732540818813,31.111720130589752,38.34806960793124,34.94554766825411,1577399083.0,-27.712761380640988,-51.10441537170127,22.643301
7787,1577399083.27,0.3290830181884765,1.0959458099365234,11.196364353637694,0.6289158995093366,-0.4377301376714929,10.350892913967224,-0.7801107076009111,0.0238850118001293,8.823374180094401,1.5949249267578125,-4.570770263671875,0.414276123046875,3.1420079673208843,-0.3582093773818597,1.3204435022865852,2.575465611049107,-8.875528971354166,0.9413219633556548,2.349943015400604,0.4701861602903297,-0.4878872863247798,-13.77124466754098,-4.448188848188844,8.139706091990352,31.111720130589752,38.58768382903526,34.94554766825411,1577399083.0,-27.712761380640988,-51.10441537170127,22.643301
7788,1577399083.28,0.1183932720947265,-0.3980360260009765,10.212347471313477,0.0758553160132428,-2.836720201148056,9.02689939590082,-2.2046606953938794,0.7086266866048168,11.191239621988933,1.5033721923828125,-1.671600341796875,0.109100341796875,1.9823399985708845,-5.39360976800686,1.1678556116615852,0.8969988141741072,-7.898966471354167,1.8873668852306549,2.349943015400604,0.4701861602903297,-0.4878872863247798,-10.55033389107465,10.745624745624742,6.9503426447588845,31.111720130589752,38.30014676371043,34.70593344715009,1577399083.0,-27.712761380640988,-51.10441537170127,22.643301
7789,1577399083.29,0.3973177655029302,-0.1777694732666015,8.8045568951416,0.2242958189429303,0.9844256484613184,12.11541953750238,-1.9628463277180983,-0.6871928812662759,15.148854966227212,0.0995635986328125,-2.754974365234375,0.154876708984375,2.7757970298208843,-4.53911758050686,0.4354337366615852,2.117701939174107,5.498250325520833,-0.0962756928943452,1.5365012023773184,1.128446784696786,-0.0813145477207921,-22.36034007145118,12.64485144485144,-7.322018722018729,31.08775870847935,38.44391529637284,34.94554766825411,1577399083.0,-27.712761380640988,-51.10441537170127,22.643301
7790,1577399083.3,0.5493495709228515,0.6482300994873047,9.146927732543944,0.2829537596167589,-0.8627009323492273,10.495742114406678,0.4337495340983071,-0.2670104899088541,10.802181852213542,0.9540557861328124,-1.671600341796875,0.231170654296875,1.0820714438833845,3.1207945288681405,0.5575040491615852,4.345485142299108,16.820271809895832,-2.1104358491443453,0.5422945420155274,0.4701861602903297,-0.162629095441591,-18.06579236949608,3.148717948717949,8.214041307442319,31.01587444214814,38.39599245215204,34.945547668254115,1577399083.0,-27.712761380640988,-51.10441537170127,22.643301
7791,1577399083.31,0.7720103253173828,0.2005143890380859,9.336069663696287,1.7254602598608988,0.405028846703506,10.760301397853944,0.8168217997233066,0.3399196309407543,6.249607395426432,0.4962921142578124,-0.2372741699218749,-0.135040283203125,-0.5811365639291157,-4.41704726800686,0.8931974085365852,2.880641392299107,6.017049153645833,-1.6526721772693451,0.5422945420155274,0.4701861602903297,-0.162629095441591,-34.70716471457212,-3.0237688237688283,9.403404754673788,31.30341150747297,38.39599245215204,34.993470512474914,1577399083.0,-27.712761380640988,-51.10441537170127,22.643301
7792,1577399083.32,1.5405490582275392,-0.546476528930664,7.250720017700194,-0.5586081239281624,2.073787403832412,6.46031521621332,1.6500039774576816,2.07332163289388,5.674998996988932,-0.0530242919921875,-1.091766357421875,0.566864013671875,1.4635411704458845,-0.8770082055068598,-0.4800936070884147,1.7820085797991072,-9.455362955729166,-1.6526721772693451,0.5422945420155274,0.4701861602903297,-0.162629095441591,-16.99215544400731,-2.548962148962147,6.9503426447588845,30.92002875370653,38.30014676371043,34.89762482403331,1577399083.0,-27.712761380640988,-51.10441537170127,22.643301
7793,1577399083.33,0.6726509564208983,0.5309142181396485,9.765828861694336,1.3962575315894146,-0.8806574448003991,9.660165735012146,0.0243410502115883,-2.037522617594401,9.720002701822915,1.5338897705078125,-0.9086608886718748,0.276947021484375,-1.160970548304116,0.7251646460556405,0.5117276819740852,1.7057146344866072,-11.484781901041666,0.6666637602306548,1.3557363550388128,0.1880744641161322,-0.0813145477207955,-30.41261701261701,3.148717948717949,0.0371676077259826,31.159642974810552,38.515799562704046,35.065354778806125,1577399083.0,-27.712761380640988,-51.10441537170127,22.643301
7794,1577399083.34,0.199796128540039,0.7703343841552734,10.959338389282223,-0.3479183778344124,1.7409933730706937,8.806632843166444,0.4672683573404941,-0.3903118754069009,11.514456846110026,0.5878448486328125,-0.7560729980468749,0.170135498046875,-2.686849454554116,-0.7244203148818598,-0.1749178258384147,1.5378679547991072,-3.3518473307291665,2.4672008696056547,1.9884133207235888,0.0940372320580652,-0.162629095441591,-22.36034007145118,-0.6497354497354497,8.437046953798218,31.01587444214814,38.39599245215204,35.08931620091653,1577399083.0,-27.712761380640988,-51.10441537170127,22.643301
7795,1577399083.35,0.573291587524414,0.5764040496826172,10.399095200805665,1.189159087985899,0.9580894301995996,12.148938360744568,0.7258421366373691,-0.8978826273600259,9.982167783610024,1.3202667236328125,-0.2677917480468749,0.109100341796875,0.2123204673208842,4.7687437476181405,0.4049161585365852,-1.1476789202008928,-2.0090738932291665,3.840491885230655,2.349943015400604,1.2224840167548552,-0.4878872863247798,-14.84488159302974,-4.448188848188844,7.0990130756628185,31.30341150747297,38.30014676371043,34.8017791355917,1577399083.0,-27.712761380640988,-51.10441537170127,22.643301
7796,1577399083.36,-0.0013168109130849,-0.000598550415039,9.881947642211912,-0.3622835877953499,-0.974031309546493,7.999786883693788,-0.1648008809407548,2.2959823872884115,9.555999888102214,-2.2502899169921875,-1.732635498046875,0.048065185546875,-5.311361173304116,5.5622007788681405,-0.6937166539634148,-0.5678449358258928,-0.2085367838541666,-0.0962756928943452,2.349943015400604,1.2224840167548552,-0.4878872863247798,-14.84488159302974,-4.448188848188844,7.0990130756628185,31.20756581903136,38.25222391948962,34.993470512474914,1577399083.0,-27.712761380640988,-51.10441537170127,22.643301
7797,1577399083.37,0.5888538983154297,0.0939724151611328,8.490916477661132,-0.0282924562035535,-0.3539330795660242,9.969017749172302,0.1380656290690102,-0.4034799845377603,10.410729880777994,-0.0835418701171875,-0.862884521484375,0.414276123046875,1.2346593345083845,-1.7925355492568595,0.6795743616615852,-1.8190656389508928,0.829060872395833,-1.4085315522693451,1.80764847338508,-0.470186160290326,0.3252581908831921,-10.013515428330248,12.644851444851444,-6.132655274787259,31.063797286368946,38.44391529637284,34.84970197981251,1577399083.0,-27.712761380640988,-51.10441537170127,22.643301
7798,1577399083.38,-0.1401805072021474,0.4566939666748046,10.588237131958008,0.2242958189429303,-1.1488080307378992,10.089924933010192,-0.8782729756673173,0.8522787862141917,5.653451182047526,1.2592315673828125,0.2510070800781251,0.688934326171875,-0.8252771889291157,2.2663023413681405,0.3438810022865852,1.3242449079241072,-6.830851236979167,-1.0423206147693451,0.0,0.2821116961741993,-0.3252581908831888,-5.182149263630755,5.997557997557995,-4.6459509657479225,31.01587444214814,38.58768382903526,34.89762482403331,1577399083.0,-27.712761380640988,-51.10441537170127,22.643301
7799,1577399083.39,1.3633781353759766,0.2962824554443359,8.340081773071288,0.3511885069312116,1.7122629531488185,10.67889854140863,1.1448274271647128,-1.98724438273112,10.123425681559244,-1.1211395263671875,0.5867004394531251,-0.104522705078125,-1.832357267054116,4.6466734351181405,2.297006002286585,-0.3542218889508928,-8.478800455729166,-0.9507678803943452,0.903824236692542,1.5986329449871122,-0.4878872863247798,-10.55033389107465,3.1487179487179446,9.626410401029688,31.111720130589752,38.49183814059364,34.753856291370894,1577399083.0,-27.712761380640988,-51.10441537170127,22.643301
7800,1577399083.4,0.381755454711914,0.1885433807373046,8.58189614074707,-0.9967470277367562,-1.3475267685308678,6.572842694240663,0.2709438212076816,1.527443654378255,7.901606540934244,-2.8606414794921875,-1.976776123046875,0.658416748046875,0.4259435141958843,5.0128843726181405,0.6795743616615852,0.2866472516741072,-12.781778971354166,1.9484020414806549,-0.7230593893540292,2.539005265567768,-0.3252581908831888,-14.84488159302974,-0.6497354497354497,-4.94329182755579,31.01587444214814,38.44391529637284,34.753856291370894,1577399083.0,-27.712761380640988,-51.10441537170127,22.643301
7801,1577399083.41,0.420062681274414,-0.3214215728759765,9.767025962524412,2.1169122312964457,-0.0079709396734466,10.34730161147699,1.5123373819986972,-1.658041654459635,12.011253690592447,-0.9685516357421876,-1.427459716796875,0.322723388671875,0.609048982945884,-1.4568421898818595,2.007089010099085,0.4087175641741072,-1.5207926432291667,0.3004528227306547,-0.7230593893540292,2.539005265567768,-0.3252581908831888,-30.949435475361405,-2.5489621489621466,7.024677860210852,31.063797286368946,38.30014676371043,35.065354778806125,1577399083.0,-27.712761380640988,-51.10441537170127,22.643301
7802,1577399083.42,0.314717808227539,0.2029085906982421,10.88631523864746,0.6097622862280866,-0.4042113144293054,5.928802447658632,-0.2557805440266923,1.3263307149251302,11.595859702555336,-0.8007049560546875,-0.4814147949218749,0.246429443359375,-0.6726892983041157,0.8014585913681402,0.0387052210365852,-2.704075404575893,6.383260091145833,2.4366832914806547,0.3615296946770183,-0.0940372320580652,0.9757745726495765,-19.13942929498485,10.745624745624742,7.0990130756628185,31.01587444214814,38.49183814059364,34.70593344715009,1577399083.0,-27.712761380640988,-51.10441537170127,22.643301
7803,1577399083.43,0.2907757916259765,0.0784101043701171,9.020035044555662,1.9553036192358988,0.1057536391839747,13.88952296767816,1.9061835550944,0.5410325703938793,8.95266106974284,0.4962921142578124,1.074981689453125,0.292205810546875,-4.182210782679116,0.8930113257431402,0.2218106897865852,-6.366184779575892,2.324422200520833,-0.7066272553943452,1.2653539313695563,0.4701861602903297,0.1626290954415977,-19.13942929498485,10.745624745624742,7.545024368374619,30.92002875370653,38.44391529637284,34.993470512474914,1577399083.0,-27.712761380640988,-51.10441537170127,22.643301
7804,1577399083.44,-0.6094440325927724,-0.182557876586914,9.012852439575196,-0.3407357728539436,0.3212317885980372,11.66291542373285,-0.8136295308430986,1.7046145772298176,10.051599631754558,-1.8230438232421875,-3.594207763671875,0.658416748046875,2.6232091391958843,-3.98980117425686,4.189095846036585,-3.314426967075893,6.139119466145833,1.7652965727306549,0.0,0.6582606244064602,-0.3252581908831888,-18.60261083224046,11.220431420431424,-6.653001782951026,31.111720130589752,38.39599245215204,34.8017791355917,1577399083.0,-27.712761380640988,-51.10441537170127,22.643301
7805,1577399083.45,-0.0779312640380854,-0.3609259002685546,10.24706339538574,-0.655573291164491,-1.0183240402593836,9.680516449123475,-0.2126849141438803,0.7469339131673174,10.54839647623698,-1.8383026123046875,-3.182220458984375,0.643157958984375,-1.298299649866616,2.1900083960556405,0.1607755335365852,-1.6359601702008926,10.121663411458334,-0.4930042085193452,0.8134418130232856,0.7522978564645253,-1.2197182158119628,-10.550333891074631,5.522751322751318,-6.727336998402988,30.99191302003773,38.58768382903526,34.921586246143704,1577399083.0,-27.712761380640988,-51.10441537170127,22.643301
7806,1577399083.46,0.8198943585205077,0.4686649749755859,9.273820420532225,0.1668349790991803,-0.2174635849371179,9.608690399318789,-0.8208121358235674,0.1771139180501293,4.547330015055338,-0.8769989013671875,-0.8171081542968749,0.658416748046875,1.5856114829458845,-7.10259414300686,2.480111471036585,-0.6899152483258928,-3.0161539713541665,-0.6150745210193452,0.7230593893540329,0.6582606244064602,0.0,-5.182149263630755,28.78827838827839,6.9503426447588845,30.92002875370653,38.39599245215204,34.94554766825411,1577399083.0,-27.712761380640988,-51.10441537170127,22.643301
7807,1577399083.47,0.8151059552001952,-0.1562216583251953,9.604220249633787,0.6863767393530866,0.1201188491449122,6.374123956447694,0.5151523905436192,-2.727052695719401,10.17130971476237,-1.3957977294921875,-0.5119323730468749,0.170135498046875,0.6090489829458843,-1.85357070550686,2.205453267911585,-4.565647670200892,-13.941446940104166,-0.1878284272693452,0.5422945420155274,1.974781873219373,0.1626290954415977,-5.182149263630755,9.796011396011387,7.545024368374619,31.01587444214814,38.44391529637284,34.22670500494204,1577399083.0,-27.712761380640988,-51.10441537170127,22.643301
7808,1577399083.48,0.6523002423095703,-0.1705868682861328,9.077495884399411,1.5770197569312114,-0.5718054306402429,9.405183258205506,1.0753955790201817,1.7548928120930989,8.9382958597819,-0.3582000732421875,-0.5424499511718749,0.719451904296875,-3.449788907679116,-0.4497621117568597,-0.6021639195884148,0.0730242047991072,-14.399210611979166,1.3075329008556549,0.3615296946770146,1.4105584808709817,0.3252581908831954,-5.182149263630755,9.796011396011387,7.545024368374619,31.111720130589752,38.30014676371043,34.8017791355917,1577399083.0,-27.712761380640988,-51.10441537170127,22.643301
7809,1577399083.49,-0.1318008013916005,-0.2699462371826172,10.28656772277832,0.6875738401831651,-0.6532082870855556,10.14259736953363,0.3870626017252602,-1.715502494303385,11.558749576822915,-1.3805389404296875,-2.983856201171875,0.536346435546875,-3.953328946741616,-3.92876601800686,1.1983731897865852,-2.322605678013393,-9.516398111979166,-0.0657581147693452,0.3615296946770146,0.6582606244064583,0.9757745726495765,-40.07534934201602,-2.074155474155475,7.545024368374621,31.01587444214814,38.44391529637284,35.233084733578934,1577399083.0,-27.712761380640988,-51.10441537170127,22.643301
7810,1577399083.5,0.3362656231689452,0.6290764862060546,10.200376463012692,1.2370431211890238,0.6013533828363185,11.861634161525815,-1.8766550679524732,-0.2394771708170572,11.184057017008463,1.5644073486328125,-1.305389404296875,1.085662841796875,-0.9168299233041156,-4.23394179925686,1.6866544397865852,-0.7204328264508928,11.266072591145834,3.779456728980655,0.7230593893540329,0.6582606244064602,0.6505163817663843,-20.213066220473635,1.2494912494912471,8.139706091990352,31.111720130589752,38.15637823104801,34.70593344715009,1577399083.0,-27.712761380640988,-51.10441537170127,22.643301
7811,1577399083.51,0.9396044415283202,-0.0317231719970703,11.021587632446288,-0.977593414455506,1.1113183364495998,10.738753582912535,-1.5725914571126296,1.067756935628254,11.200816428629556,-0.9990692138671876,-2.129364013671875,0.353240966796875,2.0738927329458843,-0.5413148461318598,1.5951017054115852,-4.748753138950892,8.214314778645834,0.4530407133556547,1.2653539313695563,-0.2821116961741956,-0.4878872863247798,-9.476696965585868,-4.448188848188844,7.0990130756628185,31.01587444214814,38.15637823104801,34.993470512474914,1577399083.0,-27.712761380640988,-51.10441537170127,22.643301
7812,1577399083.52,0.3985148663330077,-0.211288296508789,9.216359580688476,-0.4365038392601936,-0.677150303687118,12.113025335842224,1.0346941507975254,-3.064635129801432,11.241517856852212,-1.3042449951171875,-2.495574951171875,0.353240966796875,-3.663411954554116,1.1066343726181402,0.8626798304115852,-1.9106183733258928,14.653523763020834,0.5751110258556548,1.084589084031051,1.4105584808709817,0.0,-13.77124466754098,1.2494912494912471,-7.024677860210856,31.20756581903136,38.49183814059364,34.94554766825411,1577399083.0,-27.712761380640988,-51.10441537170127,22.643301
7813,1577399083.53,0.3219004132080078,-0.1837549774169921,9.529999998168943,0.968892535251524,-0.5406808090582117,12.484126593166444,0.4888161722819004,4.017413380940754,9.95343736368815,-0.4344940185546875,-0.1152038574218748,0.444793701171875,-0.2454432045541157,4.3720152319931405,0.9542325647865852,-2.643040248325893,20.055135091145832,-0.6150745210193452,1.084589084031051,1.4105584808709817,0.0,-6.255786189119516,1.2494912494912471,-6.132655274787254,31.111720130589752,38.30014676371043,34.94554766825411,1577399083.0,-27.712761380640988,-51.10441537170127,22.643301
7814,1577399083.54,0.333871421508789,0.4806359832763671,9.92264907043457,0.6109593870581648,0.0243507827386627,9.439899182277772,-0.5909687764485677,-1.5790329996744794,9.662541861979166,-0.0225067138671875,0.0068664550781251,0.353240966796875,-1.6950281654916155,-4.78325820550686,0.2523282679115852,-1.2392316545758928,19.261678059895832,-1.255943661644345,1.807648473385084,0.6582606244064602,-1.3010327635327552,-5.987376957747332,28.076068376068378,7.730862407004537,31.25548866325217,38.46787671848324,34.96950909036451,1577399083.0,-27.712761380640988,-51.10441537170127,22.643301
7815,1577399083.55,1.0210072979736329,0.1502361541748046,9.951379490356445,1.8451703428687116,-0.820802403296493,12.072323907619568,0.5797958353678379,3.859396071370442,4.983074717203776,-1.3347625732421875,0.5867004394531251,0.170135498046875,-1.862874845179116,1.1981871069931402,-0.0223299352134147,-1.3613019670758928,-0.1169840494791666,-0.0962756928943452,0.3615296946770146,1.4105584808709817,0.6505163817663843,-6.255786189119516,26.889051689051684,7.842365230182486,31.063797286368946,38.25222391948962,34.70593344715009,1577399083.0,-27.712761380640988,-51.10441537170127,22.643301
7816,1577399083.56,1.8972851055908204,-0.201711489868164,8.672875803833007,1.4788574888648052,0.8096489272699122,9.002957379299257,1.3411519632975253,1.0725453389485666,9.390799973551433,-1.4263153076171875,0.7698059082031251,0.200653076171875,-1.984945157679116,-1.94512343988186,1.7476895960365852,-0.6288800920758928,-0.5747477213541667,-1.4695667085193451,0.903824236692542,0.4701861602903297,0.8131454772079753,-14.30806313028537,12.170044770044768,-6.50433135204709,30.92002875370653,38.49183814059364,34.993470512474914,1577399083.0,-27.712761380640988,-51.10441537170127,22.643301
7817,1577399083.57,0.041778818969727,-0.287902749633789,9.989686716918944,-0.7896485841332405,-0.0929650986089934,10.67291303725824,1.1137028055826816,-1.3946794718424478,12.591847593180338,-0.3276824951171875,0.891876220703125,0.063323974609375,2.4248448813833843,0.7404234351181407,0.1607755335365852,1.6904558454241072,-1.398722330729167,0.1326061430431547,0.903824236692542,0.4701861602903297,0.8131454772079753,-9.476696965585866,0.2998778998778986,7.545024368374619,31.039835864258546,38.37203103004164,34.96950909036451,1577399083.0,-27.712761380640988,-51.10441537170127,22.643301
7818,1577399083.58,-0.3963600848388661,-0.402824429321289,10.631332761840818,2.5849786558569927,-0.9979733261480556,12.151332562404724,0.9437144877115878,-3.3471509256998693,9.239965268961589,2.5409698486328125,1.136016845703125,0.048065185546875,-3.785482267054116,4.5551207007431405,0.0387052210365852,0.4392351422991072,-3.3518473307291665,0.3004528227306547,1.626883626046571,0.0940372320580652,0.8131454772079753,-22.36034007145118,3.1487179487179446,7.247683506566751,31.20756581903136,38.30014676371043,34.753856291370894,1577399083.0,-27.712761380640988,-51.10441537170127,22.643301
7819,1577399083.59,0.1926135235595703,-0.048482583618164,9.709565122680663,0.5355420347632428,-0.1432433334722742,9.2304065370141,-0.0498792012532548,2.9280516255696605,9.218417454020184,-0.1750946044921875,-2.129364013671875,0.475311279296875,2.1349278891958843,-4.99688125238186,1.3814786585365852,2.941676548549107,-3.4739176432291665,3.1385875883556547,1.084589084031051,1.4105584808709817,0.3252581908831954,-14.84488159302974,6.9471713471713485,6.9503426447588845,31.20756581903136,38.39599245215204,34.753856291370894,1577399083.0,-27.712761380640988,-51.10441537170127,22.643301
7820,1577399083.6,-0.4789600421142568,0.1574187591552734,10.63731826599121,-1.873024835353944,1.0921647231683498,8.5408764588891,1.0442709574381503,2.13078247273763,10.168915513102212,0.7556915283203125,-1.290130615234375,0.505828857421875,-2.320638517054116,-3.4099671898818595,0.2218106897865852,-2.917698451450893,-2.5583902994791665,2.1925426664806547,0.903824236692542,0.0940372320580652,0.4878872863247865,-5.718967726375147,-3.973382173382172,7.024677860210852,31.15964297481056,38.49183814059364,34.70593344715009,1577399083.0,-27.712761380640988,-51.10441537170127,22.643301
7821,1577399083.61,1.032978306274414,-1.1905167755126953,10.099819993286133,0.5223739256323835,-0.5490605148687591,11.78382260757074,-0.6687803304036459,-2.812046854654948,13.93140342203776,0.6488800048828125,0.1289367675781251,0.444793701171875,1.7229405845083845,-0.7854554711318597,0.954232564786585,2.773829868861608,6.902058919270834,0.4530407133556547,0.903824236692542,0.0940372320580652,0.4878872863247865,-5.718967726375147,2.6739112739112723,-5.7609791975274245,31.111720130589752,38.32410818582083,34.945547668254115,1577399083.0,-27.712761380640988,-51.10441537170127,22.643301
7822,1577399083.62,0.8749609967041014,-0.010175357055664,9.3408580670166,1.593779168552305,0.405028846703506,7.726847894435975,2.0450472513834628,2.963964650472004,10.532834165445964,2.1137237548828125,0.3425598144531251,0.780487060546875,1.1278478110708845,-5.91240859613186,-0.3885408727134147,0.5002702985491072,18.071492513020832,-0.7371448335193452,1.626883626046571,0.0940372320580652,0.4878872863247865,-6.255786189119516,7.896784696784701,8.437046953798218,30.92002875370653,38.30014676371043,34.89762482403331,1577399083.0,-27.712761380640988,-51.10441537170127,22.643301
7823,1577399083.63,0.7193378887939452,-0.7835024932861328,10.480498057250976,0.3056986753882428,0.6564200210199123,11.986132647853944,1.2286244852701815,1.5250494527180989,8.016528220621744,2.2357940673828125,0.7698059082031251,0.383758544921875,-6.226888517054116,3.4870054663681405,-0.6021639195884148,3.735133579799107,17.064412434895832,-3.727867489769345,0.7230593893540329,-0.0940372320580652,-0.3252581908831888,-4.108512338141983,-3.4985754985755,6.9503426447588845,31.111720130589752,38.44391529637284,34.993470512474914,1577399083.0,-27.712761380640988,-51.10441537170127,22.643301
7824,1577399083.64,0.897705912475586,0.5309142181396485,11.745833634643551,0.9257969053687116,0.2972897719964747,11.7586834901391,-0.4401340718587236,-1.3120795145670572,9.345310142008463,3.1208038330078125,0.6629943847656251,0.719451904296875,6.804117342320884,-0.8770082055068598,1.1678556116615852,2.117701939174107,8.244832356770834,-2.5071643647693453,0.3615296946770146,1.7867074091032429,0.3252581908831954,-22.36034007145118,10.745624745624742,-6.132655274787254,31.063797286368946,38.39599245215204,34.8017791355917,1577399083.0,-27.712761380640988,-51.10441537170127,22.643301
7825,1577399083.65,-0.2694673968505849,-0.7739256866455078,11.682387290649412,0.9485418211401958,0.8910517837152252,9.350116620021913,0.0291294535319008,-0.6608566630045578,11.043996219889324,1.2592315673828125,0.1899719238281251,0.383758544921875,0.3801671470083841,-1.77727676019436,-0.4495760289634147,0.9885515485491072,3.484090169270833,0.4072643461681549,0.3615296946770146,1.7867074091032429,0.3252581908831954,-20.213066220473635,11.22043142043142,-6.727336998402992,31.111720130589752,38.41995387426245,34.89762482403331,1577399083.0,-27.712761380640988,-51.10441537170127,22.643301
7826,1577399083.66,0.6259640240478515,0.1717839691162109,10.288961924438476,0.3607653135718366,-0.543075010718368,11.011692572170348,1.9492791849772129,-3.2370176493326817,8.263130991617839,1.0761260986328125,0.9529113769531252,0.200653076171875,5.705484529820884,1.5643980444931402,0.7406095179115852,-1.0256086077008928,1.8056233723958333,2.8334118071056547,0.7230593893540329,0.6582606244064602,0.0,-13.77124466754098,-0.6497354497354497,11.707796433684758,30.92002875370653,38.49183814059364,34.8017791355917,1577399083.0,-27.712761380640988,-51.10441537170127,22.643301
7827,1577399083.67,0.9300276348876952,-0.0029927520751953,10.973703599243162,-0.9440745912133186,-1.6276483627691491,7.576013189846132,1.5542359110514317,4.601598586018879,8.265525193277995,1.6864776611328125,1.349639892578125,0.475311279296875,3.813394686070884,-4.69170547113186,-0.3580232945884147,1.3547624860491072,-7.441202799479167,1.8568493071056549,1.9884133207235888,1.2224840167548552,-0.162629095441591,-6.255786189119516,13.594464794464791,7.0990130756628185,31.063797286368946,38.39599245215204,34.94554766825411,1577399083.0,-27.712761380640988,-51.10441537170127,22.643301
7828,1577399083.68,0.5230133526611328,-0.1083376251220703,7.758290769653319,2.474845379489805,0.692333045922256,11.322938787990662,-0.6891310445149736,-0.4765031351725259,11.804155246988932,2.1442413330078125,3.333282470703125,0.109100341796875,0.3954259360708843,5.0128843726181405,-0.2359529820884147,5.932399204799108,-3.992716471354168,-0.6150745210193452,2.1691781680620985,1.0344095526387171,-1.3010327635327552,-6.255786189119516,3.1487179487179446,7.693694799278552,31.063797286368946,38.49183814059364,35.13723904513733,1577399083.0,-27.712761380640988,-51.10441537170127,22.643301
7829,1577399083.69,0.1734599102783207,-0.1310825408935546,10.312903941040036,1.039521484226133,-0.4185765243902435,9.21843552871332,-0.309650081380208,-0.4896712443033859,11.373198948160807,1.6407012939453125,1.074981689453125,0.246429443359375,3.1572667563833843,-1.6094300805068595,0.5575040491615852,4.391261509486608,8.351643880208334,-0.8744739350818451,0.1807648473385091,1.034409552638723,-1.138403668091164,-5.718967726375135,3.1487179487179446,7.6193595838265855,31.01587444214814,38.34806960793124,35.065354778806125,1577399083.0,-27.712761380640988,-51.10441537170127,22.643301
7830,1577399083.7,0.7959523419189453,-0.1705868682861328,9.458173948364257,-0.4795994691430061,0.0195623794183497,10.58313047500238,-0.0355139912923173,-0.4621379252115884,5.308686142985025,1.3202667236328125,2.753448486328125,0.200653076171875,1.9518224204458845,2.0526792944931405,0.2828458460365852,3.246852329799107,-2.8330485026041665,-1.0728381928943451,0.1807648473385091,1.2224840167548552,-1.138403668091164,-5.182149263630755,3.1487179487179446,7.545024368374619,30.77626022104412,38.30014676371043,35.08931620091653,1577399083.0,-27.712761380640988,-51.10441537170127,22.643301
7831,1577399083.71,0.257256968383789,-0.125097036743164,9.812515794067382,1.014382366794493,-1.0721935776128992,10.439478375393003,1.1280680155436191,0.3159776143391918,8.588742417399088,2.6630401611328125,1.837921142578125,0.322723388671875,2.7147618735708843,-0.1140687523818597,0.3743985804115852,2.728053501674107,-10.065714518229166,-1.1949085053943451,0.5422945420155274,0.4701861602903297,-0.8131454772079686,-18.06579236949609,8.846398046398045,7.247683506566751,31.063797286368946,38.39599245215204,34.993470512474914,1577399083.0,-27.712761380640988,-51.10441537170127,22.643301
7832,1577399083.72,0.8917204083251953,0.3728969085693359,9.616191257934569,1.0526895933569929,1.4369297622308497,9.196887713771911,-1.172759779866536,0.0047313985188793,10.516074753824867,1.8390655517578125,0.7392883300781251,0.170135498046875,-1.893392423304116,-0.9685609398818598,-0.3275057164634147,1.3852800641741072,-8.967081705729166,0.4835582914806547,-0.1807648473385055,0.8463350885225905,-1.138403668091164,-17.5289739067517,10.27081807081807,8.065370876538386,31.20756581903136,38.25222391948962,35.13723904513733,1577399083.0,-27.712761380640988,-51.10441537170127,22.643301
7833,1577399083.73,0.7827842327880858,0.1610100616455078,9.217556681518554,0.8048897215308214,0.5738200637445215,8.959861749416444,0.7090827250162759,-0.8380275858561201,9.718805600992836,1.8543243408203125,1.151275634765625,0.276947021484375,1.5703526938833845,1.2287046851181405,0.0539640100990852,0.3629411969866072,-3.794352213541667,1.3227916899181549,0.451912118346271,0.9403723205806538,-0.2439436431623866,-6.255786189119516,10.745624745624742,8.139706091990352,31.01587444214814,38.39599245215204,34.873663401922904,1577399083.0,-27.712761380640988,-51.10441537170127,22.643301
7834,1577399083.74,0.8055291485595703,0.6721721160888672,10.15249242980957,-1.7317669374047249,1.197509596215225,10.743541986232849,1.5374764994303378,-1.3360215311686197,8.440301914469401,2.0832061767578125,2.356719970703125,0.414276123046875,-1.862874845179116,-2.3113343773818595,-0.5716463414634148,2.361842564174107,-8.204142252604166,1.9178844633556549,0.1807648473385091,0.8463350885225905,-0.8131454772079686,-6.255786189119516,10.745624745624742,11.707796433684758,31.20756581903136,38.30014676371043,34.94554766825411,1577399083.0,-27.712761380640988,-51.10441537170127,22.643301
7835,1577399083.75,0.0058657940673828,0.5500678314208984,11.699146702270507,0.2003538023413678,-0.3635098862066492,10.051617706447692,0.6252856669108067,0.8091831563313793,7.765137046305338,2.7545928955078125,2.326202392578125,0.231170654296875,2.6232091391958843,3.883733981993141,0.6185392054115852,0.1645769391741072,-12.659708658854166,1.4296032133556549,0.1807648473385091,1.974781873219373,-0.4878872863247798,28.637413889265726,13.119658119658112,7.470689152922654,30.92002875370653,38.58768382903526,34.89762482403331,1577399083.0,-27.712761380640988,-51.10441537170127,22.643301
7836,1577399083.76,-0.6692990740966788,0.5093664031982421,9.242695798950194,-0.2665155213890999,-1.5869469345464928,8.323004107814882,-2.2357853169759108,0.1124704732259105,10.288625596110023,2.2357940673828125,5.042266845703125,-0.287628173828125,-0.6421717201791157,-0.6328675805068598,0.1302579554115852,-0.9950910295758928,-12.629191080729166,0.5751110258556548,0.7230593893540329,1.4105584808709817,-1.6262909544159505,-26.65488777340629,-3.4985754985755,7.842365230182486,31.01587444214814,38.39599245215204,34.993470512474914,1577399083.0,-27.712761380640988,-51.10441537170127,22.643301
7837,1577399083.77,0.5325901593017582,-0.2220622039794921,8.176078959350585,0.3811160276831651,0.4828404006585846,9.126258764797305,1.3136186442057285,-1.1911723307291668,9.208840647379557,-2.2350311279296875,-0.0083923339843748,0.063323974609375,1.2651769126333845,1.2744810523056405,0.5880216272865852,1.3547624860491072,-3.138224283854167,-0.6303333100818452,-0.0903824236692527,0.3761489282322627,-0.5692018340455787,-2.4980569499088072,-3.0237688237688283,7.619359583826587,31.063797286368946,38.30014676371043,34.7778177134813,1577399083.0,-27.712761380640988,-51.10441537170127,22.643301
7838,1577399083.78,-0.4657919329833974,0.1023521209716796,10.755831248168944,-1.233772992092225,-2.0346626449957115,9.304626788478943,0.3116452494303379,0.1866907246907543,8.595925022379557,1.4118194580078125,1.471710205078125,0.872039794921875,-0.8863123451791157,2.6630308569931405,-0.2054354039634147,4.376002720424108,-8.600870768229166,-0.1267932710193452,-0.5422945420155202,0.0940372320580652,-0.4878872863247798,-5.182149263630755,-3.4985754985755,9.329069539221818,30.92002875370653,38.44391529637284,34.753856291370894,1577399083.0,-27.712761380640988,-51.10441537170127,22.643301
7839,1577399083.79,0.5301959576416015,1.2324153045654296,9.371982688598631,-0.3862256043969124,1.7529643813714746,7.274343780666444,0.3284046610514316,2.176272304280599,9.314185520426433,3.3649444580078125,4.584503173828125,0.780487060546875,-4.121175626429116,3.1818296851181405,-0.4800936070884147,-0.2321515764508928,-14.216105143229166,-2.3545764741443453,0.1807648473385091,1.974781873219373,-0.162629095441591,-14.84488159302974,5.047944647944651,6.9503426447588845,31.111720130589752,38.39599245215204,34.70593344715009,1577399083.0,-27.712761380640988,-51.10441537170127,22.643301
7840,1577399083.8,1.091636246948242,0.182557876586914,7.2339606060791,3.0039639463843364,0.8671097671136622,11.5288401307641,2.1599689310709627,1.9320637349446612,11.30137289835612,-1.8993377685546875,-1.335906982421875,0.429534912109375,-0.2454432045541157,8.64447616949314,1.8087247522865848,-6.335667201450892,-11.133829752604166,0.6666637602306548,-0.2711472710077601,2.2568935693935703,-0.569201834045582,-27.728524698895075,10.745624745624742,-7.322018722018729,31.039835864258546,38.25222391948962,34.89762482403331,1577399083.0,-27.712761380640988,-51.10441537170127,22.643301
7841,1577399083.81,0.4320336895751953,-0.0915782135009765,11.656051072387694,1.1939474913062116,-0.6472227829351657,8.363705536037537,0.743798649088541,0.8031976521809886,8.962237876383464,1.0456085205078125,1.410675048828125,-0.012969970703125,-3.083577970179116,0.2674009741806402,0.0539640100990852,-3.833225795200892,-7.029215494791666,0.2089000883556548,-0.3615296946770146,1.7867074091032429,-0.9757745726495664,-25.84966007928972,-0.8871387871387858,0.1486704309039304,30.92002875370653,38.276185341600026,34.8017791355917,1577399083.0,-27.712761380640988,-51.10441537170127,22.643301
7842,1577399083.82,0.5230133526611328,0.8852560638427733,10.593025535278318,0.2434494322241803,0.184762293969131,9.491374517971131,1.0442709574381503,-0.7973261576334634,7.66218637491862,0.5878448486328125,1.227569580078125,-0.135040283203125,4.179605623570884,3.2428648413681405,1.7476895960365852,-1.5444074358258928,-15.589396158854166,2.5892711821056547,-0.3615296946770146,1.7867074091032429,-0.9757745726495664,-25.044432385173145,0.7746845746845754,7.322018722018717,31.20756581903136,38.25222391948962,34.753856291370894,1577399083.0,-27.712761380640988,-51.10441537170127,22.643301
7843,1577399083.83,0.602022007446289,0.9235632904052734,8.957785801391601,0.0614901060523053,-2.633213060034775,6.754802020412538,-0.0043893697102861,-0.3424278422037759,8.299044016520181,-1.3652801513671875,4.248809814453125,-0.348663330078125,-2.992025235804116,1.0150816382431402,1.5340665491615852,2.209254673549107,-16.962687174479168,2.9859996977306547,0.3615296946770146,0.2821116961741993,-0.3252581908831888,-14.84488159302974,11.695238095238096,6.9503426447588845,31.111720130589752,38.58768382903526,34.753856291370894,1577399083.0,-27.712761380640988,-51.10441537170127,22.643301
7844,1577399083.84,0.003471592407227,0.029328970336914,7.144178043823241,-1.0111122376976935,1.8200020278558495,11.971767437893003,0.6755639017740879,-0.9266130472819007,10.48973853556315,-3.4709930419921875,-1.366424560546875,0.215911865234375,-0.0623377358041157,-1.5178773461318598,0.6490567835365852,1.9345964704241072,-11.835734049479166,3.0775524321056547,0.903824236692542,0.4701861602903298,-0.8131454772079753,-6.255786189119516,6.9471713471713485,-6.429996136595121,31.111720130589752,38.44391529637284,34.8017791355917,1577399083.0,-27.712761380640988,-51.10441537170127,22.643301
7845,1577399083.85,0.5469553692626953,-0.2759317413330078,9.498875376586913,-0.0091388429223035,-1.087755888403915,9.72720338149652,1.9744183024088533,1.1647221028645829,7.676551584879557,-0.7244110107421875,1.441192626953125,0.322723388671875,-3.083577970179116,3.0445005835556405,1.534066549161585,0.4239763532366072,-7.395426432291666,0.0563121977306547,0.5422945420155274,-0.2821116961741956,0.1626290954415977,-5.987376957747332,5.285347985347987,2.676067756270798,31.063797286368946,38.39599245215204,34.8497019798125,1577399083.0,-27.712761380640988,-51.10441537170127,22.643301
7846,1577399083.86,-0.0922964739990224,0.2723404388427734,8.890748154907225,0.1716233824194928,1.0155502700433496,6.184982025295351,1.202288267008463,-1.5514996805826822,8.65817426554362,-0.6328582763671875,2.631378173828125,0.292205810546875,-1.832357267054116,-2.7385804711318595,1.1373380335365852,-1.6054425920758928,-13.666788736979166,-0.1573108491443452,0.5422945420155274,-0.2821116961741956,0.1626290954415977,-18.06579236949609,3.1487179487179446,10.518432986453288,31.30341150747297,38.39599245215204,34.8017791355917,1577399083.0,-27.712761380640988,-51.10441537170127,22.643301
7847,1577399083.87,-0.0468066424560537,0.8780734588623046,9.891524448852538,0.8156636290015241,1.039492286644912,8.832969061428162,1.3291809549967442,1.1563423970540354,8.385235276285806,-0.3887176513671875,1.441192626953125,0.109100341796875,-1.5576990639291155,1.86957382574314,1.2594083460365852,0.8054460797991072,-13.971964518229166,-1.2254260835193451,0.3615296946770146,0.6582606244064602,-1.951549145299146,-19.13942929498485,4.098331298331297,9.329069539221818,31.111720130589752,38.44391529637284,35.13723904513733,1577399083.0,-27.712761380640988,-51.10441537170127,22.643301
7848,1577399083.88,0.5625176800537108,0.1610100616455078,8.846455424194335,0.6744057310523054,-0.6053242538824305,9.285473175197694,0.9173782694498692,-0.6369146464029946,11.114625168863933,-4.752731323242188,-1.915740966796875,-0.302886962890625,-4.304281095179116,-4.05083633050686,0.9542325647865852,-3.283909388950893,-7.776896158854167,-0.3098987397693452,-0.0903824236692527,1.6926701770451775,-0.8944600249287709,-40.61216780476041,1.2494912494912471,-7.322018722018729,31.063797286368946,38.44391529637284,34.8017791355917,1577399083.0,-27.712761380640988,-51.10441537170127,22.643301
7849,1577399083.89,0.8773551983642577,0.0664390960693359,9.78857377746582,-0.2892604371605847,0.3164433852777247,9.132244268947693,-0.3323949971516928,-1.078644852701823,9.820559171549478,-2.5249481201171875,-0.2983093261718749,-0.257110595703125,-3.175130704554116,-4.06609511956936,0.9542325647865852,-1.8038068498883928,-0.9256998697916669,0.8650280180431548,0.0,1.7867074091032429,-0.9757745726495664,-35.24398317731653,5.047944647944647,-0.1115028231779553,31.01587444214814,38.34806960793124,34.8017791355917,1577399083.0,-27.712761380640988,-51.10441537170127,22.643301
7850,1577399083.9,1.3107056988525392,0.2005143890380859,10.265019907836914,1.5506835386694926,0.0458985976800685,8.43313738418207,-1.076991713460286,2.1547244893391926,8.514522165934244,-1.1211395263671875,-0.2677917480468749,0.048065185546875,-1.5576990639291155,3.5785582007431405,0.2218106897865852,-7.251194545200892,-7.898966471354167,2.1009899321056547,0.0,1.7867074091032429,-0.9757745726495664,-19.13942929498485,5.047944647944651,11.856466864588688,31.01587444214814,38.44391529637284,34.70593344715009,1577399083.0,-27.712761380640988,-51.10441537170127,22.643301
7851,1577399083.91,0.496677134399414,-0.4842272857666015,10.099819993286133,0.4756869932593366,-0.102541905249618,9.168157293850038,0.965262302652994,0.4859659322102855,8.26791939493815,-3.1658172607421875,-0.1457214355468749,-0.379180908203125,-4.426351407679116,1.0761167944931402,0.3438810022865852,-2.459934779575893,-4.755655924479167,0.9108043852306548,1.4461187787080658,-1.2224840167548476,-0.3252581908831888,-12.697607742052195,10.745624745624742,6.9503426447588845,31.111720130589752,38.30014676371043,34.94554766825411,1577399083.0,-27.712761380640988,-51.10441537170127,22.643301
7852,1577399083.92,0.3673902447509765,0.1562216583251953,8.177276060180663,0.2530262388648053,0.4337592666253809,8.95507334609613,-0.3431689046223955,-0.1461033060709639,12.32249990641276,-3.135299682617188,0.861358642578125,-0.562286376953125,-2.015462735804116,0.5725767554306403,0.6032804163490852,-2.5820050920758923,3.590901692708333,-0.2030872163318451,0.0903824236692545,0.7522978564645234,-1.3823473112535574,-16.992155444007295,5.522751322751323,-0.0371676077259857,30.96795159792733,38.39599245215204,34.921586246143704,1577399083.0,-27.712761380640988,-51.10441537170127,22.643301
7853,1577399083.93,-0.0372298358154287,-0.680551821899414,10.181222849731444,-0.4077734193383186,-2.08015247653868,9.237589141994569,2.691481699625651,-0.1293438944498696,10.456219712320962,-2.6775360107421875,0.7392883300781251,-0.165557861328125,-6.959310392054116,2.8766539038681405,-1.1209627477134148,-0.2931867327008928,12.914021809895834,-2.7207874116443453,-1.2653539313695563,1.2224840167548552,-0.162629095441591,-23.433976996939982,5.997557997557995,7.0990130756628185,31.111720130589752,38.49183814059364,34.753856291370894,1577399083.0,-27.712761380640988,-51.10441537170127,22.643301
7854,1577399083.94,-0.5256469744873037,-0.2088940948486328,10.43979662902832,0.5666666563452741,0.7186692641839747,9.735583087307068,1.6428213724772127,0.4787833272298168,9.026881321207682,-1.5483856201171875,0.8613586425781251,-0.379180908203125,-7.874837735804116,-3.98980117425686,0.9237149866615852,-3.131321498325893,8.214314778645834,-1.5306018647693451,-1.2653539313695563,1.2224840167548552,-0.162629095441591,-23.433976996939982,5.047944647944651,9.329069539221818,31.20756581903136,38.49183814059364,34.993470512474914,1577399083.0,-27.712761380640988,-51.10441537170127,22.643301
7855,1577399083.95,1.204163724975586,-0.0424970794677734,8.788994584350585,2.395836724704649,1.611706483422256,7.0468946229516005,-0.6843426411946611,0.4452645039876293,9.024487119547526,-3.120040893554688,-0.298309326171875,-0.852203369140625,-0.9473475014291156,3.944769138243141,1.5645841272865852,-4.474094935825892,4.735310872395833,-1.6526721772693451,-0.1807648473385055,2.162856337335505,3.3584246494910985e-15,-21.82352160870679,7.42197802197802,7.024677860210852,31.039835864258546,38.49183814059364,34.993470512474914,1577399083.0,-27.712761380640988,-51.10441537170127,22.643301
7856,1577399083.96,0.554137974243164,-0.7068880401611328,8.996093027954101,0.6337043028296495,-0.5059648849859462,10.863252069240662,1.0753955790201817,0.2058443379720048,10.935060044352213,-2.3418426513671875,-0.2372741699218749,-0.501251220703125,-0.8405359779916158,1.0150816382431405,0.6185392054115852,-1.0561261858258928,15.797932942708332,-1.3932727632068451,-0.7230593893540292,-0.0940372320580652,-0.9757745726495664,-18.602610832240472,-3.973382173382172,7.173348291114785,30.92002875370653,38.34806960793124,34.993470512474914,1577399083.0,-27.712761380640988,-51.10441537170127,22.643301
7857,1577399083.97,0.4847061260986328,0.2507926239013672,9.249878403930664,0.0638843077124616,-0.1743679550543054,10.808185431057067,-0.4784412984212236,-3.2849016825358066,12.950977842203775,-0.6938934326171875,0.1899719238281251,-0.501251220703125,1.1583653891958845,-4.32549453363186,0.3133634241615852,-2.337864467075893,27.226765950520832,1.0023571196056549,0.3615296946770146,0.2821116961741993,0.0,-21.2867031459624,10.745624745624742,7.0990130756628185,31.111720130589752,38.39599245215204,34.753856291370894,1577399083.0,-27.712761380640988,-51.10441537170127,22.643301
7858,1577399083.98,1.0784681378173828,0.4495113616943359,10.741466038208006,2.2833092466773053,0.6899388442620997,10.48736240859613,3.3307335428873697,-0.5794538065592447,8.059623850504558,0.4657745361328124,2.204132080078125,-0.836944580078125,-4.121175626429116,6.7218687476181405,-0.2664705602134147,-1.3918195452008928,28.905232747395832,1.3990856352306549,1.2653539313695563,1.5986329449871122,-0.8131454772079686,-14.84488159302974,3.1487179487179446,11.856466864588688,31.063797286368946,38.30014676371043,34.8017791355917,1577399083.0,-27.712761380640988,-51.10441537170127,22.643301
7859,1577399083.99,0.544561167602539,-0.335786782836914,9.498875376586913,0.5044174131812116,0.1320898574456935,11.140979461818787,-0.3012703755696611,1.8746028951009115,7.367699570719401,-1.7314910888671875,-0.7255554199218749,-0.928497314453125,3.691324373570884,3.792181247618141,0.3133634241615852,-8.624485560825892,22.527058919270832,-0.9202503022693452,1.2653539313695563,1.5986329449871122,-0.8131454772079686,-14.84488159302974,3.1487179487179446,11.856466864588688,31.111720130589752,38.25222391948962,34.94554766825411,1577399083.0,-27.712761380640988,-51.10441537170127,22.643301
7860,1577399084.0,0.1219845745849614,-0.6398503936767578,10.710341416625976,-0.2713039247094129,-0.116907115210556,11.58630097060785,0.6444392801920572,-0.0575178446451826,10.238347361246744,-1.0295867919921875,0.2052307128906251,-0.775909423828125,-0.5506189858041158,0.1605894507431404,-0.2206941930259147,-0.1253400530133928,13.280232747395834,-0.4319690522693452,0.7230593893540327,1.7867074091032429,-0.9757745726495664,-6.255786189119516,3.623524623524621,2.192888855833014,31.15964297481056,38.49183814059365,34.873663401922904,1577399084.0,-27.71263780993294,-51.10459996240007,22.839577
7861,1577399084.01,0.9827000714111328,-0.0915782135009765,10.57387192199707,0.5499072447241804,-0.7561589584722742,13.334068182521913,-0.4832297017415361,1.1826786153157542,10.961396262613931,1.3507843017578125,0.1899719238281251,-0.562286376953125,-1.6187342201791155,6.9660093726181405,-0.6326814977134148,-1.5749250139508928,8.855183919270834,-1.927330380394345,0.1807648473385091,0.8463350885225905,-0.8131454772079686,-6.255786189119516,26.889051689051684,6.9503426447588845,31.111720130589752,38.25222391948962,34.993470512474914,1577399084.0,-27.71263780993294,-51.10459996240007,22.839577
7862,1577399084.02,0.036990415649414,0.3633201019287109,10.4517676373291,-0.2808807313500374,-0.2294345932378992,8.107525958400819,1.6428213724772127,-3.256171262613932,5.490645469156901,0.1300811767578124,0.6477355957031251,-0.318145751953125,-0.9473475014291156,-2.3418519555068595,-0.6937166539634148,-0.1711164202008928,-2.6499430338541665,-1.6526721772693451,-1.446118778708062,0.6582606244064602,-0.6505163817663776,-3.034875412653199,-4.448188848188844,8.139706091990352,31.01587444214814,38.39599245215204,35.13723904513733,1577399084.0,-27.71263780993294,-51.10459996240007,22.839577
7863,1577399084.03,1.693777964477539,-0.5201403106689453,8.876382944946288,2.4485091612280865,-0.2509824081793054,10.477785601955503,-1.0123482686360674,2.887350197347004,10.008504001871744,-0.7549285888671875,0.1899719238281251,-0.989532470703125,0.3954259360708843,1.99164413824314,-1.3040682164634148,4.284449986049108,-5.091349283854167,-0.4624866303943452,-1.446118778708062,0.6582606244064602,-0.6505163817663776,-6.255786189119516,9.796011396011387,8.437046953798218,31.01587444214814,38.15637823104801,34.8017791355917,1577399084.0,-27.71263780993294,-51.10459996240007,22.839577
7864,1577399084.04,0.554137974243164,-0.5069722015380859,8.331702067260741,0.7366549742163678,0.229055024682022,8.044079614406678,-0.6759629353841147,-0.9816796854654948,10.772254331461587,-0.0530242919921875,0.1136779785156251,-0.775909423828125,0.1512853110708842,-4.05083633050686,0.2065519007240852,-1.3765607561383928,-4.679361979166667,-0.8134387788318451,-1.446118778708062,1.2224840167548514,-0.3252581908831888,-22.36034007145118,10.745624745624742,-7.024677860210856,30.99191302003773,38.34806960793124,34.94554766825411,1577399084.0,-27.71263780993294,-51.10459996240007,22.839577
7865,1577399084.05,0.3889380596923827,0.1837549774169921,9.850823020629882,1.5770197569312114,0.280530360375381,10.937472320705506,-1.0722033101399735,-1.1923694315592446,10.628602231852213,2.9376983642578125,-0.0541687011718748,-0.440216064453125,0.9142247641958844,-3.5930726586318595,-2.6468416539634148,1.1106218610491072,-1.8564860026041667,-0.2793811616443452,-0.5422945420155202,0.4701861602903297,-0.4878872863247798,-21.82352160870679,11.220431420431424,7.322018722018717,31.20756581903136,38.635606673256056,34.993470512474914,1577399084.0,-27.71263780993294,-51.10459996240007,22.839577
7866,1577399084.06,0.793558140258789,0.5716156463623047,12.92258375061035,-0.5801559388695686,1.6548021133050683,10.39159434218988,2.8399222025553383,-0.8739406107584633,9.958225767008464,1.9306182861328125,-0.0541687011718748,-0.684356689453125,4.149088045445884,-4.08135390863186,0.6490567835365852,2.300807407924107,-1.3987223307291667,0.6971813383556548,-0.5422945420155202,1.974781873219373,0.4878872863247865,-12.697607742052195,-4.448188848188844,8.288376522894284,31.111720130589752,38.30014676371043,34.94554766825411,1577399084.0,-27.71263780993294,-51.10459996240007,22.839577
7867,1577399084.07,0.5756857891845703,0.1646013641357421,9.529999998168943,-1.3678482850609748,-0.5861706406011804,7.458697308498476,-0.3156355855305986,0.011914003499348,11.011674497477212,-0.5107879638671875,0.3730773925781251,-0.775909423828125,1.8907872641958845,6.4777281226181405,-1.0904451695884148,1.4463152204241072,-2.7414957682291665,0.6971813383556548,-0.5422945420155202,1.974781873219373,0.4878872863247865,-12.697607742052195,-0.6497354497354497,7.693694799278552,31.111720130589752,38.39599245215204,34.753856291370894,1577399084.0,-27.71263780993294,-51.10459996240007,22.839577
7868,1577399084.08,0.4930858319091796,-0.441131655883789,9.473736259155272,-0.3443270753441785,0.2458144363031159,10.950640429836366,0.8766768412272129,0.3710442525227855,12.05434932047526,-0.8769989013671875,-1.000213623046875,-0.440216064453125,1.2194005454458845,1.9153501929306405,0.7253507288490852,3.506251743861608,7.588704427083334,-1.6984485444568451,-0.0903824236692527,1.128446784696786,0.4065727386039909,-11.355561585191216,-0.4123321123321091,-4.683118573473907,31.08775870847935,38.276185341600026,35.01743193458532,1577399084.0,-27.71263780993294,-51.10459996240007,22.839577
7869,1577399084.09,0.0058657940673828,0.0616506927490234,11.261007798461913,2.953685711521055,-2.44407112888243,10.36765232558832,0.6995059183756503,-1.0104101053873695,8.777884348551432,3.0292510986328125,1.990509033203125,-0.104522705078125,-2.839437345179116,-1.1211488305068598,-1.7923494664634148,2.667018345424107,6.169637044270833,-1.835777646019345,-0.5422945420155202,0.8463350885225905,-0.8131454772079686,-6.255786189119516,-2.548962148962147,-3.7539283803243206,31.25548866325217,38.39599245215204,35.13723904513733,1577399084.0,-27.71263780993294,-51.10459996240007,22.839577
7870,1577399084.1,0.448793101196289,0.4997895965576172,11.328045444946287,1.52674152206793,2.480801686058975,11.23435332656488,0.924560874430338,-0.4190422953287759,7.724435618082682,3.2733917236328125,5.225372314453125,-0.379180908203125,-1.801839688929116,-1.82305312738186,-0.4190584508384147,0.9580339704241072,-0.3916422526041667,-1.1949085053943451,0.5422945420155274,0.4701861602903297,-0.162629095441591,-9.476696965585868,-1.5993487993488031,6.9503426447588845,31.01587444214814,38.44391529637284,34.8017791355917,1577399084.0,-27.71263780993294,-51.10459996240007,22.839577
7871,1577399084.11,2.026571995239258,-0.2735375396728515,8.495704880981444,-1.556990216213319,-0.0738114853277429,7.880076800685975,-2.1663534688313795,1.1563423970540354,8.457061326090495,-1.2737274169921875,-0.2372741699218749,-0.562286376953125,2.8368321860708843,4.6161558569931405,-0.7242342320884148,2.026149204799107,-4.175821940104167,-1.2254260835193451,0.0,2.162856337335503,0.0,-9.476696965585868,-4.448188848188844,6.9503426447588845,31.20756581903136,38.39599245215204,34.8017791355917,1577399084.0,-27.71263780993294,-51.10459996240007,22.839577
7872,1577399084.12,0.7121552838134765,0.0029927520751953,9.138548026733398,2.745390167087461,0.2482086379632721,8.843742968898866,0.8587203287760415,-1.1349085917154946,9.04124653116862,-0.8769989013671875,0.6019592285156251,-0.501251220703125,-3.312459806116616,6.7676451148056405,-0.9378572789634148,0.9580339704241072,-5.579630533854167,-0.3098987397693452,0.0903824236692545,1.1284467846967845,-0.0813145477207955,-7.866241577352692,-4.448188848188844,6.9503426447588845,31.08775870847935,38.34806960793124,34.753856291370894,1577399084.0,-27.71263780993294,-51.10459996240007,22.839577
7873,1577399084.13,0.3123236065673828,-0.0748188018798828,9.9537736920166,-1.293628033596131,1.0801937148675684,6.922396136623475,0.2709438212076816,0.7828469380696604,7.358122764078776,2.2968292236328125,0.8003234863281251,-0.592803955078125,-0.0013025795541157,-1.85357070550686,-0.7547518102134148,1.2937273297991072,-7.960001627604167,1.2464977446056549,-0.1807648473385055,0.4701861602903297,0.4878872863247865,-6.255786189119516,10.745624745624742,8.139706091990352,31.063797286368946,38.25222391948962,34.753856291370894,1577399084.0,-27.71263780993294,-51.10459996240007,22.839577
7874,1577399084.14,0.678636460571289,0.6937199310302734,10.269808311157226,2.0654368956030864,-0.8830516464605555,9.95106123672113,0.1105323099772128,-1.807679258219401,8.713240903727213,2.1747589111328125,0.8918762207031251,-0.409698486328125,0.2428380454458842,4.7077085913681405,-0.6631990758384148,0.8969988141741072,-13.270060221354166,1.1549450102306549,-0.7230593893540292,3.2913031220322897,-0.9757745726495664,-14.84488159302974,-4.448188848188844,6.9503426447588845,31.063797286368946,38.39599245215204,34.70593344715009,1577399084.0,-27.71263780993294,-51.10459996240007,22.839577
7875,1577399084.15,-0.0994790789794916,0.0568622894287109,8.244313706665038,-0.7381732484398811,-0.8375618149175867,8.753960406643007,-0.8208121358235674,1.1850728169759104,8.287073008219402,-0.0530242919921875,0.357818603515625,-0.470733642578125,1.8602696860708845,-3.92876601800686,0.6490567835365852,0.5918230329241072,-12.903849283854166,1.7958141508556549,0.7230593893540329,-0.0940372320580652,-0.9757745726495664,-12.160789279307805,4.573137973137979,7.024677860210852,31.063797286368946,38.44391529637284,34.94554766825411,1577399084.0,-27.71263780993294,-51.10459996240007,22.839577
7876,1577399084.16,0.190219321899414,-0.7643488800048828,9.848428818969726,-0.8746427430687874,0.7952837173089747,7.493413232570741,-0.2833138631184893,-0.3412307413736978,9.237571067301433,-0.8769989013671875,-1.244354248046875,0.048065185546875,-0.3217371498666156,-3.57781386956936,0.0539640100990852,0.6833757672991072,-8.936564127604166,-0.9049915132068452,-0.1807648473385055,1.974781873219373,0.1626290954415977,-19.13942929498485,-4.448188848188844,7.545024368374619,31.111720130589752,38.44391529637284,35.20912331146853,1577399084.0,-27.71263780993294,-51.10459996240007,22.839577
7877,1577399084.17,0.429639487915039,0.5787982513427734,9.858005625610351,0.7270781675757428,-0.2294345932378992,9.386029644924257,-0.2485979390462236,-2.698322275797526,8.002163010660807,0.0995635986328124,-1.488494873046875,-0.226593017578125,0.2123204673208842,6.1420347632431405,-0.8463045445884148,-1.4528547014508928,-10.096232096354166,-0.1573108491443452,0.7230593893540329,-0.0940372320580652,-1.3010327635327552,-3.571693875397591,-0.1749287749287778,9.552075185577722,31.111720130589752,38.44391529637284,34.70593344715009,1577399084.0,-27.71263780993294,-51.10459996240007,22.839577
7878,1577399084.18,0.9396044415283202,0.6434416961669921,9.012852439575196,2.091773113864805,-1.136837022437118,8.665374945217225,1.1041259989420569,1.7309507954915364,8.234400571695963,-0.2056121826171875,0.0984191894531251,-0.074005126953125,-0.4895838295541157,3.700628513243141,0.2218106897865852,2.483912876674107,-11.866251627604166,-1.2559436616443451,0.5422945420155274,1.974781873219373,-2.7646946225071147,-18.06579236949609,3.1487179487179446,7.0990130756628185,30.92002875370653,38.44391529637284,34.70593344715009,1577399084.0,-27.71263780993294,-51.10459996240007,22.839577
7879,1577399084.19,0.7600393170166015,-0.1945288848876953,9.4174725201416,-0.1180750184594124,1.8295788344964747,8.825786456447695,1.511140281168619,1.3430901265462238,9.515298459879558,0.2216339111328124,-0.710296630859375,-0.287628173828125,-2.564779142054116,-2.9522035180068595,0.4049161585365852,-0.6899152483258928,-13.117472330729166,-1.896812802269345,1.2653539313695563,2.350930801451637,-1.138403668091164,-22.8971585341956,-3.973382173382172,7.024677860210852,31.15964297481056,38.49183814059364,34.94554766825411,1577399084.0,-27.71263780993294,-51.10459996240007,22.839577
7880,1577399084.2,0.726520493774414,0.2292448089599609,8.991304624633788,1.8918572752417584,-0.0163506454839935,8.792267633205507,1.9660385965983065,-2.235044254557291,10.53522836710612,-1.3652801513671875,-0.8781433105468749,-0.592803955078125,-2.213826993616616,1.80853866949314,-0.1291414586509147,0.3019060407366072,-6.998697916666666,-0.8592151460193451,0.1807648473385091,1.974781873219373,-1.4636618589743595,-23.165567765567797,10.983028083028085,1.0406930163275323,31.01587444214814,38.32410818582083,34.89762482403331,1577399084.0,-27.71263780993294,-51.10459996240007,22.839577
7881,1577399084.21,0.9803058697509764,0.3274070770263672,9.278608823852538,-0.5083298890648812,-0.1719737533941492,6.903242523342225,0.7330247416178378,-0.0168164164225259,9.855275095621744,-0.7244110107421875,-0.9696960449218748,-0.348663330078125,-1.1914881264291155,-7.2246644555068595,0.0387052210365852,3.735133579799107,0.4018147786458333,1.6127086821056549,-0.903824236692542,1.974781873219373,-1.7889200498575484,-23.433976996939982,-2.548962148962147,8.139706091990352,31.01587444214814,38.25222391948962,34.94554766825411,1577399084.0,-27.71263780993294,-51.10459996240007,22.839577
