,timestamp,acc_x_dashboard,acc_y_dashboard,acc_z_dashboard,acc_x_above_suspension,acc_y_above_suspension,acc_z_above_suspension,acc_x_below_suspension,acc_y_below_suspension,acc_z_below_suspension,gyro_x_dashboard,gyro_y_dashboard,gyro_z_dashboard,gyro_x_above_suspension,gyro_y_above_suspension,gyro_z_above_suspension,gyro_x_below_suspension,gyro_y_below_suspension,gyro_z_below_suspension,mag_x_dashboard,mag_y_dashboard,mag_z_dashboard,mag_x_above_suspension,mag_y_above_suspension,mag_z_above_suspension,temp_dashboard,temp_above_suspension,temp_below_suspension,timestamp_gps,latitude,longitude,speed
93392,1577396364.34,0.3744297815834603,2.7328352071622524,10.50295391696837,0.64608407726753,-2.7484267155344893,7.350023911192359,6.282560341737328,8.178359290443979,11.910102146353372,12.176327589081556,-11.249821360518292,1.5390907845846038,5.416684034394055,3.529246260480183,-0.4886534155868902,4.825498999618903,3.671599597465701,13.01388624237805,-5.195027527915633,-20.2676754235348,5.313963566195704,-17.784555606430608,-33.38508668056082,-18.023490772048465,28.81142360799113,37.91676400994399,45.15311348728547,1577396364.0,-27.68325694641561,-51.12593485603504,8.800537
93393,1577396364.35,0.5539949060951791,-4.897485483755716,8.822224351538681,5.015502107052686,-4.773921320026677,3.394802768614234,-1.6829485816025145,-5.806172606528677,9.877424936880717,-3.875918504668445,-11.554997141768292,0.7456337533346037,-5.356021043730945,-3.489796708269817,-0.7327940405868902,1.3464950933689026,5.624724597465701,10.54196241425305,-5.195027527915633,-20.2676754235348,5.313963566195704,-17.784555606430608,-33.38508668056082,-18.023490772048465,28.76350076377033,37.62922694461916,45.00934495462306,1577396364.0,-27.68325694641561,-51.12593485603504,8.800537
93394,1577396364.36,-0.7927435277427115,1.5860126119474085,11.373246220435163,-1.9899319505645,4.795702715617854,16.7712074439072,-12.938090585997044,-5.023268663657583,21.379169712271345,-3.418154832793445,0.5757401629192073,2.759793909584604,-7.248110887480945,-10.081593583269816,1.861200100038109,-1.7968154535060974,-5.941437511909299,-4.777861804496951,-5.277488282326992,-20.72415459974054,4.516869031266345,-18.24686736874237,-4.420856227106227,-26.185071499013805,28.739539341659928,37.91676400994399,44.91349926618145,1577396364.0,-27.68325694641561,-51.12593485603504,8.800537
93395,1577396364.37,-1.1458882726157584,0.4200364034513139,13.308958262671494,-3.169076268191453,-2.267192181843084,7.973713443663062,1.3421252160049069,3.588674707924447,4.336045194449077,-2.624697801543445,-12.470524485518292,1.874784143959604,5.080990675019055,-0.9263201457698172,2.914056545350609,6.320860327743903,1.230193347465701,-2.1380912966844514,-5.52487054556107,-19.537308741605617,2.8341139019710444,-13.62374974562475,-3.963526272577997,-20.74401768103691,28.76350076377033,37.84487974361278,44.93746068829185,1577396364.0,-27.68325694641561,-51.12593485603504,8.800537
93396,1577396364.38,0.611455745938929,-0.5232790506502476,12.16931827243712,0.5479218092011239,0.433467290813166,7.211160214903296,-4.321358811094703,10.268497339760383,8.598921250357279,-4.333682176543445,4.344661061356708,1.813748987709604,-7.705874559355945,-16.215626786394818,2.257928615663109,22.2205185308689,5.502654284965701,2.3632514767530486,-5.854713563206507,-20.2676754235348,1.7713211887318916,-13.508171805046809,-33.08020004420866,-100.99956149619612,28.76350076377033,37.725072633060776,44.81765357773984,1577396364.0,-27.68325694641561,-51.12593485603504,8.800537
93397,1577396364.39,0.0631835657631468,-1.4067394632479038,6.085651853980088,-1.4272945604277814,2.535576348430354,14.204623264219702,8.533109902284203,-1.4726676016458642,3.204784910025249,-7.171816942168445,1.1403153582317074,3.248075159584604,-1.9075347156059448,-11.943165848894816,0.8236024437881098,5.832579077743903,16.7636406130907,-1.1157524294969514,-4.700263001447477,-20.450267094017097,3.7197744963369854,-13.62374974562475,-30.031333680687133,-113.24193258664414,28.61973223110792,37.725072633060776,45.00934495462306,1577396364.0,-27.68325694641561,-51.12593485603504,8.800537
93398,1577396364.4,1.528434981778773,-0.7962180399080606,7.932778434790634,4.412163288693312,-1.350212946003239,8.065890207579077,3.3879705346084217,0.2367923837056971,10.49991736852134,1.2357758312690557,-1.3926436261432928,1.1576210580221038,2.2733734875190548,12.806590010480184,1.830682521913109,5.588438452743903,6.753874988090701,7.154511242378049,-5.112566773504273,-20.724154599740537,4.516869031266345,-18.940335012210014,-30.94599358974359,-100.319429768949,28.907269296432744,37.91676400994399,44.96142211040225,1577396364.0,-27.68325694641561,-51.12593485603504,8.800537
93399,1577396364.41,1.281832210782679,-0.3341371194979038,10.670548033179308,1.839593604855421,0.1174326716725418,5.109051157286109,2.8133621361709227,1.5548003976217135,9.342320865835797,5.218319776581555,0.8046219988567074,-0.2309287466653963,-4.791445848418444,0.3401593464176837,0.7015321312881094,-4.268739281631096,5.3805839724657005,-2.0007621951219514,-5.689792054383788,-21.545817116910868,4.782567209576139,-16.39762031949532,-16.61632168119237,-100.319429768949,29.00311498487435,37.74903405517118,45.05726779884387,1577396364.0,-27.68325694641561,-51.12593485603504,8.800537
93400,1577396364.42,0.4031602015053353,3.5612289815763147,12.688860032691023,-2.964372026248093,0.4837455256764473,14.393765195372046,-6.849635764219703,-16.489100414145863,10.760885349478372,-1.7091704577934452,-5.420963938643292,1.5696083627096038,0.1981781750190548,-5.961720536394817,0.4268739281631097,-7.595155297256097,3.1528007693407014,1.8139350705030488,-4.865184510270196,-20.2676754235348,3.8969066152101823,-19.17149089336589,-3.81108295440192,-99.63929804170188,28.81142360799113,37.772995477281576,44.81765357773984,1577396364.0,-27.68325694641561,-51.12593485603504,8.800537
93401,1577396364.43,-2.1107515416587272,-0.9662063577791538,14.661682200659774,-3.122389335818406,0.1581340998951973,7.192006601622047,-6.138557871153297,-2.8086321280130515,15.242830857290873,-6.653018114043445,3.856379811356707,0.1657997689596037,-1.9380522937309448,8.412058760480184,3.112420803163109,-9.243104516006095,-15.3103339962843,-9.35549852324695,-4.865184510270196,-22.458775469322344,5.668227803942081,-20.09611441798942,-3.2013096816976128,-101.6796932234432,28.66765507532872,37.725072633060776,44.96142211040225,1577396364.0,-27.68325694641561,-51.12593485603504,8.800537
93402,1577396364.44,-0.7819696202720083,0.2285002706388149,8.56724187473204,-1.4225061571074689,-1.0317841252024578,7.903084494688453,4.530004726502953,9.255750037514291,10.818346189322122,-1.0072661609184443,11.211116139481708,3.446439417397104,-0.1680327624809451,5.268748213605183,1.6780946312881098,8.884336890243903,-20.9255683712843,-4.777861804496951,-5.112566773504273,-21.45452128166972,4.516869031266345,-19.922747507122512,-4.26841290893015,-99.97936390532546,28.81142360799113,37.86884116572318,44.96142211040225,1577396364.0,-27.68325694641561,-51.12593485603504,8.800537
93403,1577396364.45,-1.6845836461509145,-0.2551284647127476,5.175855223120712,2.761361244015577,0.629791826945979,10.01716456060642,4.120596242616235,0.7180269173971038,4.127749650015483,7.262997510956555,-3.803532298018293,1.4475380502096038,-2.929873582793445,0.8894757526676829,0.0148866234756093,4.276182593368903,5.9451591677782005,13.59372022675305,-6.184556580851943,-21.72840878739316,4.959699328449328,-16.802143111518113,-3.81108295440192,-101.33962735981969,28.66765507532872,37.79695689939198,45.20103633150627,1577396364.0,-27.68325694641561,-51.12593485603504,8.800537
93404,1577396364.46,1.4781567469154917,-0.1473893900057163,1.5414571030035251,6.978747468380812,-0.9144682438548016,7.718730966856421,-5.030042502500953,-16.335871507895863,17.220441428579935,21.24004829220656,-9.846012766768292,1.844266565834604,-6.210513231230945,-3.306691239519817,0.1827333031631097,-8.998963891006097,-17.1413886837843,-4.014922351371951,-5.359949036738351,-21.911000457875456,4.782567209576139,-19.98053647741148,-4.420856227106227,-102.35982495069037,28.76350076377033,37.725072633060776,45.10519064306467,1577396364.0,-27.68325694641561,-51.12593485603504,8.800537
93405,1577396364.47,2.450202620938929,-1.380403244986185,8.068050828589463,1.8982515455292488,3.929001714641291,17.19498113775486,0.2826909813857657,9.143222559486947,11.35704156285728,6.561093214081555,-17.200749094893293,-2.916475621665396,-2.548403856230945,-13.255421708269816,-0.7022764624618902,5.405332983993903,-26.5713203244093,-14.11624071074695,-6.019635072029225,-18.98953373015873,4.782567209576139,-18.24686736874237,-3.81108295440192,-18.023490772048465,28.76350076377033,37.725072633060776,45.10519064306467,1577396364.0,-27.68325694641561,-51.12593485603504,8.800537
93406,1577396364.48,0.8089773829018196,-0.16414880162681,10.452675682105088,4.057821442990186,-0.4260511051829271,10.743804764463842,2.2638928551650626,7.677971143471322,0.0157082986971236,2.593808057831557,5.931575123856707,3.782132776772104,-2.090640184355945,5.848582197980183,-0.0614073218368902,0.0342392339939028,1.504851550590701,19.91085889862805,-5.277488282326992,-19.993787917811357,4.33973691239316,-18.24686736874237,-32.01309681697613,-25.164873908143136,28.835385030101538,37.79695689939198,44.98538353251266,1577396364.0,-27.68325694641561,-51.12593485603504,8.800537
93407,1577396364.49,-1.9216096105063836,0.0872423726895951,14.192418675269147,2.096970283322217,-1.7883518498118327,6.476140305235328,2.468597097108422,-13.881814806235708,16.73202428990806,-10.498232957793444,3.947932545731707,1.7832314095846038,5.264096143769055,-5.503956864519817,-0.3971006812118902,-3.048036156631097,3.702117175590701,3.1261909298780486,-3.215969422043012,-21.36322544642857,4.251170852956559,-18.362445309320314,-33.08020004420866,-26.185071499013805,28.61973223110792,37.772995477281576,45.10519064306467,1577396364.0,-27.68325694641561,-51.12593485603504,8.800537
93408,1577396364.5,0.7622904505287728,-1.6509480325838413,5.070510350073838,1.2159040723847176,2.054341814738947,12.052235971739233,6.50522109613186,-0.2755667715677393,10.511888376822125,6.683163526581555,22.655207936356707,2.729276331459604,0.4423188000190549,-8.647267411394816,2.959832912538109,7.907774390243903,-1.5774238400342988,-6.364775866996951,-4.700263001447477,-21.18063377594628,3.7197744963369854,-19.05591295278796,-33.08020004420866,-20.74401768103691,28.81142360799113,37.725072633060776,45.00934495462306,1577396364.0,-27.68325694641561,-51.12593485603504,8.800537
93409,1577396364.51,0.1409951197182259,3.797057845101705,13.73273195651915,-1.5278510301543438,0.6800700618092597,10.29249775152439,-8.508817514707983,3.3468603402486656,9.475199057974466,-0.2748442859184452,-2.5675703839557924,1.0050331673971038,7.369809034394055,-3.032033036394817,2.044305568788109,3.360655249618903,19.3271171755907,0.1354682736280487,-5.689792054383788,-21.911000457875456,3.3655102585906094,-20.96294897232397,-37.196169634962736,-25.84500563539025,28.88330787432234,37.725072633060776,45.10519064306467,1577396364.0,-27.68325694641561,-51.12593485603504,8.800537
93410,1577396364.52,-1.2560215489829458,2.2827252950528774,8.87489678806212,0.2175219800995618,1.6892260615651198,5.161723593809547,2.2842435692763914,-6.557951927817739,8.692295115103374,9.124569776581556,0.2247880144817073,0.5014931283346037,5.264096143769055,-1.8113299113948167,0.4879090844131097,9.952452124618905,26.1172783084032,-6.639434070121951,-5.195027527915633,-20.99804210546398,3.542642377463798,-18.56470670533171,-36.96750465769861,-22.614379930966468,28.76350076377033,37.74903405517118,45.03330637673346,1577396364.0,-27.68325694641561,-51.12593485603504,8.800537
93411,1577396364.53,3.666457064298304,-7.993188230337747,4.0697340561285245,2.86790321789253,-1.129946393268864,2.3581134497665768,-0.461905734922827,9.124068946205696,2.371602732290873,-19.348330614043444,-7.984440501143292,-2.763887731040396,-1.8464995593559448,8.137400557355184,-0.5496885718368902,19.8706650152439,24.6982109255907,-3.5876762576219514,-5.359949036738351,-22.276183798840048,3.3655102585906094,-18.01571148758649,-35.82417977137804,-20.0638859537898,28.907269296432744,37.772995477281576,45.24895917572708,1577396364.0,-27.68325694641561,-51.12593485603504,8.800537
93412,1577396364.54,2.1940230433022103,-3.788970115103373,10.907573997534774,1.4002576002167488,-2.477881927936833,4.019689401915016,-6.732319882872046,-3.079176915610708,8.606103855337748,-1.2514067859184452,5.931575123856708,0.3794228158346037,0.5033539562690549,-7.579152177019817,4.4246766625381095,8.823301733993903,39.9264824099657,2.2106635861280486,-5.854713563206507,-21.36322544642857,3.542642377463798,-17.784555606430608,-30.94599358974359,-18.023490772048465,28.61973223110792,37.725072633060776,45.00934495462306,1577396364.0,-27.68325694641561,-51.12593485603504,8.800537
93413,1577396364.55,0.5516007044350228,2.297090505013814,11.37564042209532,1.6947444044159676,-0.4499931217844892,11.808027402403296,0.4838039208388907,-11.264952391684927,7.945304197134623,-2.823062059355945,0.9724686785442074,0.3794228158346037,-0.3816558093559451,-0.8042498332698171,1.1592958031631098,4.520323218368903,49.0512382693407,-1.3904106326219514,-5.52487054556107,-20.632858764499392,2.8341139019710444,-13.62374974562475,-31.86065349880005,-15.302963863060016,28.907269296432744,37.725072633060776,44.81765357773984,1577396364.0,-27.68325694641561,-51.12593485603504,8.800537
93414,1577396364.56,1.6720870813881477,1.8804994161466275,11.999329954566026,-1.1771004869414534,2.0699041255299635,13.492348270323218,2.509298525331078,6.6831803536764,17.502957224478376,3.6314057140815534,-3.376286204268293,-1.1769736685403962,-3.921694871855945,6.687815596417683,2.227411037538109,4.794981421493903,8.8290703005907,-5.5865776248094505,-5.52487054556107,-20.632858764499392,2.8341139019710444,-15.241840913715915,-17.835868226600986,-12.582436954071571,28.66765507532872,37.70111121095037,45.03330637673346,1577396364.0,-27.68325694641561,-51.12593485603504,8.800537
93415,1577396364.57,-4.390031522127477,2.2348412618497524,15.638516478003524,-5.961912504763719,0.5819077937428535,9.41143154058689,-3.413956381895484,7.038719300209603,13.51421725865806,-8.453555223418444,9.685237233231708,0.7456337533346037,0.6559418468940549,9.297068526105184,-1.1295225562118902,-24.6544814691311,-28.0666816525343,-8.86721727324695,-4.865184510270196,-23.919508833180707,3.542642377463798,-16.859932081807084,-3.81108295440192,-9.861910045083125,28.907269296432744,37.772995477281576,44.76973073351903,1577396364.0,-27.68325694641561,-51.12593485603504,8.800537
93416,1577396364.58,0.2212008753334603,-2.1513361795564974,6.267611180151962,-0.3546922166777814,-8.058765997761052,8.86794776373142,-4.352483432676734,-6.21318688875524,12.848629197134622,-4.760928270293445,27.568538014481707,1.1118446908346038,3.5245941906440548,-2.421681473894817,2.471551662538109,-10.250184594131095,-18.3620918087843,9.38229444550305,-5.359949036738351,-21.911000457875456,4.428302971829755,-13.508171805046809,-3.81108295440192,-24.14467631727247,28.81142360799113,37.58130410039836,45.10519064306467,1577396364.0,-27.68325694641561,-51.12593485603504,8.800537
93417,1577396364.59,-1.8785139806235704,0.0944249776700649,9.21247922214415,-3.4527891649199685,-2.1283284855540203,8.592614572813453,2.233965334413109,-4.360074803794301,5.2039432962557175,-8.651919481230944,8.464534108231707,1.1271034798971038,5.019955518769055,-11.302296708269816,2.471551662538109,-7.442567406631097,-12.4416816525343,8.31417921112805,-5.6073312999724285,-22.3674796340812,3.276944199154016,-17.322243844118844,-4.420856227106227,-99.63929804170188,28.83538503010153,37.86884116572318,45.10519064306467,1577396364.0,-27.68325694641561,-51.12593485603504,8.800537
93418,1577396364.6,0.8077802820717416,-3.130564658560404,7.862149485816025,-2.710586650271532,1.968150554973323,12.104908408262672,1.1900934105849843,9.346729700600228,6.790101896109233,-16.449160692168444,-4.993717844893292,-0.6276572622903963,0.7627533703315548,6.260569502667684,0.6252381859756098,0.7971786871189028,-19.3233955197218,-1.4209282107469514,-5.030106019092914,-23.73691716269841,2.6569817830978484,-19.08480743793244,-2.667758068081344,-104.910318927867,28.81142360799113,37.89280258783359,45.03330637673346,1577396364.0,-27.68325694641561,-51.12593485603504,8.800537
93419,1577396364.61,1.035229439786585,1.571647401986471,8.1590304916754,-0.0099271776152813,0.7973859431569159,5.690842160704078,-2.1043280737900143,-7.769417967856802,15.79349723912681,30.97515571408156,-12.531559641768292,1.1118446908346038,-0.0154448718559451,7.496531416730183,2.318963771913109,-5.245301781631097,-20.2846992306593,10.72506788300305,-5.854713563206507,-20.632858764499392,4.251170852956559,-19.51822471509972,-1.3719898635846908,-99.63929804170188,28.81142360799113,37.91676400994399,45.10519064306467,1577396364.0,-27.68325694641561,-51.12593485603504,8.800537
93420,1577396364.62,-0.4084741612876334,1.3920822774747523,12.746320872534774,-0.1894923021270001,-0.8450363957102703,11.278908835508764,-9.732254563047826,-13.77886413484899,19.356069309439317,-12.634463426543444,-16.895573313643293,-3.221651402915396,-3.158755418730945,-2.757374833269817,0.1216981469131097,-8.998963891006097,-19.6438300900343,-4.594756335746951,-6.5143995984973815,-21.72840878739316,5.313963566195704,-18.42023427960928,-4.26841290893015,-25.164873908143136,28.907269296432744,37.725072633060776,44.96142211040225,1577396364.0,-27.68325694641561,-51.12593485603504,8.800537
93421,1577396364.63,0.2403544886147103,-2.40512155553306,9.019745988501572,-0.9436658250762194,-2.4814732304270675,12.85189932623142,6.332838576600609,9.733393268715462,3.757845493521342,1.3425873547065557,8.220393483231708,2.225736292397104,0.5338715343940548,3.941233565167683,3.219232326600609,-12.4016738519436,-19.1097724728468,-6.120635241996951,-5.277488282326992,-21.08933794070513,4.694001150139541,-14.288322903947904,-17.454759931160794,-57.9812297478163,28.78746218588073,37.74903405517118,44.98538353251266,1577396364.0,-27.68325694641561,-51.12593485603504,8.800537
93422,1577396364.64,-2.9128090978110706,2.720864198861471,15.581055638159777,-2.3753984178496563,2.3248866023366035,13.40256570806736,-4.855265781309546,-2.1071310415872704,-1.8134617696622517,-6.408877489043445,11.211116139481708,2.790311487709604,-3.097720262480945,-6.419484208269817,0.7625672875381098,10.532286108993905,36.1117851443407,36.32931592987805,-5.52487054556107,-19.90249208257021,4.605435090702943,-19.17149089336589,-31.250880226095745,-15.302963863060016,28.907269296432744,37.725072633060776,44.81765357773984,1577396364.0,-27.68325694641561,-51.12593485603504,8.800537
93423,1577396364.65,-0.2289090367759146,3.996973683724752,9.650618125952745,-2.3490621995879377,-0.1459295109446454,13.725782932188451,-14.479956455137671,-28.10097846590368,7.210284287466655,1.3425873547065548,10.905940358231708,2.485135706459604,3.3109711437690548,-2.635304520769817,0.3658387719131097,3.848936499618903,47.8915703005907,2.5768745236280486,-4.865184510270196,-19.90249208257021,3.8969066152101823,-19.17149089336589,-30.94599358974359,-14.622832135812905,28.81142360799113,37.86884116572318,44.91349926618145,1577396364.0,-27.68325694641561,-51.12593485603504,8.800537
93424,1577396364.66,0.5108992762123661,-2.0076840799471225,9.861307872046494,-0.3068081834746564,-1.146705804889958,6.23193173589939,-1.5608442969345455,2.956605469643197,12.659487265982278,-1.6176177234184452,-2.781193430830792,0.5014931283346038,1.8156098156440548,8.351023604230184,1.4339540062881098,14.896299780868905,39.1635429568407,-12.46829149199695,-5.52487054556107,-20.815450434981685,3.3655102585906094,-19.17149089336589,-30.94599358974359,-14.622832135812905,28.78746218588073,37.91676400994399,44.91349926618145,1577396364.0,-27.68325694641561,-51.12593485603504,8.800537
93425,1577396364.67,-0.2289090367759146,1.9427486593106895,8.501401329077744,1.5786256238983896,1.468959508830744,9.242640323545874,4.0284194787002185,0.8784384286275728,9.878622037710796,13.793759229706556,5.473811451981708,1.966336878334604,-2.624697801543445,3.834422041730183,1.4034364281631095,11.8598007574314,21.3412773318407,-1.9244682498094516,-5.030106019092914,-20.450267094017097,4.074038734083371,-18.44912876475377,-18.97919311292156,-20.573984749225133,28.81142360799113,37.82091832150238,44.96142211040225,1577396364.0,-27.68325694641561,-51.12593485603504,8.800537
93426,1577396364.68,1.5571654017006478,-0.4993370340486851,7.072062937964462,3.0067669141815925,3.031176092082698,5.472969809629859,-4.867236789610328,-11.69112028719274,8.215848984732279,-5.340762254668445,-2.216618235518293,0.2573525033346037,-5.020327684355945,10.029490401105184,2.471551662538109,-1.6442275628810974,3.1528007693407014,-9.35549852324695,-5.030106019092914,-20.450267094017097,4.074038734083371,-17.784555606430608,-34.90951986232159,-17.343359044801353,28.66765507532872,37.62922694461916,45.29688201994789,1577396364.0,-27.68325694641561,-51.12593485603504,8.800537
93427,1577396364.69,-1.1841954991782584,0.0249931295255326,7.467106211890244,-0.5270747362090313,-4.36930123946027,8.764997092344702,1.4319077782607654,-4.867645555747426,8.076985288443217,0.5186127453315549,-0.0498701886432926,1.905301722084604,1.1442230968940548,2.613718916730183,3.356561428163109,-1.6442275628810974,2.5119316287157014,-2.4585258669969514,-5.359949036738351,-21.911000457875456,2.3027175453514714,-17.784555606430608,-34.90951986232159,-17.343359044801353,28.955192140653548,37.62922694461916,45.10519064306467,1577396364.0,-27.68325694641561,-51.12593485603504,8.800537
93428,1577396364.7,-0.1427177770102896,0.8438100972989712,9.441125480689072,0.5670754224823739,-1.165859418171208,13.754513352110328,-1.026937326719702,5.647688135658822,8.893408054556497,-1.7549468249809457,3.688533131669208,1.7374550423971038,-3.494448778105945,-8.708302567644816,4.3026063500381095,-16.9945693597561,5.197478503715701,-6.608916491996951,-6.019635072029224,-20.632858764499392,4.074038734083371,-18.24686736874237,-33.38508668056082,-22.784412862778247,28.739539341659928,37.91676400994399,45.10519064306467,1577396364.0,-27.68325694641561,-51.12593485603504,8.800537
93429,1577396364.71,-3.863307156893101,5.043239809213033,13.170094566382431,-1.0837266221953594,-0.7289176151926925,12.87823554449314,-0.9072272437118905,3.537199372231088,5.786931400503764,3.7229584484565534,5.748469655106708,1.996854456459604,-0.778384324980945,3.391917158917683,-2.2434141577743905,4.428770483993904,18.5794365115282,5.9185493283155495,-5.030106019092914,-21.911000457875456,5.136831447322516,-16.628776200651203,-35.82417977137805,-22.784412862778247,28.81142360799113,37.725072633060776,45.12915206517506,1577396364.0,-27.68325694641561,-51.12593485603504,8.800537
93430,1577396364.72,-0.3486191197837271,-5.383508420767435,7.3162715073004,-3.632354289431688,-0.7109611027415204,3.488176633360328,6.289742946717797,-7.711957128013052,4.859178257193217,-20.660586473418444,11.272151295731708,1.0202919564596038,-1.8464995593559448,-0.102345536394817,4.8519227562881095,4.856016577743903,29.5810234255907,3.8280952267530486,-5.030106019092914,-21.911000457875456,5.136831447322516,-13.62374974562475,-34.90951986232159,-18.703622499295577,28.81142360799113,37.86884116572318,44.76973073351903,1577396364.0,-27.68325694641561,-51.12593485603504,8.800537
93431,1577396364.73,3.0750892542397104,-1.3780090433260288,6.1670547104254005,-1.9540189256621563,1.2881972834889472,11.594943454649387,-3.868854697325172,6.983652662026009,1.2439337503572798,-10.132022020293444,-9.571354563643292,0.5625282845846037,-0.0764800281059451,-5.534474442644817,3.142938381288109,3.635313452743903,34.4638359255907,14.57028272675305,-4.370419983802041,-20.085083753052505,4.074038734083371,-17.784555606430608,-34.60463322596943,-19.38375422654269,28.76350076377033,37.91676400994399,44.81765357773984,1577396364.0,-27.68325694641561,-51.12593485603504,8.800537
93432,1577396364.74,-0.2360916417563834,0.4703146383145961,9.494995018042587,4.436105305294873,0.0815196467701973,4.388396457579078,3.246712636659203,-1.1111431509622705,22.815690708365096,-3.174014207793445,-0.7365156964557924,0.5930458627096038,-2.548403856230945,8.442576338605184,-0.9464170874618902,10.227110327743905,11.2399589724657,5.140351086128049,-4.53534149262476,-21.545817116910868,4.428302971829751,-17.90013354700855,-34.60463322596943,-19.38375422654269,28.859346452211938,37.772995477281576,45.10519064306467,1577396364.0,-27.68325694641561,-51.12593485603504,8.800537
93433,1577396364.75,0.6976470057045541,5.593906191048971,13.1389699448004,-2.696221440310594,4.859149059611995,4.572749985411108,-5.281433676817358,-5.522459709800161,14.511402250113138,20.72124946408156,-15.156071360518292,0.0742470345846036,-4.638857957793444,0.8436993854801829,1.1287782250381095,3.360655249618903,-18.2857978634718,-15.41323778105945,-5.689792054383788,-21.545817116910868,3.3655102585906094,-17.95792251729752,-3.658639636225843,-14.282766272189347,28.57180938688711,37.94072543205439,45.12915206517506,1577396364.0,-27.68325694641561,-51.12593485603504,8.800537
93434,1577396364.76,1.6505392664467415,-0.4131457742830601,13.74470296481993,0.9597244947479988,-5.992569965046208,2.312623618223608,5.504444802186547,8.626075000893197,5.445757663931499,-4.089541551543445,-14.057438548018292,-1.3600791372903962,5.111508253144055,6.031687666730183,1.861200100038109,-1.8883681878810967,-18.3010566525343,-16.80178758574695,-5.689792054383788,-21.545817116910868,3.3655102585906094,-13.62374974562475,-3.81108295440192,-13.26256868131868,28.907269296432744,37.91676400994399,45.00934495462306,1577396364.0,-27.68325694641561,-51.12593485603504,8.800537
93435,1577396364.77,-0.3917147496665396,-6.786510593618997,10.021719383276965,-3.479125383181687,-5.128263165729802,6.128981064512671,-3.2080550391220464,9.210260205971322,3.8584019632479047,-29.144473192168444,17.223079030106707,0.1657997689596037,-6.271548387480945,-7.853810380144817,3.9058778344131095,15.415098608993905,4.068328113090701,17.34738233612805,-5.689792054383788,-21.545817116910868,3.3655102585906094,-13.392593864468866,-3.5061963180497666,-8.5016465905889,28.81142360799113,37.86884116572318,45.10519064306467,1577396364.0,-27.68325694641561,-51.12593485603504,8.800537
93436,1577396364.78,-0.4443871861899771,3.2870928914884234,9.51295153049376,0.8531825208710463,5.018363470012385,15.102448886778296,-4.721190488340796,-10.500004961265004,18.47380599767173,-6.057925340605944,16.963679616044207,2.103665979897104,-7.385439989043445,7.908518721417683,-0.6107237280868907,-9.426209984756095,-16.8972480587843,2.821015148628049,-6.019635072029224,-20.81545043498169,3.719774496336994,-13.479277319902325,-3.734861295313881,-56.96103215694561,28.76350076377033,37.74903405517118,45.08122922095426,1577396364.0,-27.68325694641561,-51.12593485603504,8.800537
93437,1577396364.79,-2.474670194002477,-3.199996506704935,6.231698155249619,-3.3402616868926245,-7.795403815143864,6.840058957579077,1.0177108910537345,19.890793811928354,-1.2963142110685013,5.615048292206555,3.825862233231707,2.088407190834604,-3.616519090605945,2.522166182355183,0.9151551781631098,-0.9728408441310974,-25.3811347775343,0.1659858517530487,-4.700263001447477,-21.18063377594628,3.7197744963369854,-13.334804894179896,-4.26841290893015,-99.29923217807834,28.907269296432744,37.58130410039836,44.96142211040225,1577396364.0,-27.68325694641561,-51.12593485603504,8.800537
93438,1577396364.8,0.7982034754311166,-1.4809597147127476,6.662654454077744,2.6643960767792487,3.426219366008479,13.29243243170017,4.261854140565453,14.805509485756478,5.5223721170564986,-4.486270067168445,-4.322331126143292,-0.5971396841653963,-2.029605028105945,-7.579152177019817,2.105340725038109,-1.1254287347560974,7.425261706840701,29.89010694550305,-4.700263001447477,-20.450267094017097,5.136831447322516,-19.17149089336589,-1.981763136288998,-24.824808044519585,28.907269296432744,37.58130410039836,45.00934495462306,1577396364.0,-27.68325694641561,-51.12593485603504,8.800537
93439,1577396364.81,-0.347422018953649,1.928383449349752,6.868555796851181,4.005149006466749,1.2139770320241037,12.22701269293064,-13.01231083746189,-30.380258446372427,12.60202642613853,16.372494581269056,2.6356766863567067,1.2186562142721038,-8.835024949980944,7.618601729230183,-2.4722959937118905,-10.677430687881095,12.3385917849657,2.6073921017530486,-4.9476452646815545,-21.45452128166972,4.516869031266349,-19.17149089336589,-1.981763136288998,-26.185071499013805,28.76350076377033,37.9646868541648,45.00934495462306,1577396364.0,-27.68325694641561,-51.12593485603504,8.800537
93440,1577396364.82,2.2035998499428358,-4.069091709341653,12.274663145483991,-2.304769468875046,-0.8354595890696453,11.506357993223608,0.1749519066787346,6.687968756996713,13.23409566441978,-18.463320848418444,-6.000797923018292,2.698758753334604,0.762753370331555,2.888377119855183,3.051385646913109,-0.4693008050685971,-9.1610420040968,-12.05630418730945,-5.689792054383788,-22.64136713980464,4.074038734083371,-19.373752289377293,-3.582417977137805,-95.728540610031,28.76350076377033,37.67714978883997,45.05726779884387,1577396364.0,-27.68325694641561,-51.12593485603504,8.800537
93441,1577396364.83,1.827710189298304,1.0018274068692827,10.107910643042588,3.969235981564405,-2.2839515934641765,9.849570444395484,5.382340517518578,4.177648316322884,-0.5397464864591254,-4.882998582793445,2.330500905106707,1.2339150033346038,-5.813784715605945,9.693797041730184,-2.7774717749618905,0.9802841558689026,-7.253693371284299,10.96920850800305,-5.195027527915633,-21.72840878739316,3.542642377463798,-20.96294897232397,-28.354457180750284,-24.484742180896028,28.76350076377033,37.62922694461916,45.00934495462306,1577396364.0,-27.68325694641561,-51.12593485603504,8.800537
93442,1577396364.84,-1.8282357457602896,1.157450514779439,13.155729356421494,2.918181452755811,-3.531330658405583,10.20870069341892,-7.045960300352515,-3.483796996177114,13.413660788931498,2.5022553234565548,18.016536061356707,1.996854456459604,-3.311343309355945,-4.618947098894817,0.3963563500381097,-2.101991234756097,19.6933281130907,14.17355421112805,-5.52487054556107,-22.458775469322344,3.8969066152101823,-20.61621515059015,-31.70821018062397,-14.96289799943646,28.81142360799113,37.91676400994399,44.91349926618145,1577396364.0,-27.68325694641561,-51.12593485603504,8.800537
93443,1577396364.85,0.4007659998451791,1.1514650106290492,8.192549314917587,-5.844596623416063,8.614454363567072,11.39622471685642,-1.7978702612900144,-20.113921727622422,16.54527656041587,2.670102003144055,-2.0640303448932924,0.5930458627096038,-4.898257371855945,4.597361494855183,3.6617372094131095,-5.153749047256097,11.4840995974657,-8.16531297637195,-5.772252808795148,-21.637112952152016,3.4540763180272074,-19.17149089336589,-32.77531340785651,-22.784412862778247,28.859346452211938,37.772995477281576,44.96142211040225,1577396364.0,-27.68325694641561,-51.12593485603504,8.800537
93444,1577396364.86,0.0536067591225218,-0.5137022440096226,9.784693418921496,0.6329159681366713,-0.9922797978098804,4.578735489561499,1.3756440392470943,5.6847982613912444,7.464069663443217,18.03570258908156,11.302668873856708,0.7761513314596037,-4.867739793730945,12.776072432355184,0.6557557641006098,-5.077455101943597,-0.1125800900342985,-6.0443412966844505,-5.030106019092914,-21.18063377594628,4.782567209576139,-19.17149089336589,-33.08020004420866,-16.663227317554238,28.907269296432744,37.82091832150238,45.10519064306467,1577396364.0,-27.68325694641561,-51.12593485603504,8.800537
93445,1577396364.87,1.2291597742592415,-2.496101218618997,3.6004705307379,-1.28124825915825,0.1222210749928535,7.579867270567359,-4.429097885801734,1.493748255287728,2.670877939810405,-6.103701707793445,4.741389576981708,0.7456337533346037,-15.060610887480944,-11.302296708269816,5.7674501000381095,2.384092749618903,19.3881523318407,12.86129835175305,-3.8756554573338846,-20.2676754235348,4.605435090702943,-19.17149089336589,-33.08020004420866,-16.663227317554238,28.61973223110792,37.58130410039836,45.10519064306467,1577396364.0,-27.68325694641561,-51.12593485603504,8.800537
93446,1577396364.88,1.873200020841273,3.0799944478849084,11.249944834937118,-1.5374278367949687,2.4206546687428534,12.454461850645483,-6.456986691954078,-19.87689576326696,10.351476865591655,-0.3663970202934451,-3.315251048018293,-0.8412803091653963,-5.905337449980945,3.163035322980183,0.5794618187881098,-6.099793969131097,26.4682304568407,4.285858898628049,-4.205498474979322,-21.72840878739316,3.8969066152101823,-19.17149089336589,-33.68997331691297,-16.663227317554238,28.66765507532872,37.91676400994399,45.00934495462306,1577396364.0,-27.68325694641561,-51.12593485603504,8.800537
93447,1577396364.89,-0.270807565828649,-0.9757831644197792,8.545694059790634,3.732210017208936,0.433467290813166,8.633316001036109,-0.2057261572861083,-5.059181688559927,11.94362096959556,-2.655215379668445,13.042170826981708,-0.1851523794778963,-6.942935106230945,11.555369307355184,2.379998928163109,3.909971655868903,15.0546562380907,-12.46829149199695,-5.030106019092914,-20.815450434981685,4.428302971829755,-18.998123982498985,-35.06196318049766,-20.40395181741336,28.88330787432234,37.91676400994399,45.10519064306467,1577396364.0,-27.68325694641561,-51.12593485603504,8.800537
93448,1577396364.9,-0.9016797032798208,0.4463726217130326,11.642593907202745,-1.9815522447539529,1.0092727900807448,12.459250253965797,-5.234746744444312,6.868730982338509,13.920034440054543,-11.383242723418444,11.699397389481708,0.6540810189596037,-5.172915574980944,-0.9263201457698172,2.441034084413109,3.665831030868903,3.564788074028201,0.6542671017530486,-4.865184510270196,-22.458775469322344,3.188378139717421,-18.940335012210014,-38.1108295440192,-24.824808044519585,28.81142360799113,37.82091832150238,45.10519064306467,1577396364.0,-27.68325694641561,-51.12593485603504,8.800537
93449,1577396364.91,-1.121946256014196,6.29061887415444,15.18840656589415,1.2039330640839363,2.4350198787037907,20.01535069341892,0.5077459374404532,3.787393445717416,8.977205112661967,-0.0001860827934451,-1.9114424542682928,-1.939913121665396,0.4423188000190549,2.796824385480183,-2.2586729468368905,-19.8021865472561,1.1081230349657012,3.4313667111280486,-5.854713563206507,-20.632858764499392,3.542642377463798,-18.70917913105413,-33.68997331691297,-26.185071499013805,28.76350076377033,37.725072633060776,44.91349926618145,1577396364.0,-27.68325694641561,-51.12593485603504,8.800537
93450,1577396364.92,-2.474670194002477,-1.909521811880716,11.582738865698838,-0.1200604539824688,-7.292621466511052,9.880695065977514,-13.29961503668064,-13.508319347251334,8.148811338247905,-9.247012254668444,6.847102467606708,-0.0478232779153963,4.195980909394055,15.217478682355184,-1.4652159155868902,-6.710145531631097,-8.7795722775343,1.6003120236280486,-4.040576966156604,-20.81545043498169,4.074038734083371,-17.784555606430608,-33.68997331691297,-26.185071499013805,28.81142360799113,37.725072633060776,45.00934495462306,1577396364.0,-27.68325694641561,-51.12593485603504,8.800537
93451,1577396364.93,2.0060782129799444,-1.9969101724764196,6.204164836157822,0.926205671505812,1.0631423274342595,8.395092935850561,-1.0939749732040778,3.3719994576803067,10.484355057730326,-3.677554246855945,11.729914967606708,1.4933144173971038,-3.448672410918445,3.208811690167683,1.998529201600609,-16.2774062738186,-22.6192939572218,1.1120307736280486,-4.040576966156604,-20.81545043498169,3.5426423774638014,-15.81973061660562,-32.47042677150436,-18.023490772048465,28.715577919549524,37.74903405517118,45.10519064306467,1577396364.0,-27.68325694641561,-51.12593485603504,8.800537
93452,1577396364.94,0.4534384363686166,2.05767033899819,5.527802867163682,1.1991446607636238,-2.506612347858708,11.463262363340796,1.9969393700576408,-5.372822106040396,15.683363962759625,22.49126899533156,10.387141530106708,-0.5361045279153963,-5.661196824980945,8.076365401105184,0.3048036156631097,-11.257264672256095,-32.5222480587843,-3.0688774294969514,-3.3808909308657284,-21.545817116910868,5.136831447322516,-13.62374974562475,-31.250880226095745,-15.302963863060016,28.955192140653548,37.772995477281576,44.96142211040225,1577396364.0,-27.68325694641561,-51.12593485603504,8.800537
93453,1577396364.95,-1.124340457674352,-1.06436862584556,10.519713328589464,-0.3714516282988751,-3.751597211139958,12.133638828184546,5.298543459413109,9.586149866615854,8.907773264517434,-8.178897020293444,-4.719059641768292,-1.1464560904153962,4.348568800019055,4.749949385480183,-1.0379698218368902,-27.3095107660061,-13.6929023556593,4.163788586128049,-5.030106019092914,-20.085083753052505,3.7197744963369854,-13.508171805046809,-4.420856227106227,-25.504939771766697,28.66765507532872,37.86884116572318,45.10519064306467,1577396364.0,-27.68325694641561,-51.12593485603504,8.800537
93454,1577396364.96,-0.5281842442954459,-3.352028312124857,11.640199705542589,0.8543796217011238,0.3137572078053535,13.40256570806736,6.859562941834985,5.484882422768197,8.220637388052593,-10.284609910918444,6.221492116044207,-0.7955039419778962,-5.111880418730945,5.665476729230183,0.8541200219131098,0.4004501714939026,0.6503593630907012,19.75827100800305,-5.52487054556107,-20.2676754235348,4.251170852956559,-13.161437983312986,-1.981763136288998,-24.824808044519585,28.69161649743912,37.725072633060776,45.10519064306467,1577396364.0,-27.68325694641561,-51.12593485603504,8.800537
93455,1577396364.97,-1.3039055821860708,1.36814026087319,11.6832953354254,-1.0609817064238756,0.3496702327076982,9.195953391172829,-3.282275290586889,-12.017928813804067,13.191000034536966,-1.9838286609184448,11.455256764481708,1.6611610970846038,-1.0835601062309452,4.383738447980183,0.7778260766006094,-0.7592177972560973,12.6437675662157,1.722382336128049,-5.52487054556107,-20.2676754235348,4.251170852956559,-16.628776200651203,-1.981763136288998,-15.302963863060016,28.81142360799113,37.86884116572318,44.96142211040225,1577396364.0,-27.68325694641561,-51.12593485603504,8.800537
93456,1577396364.98,-1.2464447423423208,4.001762087045065,14.702383628882432,-4.209356889529343,3.562688860637385,14.223776877500953,1.6880873558974845,8.793669117104134,9.58054393102134,7.507138135956555,7.945735280106708,0.1963173470846037,-2.151675340605945,-5.503956864519817,3.509149318788109,5.100157202743903,7.028533191215701,-6.212187976371951,-6.184556580851943,-22.458775469322344,4.605435090702943,-13.508171805046809,-1.981763136288998,-13.942700408565791,28.955192140653548,37.725072633060776,44.96142211040225,1577396364.0,-27.68325694641561,-51.12593485603504,8.800537
93457,1577396364.99,-1.8928791905845084,-0.2024560281893101,11.51091281589415,-0.1176662523223126,-0.5577321964915204,11.398618918516576,-7.07469072027439,-4.089530016196646,18.063200412954934,-6.958193895293445,-1.5452315167682926,1.0813271127096038,7.217221143769055,3.224070479230183,-0.0919248999618902,0.8887314214939026,-1.2722480587842988,-14.66555711699695,-6.5143995984973815,-20.632858764499392,3.8969066152101823,-19.576013685388688,-3.658639636225843,-99.97936390532546,28.81142360799113,38.0605325426064,45.15311348728547,1577396364.0,-27.68325694641561,-51.12593485603504,8.800537
93458,1577396365.0,-1.5122011266196649,-3.36280221959556,7.256416465796494,0.6604492872284676,-2.188183527057926,9.24383742437595,5.107007326600609,5.353201331459603,7.631663779654154,5.431942823456555,14.384944264481708,1.996854456459604,4.745297315644055,4.261668135480183,2.288446193788109,-0.4540420160060974,-15.7986152462843,-9.72170946074695,-6.184556580851943,-21.36322544642857,5.313963566195704,-19.113701923076928,-4.26841290893015,-99.29923217807834,28.81142360799113,37.91676400994399,45.10519064306467,1577396365.0,-27.68331812488722,-51.12587289882331,9.114528
93459,1577396365.01,1.463791536954554,-2.6780605447908723,9.18135460056212,1.8084689832733896,-3.2464206608469897,10.381083212950172,1.8868060936904536,0.0668040658346038,9.822358298697123,-16.327090379668444,-9.693424876143292,-1.2685264029153962,2.837948682831555,-4.100148270769817,0.8846376000381098,-13.4545302972561,-13.4335029415968,6.9408881955030495,-6.184556580851943,-21.36322544642857,5.313963566195704,-19.05591295278796,-4.420856227106227,-96.91877113271345,28.81142360799113,37.74903405517118,44.93746068829185,1577396365.0,-27.68331812488722,-51.12587289882331,9.114528
93460,1577396365.02,-2.936751114412633,4.29864309290444,14.903496568335555,-3.6251716844512174,1.6832405574147284,12.78965008306736,6.380722609803734,14.671434192787729,5.701937241568217,13.549618604706556,-1.7283369855182926,0.5014931283346037,3.646664503144055,-0.8042498332698171,3.234491115663109,5.466368140243903,-23.7637031369093,19.88034132050305,-5.359949036738351,-21.18063377594628,3.7197744963369854,-21.020737942612943,-30.64110695339144,-24.824808044519585,28.907269296432744,37.725072633060776,45.15311348728547,1577396365.0,-27.68331812488722,-51.12587289882331,9.114528
93461,1577396365.03,-1.928792215486852,1.9499312642911584,9.4231689682379,0.0547162672089363,2.4110778621022284,7.089055930235327,-6.603032993223609,-9.785335765708364,5.991635642447124,-6.256289598418445,0.3163407488567073,0.0437294564596036,1.0831879406440548,10.273631026105184,-3.1436827124618905,-4.390809594131097,5.014373034965701,2.6073921017530486,-4.865184510270196,-20.99804210546398,4.605435090702943,-20.789582061457065,-33.68997331691297,-26.185071499013805,28.76350076377033,37.91676400994399,45.29688201994789,1577396365.0,-27.68331812488722,-51.12587289882331,9.114528
93462,1577396365.04,-0.012233786531774,1.485456142220846,10.767513200415634,0.3803276929901864,1.2427074519459784,9.095396921446264,10.663949379823263,0.6533834725728846,2.7259445779939986,10.650448682831556,-8.274357493330792,-0.2767051138528962,-3.189272996855945,-1.2314959270198171,0.1827333031631097,-1.3085342035060974,12.1554863162157,0.7763374142530487,-5.442409791149711,-21.08933794070513,3.4540763180272074,-19.63380265567766,-31.250880226095745,-15.983095590307128,28.78746218588073,37.725072633060776,45.00934495462306,1577396365.0,-27.68331812488722,-51.12587289882331,9.114528
93463,1577396365.05,-4.030901273104039,-10.863836020865092,2.7577115463629,1.3032924329804214,-5.61428610274152,9.754999478819313,-2.0887657629989995,-3.938695311606802,5.722287955679545,-14.587588426543444,24.608332936356707,4.194120081459603,-0.0917388171684452,-0.3159685832698171,0.9456727562881097,9.052183569931405,47.0370781130907,3.568695812690549,-4.700263001447477,-21.545817116910868,3.0112460208442324,-18.24686736874237,-4.420856227106227,-18.703622499295577,28.66765507532872,37.725072633060776,45.00934495462306,1577396365.0,-27.68331812488722,-51.12587289882331,9.114528
93464,1577396365.06,-0.4970596227134146,2.565241090951315,10.52689593356993,0.1097829053925301,4.77894330399676,10.15842245855564,3.0839069237685783,-14.274463878501331,20.74710047399009,1.2815521984565548,13.652522389481708,2.302030237709604,-3.097720262480945,0.4164532917301829,2.959832912538109,18.3447861089939,36.4474785037157,-7.158232898246951,-5.854713563206507,-22.458775469322344,5.313963566195704,-19.113701923076928,-4.26841290893015,-22.444346999154693,28.66765507532872,37.9646868541648,44.91349926618145,1577396365.0,-27.68331812488722,-51.12587289882331,9.114528
93465,1577396365.07,0.237960286954554,3.5971420064786583,17.19474755710509,2.111335493283155,1.7239419856373843,13.278067221739231,-7.625357102110327,1.0364557381978847,26.42135840856041,-26.153750535918444,-20.313542063643293,-2.550264684165396,0.9306000500190548,5.360300947980183,-2.1976377905868905,11.234190405868905,-12.9909980587843,-29.55813524199695,-5.689792054383788,-20.085083753052505,5.491095685068893,-17.95792251729752,-4.26841290893015,-25.164873908143136,28.76350076377033,37.772995477281576,45.10519064306467,1577396365.0,-27.68331812488722,-51.12587289882331,9.114528
93466,1577396365.08,-1.2931316747153676,-1.2020352213045444,15.38592820285704,-2.548978038210984,2.169263494426448,9.176799777891578,2.8564577660537345,8.283704163490853,8.703069022574077,1.0221527843940574,4.604060475419208,0.1352821908346036,-5.157656785918444,7.542307783917684,3.142938381288109,-16.4452529535061,-32.5680244259718,-6.7157280154344505,-5.937174317617867,-22.002296293116608,3.276944199154016,-17.986817002442002,-4.039747931666035,-23.29451165821358,28.715577919549524,37.89280258783359,45.10519064306467,1577396365.0,-27.68331812488722,-51.12587289882331,9.114528
93467,1577396365.09,-0.7125377721274772,0.2261060689786576,14.259456321753524,2.075422468380812,-3.4954176335032394,5.571132077696265,-4.225590744688453,-6.914687975181021,0.6645369485994672,-5.005068895293445,11.668879811356708,0.9897743783346036,-3.402896043730945,1.2099103229801829,0.3048036156631097,-4.970643578506097,-20.2541816525343,17.71359327362805,-5.359949036738351,-21.545817116910868,3.3655102585906094,-17.95792251729752,-3.658639636225843,-21.084083544660466,28.907269296432744,37.62922694461916,44.91349926618145,1577396365.0,-27.68331812488722,-51.12587289882331,9.114528
93468,1577396365.1,-1.6486706212485709,-4.322877085318216,5.03699152683165,-2.521444719119187,-0.3733786686594892,5.798581235411109,-5.860830478575172,-5.289025047934927,2.3811795389314985,-24.048037645293444,16.490657155106707,0.9897743783346036,0.2286957531440548,-14.109913895769816,2.410516506288109,-12.905213891006095,-14.4253242306593,10.08419874237805,-5.195027527915633,-20.632858764499392,5.313963566195704,-19.86495853683354,-33.68997331691297,-20.0638859537898,28.61973223110792,37.9646868541648,45.10519064306467,1577396365.0,-27.68331812488722,-51.12587289882331,9.114528
93469,1577396365.11,0.9813599024330693,3.74917381189858,11.356486808814072,-2.8326909349394995,7.991961931926448,17.4607375220322,6.596200759217797,-2.631461205161489,11.476751645865091,14.404110792206556,-13.035099680830792,-0.6429160513528962,3.0057953625190548,-0.5295916301448171,2.746209865663109,-4.329774437881097,0.8029472537157012,-3.2519828982469514,-4.9476452646815545,-20.35897125877595,5.402529625632298,-18.5936011904762,-32.47042677150436,-25.504939771766697,28.78746218588073,37.91676400994399,44.96142211040225,1577396365.0,-27.68331812488722,-51.12587289882331,9.114528
93470,1577396365.12,-2.6757831334556017,-2.656512729849466,4.158319517554306,0.0235916456269058,-3.2703626774485524,3.059614536192359,-8.563884152891577,-0.6323028189310211,10.592094132437357,11.993222120331556,9.288508717606708,0.3794228158346037,4.852108839081555,2.598460127667683,-2.7622129858993905,3.635313452743903,13.8797294802782,11.56430128144055,-6.019635072029225,-20.450267094017097,4.782567209576139,-13.565960775335778,-33.53752999873689,-21.424149408284023,28.66765507532872,37.82091832150238,44.96142211040225,1577396365.0,-27.68331812488722,-51.12587289882331,9.114528
93471,1577396365.13,-3.394043631502477,-6.338794883169778,7.445558396948837,-7.37209728259575,3.888300286418635,10.175181870176733,-0.4116275000595458,-12.76372263094274,14.457532712759622,-27.191348192168444,18.748957936356707,3.095487268959604,-2.182192918730945,-13.438527177019816,6.3778016625381095,2.170469702743903,-13.0520332150343,-15.55056688262195,-6.019635072029225,-20.450267094017097,4.782567209576139,-13.508171805046809,-33.38508668056082,-16.663227317554238,28.81142360799113,38.10845538682721,44.91349926618145,1577396365.0,-27.68331812488722,-51.12587289882331,9.114528
93472,1577396365.14,0.5587833094154916,5.402370058236471,13.411908934058212,-4.482295878787156,6.138849846965511,13.701840915586889,6.550710927674828,3.943016553627572,9.051425364126809,9.704403760956556,10.265071217606708,0.8982216439596037,-4.013247606230945,14.851267744855184,0.2437684594131097,-11.592958031631095,-21.5969550900343,-16.98489305449695,-4.535341492624759,-22.823958810286936,4.251170852956559,-18.940335012210014,-30.94599358974359,-20.0638859537898,28.907269296432744,37.9646868541648,45.10519064306467,1577396365.0,-27.68331812488722,-51.12587289882331,9.114528
93473,1577396365.15,-0.3773495397056021,-2.6433446207186067,12.89595847629454,5.966000166134718,-5.580767279499333,5.3365003150009525,2.135803066346703,-1.7456065909036766,4.969311533560405,-7.843203660918444,-3.2236983136432924,-0.7955039419778962,-0.0154448718559451,10.090525557355184,-0.6717588843368902,2.384092749618903,0.9250175662157012,2.4853217892530486,-4.535341492624759,-21.18063377594628,4.251170852956562,-12.814704161579163,-3.2013096816976128,-24.824808044519585,28.66765507532872,37.62922694461916,45.00934495462306,1577396365.0,-27.68331812488722,-51.12587289882331,9.114528
93474,1577396365.16,0.2738733118568978,2.6610091573575647,8.920386619605088,-3.341458787722703,-0.089665771930974,8.11497134161228,-0.6941432959579841,-1.40562995516149,3.2754138589998574,3.1736420422065548,-6.092350657393292,1.3865028939596038,8.270077589081556,-11.226002762957316,3.234491115663109,11.768248023056405,30.7406913943407,16.17245557831555,-5.854713563206507,-22.093592128357752,4.605435090702943,-16.975510022385023,-28.811787135278514,-63.592316497604976,28.61973223110792,37.725072633060776,44.98538353251266,1577396365.0,-27.68331812488722,-51.12587289882331,9.114528
93475,1577396365.17,-1.7324676793540397,-0.2694936746736851,9.114316954077744,4.05542724133003,0.232354351360041,9.253414231016576,-4.512894943907202,-15.471564708579455,14.426408091177592,3.5093354015815548,-2.796452219893293,-0.6276572622903963,1.6935395031440548,10.365183760480184,-2.0450498999618905,-0.1793838128810974,16.9772636599657,-9.05032274199695,-5.854713563206507,-22.093592128357752,4.605435090702943,-13.392593864468866,-31.250880226095745,-102.35982495069037,28.81142360799113,37.86884116572318,44.96142211040225,1577396365.0,-27.68331812488722,-51.12587289882331,9.114528
93476,1577396365.18,0.515687679532679,0.3697581685880326,3.832708091773056,4.89818622570503,-2.240855963581364,11.547059421446264,-7.97491054449314,1.3261541390767908,20.639361399283064,19.59209907345656,-5.543034251143292,0.8982216439596037,-0.1069976062309451,0.8742169636051829,0.0606629906631097,-11.104676781631095,-9.8476875119093,-10.66775438262195,-4.040576966156604,-21.545817116910868,5.136831447322516,-13.392593864468866,-31.250880226095745,-102.35982495069037,28.81142360799113,37.91676400994399,45.00934495462306,1577396365.0,-27.68331812488722,-51.12587289882331,9.114528
93477,1577396365.19,-2.966678635164586,-0.8034006448885288,11.036860887183211,-7.324213249392625,-2.123540082233708,6.80654013433689,-0.5169723731064209,-2.3944352408060205,12.147128110708842,-8.194155809355944,11.043269459794208,2.698758753334604,4.012875440644055,-10.508839677019816,4.3026063500381095,7.144834937118903,-1.4858711056592988,3.0346381955030486,-5.277488282326992,-20.90674627022284,4.516869031266349,-13.62374974562475,-30.64110695339144,-102.35982495069037,28.78746218588073,37.86884116572318,44.62596220085662,1577396365.0,-27.68331812488722,-51.12587289882331,9.114528
93478,1577396365.2,-0.3725611363852896,4.612283510384908,8.58759258884337,-4.111194621462937,0.5507831721608227,9.365941709043922,-4.9402599402450935,-4.398382030356802,8.586950242056497,-0.7326079577934451,-8.014958079268293,1.4170204720846038,4.745297315644055,-4.634205887957316,2.105340725038109,0.5072616949314026,9.6530449099657,4.7741401486280495,-5.359949036738351,-20.450267094017097,5.491095685068893,-18.47802324989825,-16.921208317544526,-99.29923217807834,28.76350076377033,37.67714978883997,44.88953784407104,1577396365.0,-27.68331812488722,-51.12587289882331,9.114528
93479,1577396365.21,-3.779510098787633,0.5229870748380326,8.431969480933212,-4.068098991580125,-2.2983168034251142,4.749920908262672,4.046375991151391,11.558972034584604,5.239856321158061,8.025936964081556,-0.6602217511432926,1.905301722084604,-1.9685698718559448,0.8131818073551829,-0.7327940405868902,6.381895483993903,17.1908867068407,0.9594428830030488,-5.359949036738351,-20.450267094017097,5.491095685068893,-19.402646774521777,-4.115969590754073,-101.6796932234432,28.955192140653548,37.58130410039836,45.15311348728547,1577396365.0,-27.68331812488722,-51.12587289882331,9.114528
93480,1577396365.22,2.3592229578529915,-1.533632151236185,12.57633255466368,-3.613200676150437,0.0432124202076973,5.86801308355564,1.6425975243545154,-1.5133690298685205,8.682718308462748,-14.282412645293444,-6.397526438643292,1.7832314095846038,1.7240570812690548,-4.435841630144817,2.746209865663109,1.3464950933689026,16.0922538943407,5.018280773628049,-5.359949036738351,-20.450267094017097,5.491095685068893,-21.020737942612943,-33.68997331691297,-13.942700408565791,28.61973223110792,37.725072633060776,44.91349926618145,1577396365.0,-27.68331812488722,-51.12587289882331,9.114528
93481,1577396365.23,-0.6407117223227896,0.1937843465665482,12.17410667575743,1.767767555050734,1.1289828730885565,8.094620627500952,1.2894527794814694,4.389535163246713,12.101638279165872,-1.8007231921684452,-2.826969798018292,0.8066689095846038,-4.745669481230945,8.045847822980184,1.7391297875381095,0.2020859136814028,-11.9839179806593,-8.54678270293445,-5.359949036738351,-20.450267094017097,4.251170852956562,-19.633802655677652,-31.250880226095745,-18.703622499295573,28.835385030101538,37.74903405517117,44.69784646718783,1577396365.0,-27.68331812488722,-51.12587289882331,9.114528
93482,1577396365.24,2.2610606897865853,-1.1625308939119663,8.410421665991807,2.942123469357374,1.0344119075123848,10.563042539122046,-1.4842298438095458,0.4115691048971033,2.742703989615092,0.5796479015815549,-20.435612376143293,1.7221962533346038,-6.027407762480945,-1.6282244426448171,2.593621975038109,14.530088843368905,19.4186699099657,15.76046827362805,-4.535341492624759,-21.36322544642857,4.605435090702943,-17.84234457671958,-3.963526272577997,-25.84500563539025,28.907269296432744,37.9646868541648,44.91349926618145,1577396365.0,-27.68331812488722,-51.12587289882331,9.114528
93483,1577396365.25,-1.2225027257407584,1.0185868184903764,8.917992417944932,-2.411311442752,-3.725260992878239,7.089055930235327,-7.84083525152439,-14.348684129966175,11.321128537954936,9.063534620331556,14.293391530106708,3.766873987709604,1.5714691906440548,-7.304493973894817,3.051385646913109,-1.4000869378810974,23.9657890505907,17.49997022675305,-5.030106019092914,-21.18063377594628,3.0112460208442324,-17.322243844118844,-33.68997331691297,-25.504939771766697,28.81142360799113,37.772995477281576,44.96142211040225,1577396365.0,-27.68331812488722,-51.12587289882331,9.114528
93484,1577396365.26,-1.8306299474204455,-0.6310181253572787,8.745609898413681,-4.791147892947312,-1.7931402531321452,4.934274436094703,-4.137005283262671,-1.7647602041849266,20.184463083853377,-10.132022020293444,2.696711842606708,0.9134804330221038,-2.487368699980945,-2.299611161394817,2.166375881288109,-11.318299828506095,-12.6553046994093,-3.892852038871952,-4.865184510270195,-20.4502670940171,3.719774496336994,-17.322243844118844,-33.68997331691297,-25.504939771766697,28.76350076377033,37.91676400994399,45.10519064306467,1577396365.0,-27.68331812488722,-51.12587289882331,9.114528
93485,1577396365.27,-1.8976675939048209,3.403211672006002,8.247615953101182,-4.771994279666063,0.6573251460377759,13.977174106504858,-5.020465695860327,-1.0177692862161771,10.57772892247642,11.565976026581556,1.7811844988567074,2.210477503334604,1.8003510265815548,-7.670704911394816,2.532586818788109,-1.2017226800685954,-38.0611884884718,0.9899604611280486,-5.030106019092914,-21.911000457875456,5.136831447322516,-18.478023249898254,-34.29974658961728,-20.74401768103691,28.76350076377033,37.86884116572319,45.03330637673346,1577396365.0,-27.68331812488722,-51.12587289882331,9.114528
93486,1577396365.28,-2.331018094393102,-0.5855282938143102,11.245156431616806,-3.1750617723418437,-2.267192181843083,11.681134714415014,0.6657632470107657,-5.729558153403677,24.58021733190025,-5.768008348418445,-3.589909251143293,1.1423622689596038,2.3954438000190548,-0.7432146770198171,0.5794618187881098,-19.3749404535061,-50.7412421994093,-1.3904106326219514,-5.52487054556107,-21.36322544642857,4.959699328449328,-19.05591295278796,-33.68997331691297,-18.703622499295577,28.955192140653548,37.772995477281576,44.91349926618145,1577396365.0,-27.68331812488722,-51.12587289882331,9.114528
93487,1577396365.29,-2.486641202303258,-3.001277768911966,9.473447203101182,-3.1056299241973124,0.6992236750905098,14.400947800352515,-6.248691147520484,5.118569568764291,11.467174839224466,-13.855166551543444,6.602961842606708,4.560331018959603,-2.975649949980945,-9.227101395769816,6.5914247094131095,-19.2223525628811,-75.6741035275343,-0.1697075076219513,-5.030106019092914,-20.81545043498169,3.3655102585906094,-18.5936011904762,-33.68997331691297,-24.14467631727247,28.81142360799113,37.91676400994399,44.91349926618145,1577396365.0,-27.68331812488722,-51.12587289882331,9.114528
93488,1577396365.3,-0.136732272859899,-1.1816845071932167,10.289869969214465,-0.3139907884551252,-0.5026655583079267,19.380887253477518,2.248330544374047,11.020276661049447,4.851995652212748,-3.357119676543445,-4.154484446455792,1.859525354897104,1.5104340343940548,3.193552901105183,-3.8761045874618905,-15.407655297256095,-64.6572578244093,5.445526867378049,-5.6073312999724285,-20.35897125877595,3.808340555773584,-13.62374974562475,-32.165540135152206,-24.14467631727247,28.81142360799113,37.91676400994399,45.00934495462306,1577396365.0,-27.68331812488722,-51.12587289882331,9.114528
93489,1577396365.31,-0.1546887853110709,2.3617339498380336,9.41838056491759,1.8108631849335457,-0.4092916935618331,9.508396707823218,1.0476384118056878,-1.9467195303568023,4.2283061197420455,18.64605415158156,-5.909245188643292,2.546170862709604,-4.226870653105944,-6.175343583269816,3.8448426781631095,-1.3695693597560972,-8.1997382931593,21.81820753144055,-4.370419983802041,-21.18063377594628,4.428302971829755,-13.62374974562475,-33.68997331691297,-24.14467631727247,28.76350076377033,37.74903405517118,44.93746068829185,1577396365.0,-27.68331812488722,-51.12587289882331,9.114528
93490,1577396365.32,1.846863802579554,1.88528781946694,8.084810240210556,-0.3618748216582501,4.369534820110042,13.357075876524387,4.470149684999047,-7.218751586020865,7.780104282583842,14.892392042206556,-6.672184641768292,2.210477503334604,3.646664503144055,0.2333478229801829,-0.4886534155868902,-1.4000869378810974,9.6225273318407,-1.970244616996952,-4.865184510270196,-23.189142151251527,4.605435090702943,-13.508171805046809,-4.420856227106227,-18.023490772048465,28.907269296432744,37.9646868541648,44.96142211040225,1577396365.0,-27.68331812488722,-51.12587289882331,9.114528
93491,1577396365.33,3.312115218595179,-2.2782288675447786,4.682649681128525,8.044167207150343,-4.091573846882145,3.1984782324814214,4.249883132264672,10.160758265053351,6.920585886587748,11.230282667206556,-22.693913157393293,1.1728798470846038,1.3883637218940548,9.083445479230184,1.7391297875381098,7.755186499618903,9.3478691287157,15.82150342987805,-4.205498474979322,-22.093592128357752,4.251170852956559,-18.1890783984534,-3.963526272577997,-22.444346999154693,28.66765507532872,37.91676400994399,45.15311348728547,1577396365.0,-27.68331812488722,-51.12587289882331,9.114528
93492,1577396365.34,-2.893655484529821,1.869725508675924,11.155373869360949,-2.921276396365281,-4.766738715046208,2.587956809141578,-13.22300058355564,-26.78416755281774,14.014605405630716,-4.120059129668444,4.588801686356707,1.4475380502096038,-2.884097215605945,-12.004201005144816,1.3118836937881098,-8.388612328506097,2.3898613162157014,-4.289580554496951,-4.4528807382134,-21.271929611187424,4.339736912393157,-18.24686736874237,-4.115969590754073,-22.784412862778247,28.78746218588073,37.725072633060776,45.10519064306467,1577396365.0,-27.68331812488722,-51.12587289882331,9.114528
93493,1577396365.35,-2.7476091832602894,0.4080653951505326,13.842865232886338,-4.241678611941453,3.915833605510432,17.83183877935642,6.504023995301781,14.29913583463343,15.29550329381431,-13.794131395293444,-6.824772532393292,-0.2614463247903963,7.995419385956556,-10.936085770769816,0.0759217797256097,4.856016577743903,-32.9800117306593,-11.14077684355945,-5.359949036738351,-19.71990041208792,5.136831447322516,-14.779529151404155,-4.420856227106227,-64.61251408847563,28.955192140653548,37.725072633060776,45.17707490939587,1577396365.0,-27.68331812488722,-51.12587289882331,9.114528
93494,1577396365.36,-0.3605901280845084,-0.5951051004549351,9.83257745212462,1.4553242384003426,-0.9455928654368329,10.261373129942358,-16.972320383360326,-7.544363011802114,11.953197776236186,-3.448672410918445,-7.160465891768292,2.302030237709604,-5.081362840605945,7.221873213605183,1.0982606469131098,-6.374452172256097,-17.9043281369093,2.0275581173780486,-5.854713563206507,-21.36322544642857,5.668227803942081,-13.62374974562475,-31.250880226095745,-113.24193258664414,28.907269296432744,37.91676400994399,45.10519064306467,1577396365.0,-27.68331812488722,-51.12587289882331,9.114528
93495,1577396365.37,-2.079626920076696,-1.7802349222322786,15.202771775855089,-2.942824211306687,-5.3988079533274576,7.64929911871189,6.761400673768578,2.899144629799447,2.287805674185405,-14.160342332793444,4.253108326981708,2.057889612709604,3.0363129406440548,-13.102833817644816,1.4339540062881098,2.231504858993903,11.9418632693407,3.2787788205030486,-4.370419983802041,-21.911000457875456,5.136831447322516,-13.62374974562475,-3.2013096816976128,-112.56180085939702,28.907269296432744,37.62922694461916,45.00934495462306,1577396365.0,-27.68331812488722,-51.12587289882331,9.114528
93496,1577396365.38,1.9366463648354133,-3.6297557047029816,7.9519320480718845,-0.3965907457305162,-1.669838867634099,6.446212784483374,-1.1562242163681404,-2.029319487632193,8.44569234410728,-6.469912645293444,-0.8738447980182926,1.905301722084604,-3.875918504668445,-1.5671892863948167,-0.3208067358993902,10.822203101181405,31.8393242068407,11.28964307831555,-5.112566773504273,-22.1848879635989,5.22539750675911,-13.62374974562475,-3.506196318049766,-106.44061531417302,28.979153562763948,37.82091832150238,44.93746068829185,1577396365.0,-27.68331812488722,-51.12587289882331,9.114528
93497,1577396365.39,1.7750377527748664,2.9842263814786585,7.02896730808165,0.1433017286347176,5.861122454387385,4.405155869200171,21.109851223084984,20.01768649991664,3.324494993033061,20.08038032345656,-8.747379954268293,-0.0783408560403963,-3.586001512480945,5.604441572980183,2.257928615663109,13.248350562118905,23.4164726443407,4.713104992378049,-6.019635072029225,-21.545817116910868,5.136831447322516,-13.62374974562475,-3.81108295440192,-100.99956149619612,28.907269296432744,37.725072633060776,44.76973073351903,1577396365.0,-27.68331812488722,-51.12587289882331,9.114528
93498,1577396365.4,-0.6143755040610709,4.760724013314596,14.017641954077744,-0.5103153245879376,-0.1866309391673017,3.042855124571265,-12.078572190000951,-17.791546117270865,14.869335398306498,17.608456495331556,-5.939762766768292,1.1728798470846038,-3.280825731230945,7.191355635480183,-2.5943663062118905,-5.306336937881097,30.9848320193407,4.865692883003049,-6.184556580851943,-20.99804210546398,2.47984966422466,-19.17149089336589,-3.5061963180497666,-99.63929804170188,28.81142360799113,37.91676400994399,45.00934495462306,1577396365.0,-27.68331812488722,-51.12587289882331,9.114528
93499,1577396365.41,-1.3912939427817737,0.272793001351705,9.650618125952745,1.7091096143769051,-2.5856210026438644,5.884772495176734,1.015316689393578,-17.33425360018102,20.59387156774009,-5.615420457793444,2.406794850419208,-0.5208457388528962,-2.578921434355945,-12.065236161394816,1.7391297875381098,-11.287782250381095,-5.300568371284299,-11.49172899199695,-5.359949036738351,-21.545817116910868,5.136831447322516,-21.020737942612943,-30.94599358974359,-16.663227317554238,28.739539341659928,37.91676400994399,44.96142211040225,1577396365.0,-27.68331812488722,-51.12587289882331,9.114528
93500,1577396365.42,0.1948646570717415,-2.646935923208841,7.115158567847275,-3.673055717654345,-0.5206220707590992,15.29637922125095,-2.5185249609970466,11.106467920815073,15.323036612906106,-11.352725145293444,29.857356373856707,4.255155237709603,-1.342959520293445,4.444773604230185,0.9609315453506097,-12.798402367568595,-54.6169746212843,-23.57668992949695,-5.359949036738351,-21.545817116910868,5.136831447322516,-20.09611441798942,-32.927756726032584,-20.0638859537898,28.76350076377033,37.89280258783359,44.91349926618145,1577396365.0,-27.68331812488722,-51.12587289882331,9.114528
93501,1577396365.43,0.9538265833412728,-8.960445701040872,11.118263743628525,2.135277509884717,-8.662104816120426,-3.5435936425185783,6.445366054627953,13.498275379311163,-5.763894508920063,-33.60003959841845,-12.134831126143292,-2.061983434165396,5.111508253144055,5.940134932355183,0.5184266625381098,2.567198218368903,-28.6159980587843,25.12936475800305,-5.359949036738351,-21.545817116910868,3.3655102585906094,-18.1890783984534,-3.048866363521536,-20.40395181741336,28.907269296432744,37.725072633060776,44.96142211040225,1577396365.0,-27.68331812488722,-51.12587289882331,9.114528
93502,1577396365.44,-3.4108030431235705,2.3689165548185023,13.019259861792587,-2.4041288377715317,5.844363042766291,12.842322519590796,-3.480994028379859,-5.892363866294302,4.0595149027010295,-7.019229051543445,-0.9043623761432926,3.095487268959604,-7.522769090605945,-26.71367366139481,8.42247939691311,3.269102515243903,3.854705066215701,31.59909132050305,-5.359949036738351,-19.71990041208792,4.782567209576139,-17.322243844118844,-4.420856227106227,-24.824808044519585,28.66765507532872,37.725072633060776,44.91349926618145,1577396365.0,-27.68331812488722,-51.12587289882331,9.114528
93503,1577396365.45,0.4857601587807259,5.045634010873189,6.966718064917588,-3.850226640505906,11.451583330852229,18.3418037329697,-1.5656327002548582,-17.887314183677113,9.27408611852134,23.72723090939405,-11.081974680830792,0.9897743783346038,-0.0764800281059451,-1.2314959270198171,-5.0357725562118905,-5.214784203506097,25.0339042849657,9.50436475800305,-4.535341492624759,-20.632858764499392,3.542642377463798,-17.95792251729752,-34.1473032714412,-23.1244787264018,28.595770808997518,37.725072633060776,45.00934495462306,1577396365.0,-27.68331812488722,-51.12587289882331,9.114528
93504,1577396365.46,0.3911891932045541,-8.347530076040872,8.2356449448004,-0.1356227647734849,-5.766317908161442,0.0656653601669685,4.1601005700088125,10.694665235268197,4.349213303579936,-4.608340379668445,-3.895085032393293,-0.9023154654153964,2.258114698456555,6.504710127667684,-0.7633116187118905,6.122496069931404,12.5369560427782,1.0509956173780486,-4.535341492624759,-20.632858764499392,3.542642377463798,-18.07350045787546,-35.366849816849815,-21.42414940828402,28.955192140653548,37.62922694461916,45.05726779884386,1577396365.0,-27.68331812488722,-51.12587289882331,9.114528
93505,1577396365.47,0.2978153284584603,-3.4920891092439974,6.111988072241807,-1.099288932986375,4.106172637492854,5.717178378965796,-5.851253671934546,-29.34356912752477,7.997976633658061,-14.251895067168444,5.870539967606708,4.224637659584603,-9.842105028105944,-17.161671708269818,9.39904189691311,4.032041968368903,36.4779960818407,-1.1462700076219514,-5.52487054556107,-21.36322544642857,4.605435090702943,-19.7493805962556,-38.87304613489958,-26.185071499013805,28.81142360799113,37.772995477281576,44.91349926618145,1577396365.0,-27.68331812488722,-51.12587289882331,9.114528
93506,1577396365.48,2.352040352872523,6.5779230733731895,4.34746144870665,0.7753709669159676,2.5020575251881665,14.62839695806736,-8.118562644102514,-15.280028575766956,11.639557358755717,23.95611274533156,18.199641530106707,1.3254677377096038,-0.3511382312309451,14.149363447980184,-3.9981748999618905,11.142637671493905,22.3178398318407,-20.34182664824695,-5.359949036738351,-20.450267094017097,4.428302971829755,-20.09611441798942,-40.7023659530125,-26.185071499013805,28.907269296432744,37.86884116572318,44.81765357773984,1577396365.0,-27.68331812488722,-51.12587289882331,9.114528
93507,1577396365.49,0.6892672998940071,-0.3329400186678262,10.435916270483991,3.435329011349561,1.9801215632741036,7.357206516172828,2.202840712831078,11.51108800138148,16.435143284048685,11.535458448456556,-3.910343821455792,0.4557167611471037,-1.7244292468559452,3.224070479230183,3.295526271913109,4.093077124618903,-2.9201972775342986,-17.77835008574695,-5.854713563206507,-20.63285876449939,3.3655102585906134,-20.09611441798942,-40.7023659530125,-26.185071499013805,28.715577919549524,37.725072633060776,44.96142211040225,1577396365.0,-27.68331812488722,-51.12587289882331,9.114528
93508,1577396365.5,-0.6646537389243521,0.6067841329435013,15.107003709448836,0.1576669385956556,-0.2081787541087084,10.60494106817478,3.404729946229516,2.7746461434713225,7.412594327749858,-14.526553270293444,6.480891530106708,2.057889612709604,-1.678652879668445,-0.5753679973323171,1.983270412538109,-8.586976586318595,9.2868339724657,-5.1898491091844505,-5.52487054556107,-20.99804210546398,2.8341139019710444,-16.628776200651203,-37.196169634962736,-26.185071499013805,28.907269296432744,37.74903405517118,45.03330637673346,1577396365.0,-27.68331812488722,-51.12587289882331,9.114528
93509,1577396365.51,-1.658247427889196,-1.9310696268221224,13.814134812964465,2.8128365797089363,-2.7412441105540206,15.952390476133765,2.906736000917016,12.950003199135384,19.55478804723228,-26.764102098418444,0.8046219988567074,-0.4445517935403963,2.1818207531440548,5.848582197980183,-1.3126280249618902,1.3464950933689026,-9.7561347775343,2.4242866330030486,-4.535341492624759,-20.2676754235348,3.8969066152101823,-19.28706883394384,-31.250880226095745,-26.185071499013805,28.955192140653548,37.772995477281576,44.91349926618145,1577396365.0,-27.68331812488722,-51.12587289882331,9.114528
93510,1577396365.52,0.8628469202553353,-3.547155747427591,7.440769993628525,7.572509480099562,-1.6494881535227703,13.352287473204075,-3.808999655821265,6.610157203041635,25.2122865701815,-2.227969285918445,-0.6907393292682926,-0.1698935904153963,-2.700991746855945,2.094920088605183,3.112420803163109,-2.437684594131097,-28.4023750119093,15.27218702362805,-4.535341492624759,-20.99804210546398,4.251170852956559,-13.62374974562475,-4.115969590754073,-26.185071499013805,28.907269296432744,37.725072633060776,44.91349926618145,1577396365.0,-27.68331812488722,-51.12587289882331,9.114528
93511,1577396365.53,-1.200954910799352,0.124352498422018,9.989397660864851,-0.1332285631133285,-0.2776106022532397,16.66227126837009,0.2874793847060783,-13.010325401938832,16.599146097769392,2.624325635956555,3.078181569169208,0.9439980111471038,4.592709425019056,-4.267994950457317,1.4492127953506095,-18.7188125238186,-47.8268134884718,2.1801460080030486,-4.205498474979322,-21.728408787393164,3.7197744963369903,-13.508171805046809,-4.115969590754073,-13.942700408565791,28.835385030101538,37.725072633060776,45.05726779884387,1577396365.0,-27.68331812488722,-51.12587289882331,9.114528
93512,1577396365.54,-0.3103118932212271,3.2428001607755337,9.363313926733994,-2.2030158983184065,1.132574175578791,9.59578506841892,-0.2871290137314208,13.759243360268195,-0.0369641378263129,25.20733344845656,-6.550114329268292,-1.3295615591653962,-0.3206206531059451,0.2333478229801829,2.593621975038109,4.611875952743903,-26.0830390744093,21.46725538300305,-4.040576966156604,-21.18063377594628,4.074038734083371,-13.450382834757836,-3.963526272577997,-100.65949563257256,28.66765507532872,37.725072633060776,44.76973073351903,1577396365.0,-27.68331812488722,-51.12587289882331,9.114528
93513,1577396365.55,-4.840141434236852,-1.9334638284822787,4.464777330054306,-3.9364179002715303,-4.362118634479802,8.757814487364234,5.502050600526391,6.373131238686166,5.328441782583842,15.075497510956556,5.412776295731708,4.346707972084603,11.367611768769056,-2.177540848894817,-1.3736631812118902,7.663633765243903,9.9277031130907,26.13644483612805,-4.865184510270196,-21.36322544642857,5.668227803942081,-13.62374974562475,-4.420856227106227,-99.63929804170188,28.66765507532872,37.91676400994399,45.00934495462306,1577396365.0,-27.68331812488722,-51.12587289882331,9.114528
93514,1577396365.56,0.5336441919838505,0.8797231222013149,9.286699473608994,2.922969856076124,4.280949358684261,5.267068466856421,-3.1505941992782964,-9.780547362388052,11.718566013540872,6.988339307831556,-11.478703196455792,-0.6734336294778962,0.4423188000190549,1.6676739948551829,2.074823146913109,3.208067358993903,18.7167656130907,-1.5429985232469514,-5.442409791149711,-21.81970462263431,3.4540763180272034,-19.402646774521777,-4.420856227106227,-113.24193258664414,28.76350076377033,37.86884116572318,44.96142211040225,1577396365.0,-27.68331812488722,-51.12587289882331,9.114528
93515,1577396365.57,0.1134618006264281,-2.38596794225181,9.964258543433212,-4.763614573855516,0.0575776301686352,11.618885471250952,-9.735845865538062,0.3253778451314789,18.185304697622907,4.119686964081555,1.3234208269817074,1.874784143959604,5.233578565644055,-9.043995927019816,2.257928615663109,2.826597632431403,-11.3888252072218,-4.045439929496951,-5.689792054383788,-21.911000457875456,5.136831447322516,-19.17149089336589,-4.420856227106227,-102.35982495069037,29.00311498487435,37.772995477281576,45.03330637673346,1577396365.0,-27.68331812488722,-51.12587289882331,9.114528
93516,1577396365.58,-2.879290274568883,1.760789333138815,15.530777403296494,-4.025003361697312,1.3049566951100409,22.84290285406345,7.11095411615139,-2.2124759146341453,6.899038071646342,-12.085147020293444,-8.533756907393293,1.3865028939596038,8.621029737519056,-0.2549334270198171,0.0606629906631097,-14.766786156631095,-41.4333808712843,-29.68020555449695,-5.689792054383788,-21.911000457875456,5.136831447322516,-18.478023249898254,-3.81108295440192,-108.48101049591436,28.66765507532872,37.86884116572318,45.00934495462306,1577396365.0,-27.68331812488722,-51.12587289882331,9.114528
93517,1577396365.59,-2.3358064977134143,1.6362908468106898,11.360078111304306,4.737774714474561,-1.4771056339915205,15.938025266172827,7.99202032708889,22.82847924894007,-1.854163197884908,8.209042432831556,14.232356373856708,4.041532190834603,3.4330414562690548,9.846384932355184,-2.9300596655868905,1.1328720464939026,-21.1391914181593,-3.0078422732469514,-5.52487054556107,-22.823958810286936,4.959699328449328,-21.020737942612943,-26.67758068081344,-102.35982495069037,28.66765507532872,37.86884116572318,45.00934495462306,1577396365.0,-27.68331812488722,-51.12587289882331,9.114528
93518,1577396365.6,-1.380520035311071,-4.198378598990091,6.27599088596251,2.4130049024628426,-5.374865936725896,8.705142050840797,-0.5193665747665771,-7.76462956453649,11.380983579458842,-1.922793504668445,2.284724537919208,3.187040003334604,-0.8089019031059451,0.5995587604801829,-0.6107237280868902,14.041807593368905,11.2399589724657,30.22580030487805,-4.617802247036118,-20.906746270222836,4.516869031266349,-20.96294897232397,-29.87889036251105,-112.90186672302058,28.931230718543148,37.725072633060776,44.96142211040225,1577396365.0,-27.68331812488722,-51.12587289882331,9.114528
93519,1577396365.61,1.4901277552162728,3.010562599740377,5.9252403427496185,-4.069296092410204,0.1964413264576977,8.130533652403296,-4.377622550108375,-8.1800235525736,7.505968192495951,10.833554151581556,-6.458561594893292,-0.5055869497903963,7.949643018769056,-7.701222489519816,3.005609279725609,3.864195288681403,23.7063896365282,2.6989448361280486,-5.195027527915633,-21.72840878739316,4.251170852956559,-20.87626551689052,-30.5648852943034,-112.7318337912088,28.475963698445504,37.86884116572319,44.93746068829185,1577396365.0,-27.68331812488722,-51.12587289882331,9.114528
93520,1577396365.62,0.0416357508217406,-1.7682639139314975,9.413592161597276,0.1456959302948738,-3.155440997761052,-0.1797403099990469,2.3273391991592027,-4.589918163169301,7.650817392935404,22.97955024533156,-16.834538157393293,0.7456337533346037,4.745297315644055,-4.222218583269817,0.5794618187881098,7.511045874618903,21.9821464724657,11.64059522675305,-5.195027527915633,-21.72840878739316,4.251170852956559,-18.940335012210014,-31.250880226095745,-25.504939771766697,28.81142360799113,37.91676400994399,45.00934495462306,1577396365.0,-27.68331812488722,-51.12587289882331,9.114528
93521,1577396365.63,0.5587833094154916,4.08795334681069,14.764632872046493,-2.806354716677781,13.177802727824885,13.47918016119236,-10.735425058653297,-9.67280828768102,5.208731699576029,-0.6105376452934451,-14.271061594893292,1.1423622689596038,0.1066254406440548,-11.821095536394816,3.417596584413109,8.823301733993903,20.6393730349657,-0.5359184451219513,-5.195027527915633,-21.72840878739316,4.251170852956559,-17.322243844118844,-34.29974658961728,-25.504939771766697,28.76350076377033,37.9646868541648,44.96142211040225,1577396365.0,-27.68331812488722,-51.12587289882331,9.114528
93522,1577396365.64,1.2471162867104133,-0.5927108987947788,6.586040000952744,1.0530983594940928,-0.2261352665598803,4.347695029356421,-1.286708206846656,-5.166920763266958,9.153178934683451,10.955624464081556,-6.778996165205792,1.4780556283346038,6.393246534394056,8.228953291730184,0.8236024437881094,3.085997046493903,8.9206230349657,-16.90859910918445,-4.4528807382134,-20.72415459974054,3.808340555773587,-18.160183913308916,-32.39420511241632,-22.274314067342917,28.81142360799113,37.89280258783359,45.03330637673346,1577396365.0,-27.68331812488722,-51.12587289882331,9.114528
93523,1577396365.65,-1.9455516271079456,-2.929451719107279,12.291422557105088,0.1959741651581551,-4.38845485274152,0.2943116187118895,8.540292507264672,26.4604831673971,-3.8820520040372513,-16.266055223418444,8.067805592606707,1.5696083627096038,11.825375440644056,-10.325734208269816,2.166375881288109,15.079405249618905,23.6911308474657,-7.921172351371951,-4.700263001447477,-20.81545043498169,4.074038734083371,-19.17149089336589,-33.68997331691297,-26.185071499013805,28.955192140653548,37.772995477281576,45.00934495462306,1577396365.0,-27.68331812488722,-51.12587289882331,9.114528
93524,1577396365.66,-0.8944970982993521,1.839797987923971,8.61153460544493,-5.535744609255906,1.4917044246022284,7.500858615782202,-0.691749094297827,1.0077253182760098,4.76819859410728,0.9458588390815548,18.657405201981707,3.675321253334604,8.743100050019056,-13.163868973894816,0.9761903344131098,26.0046982183689,58.0234062380907,15.72995069550305,-4.700263001447477,-20.81545043498169,4.074038734083371,-13.62374974562475,-33.68997331691297,-26.185071499013805,28.907269296432744,37.772995477281576,45.15311348728547,1577396365.0,-27.68331812488722,-51.12587289882331,9.114528
93525,1577396365.67,-0.8130942418540397,-0.3508965311189976,6.442387901343369,-0.5701703660918439,-2.803493353718083,12.27729092779392,-10.153634055235328,-23.027665148032582,8.402596714224467,15.472226026581556,-6.092350657393292,0.6540810189596037,10.116391065644056,5.940134932355183,1.0067079125381098,18.8330673589939,64.5236503787157,4.163788586128049,-4.700263001447477,-20.81545043498169,4.074038734083371,-13.62374974562475,-32.47042677150436,-23.46454459002536,28.66765507532872,37.725072633060776,44.96142211040225,1577396365.0,-27.68331812488722,-51.12587289882331,9.114528
93526,1577396365.68,-0.4228393712485709,0.4535552266935024,11.550417143286728,-3.6239745836211408,1.4845218196217604,7.375163028624,-4.321358811094703,11.390180817543587,17.2168501260897,8.392147901581557,-7.023136790205793,0.7608925423971038,5.645565870331555,-0.9110613567073172,1.937494045350609,18.4210800543064,29.5657646365282,-4.2743217654344505,-4.535341492624759,-20.450267094017097,3.5426423774638054,-13.62374974562475,-33.38508668056082,-25.504939771766693,28.739539341659928,37.67714978883997,44.86557642196064,1577396365.0,-27.68331812488722,-51.12587289882331,9.114528
93527,1577396365.69,0.1733168421303353,3.3864522603849085,7.922004527319931,-1.386593132205125,2.446990887004572,9.08582011480564,2.195658107850609,-3.107907335532583,8.620469065298686,0.3965424328315549,-6.397526438643292,-0.7192099966653963,3.982357862519055,5.909617354230183,1.4034364281631098,2.567198218368903,-10.6716621212843,3.7975776486280486,-4.865184510270196,-21.36322544642857,4.251170852956559,-13.565960775335776,-33.232643362384735,-25.84500563539025,29.00311498487435,37.725072633060776,44.96142211040225,1577396365.0,-27.68331812488722,-51.12587289882331,9.114528
93528,1577396365.7,0.1852878504311165,-1.1936555154939976,10.704066856421491,1.0315505445526862,-2.4204210880930828,12.34193437261814,-3.2439680640243904,-9.114959300864614,9.922914768423686,18.005185010956556,-6.122868235518292,-0.2614463247903963,1.2052582531440548,9.602244307355184,1.5255067406631098,-28.9269424066311,-17.8127754025343,-17.86990282012195,-4.535341492624759,-20.99804210546398,3.188378139717421,-13.565960775335776,-33.232643362384735,-25.84500563539025,28.81142360799113,37.725072633060776,45.10519064306467,1577396365.0,-27.68331812488722,-51.12587289882331,9.114528
93529,1577396365.71,1.8241188868080696,-1.8412870645662631,8.081218937720323,2.037115241818312,-0.8833436222727704,6.727531479551733,-1.1562242163681395,13.646715882240851,3.5232137308260296,-1.7091704577934448,4.832942311356708,2.179959925209604,1.6630219250190548,3.224070479230183,3.509149318788109,3.971006812118903,-16.6225898556593,-2.8247368044969514,-4.287959229390681,-21.45452128166972,3.276944199154016,-13.392593864468866,-30.94599358974359,-14.622832135812905,28.691616497439128,37.91676400994399,45.10519064306467,1577396365.0,-27.68331812488722,-51.12587289882331,9.114528
93530,1577396365.72,1.2267655725990854,1.7272705098966272,8.51097813571837,0.9860607130097176,-2.2995139042551926,7.954559830381812,-1.0472880408310303,-8.19798006502477,6.531528116812358,11.291317823456556,8.769709889481707,2.149442347084604,2.5022553234565548,0.1265362995426828,3.219232326600609,2.475645483993903,10.1718437380907,13.05966260956555,-4.865184510270196,-19.537308741605617,3.542642377463798,-13.450382834757836,-17.683424908424907,-20.0638859537898,28.955192140653548,37.91676400994399,45.17707490939587,1577396365.0,-27.68331812488722,-51.12587289882331,9.114528
93531,1577396365.73,0.3983717981850228,-0.5280674539705601,7.754410411108994,-1.5302452318145,-0.2680337956126142,4.778651328184546,-0.9048330420517332,8.762544495522103,10.638781064810404,15.106015089081556,1.3234208269817074,2.240995081459604,-0.9614897937309452,3.529246260480183,0.9151551781631098,13.919737280868905,7.913542956840701,-1.0547172732469514,-5.359949036738351,-21.18063377594628,3.3655102585906094,-18.24686736874237,-4.420856227106227,-112.56180085939702,28.66765507532872,37.91676400994399,44.76973073351903,1577396365.0,-27.68331812488722,-51.12587289882331,9.114528
93532,1577396365.74,1.329716243985804,1.32983303431069,7.115158567847275,-5.875721244998094,5.296090862590511,13.371441086485326,-5.465787204649391,1.000542713295541,19.820544431509628,3.8145111828315534,-1.0874678448932926,0.7456337533346037,2.0902680187690548,-4.130665848894817,5.5538270531631095,8.731748999618903,1.5353691287157012,-1.0241996951219514,-5.52487054556107,-20.99804210546398,3.8969066152101823,-13.508171805046809,-4.420856227106227,-113.24193258664414,28.907269296432744,37.91676400994399,44.81765357773984,1577396365.0,-27.68331812488722,-51.12587289882331,9.114528
93533,1577396365.75,-1.0070245763266958,0.3853204793790493,10.36768152316954,-5.2891418382598125,-4.481828717487614,10.551071530821265,5.25305362787014,-9.146083922446646,12.374577268423684,9.322934034394056,13.377864186356708,2.561429651772104,8.315853956269056,3.163035322980183,3.600702053163109,-0.8507705316310974,-3.0422675900342986,-3.648711413871952,-5.277488282326992,-20.724154599740537,3.985472674646776,-13.62374974562475,-3.81108295440192,-110.52140567765568,28.739539341659928,37.725072633060776,44.91349926618145,1577396365.0,-27.68331812488722,-51.12587289882331,9.114528
93534,1577396365.76,-2.378902127596227,-2.3931505472322785,8.683360655249619,-2.892545976443406,0.0120877986256665,3.5576084815048583,-3.7359765051865,2.171307325111948,9.256129606070171,-3.387637254668445,5.595881764481708,0.9897743783346036,-1.8770171374809448,5.192454268292684,4.6535584984756095,1.3770126714939028,-16.3784492306593,-4.625273913871951,-5.030106019092914,-20.450267094017097,5.491095685068893,-15.93530855718356,-2.896423045345459,-100.6594956325726,28.76350076377033,37.79695689939198,45.00934495462306,1577396365.0,-27.68331812488722,-51.12587289882331,9.114528
93535,1577396365.77,-1.3972794469321643,2.7424120138028774,7.098399156226181,-2.6459432054473124,-2.0373488224680827,10.172787668516577,9.356715273377954,1.2160208627096034,-3.8724751973966254,15.991024854706556,10.234553639481708,3.614286097084604,0.4423188000190549,-0.6211443645198171,2.257928615663109,4.611875952743903,17.5265800662157,21.68087842987805,-3.7107339485111663,-20.81545043498169,3.3655102585906094,-20.44284823972324,-4.420856227106227,-96.91877113271345,28.61973223110792,37.62922694461916,44.96142211040225,1577396365.0,-27.68331812488722,-51.12587289882331,9.114528
93536,1577396365.78,-0.7843638219321646,-0.824948459829935,10.129458457983992,3.918957746701124,1.276226275188166,0.7875171607040771,-1.2711458960556394,2.4250927010885093,9.479987461294778,-7.721133348418445,-3.223698313643293,0.1657997689596037,-6.393618699980945,16.804392744855182,-0.5191709937118902,10.105040015243905,37.7292167849657,21.19259717987805,-4.865184510270196,-21.72840878739316,3.8969066152101823,-20.558426180301183,-4.420856227106227,-99.63929804170188,28.81142360799113,37.86884116572318,45.15311348728547,1577396365.0,-27.68331812488722,-51.12587289882331,9.114528
93537,1577396365.79,-0.222923532625524,1.693751686654439,9.151427079810166,0.2929393323944838,1.34446102250262,10.640854093077124,-4.588312296202124,-11.509160961020864,12.49189314977134,16.96758735470656,-6.351750071455792,1.4780556283346038,-3.143496629668445,-4.985158036394817,3.127679592225609,8.090879858993905,41.5591728396532,-6.563140124809451,-5.195027527915633,-21.18063377594628,4.251170852956562,-20.03832544770045,-32.927756726032584,-24.14467631727247,28.76350076377033,37.67714978883997,45.12915206517507,1577396365.0,-27.68331812488722,-51.12587289882331,9.114528
93538,1577396365.8,1.494916158536585,1.8158559713224085,10.558020555151964,-2.435253459353562,-0.4404163151438642,7.381148532774389,-0.6893548926376708,-10.03672694002477,21.29537265416588,-7.141299364043445,-6.763737376143292,0.8677040658346037,4.623227003144055,3.193552901105183,2.807245021913109,4.032041968368903,8.4628593630907,-15.70315477324695,-3.8756554573338846,-22.823958810286936,2.8341139019710444,-19.05591295278796,-30.64110695339144,-24.824808044519585,28.907269296432744,37.725072633060776,45.00934495462306,1577396365.0,-27.68331812488722,-51.12587289882331,9.114528
93539,1577396365.81,-0.2480626500571646,-2.287805674185404,10.943487022437118,3.303647920040968,-3.0884033512766766,7.309322482969702,0.4718329125381094,1.539238086830697,9.908549558462749,-0.5800200671684451,6.572444264481708,1.2339150033346038,0.4728363781440549,2.064402510480183,4.7908876000381095,-2.925965844131097,-9.9087226681593,-13.10916063262195,-4.535341492624759,-20.2676754235348,4.251170852956559,-18.5936011904762,-31.86065349880005,-26.185071499013805,28.907269296432744,37.91676400994399,45.10519064306467,1577396365.0,-27.68331812488722,-51.12587289882331,9.114528
93540,1577396365.82,2.9314371546303355,-3.252668943228372,9.511754429663682,4.340337238888623,-2.6263224308665207,15.143150315000952,5.324879677674828,14.436802430092415,-2.8693047017911573,-12.298770067168444,17.406184498856707,1.6001259408346038,0.1066254406440548,-2.787892411394817,1.830682521913109,2.536680640243903,-21.5359199337843,9.80954053925305,-5.359949036738351,-20.81545043498169,5.491095685068893,-18.478023249898254,-31.86065349880005,-26.185071499013805,28.81142360799113,37.91676400994399,45.00934495462306,1577396365.0,-27.68331812488722,-51.12587289882331,9.114528
93541,1577396365.83,-2.286725363680211,0.8773289205411581,11.5300664291754,0.7490347486542493,-0.7971523625071454,9.579025656797826,-0.1973464514755622,-3.417956450522818,6.669194712271342,-5.951113817168444,5.244929616044208,1.2644325814596038,-1.1751128406059452,3.8496808307926833,0.7320497094131098,-2.727601586318597,-5.041168957221799,2.836273937690549,-5.112566773504273,-21.45452128166972,5.22539750675911,-18.13128942816443,-31.86065349880005,-24.824808044519585,28.739539341659928,37.84487974361278,44.98538353251266,1577396365.0,-27.68331812488722,-51.12587289882331,9.114528
93542,1577396365.84,-1.7157082677329458,-0.7842470316072788,11.135023155249618,-0.3092023851348126,2.300944585735041,2.7483683203720464,-4.484164523985328,-3.1964927969583643,3.4154746561189984,-3.082461473418445,-2.979557688643293,0.4709755502096037,1.6325043468940548,6.245310713605183,-0.4276182593368902,3.604795874618903,16.5500175662157,-2.2143852419969514,-5.52487054556107,-20.632858764499392,6.022492041688465,-18.88254604192104,-32.31798345332828,-19.04368836291913,28.66765507532872,37.772995477281576,44.91349926618145,1577396365.0,-27.68331812488722,-51.12587289882331,9.114528
93543,1577396365.85,-1.6917662511313831,3.020139406381002,5.463159422339463,2.15921952648628,2.1884171077076973,8.990052048399388,3.371211122987328,4.132158484779915,11.376195176138529,20.32452094845656,-5.237858469893292,0.8066689095846037,0.0761078625190548,-11.637990067644816,3.478631740663109,-0.2099013910060974,8.4323417849657,6.208466320503049,-4.205498474979322,-22.458775469322344,3.8969066152101823,-19.402646774521777,-38.87304613489958,-26.185071499013805,28.81142360799113,37.86884116572318,44.96142211040225,1577396365.0,-27.68331812488722,-51.12587289882331,9.114528
93544,1577396365.86,-2.72845556997904,-0.2934356912752475,10.35571051486876,0.3013190382050301,0.4310730891530098,14.688251999571264,-2.3820554663681395,-4.384016820395864,19.19326359654869,-4.882998582793444,-1.6673018292682926,-0.7802451529153962,4.836850050019055,1.1793927448551829,0.1216981469131097,-2.254579125381097,-9.1763007931593,1.5087592892530486,-4.370419983802041,-20.81545043498169,5.136831447322516,-19.28706883394384,-33.68997331691297,-26.185071499013805,28.78746218588073,37.58130410039836,44.33842513553179,1577396365.0,-27.68331812488722,-51.12587289882331,9.114528
93545,1577396365.87,0.649762972501429,-2.76904020787681,7.9291871323004,-3.949586009402391,-0.2847932072337086,7.095041434385718,3.3759995263076408,-0.9842504629739898,11.33190244542564,-6.103701707793445,4.832942311356708,2.790311487709604,5.660824659394056,-3.0015154582698167,3.417596584413109,-5.260560570693596,-23.2143867306593,8.90927198456555,-4.370419983802041,-20.81545043498169,5.136831447322516,-15.79083613146113,-33.613751657824935,-25.67497270357847,28.907269296432744,37.86884116572319,44.96142211040225,1577396365.0,-27.68331812488722,-51.12587289882331,9.114528
93546,1577396365.88,-1.4260098668540395,-0.3748385477205601,12.65294700778868,-2.7752300950957496,-6.634216009968083,11.80563320074314,-22.49095521002048,-24.138574718345083,16.133473874868997,-20.416445848418444,1.2623856707317074,1.6001259408346038,3.5856293468940548,0.2333478229801829,1.5255067406631098,-17.5133681878811,-40.7314765744093,-7.158232898246951,-3.0510479132202923,-20.81545043498169,3.3655102585906094,-13.392593864468866,-33.08020004420866,-24.824808044519585,28.81142360799113,37.772995477281576,44.91349926618145,1577396365.0,-27.68331812488722,-51.12587289882331,9.114528
93547,1577396365.89,-2.7763396031821643,0.1135785909513139,11.90595608981993,-3.553345634646531,-0.3111294254954267,13.412142514707984,6.07665899896389,6.330035608803353,11.979533994497904,-1.5871001452934452,13.286311451981708,3.309110315834604,-0.1985503406059451,-13.163868973894816,3.8143251000381095,4.184629858993903,-44.5156562619093,-2.4585258669969514,-3.3808909308657284,-20.81545043498169,3.7197744963369854,-13.565960775335776,-4.26841290893015,-17.0032931811778,28.66765507532872,37.772995477281576,45.10519064306467,1577396365.0,-27.68331812488722,-51.12587289882331,9.114528
93548,1577396365.9,-1.1303259618247423,0.5421406881192836,11.394794035376572,-3.5796818529082497,1.4174841731373846,16.97710878668064,-2.4299394995712644,7.074632325111947,0.844102073111186,3.021054151581556,-0.5839278058307928,2.286771448647104,1.9681977062690548,2.735789229230183,1.952752834413109,6.900694312118903,-6.002472668159299,16.95065382050305,-5.359949036738351,-22.09359212835776,3.8969066152101854,-13.565960775335776,-4.26841290893015,-12.922502817695126,28.739539341659928,37.725072633060776,45.10519064306467,1577396365.0,-27.68331812488722,-51.12587289882331,9.114528
93549,1577396365.91,1.3033800257240853,1.5381285787442835,7.318665708960556,0.7334724378632338,0.972162664348323,6.027227493956031,-0.0381320410751713,-0.3641522329935211,8.358303983511576,4.211239698456555,-5.787174876143292,1.6001259408346038,1.4341400890815548,3.864939619855183,0.3810975609756097,-1.5984511956935972,9.8208915896532,1.4935005001905497,-5.359949036738351,-22.64136713980464,4.782567209576139,-13.62374974562475,-17.0736516357206,-26.185071499013805,28.955192140653548,37.67714978883997,44.96142211040225,1577396365.0,-27.68331812488722,-51.12587289882331,9.114528
93550,1577396365.92,-0.0756801305259146,0.1135785909513139,11.743150376929306,-2.157526066775437,-2.688571674030583,12.416154624082983,-4.146582089903297,9.90697288907679,4.523990024771342,-5.188174364043445,-16.224186594893293,-2.794405309165396,8.529477003144056,-11.821095536394816,3.051385646913109,18.4668564214939,-15.3713691525343,7.429169445503049,-5.030106019092914,-21.18063377594628,3.7197744963369854,-13.508171805046809,-29.72644704433498,-23.46454459002536,28.76350076377033,37.725072633060776,45.24895917572708,1577396365.0,-27.68331812488722,-51.12587289882331,9.114528
93551,1577396365.93,0.5539949060951791,-2.139365171255716,2.769682554663681,2.9062104444550303,1.7814028254811347,7.508041220762671,5.583453456971703,-9.016797032798207,9.578149729361185,22.82696235470656,-3.986637766768293,1.5696083627096038,1.4493988781440548,1.5456036823551829,1.6475770531631098,2.872373999618903,13.7118828005907,14.20407178925305,-5.689792054383788,-21.18063377594628,4.782567209576139,-13.508171805046809,-29.72644704433498,-23.46454459002536,28.81142360799113,37.86884116572318,44.91349926618145,1577396365.0,-27.68331812488722,-51.12587289882331,9.114528
93552,1577396365.94,-1.391293942781774,-0.3066038004061074,14.101439012183212,2.731433723263624,-3.186565619343083,10.136874643614233,0.5268995507217031,-13.240168761313832,11.383377781118998,-13.778872606230944,-0.5381514386432915,0.5472694955221038,1.4188813000190548,4.505808760480183,0.5794618187881098,0.2783798589939026,8.7985527224657,-5.235625476371951,-5.112566773504273,-21.819704622634312,4.339736912393157,-13.508171805046809,-29.72644704433498,-23.46454459002536,28.859346452211938,37.725072633060776,44.96142211040225,1577396365.0,-27.68331812488722,-51.12587289882331,9.114528
93553,1577396365.95,-0.2313032384360709,0.5972073263028763,10.957852232398055,-2.4484215684844224,3.469314995891291,16.299549716856422,2.548802852723657,22.0934593392721,13.738075113882669,-1.1903716296684452,-4.474919016768292,0.6235634408346037,-2.807803270293445,-0.0260515910823162,-0.0003721655868902,7.312681616806404,-5.7888496212843,-1.6192924685594503,-5.359949036738351,-21.18063377594628,4.074038734083371,-16.368725834350833,-2.0579847953770365,-97.76893579177232,28.81142360799113,37.70111121095037,44.93746068829185,1577396365.0,-27.68331812488722,-51.12587289882331,9.114528
93554,1577396365.96,-2.014983475252477,4.238788051400533,15.988069920386335,-4.317095964236374,0.0384240168873848,14.73613603277439,-13.072165878965796,-13.968006066001331,8.290069236197123,-7.568545457793445,-0.5381514386432926,1.5390907845846038,2.6701020031440548,3.102000166730183,3.600702053163109,-7.961366234756097,10.8432304568407,-0.6274711794969513,-4.535341492624759,-19.90249208257021,3.8969066152101823,-21.020737942612943,-3.5061963180497666,-102.35982495069037,28.81142360799113,37.58130410039836,44.91349926618145,1577396365.0,-27.68331812488722,-51.12587289882331,9.114528
93555,1577396365.97,-1.9551284337485708,1.906835634408346,8.338595616187119,-2.9835256395293435,-6.464227692096989,5.757879807188453,6.014409755799828,7.926968116127572,8.99396452428306,19.98882758908156,14.049250905106708,3.827909143959604,5.874447706269055,-1.1094256145198171,-0.3665831030868902,6.137754858993903,-16.0732734494093,-14.26882860137195,-4.865184510270196,-21.72840878739316,4.959699328449328,-20.84737103174604,-28.049570544398133,-25.84500563539025,28.66765507532872,37.725072633060776,45.00934495462306,1577396365.0,-27.68331812488722,-51.12587289882331,9.114528
93556,1577396365.98,0.5180818811928355,-4.514413218130716,7.403659867896104,-0.0985126390410626,-0.9264392521555828,8.057510501768531,1.282270174501,0.2427778878560882,10.02347123815025,-3.647036668730945,0.9114335222942084,1.4933144173971036,-7.263369676543445,5.818064619855184,2.990350490663109,-3.643128930068597,-17.5228584103468,2.378510265815549,-5.359949036738351,-20.632858764499392,4.07403873408337,-20.24058684371185,-28.12579220348617,-20.573984749225133,28.76350076377033,37.74903405517118,44.96142211040225,1577396365.0,-27.68331812488722,-51.12587289882331,9.114528
93557,1577396365.99,4.016010506681116,2.01936311243569,5.609205723608994,5.9683943677948745,1.7861912288014472,4.421915280821265,16.149065383241233,15.035352845131476,-5.720798879037251,17.059140089081556,3.490168873856707,1.905301722084604,-8.285708543730944,12.745554854230184,3.7227723656631095,-2.742860375381097,-11.9839179806593,12.73922803925305,-5.689792054383788,-20.81545043498169,4.428302971829755,-19.113701923076928,-31.098436907919663,-18.36355663567202,28.66765507532872,37.91676400994399,44.96142211040225,1577396365.0,-27.68331812488722,-51.12587289882331,9.114528
93558,1577396366.0,0.4151312098061165,3.1302726827481897,11.19727239841368,-2.420888249392625,0.4837455256764473,7.958151132872046,5.518810012147484,8.312434583412728,2.4889186136385297,7.568173292206555,-16.956608469893293,-0.3835166372903963,-5.325503465605945,-3.398243973894817,0.3048036156631097,4.398252905868903,40.6589042849657,18.23239210175305,-3.7107339485111663,-21.545817116910868,4.074038734083371,-17.322243844118844,-4.420856227106227,-19.38375422654269,28.76350076377033,37.725072633060776,45.29688201994789,1577396366.0,-27.68338063791176,-51.125806817659054,9.532661
93559,1577396366.01,-1.2979200780356803,-0.6609456461092319,9.62787321018126,1.8575501173065927,-3.014183099811833,8.07067861089939,21.370819204042014,5.379537549721323,9.887001743521342,-2.0906401843559426,4.710871998856708,0.5625282845846037,-2.426333543730945,-11.393849442644816,2.166375881288109,7.480528296493903,26.0409843630907,9.44332960175305,-4.9476452646815545,-20.906746270222836,3.4540763180272034,-17.033298992673995,-31.098436907919663,-18.36355663567202,28.691616497439124,37.86884116572318,45.15311348728547,1577396366.0,-27.68338063791176,-51.125806817659054,9.532661
93560,1577396366.02,-1.5002301183188833,-3.180842893423685,1.598917942847275,-0.845503557009813,-1.3274680302317552,13.306797641661108,-7.0818733252548585,-15.562544371665394,20.958987320913923,-0.8546782702934451,31.413752858231707,5.506375940834603,-10.406680223418444,7.527048994855182,1.3118836937881095,-1.2017226800685974,11.5451347537157,-14.43667528105945,-2.391361877929418,-21.545817116910868,3.3655102585906094,-17.177771418396418,-33.613751657824935,-19.553787158354467,28.76350076377033,37.82091832150238,44.86557642196064,1577396366.0,-27.68338063791176,-51.125806817659054,9.532661
93561,1577396366.03,-0.3079176915610709,1.9331718526700647,15.34163547214415,-2.305966569705125,0.8835772029225409,22.067181516172823,8.853932924745141,28.531467603432255,9.68349460240806,-11.535830614043444,5.077082936356708,0.8066689095846037,-9.689517137480944,5.634959151105183,2.074823146913109,2.628233374618903,-20.7424629025343,8.13107374237805,-2.391361877929418,-21.545817116910868,3.3655102585906094,-17.091087962962966,-33.68997331691297,-18.703622499295577,28.61973223110792,37.725072633060776,45.10519064306467,1577396366.0,-27.68338063791176,-51.125806817659054,9.532661
93562,1577396366.04,-1.1554650792563834,-1.5408147562166536,11.903561888159777,-0.2996255784941876,-1.1921956364329267,6.524024338438452,-6.974134250547827,-7.333673265708365,9.968404599966654,-18.005557176543444,-1.1485030011432926,3.064969690834604,-5.203433153105945,4.383738447980183,4.0279481469131095,-12.203309594131095,-19.3996894650343,-14.60452196074695,-3.0510479132202923,-20.085083753052505,5.136831447322516,-13.62374974562475,-33.68997331691297,-20.0638859537898,28.76350076377033,37.62922694461916,45.00934495462306,1577396366.0,-27.68338063791176,-51.125806817659054,9.532661
93563,1577396366.05,-0.1858134068931021,-2.119014457144388,11.761106889380478,5.547014875607374,-1.9846763859446448,-0.1246736718154531,8.33678536615139,17.36969946378382,8.778486374868999,-0.9004546374809452,-4.902165110518292,-0.0935996451028962,1.0221527843940548,0.6300763386051829,0.1522157250381097,-17.2997451410061,-14.1201484494093,-12.34622117949695,-4.617802247036118,-21.637112952152016,4.339736912393157,-13.62374974562475,-33.68997331691297,-26.185071499013805,28.78746218588073,37.62922694461916,44.91349926618145,1577396366.0,-27.68338063791176,-51.125806817659054,9.532661
93564,1577396366.06,-1.5409315465415396,4.753541408334127,5.333872532691025,-2.782412700076219,0.4394527949635574,10.881471359922829,1.3744469384170157,-8.443385735190786,2.856428568472514,28.25909126095656,20.030696217606707,6.147245081459603,1.4799164562690548,-12.416188309832316,2.898797756288109,-0.6676650628810972,15.5887138552782,15.62313917206555,-4.865184510270196,-20.99804210546398,3.8969066152101823,-13.508171805046809,-31.250880226095745,-26.185071499013805,28.76350076377033,37.84487974361279,45.00934495462306,1577396366.0,-27.68338063791176,-51.125806817659054,9.532661
93565,1577396366.07,1.760672542813929,0.6474855611661576,10.823776939429306,1.4601126417206551,2.626556011516292,0.940746066954077,2.815756337831078,19.06240003751429,16.849340171255715,-9.063906785918444,-16.346256907393293,-1.3295615591653962,-1.4802886218559452,13.752634932355184,1.2813661156631098,4.093077124618903,-8.0166328244093,0.2575385861280487,-4.865184510270196,-20.99804210546398,3.8969066152101823,-17.784555606430608,-31.86065349880005,-20.74401768103691,28.66765507532872,37.91676400994399,45.00934495462306,1577396366.0,-27.68338063791176,-51.125806817659054,9.532661
93566,1577396366.08,0.6617339808022102,-2.663695334829935,3.0258621323004,0.2654060133026863,1.3169277034108222,11.535088413145484,0.3018445946670157,0.6414124642721034,8.598921250357279,9.094052198456556,-4.139225657393292,-0.1088584341653963,-2.182192918730945,8.228953291730184,2.349481350038109,12.271788062118905,-10.3054511837843,0.0439155392530487,-4.865184510270196,-20.99804210546398,3.8969066152101823,-13.508171805046809,-3.81108295440192,-18.023490772048465,28.61973223110792,37.772995477281576,44.72180788929823,1577396366.0,-27.68338063791176,-51.125806817659054,9.532661
93567,1577396366.09,-0.6502885289634146,1.31666492517983,10.111501945532822,-0.1535792772246564,-6.119462653034489,6.260662155821265,-2.628658237364234,-10.14686021639196,13.600408518423686,1.0068939953315557,3.215510670731708,1.844266565834604,3.2804535656440548,-17.253224442644818,1.830682521913109,-9.548280297256095,-10.3359687619093,-7.890654773246951,-4.865184510270195,-22.27618379884005,3.011246020844233,-13.450382834757836,-2.1342064544650747,-24.484742180896028,28.739539341659928,37.772995477281576,44.96142211040225,1577396366.0,-27.68338063791176,-51.125806817659054,9.532661
93568,1577396366.1,-0.7125377721274772,-1.61982341100181,11.774274998511338,-4.849805833621141,-2.032560419147771,13.106881803038062,2.796602724549828,6.875913587318978,6.979243827261576,-8.239932176543444,-6.458561594893292,0.2878700814596037,4.089169385956555,-0.4227801067073171,1.2966249047256095,-0.7439590081935972,-21.2765205197218,-2.5958549685594514,-4.040576966156604,-22.276183798840048,3.7197744963369854,-13.594855260480262,-30.41244197612732,-24.654775112707803,28.76350076377033,37.725072633060776,44.91349926618145,1577396366.0,-27.68338063791176,-51.125806817659054,9.532661
93569,1577396366.11,-1.0884274327720085,1.34898664759194,8.3888738510504,2.5087729688690925,-5.037283502643864,10.421784641172827,6.507615297792015,3.533608069740853,3.2430921365877485,17.486386182831556,15.666682545731708,2.790311487709604,2.7616547375190548,-2.604786942644817,-0.3665831030868902,8.335020483993903,14.2306816287157,16.34030225800305,-4.040576966156604,-22.276183798840048,3.7197744963369854,-13.392593864468866,-30.031333680687133,-110.52140567765568,29.09896067331596,37.58130410039836,44.96142211040225,1577396366.0,-27.68338063791176,-51.125806817659054,9.532661
93570,1577396366.12,-2.486641202303258,-3.0707096170564974,16.25382630466368,-2.152737663455125,-2.6454760441477707,4.25910956793064,-5.367624936582984,-12.670348766196645,13.96193296910728,-23.285098192168444,-5.695622141768292,-0.0478232779153963,6.728939893769055,-4.191701005144817,-1.2821104468368902,3.024961890243903,19.4797050662157,6.055878429878049,-4.040576966156604,-22.276183798840048,3.7197744963369854,-18.824757071632074,-4.420856227106227,-110.52140567765568,28.81142360799113,37.772995477281576,44.96142211040225,1577396366.0,-27.68338063791176,-51.125806817659054,9.532661
93571,1577396366.13,0.3337283533608041,0.2452596822599081,9.7679340073004,-2.606438878054734,0.8835772029225419,7.763023697569312,0.9566587487197504,3.411503785072885,2.8791734842439984,1.0984467297065548,-6.702702219893293,-0.9480918326028962,2.2275971203315548,-1.5671892863948171,0.5184266625381098,8.090879858993901,24.9423515505907,-6.364775866996951,-5.359949036738351,-21.36322544642857,4.428302971829751,-18.824757071632074,-4.420856227106227,-110.52140567765568,28.691616497439124,37.84487974361278,44.86557642196064,1577396366.0,-27.68338063791176,-51.125806817659054,9.532661
93572,1577396366.14,0.7503194422279915,2.2085050435880333,10.060026609839465,-1.3243438890410626,-0.7181437077219891,11.36510009527439,4.156509267518578,-1.4966096182474269,12.61399743443931,12.145810010956556,5.870539967606708,0.8677040658346037,3.829769971894055,-3.520314286394817,-0.2139952124618902,5.893614233993903,20.8835136599657,5.292938976753049,-3.7107339485111663,-21.18063377594628,5.491095685068893,-18.824757071632074,-4.420856227106227,-110.52140567765568,28.81142360799113,37.62922694461916,44.91349926618145,1577396366.0,-27.68338063791176,-51.125806817659054,9.532661
93573,1577396366.15,0.2427486902748665,0.5636885030606889,14.197207078589464,-2.803960515017625,1.2738320735280098,7.831258444883763,-10.673175815489234,-10.965677184165395,17.85251066686119,-17.517275926543444,-15.064518626143292,-1.4821494497903962,0.4118012218940549,-3.672902177019817,0.8236024437881098,0.4004501714939026,-0.8144843869092988,-13.78054735137195,-3.8756554573338846,-21.36322544642857,4.251170852956559,-20.558426180301183,-4.420856227106227,-98.27903458720766,28.955192140653548,37.91676400994399,44.96142211040225,1577396366.0,-27.68338063791176,-51.125806817659054,9.532661
93574,1577396366.16,-1.6474735204184925,-0.4945486307283726,9.880461485327745,-1.0537991014434065,-0.3135236271555829,14.62839695806736,4.051164394471703,-4.21402850252477,8.225425791372905,-12.207217332793444,3.734309498856708,0.5930458627096037,-0.7173491687309451,8.900340010480184,-0.4581358374618902,-1.5221572503810974,-0.1430976681592987,-9.26394578887195,-4.123037720567963,-21.271929611187424,4.162604793519964,-20.3272702991453,-33.08020004420866,-24.824808044519585,28.715577919549524,37.725072633060776,44.96142211040225,1577396366.0,-27.68338063791176,-51.125806817659054,9.532661
93575,1577396366.17,0.8484817102943978,-3.2167559183260286,9.530908042944931,-0.4923588121367662,-3.6953334721262863,8.155672769834936,0.7818820275283442,0.8820297311178069,9.53026569615806,-2.746768114043445,6.419856373856708,2.332547815834604,-2.456851121855945,-2.299611161394817,1.2203309594131095,2.262022437118903,-8.3981025509718,1.5850532345655486,-4.700263001447477,-21.545817116910868,4.074038734083371,-18.70917913105413,-18.44564149930529,-19.383754226542685,28.57180938688711,37.820918321502376,45.08122922095426,1577396366.0,-27.68338063791176,-51.125806817659054,9.532661
93576,1577396366.18,-0.5784624791587272,0.6857927877286577,10.644211814917588,1.5295444898651864,1.4150899714772285,15.231735776426731,-3.483388230040015,0.9885717049947595,14.99622808629478,-10.162539598418444,9.471614186356708,0.9592568002096036,-3.189272996855945,3.315623213605183,-1.0990049780868902,-0.5455947503810974,-7.162140636909299,0.1965034298780487,-4.865184510270196,-21.36322544642857,4.605435090702943,-18.01571148758649,-4.420856227106227,-26.185071499013805,28.66765507532872,37.91676400994399,44.81765357773984,1577396366.0,-27.68338063791176,-51.125806817659054,9.532661
93577,1577396366.19,0.7024354090248666,-1.3660380350252477,12.46141087497618,-0.7018514574004376,-1.378943365925114,5.068349729063453,4.989691445252953,-5.368033702720084,7.320417563833842,-1.6481353015434452,-6.946842844893292,0.5625282845846037,1.8461273937690548,11.921580244855184,-0.7633116187118902,-4.512879906631097,-21.5054023556593,5.964325695503049,-4.370419983802041,-21.18063377594628,5.136831447322516,-18.24686736874237,-4.420856227106227,-17.343359044801353,28.61973223110792,37.772995477281576,44.96142211040225,1577396366.0,-27.68338063791176,-51.125806817659054,9.532661
93578,1577396366.2,-1.2667954564536488,1.0880186666349083,11.015313072241806,-0.8909933885527813,-0.5242133732493329,11.245390012266578,0.7304066918349844,1.884003125893197,16.43753748570884,11.764340284394056,2.956111256669208,0.9439980111471036,2.3649262218940548,-12.950245927019816,4.0279481469131095,-8.846376000381097,-35.6655586056593,6.666229992378049,-4.617802247036119,-21.45452128166972,5.048265387885921,-17.322243844118844,-31.86065349880005,-15.983095590307128,28.76350076377033,37.91676400994399,44.91349926618145,1577396366.0,-27.68338063791176,-51.125806817659054,9.532661
93579,1577396366.21,0.7814440638100227,-0.3676559427400914,7.651459739722275,1.6851675977753426,0.2814354853932449,14.33989565801853,-2.585562607481421,2.577124506508432,11.147548917593609,-4.089541551543445,3.001887623856707,0.0132118783346036,0.335507276581555,1.8507794636051829,-0.6412413062118903,-13.7749648675686,-42.1047675900343,0.0133979611280483,-4.700263001447477,-21.545817116910868,3.7197744963369854,-15.93530855718356,-35.366849816849815,-25.84500563539025,28.907269296432744,37.74903405517118,44.96142211040225,1577396366.0,-27.68338063791176,-51.125806817659054,9.532661
93580,1577396366.22,-1.9623110387290397,-2.1992202127596223,15.059119676245713,1.1488664259003425,-3.0931917545969894,12.459250253965797,-4.761891916563453,8.590161975990853,8.914955869497904,-3.357119676543445,2.238948170731707,1.1423622689596038,6.881527784394055,5.512888838605183,-0.1529600562118902,-8.297059594131097,-42.0437324337843,7.642792492378049,-4.700263001447477,-20.450267094017097,5.136831447322516,-18.24686736874237,-33.38508668056082,-25.504939771766697,28.81142360799113,37.772995477281576,45.00934495462306,1577396366.0,-27.68338063791176,-51.125806817659054,9.532661
93581,1577396366.23,-0.2289090367759146,-1.8807913919588413,6.801518150366807,0.1385133253144051,-0.5529437931712079,12.753737058165015,-2.8800494116806403,-1.8868644888528956,3.4633586893221238,-1.9533110827934448,7.030207936356708,1.4780556283346038,-4.989810106230945,-4.954640458269817,2.105340725038109,-0.0878310785060974,-11.3430488400343,11.36593702362805,-6.184556580851943,-21.72840878739316,3.542642377463798,-19.98053647741148,-33.68997331691297,-26.185071499013805,28.76350076377033,37.725072633060776,44.81765357773984,1577396366.0,-27.68338063791176,-51.125806817659054,9.532661
93582,1577396366.24,-1.169830289217321,2.3353977315763146,13.34965969089415,-0.8036050279570782,-0.6319524479563646,11.554242026426731,1.6509772301650625,1.3500961556783535,4.516807419790873,9.155087354706556,-6.305973704268293,1.4475380502096038,4.669003370331555,3.071482588605183,-0.6259825171493902,10.440733374618905,25.5984794802782,10.40463331269055,-5.277488282326992,-21.08933794070513,3.099812080280823,-19.98053647741148,-33.68997331691297,-26.185071499013805,28.715577919549524,37.74903405517118,44.98538353251266,1577396366.0,-27.68338063791176,-51.125806817659054,9.532661
93583,1577396366.25,-0.2145438268149771,-0.7124209818025913,7.263599070776962,-0.4049704515410626,0.8237221614186347,9.3396054907822,-1.9870121924423585,-10.20910945955602,20.308961570181506,12.206845167206556,7.365901295731708,1.4170204720846038,-2.090640184355945,11.524851729230184,-2.8995420874618905,8.182432593368903,5.044890613090701,-1.970244616996952,-5.854713563206507,-21.36322544642857,3.8969066152101823,-17.784555606430608,-32.47042677150436,-26.185071499013805,28.76350076377033,37.772995477281576,45.10519064306467,1577396366.0,-27.68338063791176,-51.125806817659054,9.532661
93584,1577396366.26,1.8324985926186168,-3.59264557897056,10.371272825659776,2.889451032833936,-0.3446482487376142,14.74331863775486,-0.998206906797827,-7.043974864829458,11.730537021841654,-8.941836473418444,1.5065262957317074,-0.8717978872903963,1.7545746593940548,0.7521466511051829,3.112420803163109,-8.602235375381097,-13.2046211056593,-28.67312547637195,-4.205498474979322,-20.632858764499392,3.8969066152101823,-13.161437983312986,-32.47042677150436,-26.185071499013805,28.61973223110792,37.91676400994399,44.96142211040225,1577396366.0,-27.68338063791176,-51.125806817659054,9.532661
93585,1577396366.27,1.4997045618568978,-0.5065196390291539,14.750267662085555,2.5662338087128425,-0.8689784123118328,15.006680820372043,4.362410610292016,20.855657080971323,9.013118137564309,4.638485792206555,-1.2095381573932926,-0.0783408560403963,8.315853956269056,3.864939619855183,0.3658387719131097,0.9192489996189026,-37.7102363400343,-4.716826648246951,-5.52487054556107,-21.72840878739316,4.959699328449328,-13.392593864468866,-32.47042677150436,-20.74401768103691,28.76350076377033,37.58130410039836,45.00934495462306,1577396366.0,-27.68338063791176,-51.125806817659054,9.532661
93586,1577396366.28,-1.8677400731528675,-2.1249999612947787,7.786732133521103,-0.3044139818145004,-1.752438824909489,10.237431113340795,6.745838362977563,2.4873419442525724,0.978177366079936,-0.3053618640434452,10.707576100419208,2.164701136147104,0.808529737519055,-1.582448075457317,0.3505799828506094,9.281065405868905,9.0274345584032,7.535980968940549,-5.52487054556107,-21.72840878739316,4.959699328449328,-13.47927731990232,-4.344634568018188,-63.422283565793165,28.81142360799113,37.91676400994399,45.03330637673346,1577396366.0,-27.68338063791176,-51.125806817659054,9.532661
93587,1577396366.29,-1.4068562535727895,5.407158461556783,12.018483567847277,-2.3418795946074686,0.9817394709889472,8.827246335508764,4.898711782167015,-2.140649864829458,-0.872540517220844,7.995419385956555,-11.554997141768292,-1.5737021841653962,5.966000440644055,-0.8347674113948171,-0.8548643530868902,22.2205185308689,50.7907402224657,10.32833936737805,-4.700263001447477,-21.911000457875456,4.782567209576139,-13.392593864468866,-4.420856227106227,-112.56180085939702,29.09896067331596,37.772995477281576,45.10519064306467,1577396366.0,-27.68338063791176,-51.125806817659054,9.532661
93588,1577396366.3,-0.2672162633384146,-1.7491103006502475,10.443098875464464,2.587781623654249,-1.4316158024485517,2.195307736875952,-2.915962436582984,-2.839756749595083,13.305921714224466,3.6008881359565548,-13.111393626143292,-1.939913121665396,3.5856293468940548,3.864939619855183,-0.8243467749618902,21.6101669683689,54.4528495974657,-1.2988578982469514,-5.52487054556107,-20.632858764499392,3.542642377463798,-13.161437983312986,-4.420856227106227,-113.24193258664414,28.81142360799113,37.58130410039836,44.91349926618145,1577396366.0,-27.68338063791176,-51.125806817659054,9.532661
93589,1577396366.31,1.731942122892054,-0.3772327493807167,8.75877800754454,1.563063313107374,-0.4212627018626142,11.312427658750952,-3.4450810034775152,-0.1127610586771143,10.396966697134625,6.377987745331556,-3.3915449933307924,0.7761513314596038,3.2499359875190548,-4.344288895769817,1.0982606469131098,26.3709091558689,51.9809257693407,2.1191108517530486,-5.195027527915633,-21.36322544642857,4.251170852956559,-13.565960775335776,-4.26841290893015,-112.90186672302058,28.691616497439128,37.725072633060776,44.91349926618145,1577396366.0,-27.68338063791176,-51.125806817659054,9.532661
93590,1577396366.32,0.8173570887123666,-1.4977191263338412,10.01693097995665,-0.5342573411895004,-0.0310078312571459,10.614517874815403,-1.1215082922958737,2.71239690030726,16.576401181997905,1.7087982922065548,6.938655201981708,1.6916786752096038,2.4869965343940548,4.185374190167684,1.6628358422256095,9.860899390243905,9.6225273318407,-15.58108446074695,-5.195027527915633,-21.36322544642857,4.251170852956559,-13.62374974562475,-2.591536408993305,-98.61910045083124,28.81142360799113,37.91676400994399,45.00934495462306,1577396366.0,-27.68338063791176,-51.125806817659054,9.532661
93591,1577396366.33,1.0208642298256478,1.5093981588224086,10.728008873023056,6.337101423458937,-1.292752106159489,11.310033457090796,2.298608779237328,1.6852843881002282,9.084944187368995,2.6548432140815548,4.466731373856708,-0.2919639029153963,4.195980909394055,4.536326338605183,-0.8548643530868902,-3.719422875381097,-9.7256171994093,2.5158393673780486,-5.689792054383788,-20.450267094017097,4.428302971829755,-20.44284823972324,-4.420856227106227,-24.824808044519585,28.66765507532872,37.772995477281576,44.96142211040225,1577396366.0,-27.68338063791176,-51.125806817659054,9.532661
93592,1577396366.34,-1.449951883455602,-0.6070761087557164,7.110370164526962,4.730592109494093,4.12772045243426,14.81275048589939,-3.825759067442359,-6.668085204184927,17.21086462193931,8.148007276581556,6.541926686356708,1.1728798470846038,-1.3582183093559452,-6.724659989519817,-3.3267881812118905,3.238584937118903,-30.6301582150343,-3.5571586794969514,-5.359949036738351,-21.18063377594628,5.845359922815277,-20.558426180301183,-4.420856227106227,-24.824808044519585,28.76350076377033,37.91676400994399,44.91349926618145,1577396366.0,-27.68338063791176,-51.125806817659054,9.532661
93593,1577396366.35,-0.3402394139731802,0.9587317769864712,9.131076365698837,-0.5989007860137189,2.9330138240162915,11.032306064512673,9.457271743104515,4.223138147865853,5.551102536978373,4.501156690644056,-10.258000071455792,-2.6875937857278966,3.829769971894055,2.339060713605183,-0.4581358374618902,-11.470887719131095,-36.3674629025343,-11.85793992949695,-4.700263001447477,-21.91100045787546,3.5426423774638014,-20.558426180301183,-4.420856227106227,-24.824808044519585,28.835385030101538,37.772995477281576,45.00934495462306,1577396366.0,-27.68338063791176,-51.125806817659054,9.532661
93594,1577396366.36,-1.198560709139196,0.5134102681974076,9.873278880347277,0.6460840772675306,-1.7943373539622234,9.89625737676853,4.971734932801781,7.363133625160775,4.537158133902201,13.488583448456556,7.762629811356708,0.7456337533346037,1.8461273937690548,-4.069630692644816,-2.0908262671493905,6.702330054306404,-6.1855781369093,10.78610303925305,-4.865184510270196,-20.99804210546398,3.188378139717421,-19.31596331908832,-18.82674979474548,-22.954445794590026,28.81142360799113,37.91676400994399,45.05726779884386,1577396366.0,-27.68338063791176,-51.125806817659054,9.532661
