,timestamp,acc_x_dashboard,acc_y_dashboard,acc_z_dashboard,acc_x_above_suspension,acc_y_above_suspension,acc_z_above_suspension,acc_x_below_suspension,acc_y_below_suspension,acc_z_below_suspension,gyro_x_dashboard,gyro_y_dashboard,gyro_z_dashboard,gyro_x_above_suspension,gyro_y_above_suspension,gyro_z_above_suspension,gyro_x_below_suspension,gyro_y_below_suspension,gyro_z_below_suspension,mag_x_dashboard,mag_y_dashboard,mag_z_dashboard,mag_x_above_suspension,mag_y_above_suspension,mag_z_above_suspension,temp_dashboard,temp_above_suspension,temp_below_suspension,timestamp_gps,latitude,longitude,speed
39290,1577399398.3,2.5449166546630857,-3.67090969543457,7.275859135131835,3.8431316282691017,-1.541457103003525,7.451514703518007,-0.593362978108724,0.1160617757161458,5.382906394449869,7.378005981445312,4.203033447265625,0.063323974609375,3.2335607016958843,7.74420761480564,-1.883902200838415,9.289332798549108,-26.804606119791668,1.0176159086681549,-9.309389637933162,5.266084995251664,-0.4065727386039843,-21.82352160870681,31.63711843711843,7.842365230182485,30.009494713511245,32.98071105520113,30.5845688441609,1577399398.0,-27.6901084625044,-51.1248613300057,8.796343
39291,1577399398.31,0.3793612530517578,3.5619735198974607,12.96807358215332,-1.9280914735375372,3.54382722316835,7.561647979885194,0.1296859232584628,-0.6919812845865884,9.73077660929362,13.313674926757812,3.760528564453125,-0.653839111328125,17.210611482945886,-7.10259414300686,-4.294790872713415,9.411403111049108,-26.362101236979168,0.7887340727306548,-8.676712672248383,5.924345619658119,-0.9757745726495664,-23.433976996939982,29.737891737891733,8.139706091990352,29.86572618084883,33.12447958786354,30.680414532602512,1577399398.0,-27.6901084625044,-51.1248613300057,8.796343
39292,1577399398.32,-1.421078395385742,4.577115023803711,10.909060154418944,-2.9911170106469123,1.8319730361566309,7.140268487697695,-1.4313335591634109,6.335000587972004,10.219193747965496,20.57685852050781,14.960479736328123,-0.226593017578125,6.987222811070884,-12.19902968988186,1.0763028772865852,8.892604282924108,-25.629679361979168,6.892249697730655,-8.676712672248383,5.924345619658119,-0.9757745726495664,-37.92807549103848,35.910378510378514,7.024677860210852,30.009494713511245,33.12447958786354,30.728337376823312,1577399398.0,-27.6901084625044,-51.1248613300057,8.796343
39293,1577399398.33,-3.1401151873779294,-3.2974142364501957,12.307273923950197,-6.9726743714867565,0.9820314468011622,7.176181512600038,-1.1296641499837237,13.230301369222008,11.449813401285809,10.078811645507812,-0.6950378417968749,0.566864013671875,10.252603670445884,7.3932554663681405,-5.240835794588415,12.676783970424108,-41.31571451822917,-16.575767880394345,-9.219007214263907,5.7362711555419885,-0.4878872863247798,-19.676247757729243,43.5072853072853,-10.815773848261165,29.86572618084883,32.88486536675951,30.392877467277685,1577399398.0,-27.6901084625044,-51.1248613300057,8.796343
39294,1577399398.34,-1.3241132281494132,1.9913772308349609,13.06264454772949,5.668710394138243,0.8599271621331934,15.86952774062738,2.5789542215983072,-19.836017759195965,6.869705625406901,2.8003692626953125,-1.686859130859375,-1.493072509765625,2.0128575766958843,14.53436874761814,-3.4097811070884148,10.998317173549108,-67.89652506510417,2.7418590727306547,-9.580536908940925,6.676643476122644,-2.114178240740737,-36.31762010280528,32.58673178673178,8.139706091990352,29.96157186929044,33.17240243208434,30.728337376823312,1577399398.0,-27.6901084625044,-51.1248613300057,8.796343
39295,1577399398.35,1.2963404888916017,-3.733158938598633,11.12214410217285,-0.1061040101586317,0.6408577102288971,3.0401981446801165,2.320380442301432,1.241336555989583,7.57240381266276,3.4564971923828125,-13.268280029296877,-0.196075439453125,9.153970857945884,-9.55925918206936,-0.3275057164634147,11.028834751674108,-67.69816080729167,-1.3627551850818451,-9.038242366925402,6.300494547890383,-1.951549145299146,-38.196484722410645,31.399715099715092,7.582191976100601,30.201186090394465,32.93278821098032,30.5606074220505,1577399398.0,-27.6901084625044,-51.1248613300057,8.796343
39296,1577399398.36,4.430350462036133,-3.46021994934082,5.917149692993164,3.55702452988043,-3.681873387183212,9.790649725490663,-1.3810553243001298,-1.367146152750651,17.023514866129556,7.8510284423828125,2.021026611328125,-0.165557861328125,8.940347811070884,20.85150741949314,-0.9683748570884148,10.265895298549108,-39.48465983072917,7.075355166480655,-9.038242366925402,6.300494547890383,-1.951549145299146,-40.07534934201602,30.21269841269841,8.214041307442319,29.67403480396561,33.02863389942193,30.5845688441609,1577399398.0,-27.6901084625044,-51.1248613300057,8.796343
39297,1577399398.37,2.191771909790039,-1.7387889556884764,9.862794028930663,2.077407903903868,0.5510751479730372,10.32216249404535,0.1560221415201816,4.505830519612629,9.87682291056315,8.980178833007812,4.187774658203125,-0.501251220703125,6.621011873570884,-4.84429336175686,-2.2195955602134148,8.923121861049108,-24.531046549479168,2.1925426664806547,-9.038242366925402,6.300494547890383,-1.951549145299146,-40.07534934201602,37.8096052096052,7.024677860210852,29.67403480396561,33.02863389942193,30.48872315571929,1577399398.0,-27.6901084625044,-51.1248613300057,8.796343
39298,1577399398.38,0.859398685913086,2.3337480682373046,7.595485056762694,1.3064749693335551,1.1065299331292873,2.5888911317406635,7.882110898844401,-8.712556846110026,3.2688263285319006,15.343093872070312,1.990509033203125,-0.226593017578125,9.581216951695884,-0.3276917992568597,-3.745474466463415,7.946559361049108,-15.833536783854166,-5.223228817894345,-9.49015448527167,6.5826062440645785,-1.3823473112535574,-40.61216780476041,41.133251933251934,7.545024368374619,29.86572618084883,32.83694252253871,30.872105909485725,1577399398.0,-27.6901084625044,-51.1248613300057,8.796343
39299,1577399398.39,0.4894945294189453,1.7974468963623045,11.181999143676755,-1.5354424012719134,-1.527091893042588,9.515316534572694,2.9129453531901035,-0.2502510782877608,14.715504465738931,13.527297973632812,-3.136444091796875,0.658416748046875,6.392130037633384,-4.03557754144436,-1.3040682164634148,6.008693150111608,-4.923502604166667,-0.5845569428943453,-8.13441813023286,6.864717940238775,-0.4878872863247798,-18.60261083224046,26.41424501424502,9.403404754673788,30.201186090394465,33.10051816575314,30.680414532602505,1577399398.0,-27.6901084625044,-51.1248613300057,8.796343
39300,1577399398.4,-0.4538209246826161,-1.0181342559814452,13.243406773071287,7.562523907321836,-0.5287098007574305,12.673268524318786,0.3403756693522128,-10.869732541910803,7.453890830485026,1.3202667236328125,-2.953338623046875,-1.966094970703125,9.001382967320884,12.45917343511814,-3.867544778963415,4.925319126674108,1.5920003255208333,8.112952822730655,-8.857477519586892,7.6170157967033,-1.138403668091164,-40.07534934201602,17.867724867724867,8.214041307442319,30.009494713511245,33.22032527630515,30.392877467277685,1577399398.0,-27.6901084625044,-51.1248613300057,8.796343
39301,1577399398.41,1.4208389752197266,1.237203707885742,8.486128074340819,-1.6072684510765998,-1.1607790390386803,4.537771283107851,0.1105323099772128,8.480205275472004,3.3693827982584628,-1.2432098388671875,-5.944061279296875,-1.325225830078125,10.252603670445884,10.99432968511814,-5.423941263338415,7.305690220424108,-17.573038736979168,-21.885826474144345,-10.484361145633464,7.428941332587169,-1.6262909544159505,-40.07534934201602,26.41424501424502,7.024677860210852,30.05741755773205,33.12447958786354,30.680414532602512,1577399398.0,-27.6901084625044,-51.1248613300057,8.796343
39302,1577399398.42,0.4823119244384765,-0.0412999786376953,10.049541758422851,4.751731158298399,1.664378919945693,12.965361126857848,-3.210225392659505,-15.08592166544596,14.600582786051431,6.8744659423828125,-1.519012451171875,0.536346435546875,-2.778402188929116,23.35394882574314,-2.9214998570884148,8.038112095424108,-31.336466471354168,1.6737438383556549,-9.94206660361794,6.864717940238775,-2.114178240740737,-34.17034625182773,29.737891737891733,-9.700745616481662,30.201186090394465,33.02863389942193,30.5845688441609,1577399398.0,-27.6901084625044,-51.1248613300057,8.796343
39303,1577399398.43,1.3729549420166016,3.3488895721435545,14.347133738403318,0.4828695982398053,-0.0977535019293054,13.164079864650818,2.1025080912272127,3.6463121236165352,15.110547739664712,15.938186645507812,5.622100830078125,-0.196075439453125,4.973062654820884,-12.59575820550686,0.9542325647865852,4.467555454799108,-5.182902018229167,3.840491885230655,-9.399772061602416,5.172047763193601,-0.6505163817663776,-40.61216780476041,26.889051689051684,-12.079472510944596,30.009494713511245,32.98071105520113,30.48872315571929,1577399398.0,-27.6901084625044,-51.1248613300057,8.796343
39304,1577399398.44,0.9324218365478516,-1.0277110626220702,11.478880149536131,3.40379562363043,0.2063101089105372,2.816340289455507,3.2541190897623697,3.5792744771321603,16.1783616800944,-1.2126922607421875,-14.916229248046877,0.170135498046875,5.705484529820884,-7.2246644555068595,-2.2806307164634148,2.819606236049107,17.461140950520832,5.549476260230655,-7.772888435555846,7.240866868471035,-0.8131454772079686,-40.61216780476041,26.889051689051684,-12.079472510944596,29.86572618084883,33.12447958786354,30.5845688441609,1577399398.0,-27.6901084625044,-51.1248613300057,8.796343
39305,1577399398.45,0.4918887310791015,-0.4267664459228515,11.110173093872069,5.199446868747618,-5.163884214819931,14.339632879787535,0.7545725565592442,0.9959308858235668,9.618249131266277,0.3131866455078124,-3.319549560546875,0.231170654296875,-2.808919767054116,3.914251560118141,-1.9144197789634148,2.056666782924107,35.49702962239584,3.4742809477306547,-7.772888435555846,7.240866868471035,-0.8131454772079686,-40.61216780476041,26.889051689051684,-12.079472510944596,30.009494713511245,32.98071105520113,30.5845688441609,1577399398.0,-27.6901084625044,-51.1248613300057,8.796343
39306,1577399398.46,2.769971610717773,0.0233434661865234,10.5666893170166,-0.9297093812523822,1.418973249779678,7.128297479396913,-2.0047448567708326,1.8003826436360673,13.542345652262368,2.0832061767578125,-1.519012451171875,-0.257110595703125,2.8215733970083843,0.3589537085556404,-0.6021639195884148,-0.1405988420758928,59.20918782552084,-3.346397763206845,-9.0382423669254,6.3004945478903815,-0.813145477207972,-26.386478542034123,-14.656532356532356,8.028203268812403,29.91364902506964,32.98071105520113,30.632491688381705,1577399398.0,-27.6901084625044,-51.1248613300057,8.796343
39307,1577399398.47,0.4152742779541015,1.0600327850341795,10.123762009887692,6.623996856540586,-5.467947825659775,15.682780011135192,0.0506772684733066,3.4116803609212227,6.388471091715495,2.4494171142578125,0.3730773925781251,-0.043487548828125,1.0057774985708845,-7.3772523461318595,2.174935689786585,0.8969988141741072,54.99776204427084,-2.6292346772693453,-9.580536908940926,7.240866868471035,-2.114178240740737,-20.749884683218028,34.96076516076515,9.10606389286592,29.86572618084883,32.83694252253871,30.680414532602512,1577399398.0,-27.6901084625044,-51.1248613300057,8.796343
39308,1577399398.48,3.618716099243164,3.1860838592529297,7.142980942993163,-3.194624151760193,3.7353633559808497,1.8514770204125384,-1.1943075948079422,14.389094972737633,3.836252121988932,4.3415069580078125,7.788848876953125,-1.386260986328125,4.149088045445884,-12.01592422113186,3.822884908536585,3.887721470424107,32.96407063802084,-24.723961239769345,-8.495947824909878,5.7362711555419885,-1.4636618589743595,-22.8971585341956,38.75921855921855,7.619359583826587,29.86572618084883,32.83694252253871,30.728337376823312,1577399398.0,-27.6901084625044,-51.1248613300057,8.796343
39309,1577399398.49,2.039740104370117,-0.7128735443115234,12.31685073059082,-0.1635648500023811,2.3156017715081934,9.3070209901391,-5.046578065999349,-29.451131626383464,9.077159556070963,-0.7549285888671875,1.944732666015625,-0.501251220703125,4.027017732945884,17.92181991949314,0.8321622522865852,-1.7885480608258928,1.4088948567708333,-0.3404163178943452,-8.315182977571368,7.052792404354905,-1.951549145299143,-40.61216780476041,30.68750508750508,7.247683506566751,29.86572618084883,32.98071105520113,30.5366459999401,1577399398.0,-27.6901084625044,-51.1248613300057,8.796343
39310,1577399398.5,2.1079748516845704,2.814982601928711,11.148480320434569,5.1683222471655865,-3.1850765427007905,13.748265069728944,-1.8646840596516925,3.054944313557944,7.978220994059244,1.2287139892578125,4.706573486328125,-1.020050048828125,-1.908651212366616,1.3812925757431396,0.008187642911585,-0.6746564592633928,-7.090250651041666,8.982703799293155,-9.219007214263907,6.488569012006514,-0.4878872863247798,-35.780801640060915,-19.167195767195764,7.768030014730517,30.201186090394465,33.05259532153234,30.608530266271305,1577399398.0,-27.6901084625044,-51.1248613300057,8.796343
39311,1577399398.51,1.933198130493164,-0.1274912384033203,9.465356553344726,-5.330252032619569,3.1655433608636625,3.343064654689882,5.349045542399088,-1.5012214457194009,15.89105748087565,-1.5483856201171875,3.516387939453125,-1.203155517578125,-0.6116541420541157,-3.5015199242568595,1.9613126429115848,-0.9950910295758928,14.684041341145834,5.030677432105655,-9.94206660361794,6.864717940238775,-0.4878872863247798,-39.53853087927163,-65.22344322344321,8.288376522894284,29.72195764818641,33.12447958786354,30.392877467277685,1577399398.0,-27.6901084625044,-51.1248613300057,8.796343
39312,1577399398.52,-1.4354436053466797,-3.4458547393798824,12.27854350402832,0.9138258970679304,-2.4751957504644624,15.285342535549256,-0.2869051656087236,-8.676643821207682,21.471941550699867,1.0761260986328125,4.218292236328125,0.505828857421875,2.2264806235708843,17.89130234136814,-5.027212747713415,-1.1171613420758928,30.095418294270832,2.5892711821056547,-9.219007214263907,6.488569012006514,-2.439436431623926,-39.53853087927163,-65.22344322344321,6.9503426447588845,30.05741755773205,32.98071105520113,30.5845688441609,1577399398.0,-27.6901084625044,-51.1248613300057,8.796343
39313,1577399398.53,0.8761580975341802,-0.6590040069580078,13.446913914184568,6.169098541110898,-1.6659555893316491,15.73545244765863,0.5055755839029942,5.267186647542317,7.1067315897623695,-1.334762573242188,3.546905517578125,-1.020050048828125,-6.623617032679116,-1.3042542992568598,-0.5716463414634148,-2.490452357700893,28.020222981770832,-7.267906552269345,-9.67091933261018,6.394531779948449,-1.8702345975783403,-40.61216780476041,-62.374603174603166,-10.890109063713126,29.98553329140084,33.02863389942193,30.5845688441609,1577399398.0,-27.6901084625044,-51.1248613300057,8.796343
39314,1577399398.54,0.736097300415039,2.877231845092773,13.827591978149412,1.27774454941168,2.741769667016006,8.58516918960199,-0.3156355855305986,-2.385878959147135,5.928784372965494,5.3791046142578125,10.047149658203123,-2.149200439453125,-2.549520352991616,7.37799667730564,-0.9225984899009148,1.6904558454241072,2.660115559895834,-12.959434872581843,-7.411358740878827,5.7362711555419885,-2.114178240740737,-17.528973906751688,26.889051689051684,9.329069539221818,30.009494713511245,33.07655674364273,30.728337376823312,1577399398.0,-27.6901084625044,-51.1248613300057,8.796343
39315,1577399398.55,0.6235698223876952,4.275445614624023,9.82688100402832,1.3926662290991805,-2.6380014633550872,11.198440301662536,-0.2677515523274736,-0.2418713724772134,16.949294614664712,0.7404327392578125,5.652618408203125,-1.508331298828125,3.660806795445884,3.0292417944931405,1.4425138147865852,-2.582005092075893,-9.241739908854166,9.089515322730657,-8.676712672248383,5.924345619658119,0.6505163817663843,-16.99215544400731,25.93943833943834,9.329069539221818,30.201186090394465,32.98071105520113,30.48872315571929,1577399398.0,-27.6901084625044,-51.1248613300057,8.796343
39316,1577399398.56,2.1031864483642577,0.6793547210693359,7.856453037719725,0.7582027891577741,0.4169998550042872,8.243995453029726,1.0634245707194003,-9.92641708780924,11.3133439066569,-9.391403198242188,-2.281951904296875,-1.142120361328125,-2.900472501429116,-2.0366761742568595,0.3438810022865852,-5.786350795200892,2.660115559895833,13.484046572730657,-8.676712672248383,6.300494547890383,-0.3252581908831888,-40.61216780476041,26.889051689051684,-7.916700445634458,30.249108934615272,32.98071105520113,30.728337376823312,1577399398.0,-27.6901084625044,-51.1248613300057,8.796343
39317,1577399398.57,1.1945869183349611,-2.61746096496582,8.846455424194335,2.556248235935118,-2.494349363745712,12.38357012343988,1.3100273417154942,3.681028047688801,9.038852329508464,-2.143478393554688,4.965972900390625,-0.867462158203125,-5.433431485804116,5.9131529273056405,0.5575040491615852,-1.7580304827008928,5.345662434895833,0.5293346586681551,-8.13441813023286,6.864717940238776,-1.138403668091167,-27.46011546752289,-19.4045991045991,7.359186329744702,30.03345613562165,33.07655674364274,30.5606074220505,1577399398.0,-27.6901084625044,-51.1248613300057,8.796343
39318,1577399398.58,1.2484564556884763,-2.3205799591064453,10.707947214965818,-1.3223584535180062,0.5989591811761622,13.360404400783631,1.922942966715494,-5.81796703898112,17.298848057047525,0.7709503173828125,4.615020751953125,-0.745391845703125,-0.0013025795541157,3.731146091368141,-3.928579935213415,-1.8495832170758928,6.779988606770833,-0.5540393647693452,-10.122831450956449,7.052792404354905,-2.2768073361823347,-23.433976996939982,-65.22344322344321,8.139706091990352,29.817803336628028,33.12447958786354,30.5366459999401,1577399398.0,-27.6901084625044,-51.1248613300057,8.796343
39319,1577399398.59,-0.2622847918701161,2.747944955444336,14.239394663696288,2.0271296690405864,0.826408338891006,14.167250360256286,0.6204972635904942,-2.9856264750162755,11.117019370524089,6.4167022705078125,6.171417236328125,-0.684356689453125,3.1114903891958843,9.43793320074314,1.5340665491615852,-2.032688685825893,4.765828450520833,1.5821911039806549,-9.761301756279437,5.924345619658119,-0.9757745726495664,-16.99215544400731,25.93943833943834,7.0990130756628185,30.05741755773205,33.17240243208434,30.77626022104412,1577399398.0,-27.6901084625044,-51.1248613300057,8.796343
39320,1577399398.6,0.3506308331298827,0.2747346405029297,13.940119456176756,1.7302486631812113,-4.924464048804307,10.274278460842224,4.970761680094401,-1.91062992960612,18.507919895426426,-0.2056121826171875,2.509307861328125,-1.691436767578125,-4.853597501429116,-0.0835511742568597,-0.4495760289634147,-0.6288800920758928,32.81148274739584,-6.688072567894345,-9.038242366925402,7.052792404354905,-0.3252581908831888,-16.99215544400731,25.93943833943834,7.0990130756628185,30.009494713511245,32.98071105520113,30.680414532602512,1577399398.0,-27.6901084625044,-51.1248613300057,8.796343
39321,1577399398.61,0.8186972576904298,-1.3257891693115234,12.385085477905273,-0.6052950563012098,1.82000202785585,8.819800952297303,-0.4114036519368491,3.528996242268879,11.283416385904948,-4.508590698242188,-0.939178466796875,-0.867462158203125,4.057535311070884,-3.02849746331936,-2.1738191930259148,-0.1100812639508928,40.22725423177084,-0.6913684663318451,-8.405565401240624,6.770680708180709,-1.5449764066951517,-37.122847796921874,25.702035002035,7.656527191552568,29.86572618084883,33.148441009973936,30.5606074220505,1577399398.0,-27.6901084625044,-51.1248613300057,8.796343
39322,1577399398.62,3.285922068481445,0.0353144744873046,6.922714390258788,2.2090889952124613,-3.3371083481207124,13.942195404201598,2.0402588480631505,-8.592846763102214,1.133198447672526,2.2968292236328125,1.410675048828125,-2.423858642578125,-7.478109220179116,14.65643906011814,-6.644644388338415,0.1035417829241072,13.676961263020834,-11.540367489769343,-9.761301756279437,5.924345619658119,-0.3252581908831888,-37.92807549103848,22.615791615791608,7.173348291114784,30.009494713511245,32.88486536675951,30.680414532602512,1577399398.0,-27.6901084625044,-51.1248613300057,8.796343
39323,1577399398.63,2.957916441040039,-0.5608417388916015,9.39831890686035,5.307185943454649,1.4632659804925685,15.88149874892816,1.032299949137369,-6.10527123819987,3.465150864664713,1.6864776611328125,3.974151611328125,-0.135040283203125,0.3649083579458843,-2.3113343773818595,-0.8768221227134148,2.148219517299107,-8.539835611979166,5.793616885230655,-9.399772061602416,6.676643476122644,-0.9757745726495664,-36.31762010280528,25.93943833943834,7.247683506566751,30.009494713511245,32.98071105520113,30.5845688441609,1577399398.0,-27.6901084625044,-51.1248613300057,8.796343
39324,1577399398.64,0.6187814190673827,-0.5584475372314452,8.83089311340332,-5.002246405178163,1.3794689223870995,1.8993610536156635,1.0490593607584628,12.789768263753258,11.10983676554362,5.8216094970703125,5.606842041015625,-1.767730712890625,1.8907872641958845,-2.9522035180068595,-0.1749178258384147,5.444117954799108,-21.387736002604168,-7.359459286644345,-9.219007214263907,6.488569012006514,-1.4636618589743595,-24.50761392242875,33.536345136345126,-9.403404754673796,29.841764758738428,32.98071105520113,30.680414532602512,1577399398.0,-27.6901084625044,-51.1248613300057,8.796343
39325,1577399398.65,-0.1784877337646474,-1.2862848419189452,12.496415855102535,2.538291723483946,-1.2086630722418052,13.375966711574646,4.312356223551432,-12.955082187906898,9.090327665201825,2.6935577392578125,3.607940673828125,-0.836944580078125,-2.549520352991616,11.05536484136814,-3.531851419588415,1.0343279157366072,-30.558268229166664,0.1478649321056551,-9.038242366925402,5.924345619658119,-3.252581908831901,-29.33898008712825,-15.843549043549045,-1.003525408601555,30.009494713511245,32.93278821098032,30.704375954712912,1577399398.0,-27.6901084625044,-51.1248613300057,8.796343
39326,1577399398.66,-1.746689821166992,2.441487142944336,14.60091911437988,0.1596523741187115,-2.5829348251714936,8.888035699611757,0.9173782694498692,9.088332497151692,11.1601150004069,9.163284301757812,7.849884033203125,-1.660919189453125,5.003580232945884,-5.24102187738186,-1.4871736852134148,2.056666782924107,-9.882609049479166,7.807777041480655,-8.495947824909878,6.864717940238775,-1.4636618589743595,-36.31762010280528,33.536345136345126,8.585717384702155,30.249108934615272,33.02863389942193,30.5845688441609,1577399398.0,-27.6901084625044,-51.1248613300057,8.796343
39327,1577399398.67,0.8773551983642577,-0.5536591339111328,9.656892686157226,-4.391724981838318,3.481577980004287,6.891271515041445,0.8335812113444003,11.872789027913411,13.6883919535319,0.6793975830078125,-0.2983093261718749,-1.203155517578125,2.9283849204458843,-8.29277968988186,-0.2359529820884147,4.345485142299108,-7.380167643229167,-8.091881161644345,-9.219007214263907,6.112420083774249,-1.7889200498575484,-36.31762010280528,33.536345136345126,8.585717384702155,30.201186090394465,33.02863389942193,30.5366459999401,1577399398.0,-27.6901084625044,-51.1248613300057,8.796343
39328,1577399398.68,1.5513229656982428,-0.2890998504638671,10.163266337280271,3.631244781345274,-2.6882796982183685,11.734741473537536,3.2924263163248697,-14.33174814249674,7.008569321695963,-1.8688201904296875,0.678253173828125,-1.859283447265625,3.1725255454458843,17.28095077886814,-2.7078768102134148,1.3547624860491072,-20.685831705729168,-5.284263974144345,-8.13441813023286,7.993164724935561,-1.138403668091164,-19.13942929498485,41.133251933251934,7.396353937470683,29.91364902506964,33.12447958786354,30.728337376823312,1577399398.0,-27.6901084625044,-51.1248613300057,8.796343
39329,1577399398.69,1.7967286358642578,-0.1179144317626953,8.933843784790039,1.6464516050757432,-0.7609473617925879,7.741213104396912,3.2924263163248693,6.163815169270835,9.030472623697916,3.5480499267578125,2.875518798828125,-0.104522705078125,0.5785314048208844,-5.89714980706936,0.4201749475990852,3.536769321986608,-14.475504557291666,-1.698448544456845,-8.13441813023286,7.993164724935561,-1.138403668091164,-21.286703145962417,33.536345136345126,7.099013075662818,29.96157186929044,33.12447958786354,30.680414532602512,1577399398.0,-27.6901084625044,-51.1248613300057,8.796343
39330,1577399398.7,1.4304157818603516,1.9387047943115236,9.994475120239256,0.2578146421851178,1.068222706566787,7.583195794826601,3.3187625345865883,-0.5986074198404947,10.575929795328776,8.400344848632812,3.272247314453125,-1.660919189453125,2.7452794516958843,18.28803085699314,-2.8909822789634148,2.514430454799107,-20.319620768229168,-3.880455380394345,-9.580536908940926,8.369313653167822,-0.162629095441591,-40.07534934201602,22.615791615791608,7.173348291114784,29.96157186929044,33.17240243208434,30.680414532602512,1577399398.0,-27.6901084625044,-51.1248613300057,8.796343
39331,1577399398.71,0.2261323468017578,-1.6693571075439453,9.9920809185791,3.63363898300543,-3.552586497534775,12.7546713807641,-2.5901271626790363,-10.73086884562174,10.79619634806315,0.1911163330078124,-1.366424560546875,-0.470733642578125,0.5174962485708843,-7.5298402367568595,-1.1209627477134148,-0.8119855608258928,-12.415568033854166,3.4742809477306547,-9.580536908940926,5.360122227309728,-1.4636618589743595,-39.00171241652724,15.018884818884818,7.173348291114784,30.15326324617366,33.12447958786354,30.728337376823312,1577399398.0,-27.6901084625044,-51.1248613300057,8.796343
39332,1577399398.72,1.5369577557373046,-0.0544680877685546,7.1190389263916005,0.4840666990698838,1.900207783471084,5.273988293605896,1.0239202433268222,6.004600758870443,10.530439963785806,1.4881134033203125,3.348541259765625,-2.286529541015625,-0.794759610804116,-0.5718324242568595,-1.1514803258384148,0.6681169782366072,4.765828450520833,2.162025088355656,-8.676712672248383,7.428941332587169,-1.6262909544159505,-39.27012164789944,26.651648351648348,-1.5610395244913031,29.93761044718004,33.07655674364273,30.608530266271305,1577399398.0,-27.6901084625044,-51.1248613300057,8.796343
39333,1577399398.73,-0.8704120135498037,0.1598129608154296,13.645632651977538,3.28887394394293,-3.0881113754644622,16.81284319472894,0.8718884379069004,1.745316005452474,12.0028739847819,1.2592315673828125,5.530548095703125,-1.294708251953125,-1.3440760170541155,3.609075778868141,-1.0904451695884148,3.185817173549107,0.3712972005208333,-13.890221005394343,-8.676712672248383,7.428941332587169,-1.6262909544159505,-40.61216780476041,38.28441188441188,-10.14675690919346,29.86572618084883,33.02863389942193,30.5845688441609,1577399398.0,-27.6901084625044,-51.1248613300057,8.796343
39334,1577399398.74,2.306693589477539,2.8987796600341795,12.505992661743162,-2.102868194728944,2.464042274437881,6.541718072658632,2.2317949808756503,-5.9233119120279945,6.963079490152994,7.6679229736328125,8.185577392578125,-1.874542236328125,4.973062654820884,-3.4710023461318595,-1.4566561070884148,1.8125261579241072,-12.812296549479166,2.5282360258556547,-8.676712672248383,6.300494547890383,-1.951549145299146,-23.433976996939982,33.536345136345126,6.9503426447588845,29.86572618084883,32.88486536675951,30.680414532602512,1577399398.0,-27.6901084625044,-51.1248613300057,8.796343
39335,1577399398.75,1.3849259503173827,-1.4155717315673828,8.206006480102538,6.691034503024961,-4.565333799780868,11.248718536525818,1.7840792704264317,11.731531129964194,9.069976951090496,-5.271530151367188,0.8308410644531251,-1.172637939453125,-1.0694178139291155,17.76923202886814,-0.0528475133384147,2.483912876674107,-14.002482096354166,-9.800865536644343,-8.857477519586892,5.360122227309728,-0.8131454772079686,-36.31762010280528,35.435571835571835,-9.700745616481662,29.96157186929044,33.17240243208434,30.5366459999401,1577399398.0,-27.6901084625044,-51.1248613300057,8.796343
39336,1577399398.76,1.4567520001220704,1.2216413970947264,7.581119846801757,-0.2413764039574598,4.876200447045302,6.958309161525819,-2.041854982503255,-14.519692972819009,10.800984751383464,0.0843048095703125,3.119659423828125,-1.340484619140625,-1.5882166420541155,0.16058945074314,-0.4343172399009147,0.0882829938616072,-8.890787760416666,6.892249697730653,-8.405565401240622,6.018382851716186,-2.1954927884615323,-21.286703145962417,31.63711843711843,-9.700745616481662,29.91364902506964,33.07655674364273,30.608530266271305,1577399398.0,-27.6901084625044,-51.1248613300057,8.796343
39337,1577399398.77,-0.0396240374755849,1.6346411834716796,10.494863267211914,4.162757549899961,-5.602023118628525,10.786637616115662,4.872599412027995,29.60185232137044,8.806614768473306,6.7523956298828125,5.072784423828125,-1.294708251953125,-3.449788907679116,5.5927183569931405,-2.9214998570884148,4.040309361049108,-3.5654703776041665,-1.5611194428943451,-9.219007214263907,6.488569012006514,-1.138403668091164,-22.36034007145118,33.536345136345126,-9.254734323769863,30.009494713511245,33.17240243208434,30.680414532602512,1577399398.0,-27.6901084625044,-51.1248613300057,8.796343
39338,1577399398.78,1.6602591412353516,-4.8129438873291015,5.792651206665038,1.840381939548399,-0.1767621567144617,11.531234332424257,2.8087975809733075,-13.970223691813148,5.619932358805339,-7.4993133544921875,-8.812713623046875,0.200653076171875,1.5245763266958845,-6.27861953363186,-1.7313143102134148,0.1645769391741072,-10.676066080729166,-5.009605771019345,-7.953653282894354,4.795898834961333,-1.951549145299146,-40.61216780476041,33.536345136345126,12.005137295492622,30.009494713511245,33.02863389942193,30.728337376823312,1577399398.0,-27.6901084625044,-51.1248613300057,8.796343
39339,1577399398.79,1.665047544555664,-0.0341173736572265,11.069471665649411,-1.5761438294945689,-0.3252026596441492,1.243349798732851,-0.4616818868001298,-0.2059583475748697,6.302279831949869,-1.3652801513671875,2.326202392578125,-1.599884033203125,5.522379061070884,4.7382261694931405,1.8392423304115848,-0.1405988420758928,-17.084757486979168,4.786536807105655,-8.857477519586892,5.360122227309728,-0.8131454772079686,-40.07534934201602,42.55767195767196,7.322018722018717,30.009494713511245,33.12447958786354,30.5366459999401,1577399398.0,-27.6901084625044,-51.1248613300057,8.796343
39340,1577399398.8,0.1590947003173833,0.0305260711669921,9.31571894958496,1.1400779539526964,0.3715100234613191,13.07908570571527,3.27925820719401,-0.8799261149088546,9.97977358194987,1.3202667236328125,0.815582275390625,-1.050567626953125,-0.8405359779916157,-1.30425429925686,-1.9449373570884148,1.3852800641741072,-13.605753580729168,-8.442833310081845,-9.39977206160242,6.676643476122644,-1.9515491452991425,-27.728524698895075,14.54407814407814,7.099013075662818,29.91364902506964,33.07655674364274,30.632491688381705,1577399398.0,-27.6901084625044,-51.1248613300057,8.796343
39341,1577399398.81,-1.5192406634521485,2.453458151245117,16.743729600219726,-3.716560113674256,0.9197822036370996,6.917607733303163,3.80957387491862,-1.491644639078776,10.037234421793618,6.0504913330078125,2.204132080078125,0.200653076171875,7.322916170445884,-6.12603164300686,1.3204435022865852,2.209254673549107,-16.321818033854168,4.847571963355655,-9.038242366925402,7.052792404354905,-1.6262909544159505,-40.07534934201602,15.018884818884818,9.403404754673788,29.86572618084883,33.17240243208434,30.249108934615272,1577399398.0,-27.6901084625044,-51.1248613300057,8.796343
39342,1577399398.82,0.391332261352539,2.5635914276123044,11.672810484008789,-0.3814372010765999,-0.7370053451910242,3.065337262111757,8.70571626993815,10.804975087483726,5.296715134684245,3.3039093017578125,1.349639892578125,-1.569366455078125,-7.478109220179116,11.57416366949314,-0.4495760289634147,0.5613054547991072,-22.211710611979168,-6.047203427269345,-9.038242366925402,5.924345619658119,-2.2768073361823347,-40.07534934201602,22.615791615791608,9.403404754673788,29.96157186929044,33.12447958786354,30.680414532602512,1577399398.0,-27.6901084625044,-51.1248613300057,8.796343
39343,1577399398.83,-0.0563834490966787,-2.607884158325195,8.304168748168944,6.33429845566168,1.4632659804925685,14.08345330215082,-4.46478706258138,-11.559262620035804,5.933572776285807,-10.154342651367188,-16.777801513671875,0.322723388671875,0.4869786704458843,-4.02031875238186,-0.1749178258384147,-0.5068097795758928,-29.657999674479168,-3.3616565522693453,-9.038242366925402,6.676643476122644,-2.602065527065524,-40.61216780476041,22.140984940984943,8.288376522894284,29.96157186929044,33.17240243208434,30.680414532602512,1577399398.0,-27.6901084625044,-51.1248613300057,8.796343
39344,1577399398.84,0.6343437298583989,-0.9175777862548828,7.117841825561523,-0.1276518251000379,-2.217819071997665,5.493057745510193,1.4860011637369792,0.4261108907063798,15.5379127360026,-0.6328582763671879,-3.609466552734375,-1.050567626953125,-2.457967618616616,-2.2808167992568595,-2.0059725133384148,-1.3918195452008928,-4.816691080729166,10.966346377418157,-8.676712672248383,6.3004945478903815,-2.114178240740737,-40.34375857338821,33.77374847374847,-8.92022585423601,29.98553329140084,32.90882678886992,30.5606074220505,1577399398.0,-27.6901084625044,-51.1248613300057,8.796343
39345,1577399398.85,2.277963169555664,2.436698739624023,5.859688853149414,3.5402651182593363,7.841419203148818,8.2727258729516,-1.8024348164876296,2.846648769124348,12.421859275309243,0.9540557861328124,-2.465057373046875,-1.111602783203125,-7.813802579554116,-0.6633851586318598,0.1607755335365852,-0.1711164202008928,18.834431966145832,-1.5306018647693451,-8.13441813023286,5.7362711555419885,-1.7889200498575484,-40.61216780476041,29.737891737891733,-10.890109063713126,29.96157186929044,33.17240243208434,30.5845688441609,1577399398.0,-27.6901084625044,-51.1248613300057,8.796343
39346,1577399398.86,1.4399925885009766,2.530072604370117,15.364669443969726,-0.1013156068383186,-1.270912315405868,2.904925750881288,2.380235483805338,-7.781212400309244,17.150407554117837,5.4401397705078125,-0.4508972167968749,-1.874542236328125,2.7452794516958843,-7.8960511742568595,-0.2359529820884147,-4.840305873325892,43.30952962239584,6.922767275855655,-8.13441813023286,5.7362711555419885,-2.114178240740737,-40.61216780476041,-65.22344322344321,7.247683506566751,30.009494713511245,33.12447958786354,30.680414532602512,1577399398.0,-27.6901084625044,-51.1248613300057,8.796343
39347,1577399398.87,1.8912996014404295,-2.348113278198242,9.427049326782226,0.7941158140601179,-3.061775157202744,11.660521222072694,-0.9788294453938798,24.8158432027181,10.10666626993815,-3.2573699951171875,-0.756072998046875,-0.653839111328125,-2.869954923304116,-2.2502992211318595,-0.1138826695884147,-1.7885480608258928,47.67354329427084,-3.880455380394345,-8.767095095917638,6.95875517229684,-1.3823473112535574,-40.61216780476041,-65.22344322344321,7.247683506566751,30.03345613562165,33.12447958786354,30.680414532602512,1577399398.0,-27.6901084625044,-51.1248613300057,8.796343
39348,1577399398.88,0.8629899884033202,2.7359739471435547,15.338333225708006,0.6037767820776959,0.0291391860589752,10.671715936428162,3.445655222574869,-10.141895237223306,6.024552439371744,2.5714874267578125,1.868438720703125,-0.440216064453125,-0.2149256264291156,2.0221617163681405,-1.1972566930259148,-0.8272443498883928,31.71284993489584,-13.127281552269343,-10.84589084031048,6.300494547890383,-1.951549145299146,-23.433976996939982,-15.36874236874236,7.247683506566751,29.86572618084883,33.148441009973936,30.872105909485725,1577399398.0,-27.6901084625044,-51.1248613300057,8.796343
39349,1577399398.89,3.740820383911133,1.8525135345458985,7.60506186340332,5.141986028903867,0.2948955703363185,13.11859003310785,-0.2318385274251298,18.705840565999356,3.5872551493326816,2.0221710205078125,7.086944580078125,-2.271270751953125,-1.4356287514291155,-0.0225160180068597,-2.7078768102134148,0.1645769391741072,-14.032999674479166,-8.122398739769345,-10.84589084031048,6.300494547890383,-1.951549145299146,-22.8971585341956,35.910378510378514,7.322018722018717,30.201186090394465,33.17240243208434,30.5845688441609,1577399398.0,-27.6901084625044,-51.1248613300057,8.796343
39350,1577399398.9,1.1071985577392578,-1.3916297149658203,7.396766318969726,0.0758553160132428,-1.6539845810308678,9.577565777736757,-2.5709735493977863,-12.13626522013346,4.252843210856119,-5.088424682617188,4.920196533203125,-0.867462158203125,4.698404451695884,-5.42412734613186,2.693734517911585,-1.6664777483258928,-35.456339518229164,-9.526207333519343,-8.31518297757137,6.300494547890383,-1.6262909544159505,-26.65488777340629,26.889051689051684,7.0990130756628185,29.96157186929044,32.88486536675951,30.680414532602512,1577399398.0,-27.6901084625044,-51.1248613300057,8.796343
39351,1577399398.91,-0.0815225665283202,-0.1071405242919921,9.016443742065428,-1.274474420314881,2.0761816054925686,7.587984198146913,2.277284812418619,-10.829031113688147,13.82246724650065,-2.1892547607421875,2.982330322265625,-1.371002197265625,-0.6116541420541157,6.1115171851181405,-1.2430330602134148,-1.8190656389508928,-23.585001627604168,26.08780633835565,-7.682506011886591,7.146829636412972,-1.3823473112535574,-36.31762010280528,25.93943833943834,7.396353937470683,29.98553329140084,32.98071105520113,30.680414532602512,1577399398.0,-27.6901084625044,-51.1248613300057,8.796343
39352,1577399398.92,1.3370419171142578,-1.935113491821289,8.69681782043457,2.310842565769102,-1.273306517066024,9.90676850600824,-1.3870408284505202,5.789122609456382,13.29334867960612,-4.264450073242188,2.234649658203125,-1.905059814453125,-4.853597501429116,1.7627623023056405,-0.7852693883384148,-3.009251185825893,11.144002278645834,1.521155947730655,-7.411358740878827,7.240866868471035,-2.114178240740737,-38.46489395378285,25.93943833943834,7.173348291114784,29.96157186929044,33.00467247731153,30.704375954712912,1577399398.0,-27.6901084625044,-51.1248613300057,8.796343
39353,1577399398.93,0.8462305767822265,-2.514510293579101,15.436495493774412,0.6672231260718365,-2.1112770981207114,5.80909236465082,1.769714060465494,6.799475710042317,6.022158237711588,-2.3418426513671875,3.333282470703125,-0.653839111328125,1.3719884360708845,4.3720152319931405,-1.5482088414634148,-1.2087140764508928,20.909627278645832,2.3146129789806547,-7.411358740878827,7.240866868471035,-2.114178240740737,-38.46489395378285,28.78827838827839,8.288376522894284,29.96157186929044,33.02863389942193,30.48872315571929,1577399398.0,-27.6901084625044,-51.1248613300057,8.796343
39354,1577399398.94,-0.1114500872802724,2.6282348724365234,7.346488084106444,-0.3024285462914436,-1.165567442358993,10.480179803615664,1.5255054911295565,29.546785683186847,3.3262871683756505,5.7147979736328125,10.016632080078123,-1.660919189453125,-12.391439298304116,3.883733981993141,2.113900533536585,3.490992954799107,0.9206136067708331,-39.00618780226935,-7.411358740878827,7.240866868471035,-2.114178240740737,-40.61216780476041,35.435571835571835,-10.890109063713126,29.62611195974481,33.17240243208434,30.5845688441609,1577399398.0,-27.6901084625044,-51.1248613300057,8.796343
39355,1577399398.95,0.8091204510498046,0.738012661743164,10.044753355102538,3.200288482517149,0.4828404006585846,6.490242736965271,-2.5673822469075525,-17.72672609659831,8.123070194498698,-3.928756713867188,0.2815246582031251,-1.050567626953125,3.691324373570884,1.3049986304306396,0.877938619474085,-3.467014857700893,-18.259684244791668,3.230140322730657,-8.676712672248385,6.488569012006511,-1.7889200498575415,-27.728524698895065,31.63711843711843,8.139706091990352,30.03345613562165,33.17240243208434,30.68041453260251,1577399398.0,-27.6901084625044,-51.1248613300057,8.796343
39356,1577399398.96,-1.449808815307617,0.2100911956787109,7.001723045043945,-1.1811005555687877,-2.353091465796493,13.527998516994568,1.4584678446451815,4.510618922932942,18.163154856363928,-2.1892547607421875,-1.274871826171875,-0.531768798828125,-9.736410001429116,-1.0601136742568598,-0.5411287633384148,-3.314426967075893,8.427937825520834,10.462806338355657,-7.230593893540322,5.172047763193601,-2.2768073361823347,-33.096709326338974,37.33479853479852,-9.552075185577726,30.201186090394465,33.17240243208434,30.728337376823312,1577399398.0,-27.6901084625044,-51.1248613300057,8.796343
39357,1577399398.97,2.6777948468017576,-2.7467478546142576,14.047858530883788,2.233031011814024,4.353067384301163,12.986908941799255,0.1560221415201816,-2.1404732889811195,14.78014791056315,-4.294967651367188,1.685333251953125,-0.714874267578125,7.139810701695884,1.2287046851181402,-0.9683748570884148,-2.429417201450893,24.236043294270832,19.31290399460565,-7.230593893540322,5.172047763193601,-2.2768073361823347,-40.61216780476041,37.33479853479852,-8.511382169250194,29.86572618084883,33.02863389942193,30.5366459999401,1577399398.0,-27.6901084625044,-51.1248613300057,8.796343
39358,1577399398.98,-0.5304353778076162,-1.35332248840332,17.454807493286133,3.961644610446837,-3.056986753882431,5.045342035060976,4.302779416910807,6.562449745686848,6.441143528238932,5.8368682861328125,2.478790283203125,0.688934326171875,4.271158357945884,8.33930038824314,1.9002774866615848,-2.154758998325893,32.41475423177084,-5.803062802269345,-7.230593893540322,5.172047763193601,-2.2768073361823347,-22.8971585341956,34.011151811151805,11.038779494617051,30.009494713511245,33.17240243208434,30.680414532602512,1577399398.0,-27.6901084625044,-51.1248613300057,8.796343
39359,1577399398.99,1.1993753216552734,-0.6853402252197265,9.842443314819334,-0.7345819459496473,-0.3910432052984465,11.155344671779725,-1.8060261189778644,2.012269490559899,11.114625168863933,-0.9227752685546876,2.692413330078125,-1.126861572265625,-1.5271814858041155,-6.04973769769436,-1.0141512242759148,1.4615740094866074,18.010457356770832,-9.861900692894343,-8.58633024857913,6.206457315832316,-1.5449764066951517,-30.949435475361405,44.93170533170533,9.923751262837555,29.91364902506964,33.02863389942193,30.608530266271305,1577399398.0,-27.6901084625044,-51.1248613300057,8.796343
39360,1577399399.0,1.0377667095947265,0.1095347259521484,12.458108628540035,2.9010132749976174,4.3387021743402245,6.000628497463319,-0.7872933125813798,-2.9760496683756505,1.6599228129069008,0.0690460205078124,2.661895751953125,-0.440216064453125,-7.233968595179116,7.66791366949314,-4.905142435213415,1.0190691266741072,1.2257893880208333,-14.073326474144343,-8.857477519586892,7.240866868471035,-3.089952813390304,-19.13942929498485,35.435571835571835,8.139706091990352,30.009494713511245,32.98071105520113,30.5845688441609,1577399399.0,-27.69011189673621,-51.12494937695796,8.778173
39361,1577399399.01,3.2117018170166016,2.348113278198242,5.009747263793945,3.142827642673399,3.814372010766006,12.644538104396911,3.3570697611490887,-1.1373027933756508,7.899212339274088,-0.8464813232421875,4.431915283203125,-1.721954345703125,-3.968587735804116,-4.75274062738186,-1.4871736852134148,2.697535923549107,-21.753946940104168,1.9178844633556549,-8.857477519586892,7.240866868471035,-3.089952813390304,-22.36034007145118,18.34253154253154,11.707796433684758,29.817803336628028,32.83694252253871,30.728337376823312,1577399399.0,-27.69011189673621,-51.12494937695796,8.778173
39362,1577399399.02,0.295564194946289,0.4830301849365234,11.155662925415038,-4.037383136135193,-2.362668272437118,3.4627747376976945,1.1807404520670566,12.543165492757163,8.028499228922525,1.0456085205078125,2.936553955078125,-0.211334228515625,7.933267732945884,-9.36089492425686,0.2828458460365852,-0.6288800920758928,-27.338663736979168,0.8192516508556548,-8.405565401240622,6.95875517229684,-2.520750979344725,-18.60261083224046,20.71656491656492,7.322018722018717,29.91364902506964,32.88486536675951,30.392877467277685,1577399399.0,-27.69011189673621,-51.12494937695796,8.778173
39363,1577399399.03,-1.3013683123779296,-1.6932991241455078,9.431837730102538,0.0435335936011339,3.96520671535585,7.073230841213319,1.0873665873209637,-6.026262583414711,12.93421843058268,0.1300811767578124,1.898956298828125,0.200653076171875,-4.472127774866616,4.2652037085556405,-0.4800936070884147,0.0425066266741072,-17.267862955729168,12.492225283668152,-8.857477519586892,6.864717940238775,-0.8131454772079686,-40.61216780476041,20.24175824175824,8.437046953798218,29.96157186929044,32.98071105520113,30.656453110492105,1577399399.0,-27.69011189673621,-51.12494937695796,8.778173
39364,1577399399.04,-1.162504616088866,0.7439981658935546,13.375087864379882,0.4756869932593366,-2.944459275855088,4.631145147853944,5.677051169840494,4.484282704671223,14.32046119181315,4.4330596923828125,1.074981689453125,-0.989532470703125,7.444986482945884,-2.0977113305068595,0.2218106897865852,-1.5749250139508928,2.080281575520833,0.6971813383556548,-8.676712672248383,7.052792404354905,-2.602065527065524,-40.61216780476041,20.24175824175824,7.0990130756628185,30.009494713511245,33.17240243208434,30.34495462305688,1577399399.0,-27.69011189673621,-51.12494937695796,8.778173
39365,1577399399.05,0.9611522564697264,-3.3692402862548825,8.577107737426758,4.873835442966367,4.34827898098085,10.781849212795349,-4.055378578694661,-10.22808649698893,7.899212339274088,-3.3489227294921875,-4.814910888671875,0.078582763671875,-11.964193204554116,0.1300718726181402,-2.7689119664634148,1.7209734235491072,-3.1687418619791665,-14.592125302269343,-9.399772061602416,7.052792404354905,-1.6262909544159505,-37.391257028294085,33.536345136345126,-12.079472510944596,29.86572618084883,33.12447958786354,30.680414532602512,1577399399.0,-27.69011189673621,-51.12494937695796,8.778173
39366,1577399399.06,2.4539369915771485,1.3449427825927731,8.659707694702147,1.0981794248999617,0.136878260766006,16.657220086818786,5.691416379801432,4.3238711934407545,2.5601426371256504,0.1148223876953125,1.334381103515625,-1.279449462890625,-0.8252771889291157,7.1796324194931405,-0.1138826695884147,1.0190691266741072,-7.654825846354167,-2.1714710053943453,-9.128624790594651,6.582606244064577,-1.7076055021367496,-40.61216780476041,30.68750508750508,-10.14675690919346,29.98553329140084,33.12447958786354,30.680414532602512,1577399399.0,-27.69011189673621,-51.12494937695796,8.778173
39367,1577399399.07,3.1518467755126958,-0.6470329986572265,1.825459055786132,1.7721471922339462,-1.7473584457769626,9.196887713771911,0.7533754557291663,-2.3188413126627605,11.302569999186195,-1.8535614013671875,2.539825439453125,-1.020050048828125,7.673868318883384,-4.32549453363186,-0.1138826695884147,2.010890415736608,-0.5594889322916667,-5.238487606956844,-9.761301756279437,6.676643476122644,0.0,-39.27012164789944,28.55087505087505,-0.5203465081637697,29.817803336628028,33.07655674364274,30.68041453260251,1577399399.0,-27.69011189673621,-51.12494937695796,8.778173
39368,1577399399.08,-0.4059368914794912,1.5747861419677731,10.54753570373535,0.5953970762671491,-3.0162853256597746,5.7157184999047255,1.8966067484537752,1.697431972249349,3.0868670023600253,1.1371612548828125,1.868438720703125,-0.928497314453125,3.874429842320884,13.64935898199314,3.426156392911585,0.6833757672991072,-1.7954508463541667,10.645911807105657,-8.857477519586892,7.6170157967033,-1.138403668091164,-22.8971585341956,34.011151811151805,7.619359583826587,29.86572618084883,33.12447958786354,30.5366459999401,1577399399.0,-27.69011189673621,-51.12494937695796,8.778173
39369,1577399399.09,0.831865366821289,-1.2216413970947264,9.005669834594725,1.811651519626524,-5.769617234839463,13.93022439590082,2.440090525309244,8.810605104573566,8.270313596598307,5.8979034423828125,3.363800048828125,-0.287628173828125,-1.5882166420541155,5.4706480444931405,-2.3111482945884148,-0.8425031389508928,5.223592122395833,-11.357262021019343,-9.94206660361794,6.864717940238775,-1.4636618589743595,-22.8971585341956,34.011151811151805,7.619359583826587,29.86572618084883,32.98071105520113,30.680414532602512,1577399399.0,-27.69011189673621,-51.12494937695796,8.778173
39370,1577399399.1,-0.1174355914306636,1.3461398834228515,17.205810520629882,1.6560284117163675,5.021049647484755,14.825655816799255,-2.015518764241536,-9.955147507731116,13.482490610758465,6.5235137939453125,4.904937744140625,-0.440216064453125,3.2640782798208843,-3.0742738305068595,1.9002774866615848,0.2866472516741072,-1.7649332682291667,14.857337588355657,-9.21900721426391,6.676643476122644,-0.9757745726495696,-39.53853087927163,33.536345136345126,7.545024368374619,29.86572618084883,33.12447958786354,30.5366459999401,1577399399.0,-27.69011189673621,-51.12494937695796,8.778173
39371,1577399399.11,-1.5336058734130855,-2.591124746704101,10.092637388305665,-1.359468579250429,-0.8615038315191504,6.342999334865663,4.564944498697916,9.825746608479818,3.3849451090494784,-4.356002807617188,-5.791473388671875,-0.592803955078125,-0.3827723061166159,3.776922458555641,-3.043570169588415,2.987452915736607,-21.509806315104168,-11.143638974144343,-8.495947824909878,6.112420083774249,-1.4636618589743595,-37.39125702829408,30.68750508750508,7.693694799278553,29.96157186929044,33.12447958786354,30.53664599994009,1577399399.0,-27.69011189673621,-51.12494937695796,8.778173
39372,1577399399.12,0.1662773052978515,-2.7635072662353517,7.320151865844726,2.56103663925543,0.5438925429925685,10.31497988906488,-1.584562465413411,-11.674184299723304,7.236018479410807,-12.076950073242188,-10.399627685546877,-0.836944580078125,-6.440511563929116,-16.28838515863186,-0.6021639195884148,4.925319126674108,-36.005655924479164,-5.070640927269345,-8.31518297757137,7.805090260819431,-1.3010327635327552,-40.61216780476041,21.19137159137158,7.247683506566751,30.009494713511245,33.02863389942193,30.5845688441609,1577399399.0,-27.69011189673621,-51.12494937695796,8.778173
39373,1577399399.13,0.7720103253173828,2.70724352722168,10.027993943481444,-7.370111847072694,3.7138155410394433,2.5434013001976945,4.3937590799967445,-1.1373027933756508,11.289401890055338,4.3720245361328125,-0.7865905761718749,-1.660919189453125,11.778482576695884,3.883733981993141,-3.1046053258384148,3.307887486049107,-28.834025065104168,15.681312197730657,-7.592123588217336,6.300494547890383,-1.3010327635327552,-39.53853087927163,-65.22344322344321,9.329069539221818,30.05741755773205,32.98071105520113,30.48872315571929,1577399399.0,-27.69011189673621,-51.12494937695796,8.778173
39374,1577399399.14,1.6865953594970704,-0.6494272003173828,4.650617014770506,5.1874758604468365,-0.1576085434332117,9.24956015029535,0.3667118876139316,-6.107665439860026,14.179203293863932,2.1137237548828125,-0.6645202636718749,-1.813507080078125,-4.609456876429116,13.19159531011814,-3.1046053258384148,-0.4762922014508928,-3.4739176432291665,0.3004528227306547,-9.038242366925402,6.300494547890383,-0.9757745726495664,-40.61216780476041,26.889051689051684,8.139706091990352,30.009494713511245,32.88486536675951,30.392877467277685,1577399399.0,-27.69011189673621,-51.12494937695796,8.778173
39375,1577399399.15,1.2544419598388672,0.3250128753662109,11.11615859802246,-1.5091061830101946,-3.812357377661728,7.337790124660584,-0.313241383870443,13.570278004964193,9.493750644938151,4.8755645751953125,3.440093994140625,-0.180816650390625,3.0504552329458843,-4.99688125238186,0.603280416349085,0.4087175641741074,-2.405802408854167,8.036658877418153,-9.038242366925402,5.736271155541992,-1.7889200498575453,-36.31762010280528,38.28441188441188,-10.14675690919346,30.009494713511245,33.07655674364274,30.728337376823312,1577399399.0,-27.69011189673621,-51.12494937695796,8.778173
39376,1577399399.16,1.8039112408447264,2.2212205902099607,10.660063181762697,6.714976519626523,0.692333045922256,14.217528595119568,0.3978365091959628,-7.242517026774088,7.645426963297526,2.3273468017578125,9.040069580078123,-0.959014892578125,2.3790685141958843,16.54852890386814,1.3509610804115852,1.1716570172991072,-3.0161539713541665,-29.362633114769345,-8.857477519586892,5.360122227309728,-1.138403668091164,-40.61216780476041,31.63711843711844,6.9503426447588845,29.96157186929044,33.31617096474676,30.5366459999401,1577399399.0,-27.69011189673621,-51.12494937695796,8.778173
39377,1577399399.17,2.0146009869384764,-0.8601169464111328,10.17164604309082,2.2210600035132426,-2.44407112888243,8.030911505275819,0.8120333964029941,-16.55356728312174,20.145553830973306,-5.118942260742188,-5.150604248046875,-0.226593017578125,-3.785482267054116,6.5387632788681405,4.952035299161585,0.1950945172991072,12.242635091145834,9.028480166480657,-7.592123588217336,7.052792404354905,-0.9757745726495664,-39.53853087927163,41.133251933251934,-8.808723031058054,30.05741755773205,33.12447958786354,30.77626022104412,1577399399.0,-27.69011189673621,-51.12494937695796,8.778173
39378,1577399399.18,1.681806956176758,-1.8824410552978517,10.241077891235353,-2.4739694520531623,1.978019337426162,6.5584774842797255,-1.306835072835286,15.57183059285482,10.281442991129556,-6.156539916992188,0.8613586425781251,-0.806427001953125,-4.456868985804116,-2.2808167992568595,-1.7007967320884148,-2.551487513950893,28.447469075520832,5.244300478980655,-8.31518297757137,7.052792404354905,-1.6262909544159505,-20.749884683218028,34.011151811151805,7.173348291114784,30.05741755773205,33.12447958786354,30.392877467277685,1577399399.0,-27.69011189673621,-51.12494937695796,8.778173
39379,1577399399.19,0.7420828045654302,-0.2795230438232421,8.711183030395507,-0.1264547242699598,-0.5454692123785246,15.437374340969177,4.136382401529948,-8.729316257731117,10.207222739664711,0.9998321533203124,5.271148681640625,-0.180816650390625,-0.8252771889291157,7.86627792730564,-0.7242342320884148,-2.353123256138393,44.01143391927084,-2.125694638206844,-7.592123588217339,5.73627115554199,-0.9757745726495696,-23.433976996939982,33.536345136345126,7.0990130756628185,30.009494713511245,32.90882678886992,30.704375954712912,1577399399.0,-27.69011189673621,-51.12494937695796,8.778173
39380,1577399399.2,-0.2742558001708974,3.4350808319091795,9.58985503967285,1.802074712985899,1.3507385024652248,7.331804620510194,-4.510276894124348,12.509646669514977,2.7923801981608065,1.9611358642578125,6.171417236328125,-0.104522705078125,-5.189290860804116,10.38397812261814,3.182015767911585,-1.0866437639508928,32.41475423177084,4.694984072730655,-7.230593893540322,5.924345619658119,-1.951549145299146,-29.875798549872645,42.08286528286528,6.9503426447588845,30.009494713511245,33.02863389942193,30.392877467277685,1577399399.0,-27.69011189673621,-51.12494937695796,8.778173
39381,1577399399.21,-0.1377863055419912,-1.4538789581298828,12.917795347290038,-0.8530949281273811,0.8599271621331934,9.046053009182067,5.607619321695963,6.38288462117513,5.294320933024088,0.3437042236328124,12.397003173828123,-0.806427001953125,0.9752599204458844,2.7545835913681405,3.151498189786585,0.4697527204241072,14.897664388020834,-16.453697567894345,-8.31518297757137,5.924345619658119,-1.3010327635327552,-14.84488159302974,29.737891737891733,6.9503426447588845,30.201186090394465,33.02863389942193,30.680414532602512,1577399399.0,-27.69011189673621,-51.12494937695796,8.778173
39382,1577399399.22,0.8366537701416015,-1.8656816436767576,6.319375571899413,1.8547471495093364,2.5789639541253813,9.572777374416445,-4.795186891682942,-14.590321921793617,8.0572296488444,-6.858444213867188,0.3425598144531251,0.688934326171875,4.942545076695884,19.44769882574314,-0.8157869664634148,-3.467014857700893,-7.868448893229167,8.814857119605655,-8.676712672248383,5.548196691425858,-0.3252581908831888,-40.61216780476041,13.594464794464791,11.856466864588688,29.86572618084883,33.12447958786354,30.680414532602512,1577399399.0,-27.69011189673621,-51.12494937695796,8.778173
39383,1577399399.23,-1.2714407916259758,0.8277952239990234,12.083416068725583,0.3571740110816026,-1.4432948349371184,6.473483325344179,2.0534269571940102,5.367743117268882,9.566773795572916,0.8777618408203125,2.463531494140625,0.688934326171875,-1.7713221108041155,0.20636581793064,1.762948385099085,0.3171648297991072,2.049763997395833,-0.6608508882068452,-8.676712672248383,5.548196691425858,-0.3252581908831888,-40.07534934201602,27.363858363858363,7.768030014730519,30.12930182406326,33.00467247731153,30.728337376823312,1577399399.0,-27.69011189673621,-51.12494937695796,8.778173
39384,1577399399.24,0.151912095336914,-5.085882876586914,8.213189085083007,0.5235710264624616,0.069840614281631,10.037252496486756,0.4672683573404941,3.825877248128254,13.47051960245768,-6.736373901367188,2.143096923828125,1.055145263671875,1.4330235923208845,3.700628513243141,-0.8463045445884148,1.1106218610491072,19.627888997395832,1.4296032133556549,-8.495947824909878,5.360122227309728,-3.089952813390304,-38.46489395378285,27.838665038665027,7.693694799278552,29.86572618084883,33.12447958786354,30.5845688441609,1577399399.0,-27.69011189673621,-51.12494937695796,8.778173
39385,1577399399.25,-1.899918727416992,0.5979518646240234,18.211375217895505,-0.6831066102562874,2.909363783226944,10.935078119045349,-6.751249648030599,-23.738566465250653,17.657978306070962,2.2663116455078125,0.8613586425781251,1.299285888671875,-5.738607267054116,6.3251402319931405,0.9237149866615852,-1.3307843889508928,27.684529622395832,4.420325869605655,-9.038242366925402,6.676643476122644,-1.3010327635327552,-39.53853087927163,20.24175824175824,6.9503426447588845,30.009494713511245,33.17240243208434,30.5845688441609,1577399399.0,-27.69011189673621,-51.12494937695796,8.778173
39386,1577399399.26,0.9300276348876958,2.205658279418945,10.725903727416991,1.9600920225562115,-1.4959672714605554,8.765931414943788,9.792683823649089,1.8961507100423176,17.837543430582677,1.5491485595703125,-0.695037841796875,0.337982177734375,-6.074300626429116,0.8319761694931402,-0.9988924352134148,-3.436497279575893,49.84029134114584,10.188148135230657,-7.772888435555846,6.864717940238775,-0.8131454772079686,-38.46489395378285,35.435571835571835,-10.890109063713126,29.937610447180035,33.22032527630515,30.48872315571929,1577399399.0,-27.69011189673621,-51.12494937695796,8.778173
39387,1577399399.27,2.392884849243164,0.6793547210693359,7.602667661743163,-0.7106399293480848,1.0143531692132717,12.924659698635194,-1.9377072102864576,8.372466200764975,11.264262772623695,-5.118942260742188,7.697296142578125,0.902557373046875,4.835733553258384,-2.0824525414443595,1.183114400724085,-0.2168927873883928,64.12251790364584,-1.1033557710193451,-7.772888435555846,6.864717940238775,-0.8131454772079686,-38.46489395378285,36.38518518518518,-10.81577384826116,29.86572618084883,32.90882678886992,30.752298798933715,1577399399.0,-27.69011189673621,-51.12494937695796,8.778173
39388,1577399399.28,2.7448324932861325,-1.85131643371582,12.575424509887696,2.204300591892149,0.5510751479730372,10.868040472560974,-4.242126308186848,10.69484181111654,2.452403562418619,-1.1211395263671875,4.767608642578125,1.299285888671875,2.5316564048208843,6.8439390601181405,0.9847501429115852,0.0730242047991072,35.80220540364584,-5.558922177269345,-6.869064198863307,7.052792404354905,-1.3010327635327552,-35.243983177316515,26.889051689051684,6.9503426447588845,29.96157186929044,33.12447958786354,30.34495462305688,1577399399.0,-27.69011189673621,-51.12494937695796,8.778173
39389,1577399399.29,0.5948394024658202,-0.987009634399414,12.25938989074707,6.092484087985898,-0.5670170273199304,14.090635907131286,-0.5574499532063799,0.9624120625813792,-2.058272365315754,0.5268096923828125,7.910919189453125,0.902557373046875,1.0668126548208845,10.96381210699314,2.937875142911585,0.8054460797991072,-9.302775065104166,-17.460777646019345,-9.219007214263907,6.864717940238775,-2.114178240740737,-36.31762010280528,26.889051689051684,6.9503426447588845,29.96157186929044,32.88486536675951,30.728337376823312,1577399399.0,-27.69011189673621,-51.12494937695796,8.778173
39390,1577399399.3,-1.44142910949707,-0.0508767852783203,11.213123765258787,-6.1275211854516005,2.62445378566835,3.910490448146913,-1.804829018147786,-10.819454307047522,3.5752841410319003,4.7077178955078125,11.038970947265623,1.146697998046875,10.222086092320884,-9.02520156488186,-0.6631990758384148,2.819606236049107,-47.38871256510416,-7.267906552269345,-9.580536908940926,6.112420083774249,-1.4636618589743595,-19.13942929498485,44.93170533170533,9.329069539221818,29.841764758738428,33.02863389942193,30.680414532602512,1577399399.0,-27.69011189673621,-51.12494937695796,8.778173
39391,1577399399.31,-1.207994447631835,0.6003460662841796,10.51641108215332,0.4146348509253526,-1.042266056860947,7.6981174745141,-2.3195823750813807,5.325844588216148,14.004426572672523,3.1208038330078125,2.783966064453125,2.123260498046875,-2.366414884241616,5.607977146055639,0.6948331507240852,2.041407993861607,-24.897257486979168,15.574500674293157,-9.580536908940926,6.112420083774249,-1.4636618589743595,-28.80216162438385,37.33479853479853,9.031728677413952,30.009494713511245,33.148441009973936,30.632491688381705,1577399399.0,-27.69011189673621,-51.12494937695796,8.778173
39392,1577399399.32,-1.545576881713867,-2.4067712188720702,7.207624387817382,-1.695853912502381,6.110411402855849,10.901559295803162,-3.911726479085286,-1.2953201029459636,15.867115464274088,-5.210494995117188,-7.042694091796875,2.642059326171875,1.3719884360708845,-4.90532851800686,0.0692227991615852,-0.8730207170758928,5.650838216145833,12.415931338355657,-8.857477519586892,7.993164724935561,-1.4636618589743595,-39.53853087927163,27.838665038665027,7.99103566108642,29.96157186929044,32.88486536675951,30.680414532602512,1577399399.0,-27.69011189673621,-51.12494937695796,8.778173
39393,1577399399.33,-0.7507019305419912,2.74555075378418,11.6009844342041,0.7917216123999615,-3.231763475073837,6.206529840236757,5.044981931559244,19.165527284749352,3.438814646402994,0.9540557861328124,4.279327392578125,0.566864013671875,-4.273763517054116,12.09296249761814,2.297006002286585,3.552028111049107,4.124959309895833,-2.5681995210193453,-8.676712672248383,8.55738811728395,-1.6262909544159505,-37.92807549103848,-64.74863654863654,7.173348291114784,29.96157186929044,33.02863389942193,30.728337376823312,1577399399.0,-27.69011189673621,-51.12494937695796,8.778173
39394,1577399399.34,-0.3233369342041014,-0.6769605194091797,10.654077677612303,-1.742540844875429,2.248564125023819,12.674465625148866,-1.4780204915364583,-4.915353013102213,12.363201334635416,0.7099151611328125,3.012847900390625,2.306365966796875,4.912027498570884,-3.92876601800686,1.778207174161585,3.353663853236607,-8.524576822916666,-3.865196591331844,-8.134418130232861,6.488569012006512,-2.114178240740737,-37.92807549103848,-64.74863654863654,7.173348291114784,30.009494713511245,33.17240243208434,30.48872315571929,1577399399.0,-27.69011189673621,-51.12494937695796,8.778173
39395,1577399399.35,1.5405490582275392,0.0448912811279296,8.517252695922851,1.4501270689429302,-2.788836167944931,12.773824994045349,-3.58372085164388,-6.0525988016764325,12.400311460367838,1.4423370361328125,0.8308410644531251,0.872039794921875,0.6700841391958843,19.87494491949314,2.083382955411585,0.3476824079241072,4.430135091145833,11.256263369605657,-6.869064198863307,5.924345619658119,-2.602065527065524,-40.61216780476041,29.737891737891733,7.545024368374619,29.86572618084883,33.17240243208434,30.77626022104412,1577399399.0,-27.69011189673621,-51.12494937695796,8.778173
39396,1577399399.36,-0.8273163836669912,-2.974197012329101,9.67365209777832,5.022275945896055,-1.4241412216558678,17.93811797500238,0.8982246561686191,8.066008388264974,10.080330051676432,1.9306182861328125,2.570343017578125,4.473114013671875,0.4564610923208843,2.2052671851181405,0.8626798304115852,2.880641392299107,19.200642903645832,2.9859996977306547,-7.049829046201812,5.360122227309728,-0.4878872863247798,-40.07534934201602,37.8096052096052,7.024677860210852,29.86572618084883,32.88486536675951,30.680414532602512,1577399399.0,-27.69011189673621,-51.12494937695796,8.778173
39397,1577399399.37,-0.5256469744873037,2.633023275756836,12.154045017700192,-3.065337262111756,1.9133758926019435,5.684593878322694,-0.4425282735188798,-3.086182944742838,10.851262986246743,4.5551300048828125,2.753448486328125,2.123260498046875,6.224283357945884,-7.10259414300686,2.480111471036585,1.2632097516741072,12.608846028645834,1.2770153227306549,-9.219007214263907,6.488569012006514,-1.4636618589743595,-40.07534934201602,28.313471713471703,9.552075185577722,30.201186090394465,33.02863389942193,30.728337376823312,1577399399.0,-27.69011189673621,-51.12494937695796,8.778173
39398,1577399399.38,0.2404975567626957,-1.6897078216552734,8.171290556030273,0.5642724546851182,-3.1036736862554783,13.094648016506287,-1.322397383626302,3.451184688313801,8.346928049723306,1.610183715820312,2.143096923828124,2.916717529296875,6.209024568883384,5.4248716773056405,3.487191549161585,3.079005650111608,0.7832845052083331,1.338050478980655,-8.405565401240624,6.018382851716186,-2.0328636930199417,-40.34375857338821,35.672975172975164,-1.2636986626834368,29.91364902506964,32.88486536675951,30.53664599994009,1577399399.0,-27.69011189673621,-51.12494937695796,8.778173
39399,1577399399.39,-1.21757125427246,2.374449496459961,9.261849412231443,-0.7980282899437874,4.554180323754287,13.104224823146913,-1.747368178304036,-8.810719114176432,7.944702170817057,0.1605987548828124,0.8613586425781251,1.909637451171875,7.841714998570884,2.9071714819931405,2.998910299161585,2.758571079799107,-12.110392252604166,5.091712588355655,-8.31518297757137,6.300494547890383,-1.951549145299146,-39.53853087927163,42.08286528286528,-10.890109063713126,29.86572618084883,33.12447958786354,30.728337376823312,1577399399.0,-27.69011189673621,-51.12494937695796,8.778173
39400,1577399399.4,-2.4673445208740232,2.041655465698242,8.02644135559082,-2.749302642971131,1.7146571548089746,7.310256805568788,-0.1312820576985673,2.693419862874348,7.092366379801432,16.792678833007812,9.650421142578123,3.557586669921875,7.963785311070884,5.3180601538681405,1.0763028772865852,2.361842564174107,-16.596476236979168,7.105872744605655,-8.857477519586892,7.993164724935561,-0.8131454772079686,-21.82352160870679,34.011151811151805,7.916700445634452,30.009494713511245,33.22032527630515,30.728337376823312,1577399399.0,-27.69011189673621,-51.12494937695796,8.778173
39401,1577399399.41,1.1071985577392578,-4.164115237426757,9.103832102661132,2.953685711521055,-6.686596470679306,9.79304392715082,-1.6204754903157546,2.1427534810384112,11.86161608683268,-11.191940307617188,-19.463348388671875,3.313446044921875,-0.8557947670541157,1.6559507788681402,3.395638814786585,3.735133579799107,-16.230265299479168,0.8192516508556548,-8.857477519586892,4.983973299077471,-1.138403668091164,-19.676247757729243,34.011151811151805,12.079472510944589,30.009494713511245,33.02863389942193,30.48872315571929,1577399399.0,-27.69011189673621,-51.12494937695796,8.778173
39402,1577399399.42,0.4607641094970702,-2.6701334014892577,8.967362608032225,-0.549031317287538,0.2865158645257721,6.884088910060974,1.8738618326822911,-1.2115230448404952,12.916261918131507,1.6559600830078125,2.356719970703125,4.137420654296875,8.528360506383384,6.1878111304306405,4.555306783536585,4.299708775111608,-2.6346842447916665,6.739661807105655,-8.31518297757137,7.052792404354905,-2.9273237179487124,-21.01829391459021,30.21269841269841,9.700745616481653,29.86572618084883,33.07655674364273,30.608530266271305,1577399399.0,-27.69011189673621,-51.12494937695796,8.778173
39403,1577399399.43,0.3230975140380859,-0.5967547637939453,11.574648215942382,8.371764068454649,-0.6172952621832117,20.083322662502383,-1.5007654073079422,5.473087990315754,7.762742844645182,7.378005981445312,3.409576416015625,2.779388427734375,-2.473226407679116,10.44501327886814,1.9918302210365848,5.322047642299108,-5.152384440104167,2.5587536039806547,-8.495947824909877,7.052792404354905,-2.11417824074074,-36.31762010280528,18.34253154253154,8.139706091990352,29.86572618084883,33.17240243208434,30.872105909485725,1577399399.0,-27.69011189673621,-51.12494937695796,8.778173
39404,1577399399.44,1.2029666241455077,2.6904841156005856,7.1381925396728505,-1.973581305080506,0.0243507827386622,6.833810675197694,3.706623203531901,-8.444406260172526,7.149827219645182,4.9823760986328125,7.910919189453125,1.818084716796875,17.363199373570886,-6.61431289300686,4.067025533536585,6.115504673549108,-14.643351236979166,-5.467369442894345,-8.31518297757137,7.052792404354905,-2.2768073361823347,-40.61216780476041,25.93943833943834,6.9503426447588845,29.817803336628028,33.12447958786354,30.680414532602512,1577399399.0,-27.69011189673621,-51.12494937695796,8.778173
39405,1577399399.45,-3.6500801409912103,3.028066549682617,12.2139000592041,-5.461933123928163,3.373838905297256,8.868882086330506,-6.430426625569662,-6.083723423258464,15.299689670817056,9.529495239257812,10.169219970703123,4.198455810546875,4.118570467320884,8.21723007574314,1.1068204554115852,4.681178501674108,-13.483683268229166,6.648109072730655,-8.31518297757137,5.924345619658119,-0.9757745726495664,-40.61216780476041,19.292144892144883,8.734387815606086,29.86572618084883,32.98071105520113,30.680414532602512,1577399399.0,-27.69011189673621,-51.12494937695796,8.778173
39406,1577399399.46,1.3729549420166016,-2.5815479400634764,9.36001168029785,2.119306432956602,-0.4963880783453211,18.766511749416445,1.786473472086589,-6.426094260660805,15.82761113688151,-8.933639526367188,-14.336395263671877,2.519989013671875,4.698404451695884,3.09027695074314,2.190194478849085,3.567286900111608,16.133626302083332,9.928748721168157,-9.219007214263907,5.7362711555419885,-0.162629095441591,-39.80694011064382,20.953968253968245,8.734387815606086,30.009494713511245,33.02863389942193,30.656453110492105,1577399399.0,-27.69011189673621,-51.12494937695796,8.778173
39407,1577399399.47,0.5457582684326171,-1.7675193756103516,10.565492216186522,0.5834260679663679,0.7713417007074121,7.41799588027582,1.740983640543619,2.925657423909504,5.519375889078776,6.3098907470703125,0.8003234863281251,4.061126708984375,2.4706212485708843,1.5338804663681402,3.639779439786585,4.772731236049108,40.74605305989584,1.4906383696056549,-9.038242366925402,6.676643476122644,-1.7889200498575484,-36.31762010280528,-65.22344322344321,-10.890109063713126,30.009494713511245,33.12447958786354,30.5845688441609,1577399399.0,-27.69011189673621,-51.12494937695796,8.778173
39408,1577399399.48,2.361760227661133,-0.6183025787353515,12.154045017700192,5.824333502048399,0.931753211937881,16.805660589748474,-2.163959267171224,8.006153346761067,1.6287981913248697,7.1491241455078125,-1.549530029296875,5.510711669921875,5.827554842320884,12.76434921636814,4.341683736661585,6.542750767299108,26.280721028645832,-7.206871396019345,-9.038242366925402,7.052792404354905,-1.951549145299146,-36.31762010280528,-64.27382987382987,-11.48479078732886,29.96157186929044,32.98071105520113,30.5366459999401,1577399399.0,-27.69011189673621,-51.12494937695796,8.778173
39409,1577399399.49,1.03537250793457,4.129399313354492,9.419866721801757,-0.7740862733422249,3.4097519301996,6.905636725002382,-1.7784927998860671,2.750880702718098,-0.3344471700032544,13.679885864257812,5.194854736328125,3.801727294921875,1.6466466391958845,0.3131773413681402,5.165658346036585,8.068629673549108,-12.598673502604166,-17.613365536644345,-9.038242366925402,7.052792404354905,-1.951549145299146,-23.433976996939982,-65.22344322344321,8.139706091990352,29.96157186929044,32.83694252253871,30.680414532602512,1577399399.0,-27.69011189673621,-51.12494937695796,8.778173
39410,1577399399.5,-0.4226963031005855,0.8361749298095703,9.442611637573242,0.5331478331030866,-0.1767621567144617,6.984645379787538,0.8072449930826816,-13.927128061930334,1.078131809488932,3.0445098876953125,7.300567626953124,3.038787841796875,11.747964998570884,5.1349546851181405,1.9918302210365848,5.535670689174108,-49.34183756510416,1.4906383696056549,-7.320976317209574,6.206457315832317,-1.544976406695155,-22.36034007145118,-65.22344322344321,7.545024368374619,29.86572618084883,33.12447958786354,30.249108934615272,1577399399.0,-27.69011189673621,-51.12494937695796,8.778173
39411,1577399399.51,-1.902312929077148,-3.934271878051757,9.1876291607666,1.8918572752417584,-3.1754997360601647,8.340960620266053,-0.5251282307942708,-4.965631247965493,10.2790487894694,-5.576705932617188,-4.113006591796875,3.527069091796875,2.1044103110708843,4.6008970679306405,1.564584127286585,5.245753696986608,-58.55814615885417,10.417029971168157,-8.857477519586892,7.6170157967033,-1.7889200498575484,-21.82352160870679,34.48595848595848,7.396353937470685,29.96157186929044,33.12447958786354,30.632491688381705,1577399399.0,-27.69011189673621,-51.12494937695796,8.778173
39412,1577399399.52,-2.7498603167724607,2.9466636932373045,12.484444846801756,-6.1658284120141005,-0.3108374496832117,9.864869976955504,-0.6484296162923173,2.351049025472005,15.282930259195965,6.9965362548828125,5.103302001953125,3.740692138671875,8.452066561070884,-2.7080628930068595,4.829964986661585,5.199977329799108,-34.296671549479164,30.14664422898065,-8.857477519586892,7.6170157967033,-1.7889200498575484,-19.13942929498485,36.38518518518518,6.9503426447588845,29.86572618084883,33.17240243208434,30.5845688441609,1577399399.0,-27.69011189673621,-51.12494937695796,8.778173
39413,1577399399.53,-0.0994790789794912,0.5189432098388671,12.376705772094724,-0.7932398866234749,1.9732309341058496,8.339763519435975,-1.8191942281087237,32.99683027547201,12.0794884379069,10.963821411132812,2.539825439453125,3.252410888671875,2.1349278891958843,3.3954527319931405,2.022347799161585,6.786891392299108,-19.922892252604168,-1.0118030366443451,-8.857477519586892,7.6170157967033,-1.7889200498575484,-40.61216780476041,25.93943833943834,7.545024368374619,30.009494713511245,33.17240243208434,30.5366459999401,1577399399.0,-27.69011189673621,-51.12494937695796,8.778173
39414,1577399399.54,-0.2203862628173818,-1.6442179901123046,9.358814579467772,4.620050066989805,-1.9460771835699304,9.97739745498285,-2.5661851460774736,-4.012738987223306,10.504103745524088,-0.9227752685546876,-4.524993896484375,4.381561279296875,1.4025060141958845,9.80414413824314,5.959115377286585,6.573268345424108,-18.091837565104168,-16.819908505394345,-8.13441813023286,6.488569012006511,-1.9515491452991427,-40.61216780476041,25.93943833943834,7.545024368374619,30.009494713511245,32.98071105520113,30.48872315571929,1577399399.0,-27.69011189673621,-51.12494937695796,8.778173
39415,1577399399.55,0.4128800762939452,-0.441131655883789,7.31775766418457,-2.3207405458031625,-0.3240055588140718,6.81106575942621,-1.147620662434896,-7.865009458414713,19.506301987711584,1.2592315673828125,-0.5424499511718749,4.259490966796875,8.375772615758384,-1.1974427758193598,4.051766744474085,4.009791782924108,7.405598958333332,7.197425478980656,-8.857477519586892,6.488569012006514,-1.7889200498575484,-32.02307240085019,-65.22344322344321,8.214041307442319,29.86572618084883,32.88486536675951,30.608530266271305,1577399399.0,-27.69011189673621,-51.12494937695796,8.778173
39416,1577399399.56,-1.2798204974365233,2.951452096557617,10.406277805786132,3.0470595762671486,0.5223447280511622,20.75369912734613,0.5702190287272129,-12.91438075968424,18.407363425699863,10.475540161132812,1.471710205078125,4.290008544921875,-0.2454432045541157,5.4706480444931405,2.083382955411585,2.270289829799107,46.66646321614584,8.204505557105655,-8.857477519586892,6.488569012006514,-1.7889200498575484,-40.61216780476041,27.838665038665027,7.693694799278552,30.009494713511245,33.17240243208434,30.680414532602512,1577399399.0,-27.69011189673621,-51.12494937695796,8.778173
39417,1577399399.57,1.7105373760986329,2.740762350463867,11.337622251586913,1.8643239561499612,0.2350405288324122,13.228723309475036,3.4983276590983072,3.979106154378254,13.681209348551432,5.6842803955078125,1.807403564453125,3.771209716796875,9.428629061070884,-7.8044984398818595,3.578744283536585,-2.276829310825893,72.45381673177083,22.02896844773065,-8.857477519586892,6.488569012006514,-1.7889200498575484,-39.53853087927163,37.33479853479852,7.247683506566751,29.86572618084883,32.88486536675951,30.680414532602512,1577399399.0,-27.69011189673621,-51.12494937695796,8.778173
39418,1577399399.58,-1.1253944903564443,-2.034472860717773,9.836457810668945,-0.6998660218773811,0.5355128371820221,9.660165735012146,2.440090525309244,4.126349556477866,4.32945766398112,0.5115509033203125,4.065704345703125,4.732513427734375,2.0586339438833843,2.8613951148056405,3.685555806974085,4.147120884486608,52.92256673177084,-11.540367489769343,-7.953653282894354,6.488569012006513,-1.6262909544159505,-39.80694011064382,-13.706919006919009,7.507856760648634,29.93761044718004,33.12447958786354,30.608530266271305,1577399399.0,-27.69011189673621,-51.12494937695796,8.778173
39419,1577399399.59,-1.7059883929443358,-1.4945803863525389,11.395083091430664,3.2074710874976176,-6.483089329566025,18.6539842713891,-1.6779363301595047,-1.319262119547526,-2.180376649983723,1.9001007080078125,1.837921142578125,5.632781982421875,13.060220857945884,5.4401304663681405,2.174935689786585,6.115504673549108,-9.150187174479166,-6.443931942894345,-7.772888435555846,7.240866868471035,-1.7889200498575484,-39.53853087927163,-65.22344322344321,-9.552075185577726,30.009494713511245,33.02863389942193,30.728337376823312,1577399399.0,-27.69011189673621,-51.12494937695796,8.778173
39420,1577399399.6,-0.8129511737060537,2.446275546264648,13.719852903442382,-4.011046917873474,3.8550734389886623,6.3190573182641,3.4456552225748696,-6.574534763590495,6.829004197184244,7.1796417236328125,3.241729736328125,4.167938232421875,9.916910311070884,-12.93145156488186,5.196175924161585,6.237574986049108,-33.533732096354164,-3.819420224144345,-7.772888435555846,7.240866868471035,-1.7889200498575484,-37.92807549103848,35.910378510378514,7.173348291114784,29.86572618084883,32.88486536675951,30.5845688441609,1577399399.0,-27.69011189673621,-51.12494937695796,8.778173
39421,1577399399.61,-0.3053804217529287,1.9015946685791012,10.715129819946288,-0.5657907289086311,1.1759617812738183,6.000628497463319,-3.3730311055501296,-14.441881418863929,10.472979123942055,4.0363311767578125,-0.466156005859375,3.786468505859375,6.163248201695884,7.60687851324314,2.968392721036585,5.047389439174108,-34.815470377604164,20.50308954148065,-7.501741164548084,6.582606244064577,-1.8702345975783472,-31.4862539381058,34.011151811151805,7.768030014730519,29.841764758738428,33.02863389942193,30.5366459999401,1577399399.0,-27.69011189673621,-51.12494937695796,8.778173
39422,1577399399.62,-2.656486452026367,1.4718354705810546,12.4437434185791,-1.703036517482851,1.2645472426996005,7.78071743178949,-2.0502346883138016,8.067205489095052,5.394877402750651,9.651565551757812,3.333282470703125,5.236053466796875,3.1725255454458843,-5.89714980706936,3.426156392911585,3.918239048549108,-32.419840494791664,11.897132510230652,-8.31518297757137,5.548196691425858,-0.6505163817663776,-31.754663169477997,39.94623524623525,7.359186329744702,29.86572618084883,33.07655674364274,30.632491688381705,1577399399.0,-27.69011189673621,-51.12494937695796,8.778173
39423,1577399399.63,-0.93026705505371,-2.15777424621582,5.024112473754882,-5.366165057521913,-3.478366246069931,8.512146038967225,3.4049537943522137,-0.3160916239420572,0.0701729105631508,-4.966354370117188,-2.434539794921875,4.534149169921875,1.1888829673208845,8.06464218511814,1.6256192835365852,7.153102329799108,-65.24149576822917,-1.6221545991443451,-7.592123588217336,7.805090260819431,0.0,-14.84488159302974,30.68750508750508,6.9503426447588845,29.86572618084883,33.02863389942193,30.392877467277685,1577399399.0,-27.69011189673621,-51.12494937695796,8.778173
39424,1577399399.64,-0.7315483172607412,-2.3253683624267576,8.833287315063476,4.363870489353086,0.376298426781631,15.369139593654724,1.808021287027994,-6.782830308024089,4.978286313883463,0.1605987548828124,-0.2677917480468749,5.602264404296875,3.3251134360708843,8.52240585699314,4.891000142911585,4.437037876674108,-75.86161295572917,2.0704723539806547,-7.592123588217336,7.805090260819431,0.0,-36.31762010280528,20.24175824175824,7.545024368374619,29.86572618084883,32.83694252253871,30.728337376823312,1577399399.0,-27.69011189673621,-51.12494937695796,8.778173
39425,1577399399.65,-0.5747281085205068,2.7240029388427733,10.342831461791992,-2.682264996486756,1.966048329125381,-0.8874896788062107,0.1847525614420566,-6.8977519877115885,15.792895212809244,8.415603637695312,3.516387939453125,4.152679443359375,0.1512853110708842,-4.93584609613186,9.102425924161585,3.857203892299107,-61.70145670572917,7.380530947730655,-8.224800553902114,7.899127492877495,-0.8944600249287742,-39.53853087927163,20.24175824175824,7.545024368374619,29.91364902506964,33.12447958786354,30.872105909485725,1577399399.0,-27.69011189673621,-51.12494937695796,8.778173
39426,1577399399.66,0.5900509991455077,-0.3046621612548827,10.315298142700197,0.4864609007300401,1.1125154372796775,13.31611167007074,-1.4684436848958329,3.549346956380208,16.454891971842446,-6.919479370117188,-6.768035888671875,5.327606201171875,2.0891515220083843,5.5927183569931405,3.441415181974085,0.9885515485491072,-18.519083658854164,11.241004580543157,-7.953653282894354,5.548196691425858,-1.6262909544159505,-39.53853087927163,26.88905168905169,9.552075185577722,29.86572618084883,32.93278821098032,30.46476173360889,1577399399.0,-27.69011189673621,-51.12494937695796,8.778173
39427,1577399399.67,0.2428917584228515,-0.4363432525634765,10.614573350219723,2.137262945407774,-2.2525349960699304,8.727624188381288,-0.6627948262532548,4.927210011800129,13.480096409098309,-2.0671844482421875,-3.685760498046875,5.236053466796875,-1.0694178139291155,-0.9990785180068598,4.250131002286585,1.3242449079241072,12.334187825520834,3.4132457914806547,-7.411358740878827,6.112420083774249,-0.8131454772079686,-40.61216780476041,25.93943833943834,7.0990130756628185,29.67403480396561,32.98071105520113,30.5366459999401,1577399399.0,-27.69011189673621,-51.12494937695796,8.778173
39428,1577399399.68,0.5230133526611328,-0.5847837554931641,9.613797056274413,-3.1658937318383185,2.8231725234613188,10.626226104885191,-5.724137135823567,8.887219557698566,5.050112363688151,0.9540557861328124,1.166534423828125,3.588104248046875,4.973062654820884,-3.4404847680068595,4.494271627286585,1.6904558454241072,-6.006876627604167,-6.321861630394345,-9.038242366925402,7.428941332587169,-1.3010327635327552,-23.433976996939982,33.536345136345126,-9.403404754673796,30.009494713511245,32.98071105520113,30.680414532602512,1577399399.0,-27.69011189673621,-51.12494937695796,8.778173
39429,1577399399.69,0.6523002423095703,0.498592495727539,8.101858707885741,-4.240890277248474,-0.4999793808355554,4.188217840725038,3.206235056559245,-12.026131943766272,5.4188194193522135,-0.5260467529296875,3.668975830078125,3.740692138671875,8.635172029820884,8.91913437261814,4.280648580411585,1.4157976422991072,-26.850382486979168,-8.854820614769345,-9.128624790594657,6.958755172296842,-1.0570891203703618,-27.728524698895075,33.536345136345126,-9.403404754673796,29.86572618084883,33.12447958786354,30.5845688441609,1577399399.0,-27.69011189673621,-51.12494937695796,8.778173
39430,1577399399.7,-1.852034694213867,3.332130160522461,7.966586314086913,-0.4807965699730853,2.4460857619867094,6.693749878078553,-0.7657454976399736,-0.0575178446451825,3.285585740152994,8.797073364257812,7.147979736328125,4.930877685546875,-4.075399259241616,1.1676695288681405,2.785287252286585,-0.2016339983258928,-32.31302897135417,16.322181338355655,-8.13441813023286,7.240866868471035,-0.8131454772079686,-39.00171241652724,27.838665038665035,-1.1521958395054863,29.96157186929044,32.98071105520113,30.53664599994009,1577399399.0,-27.69011189673621,-51.12494937695796,8.778173
39431,1577399399.71,0.228526548461914,-1.810615005493164,7.097491111450195,-5.761208331447694,0.9102053969964748,2.536218695217226,0.2493960062662753,2.106840456136068,-2.5203532857259106,-10.947799682617188,-3.868865966796875,3.557586669921875,1.9518224204458845,6.7829039038681405,4.616341939786585,-0.1711164202008928,-74.48832194010417,-2.1104358491443453,-8.676712672248383,5.924345619658119,-0.6505163817663776,-38.46489395378285,25.93943833943834,7.693694799278552,30.201186090394465,33.17240243208434,30.680414532602512,1577399399.0,-27.69011189673621,-51.12494937695796,8.778173
39432,1577399399.72,-1.7538724261474608,-0.1657984649658203,5.349723899536132,2.276126641696836,-2.1208539047613364,6.050906732326601,-2.247756325276692,-13.57996882120768,-3.375083278401692,-8.628463745117188,2.326202392578125,4.045867919921875,-10.651937345179116,5.5927183569931405,3.517709127286585,0.1340593610491072,-111.20096842447916,5.061195010230655,-9.580536908940926,6.488569012006514,-1.138403668091164,-26.65488777340629,31.63711843711844,6.9503426447588845,29.72195764818641,33.02863389942193,30.5845688441609,1577399399.0,-27.69011189673621,-51.12494937695796,8.778173
39433,1577399399.73,-1.825698475952148,4.258686203002929,3.477458201293944,-0.9656224061547248,3.541433021508193,4.068507757717226,5.523822263590494,-0.8212681742350258,6.836186802164713,5.0434112548828125,13.709259033203123,3.069305419921875,-4.945150235804116,-1.1821839867568598,4.860482564786585,0.6223406110491072,-109.12577311197916,16.779945010230655,-8.857477519586892,6.864717940238775,-0.4878872863247798,-26.65488777340629,31.63711843711844,6.9503426447588845,30.009494713511245,33.12447958786354,30.728337376823312,1577399399.0,-27.69011189673621,-51.12494937695796,8.778173
39434,1577399399.74,-2.2506692706298828,-0.345363589477539,12.64964476135254,-4.121180194240663,-0.9548776962652438,7.3306075196801155,-0.5789977681477865,6.548084535725912,12.739090995279946,-10.932540893554688,-9.743499755859377,4.869842529296875,-6.547323087366616,-4.03557754144436,4.494271627286585,-2.139500209263393,-87.71769205729166,4.206702822730655,-9.128624790594651,7.146829636412972,-0.7318309294871731,-30.412617012617016,26.889051689051684,7.024677860210852,30.08137897984245,33.17240243208434,30.680414532602512,1577399399.0,-27.69011189673621,-51.12494937695796,8.778173
39435,1577399399.75,0.2620453717041015,-0.9080009796142576,5.378454319458007,-1.01350643935785,-0.7681299667730555,7.786702935939882,4.714582102457682,-4.158785288492838,8.607896030680338,-7.133102416992188,1.502227783203125,3.160858154296875,-6.257406095179116,-4.26445937738186,5.959115377286585,-2.398899623325893,-65.18046061197917,3.4132457914806547,-9.399772061602416,7.805090260819431,-2.9273237179487124,-39.53853087927163,24.04021164021163,6.9503426447588845,29.86572618084883,33.17240243208434,30.680414532602512,1577399399.0,-27.69011189673621,-51.12494937695796,8.778173
39436,1577399399.76,1.8709488873291016,3.667318392944336,0.2500743634033193,4.670328301853086,2.894998573266006,2.047801556545351,-5.010665041097005,-2.238635557047526,11.698810373942056,-6.064987182617188,-2.098846435546875,3.710174560546875,-6.898275235804116,-3.3184144555068595,8.186898580411585,-6.183079310825892,-45.00834147135416,10.829017275855657,-8.13441813023286,6.488569012006514,-1.4636618589743595,-40.61216780476041,-63.32421652421653,7.545024368374619,30.05741755773205,32.98071105520113,30.5366459999401,1577399399.0,-27.69011189673621,-51.12494937695796,8.778173
39437,1577399399.77,0.9491812481689452,-0.757166275024414,11.514793174438475,-1.9460479859887088,1.0574487990960846,2.2489144959984766,1.5877547342936198,-4.831555954996745,11.034419413248695,-12.992477416992188,-10.765838623046877,5.083465576171875,-6.135335782679116,-1.7620179711318595,6.004891744474085,-7.403782435825892,-23.432413736979164,13.072059268043152,-10.122831450956449,7.428941332587169,-0.9757745726495664,-33.09670932633897,-64.27382987382987,8.43704695379822,30.009494713511245,33.07655674364274,30.680414532602512,1577399399.0,-27.69011189673621,-51.12494937695796,8.778173
39438,1577399399.78,-0.5902904193115233,3.3668460845947266,7.569148838500975,1.4190024473608989,0.6252953994378809,10.786637616115662,0.0147642435709628,12.746672633870444,6.879282432047526,-3.730392456054688,4.462432861328124,4.488372802734375,-19.25789437642912,-0.7854554711318598,7.027230611661585,-8.227757045200892,-1.7038981119791667,13.484046572730657,-9.21900721426391,6.864717940238776,-1.4636618589743562,-40.07534934201602,-63.7990231990232,8.808723031058054,29.98553329140084,33.12447958786354,30.77626022104412,1577399399.0,-27.69011189673621,-51.12494937695796,8.778173
39439,1577399399.79,-0.8680178118896474,-4.535216494750976,5.347329697875976,-6.46031521621332,2.100123622094131,6.493834039455507,-0.3802790303548173,-2.284125388590495,5.050112363688151,-22.605514526367188,-13.848114013671877,5.449676513671875,-1.801839688929116,-16.34942031488186,9.499154439786585,-8.960178920200892,-11.988321940104166,-0.9202503022693452,-8.31518297757137,8.181239189051691,-1.3010327635327552,-22.8971585341956,-64.74863654863654,7.024677860210852,29.817803336628028,33.12447958786354,30.48872315571929,1577399399.0,-27.69011189673621,-51.12494937695796,8.778173
39440,1577399399.8,-1.4857218402099608,-2.492962478637695,2.048119810180663,-3.8386643983422246,-5.063327745093369,1.0159006410180071,6.194198728434244,8.370071999104818,12.311725998942055,-16.379928588867188,-1.396942138671875,5.693817138671875,-4.151693204554116,8.61395859136814,6.691537252286585,-5.114964076450892,0.7985432942708333,5.946204775855655,-7.411358740878827,7.6170157967033,-1.4636618589743595,-30.949435475361405,-65.22344322344321,6.9503426447588845,29.86572618084883,32.98071105520113,30.680414532602512,1577399399.0,-27.69011189673621,-51.12494937695796,8.778173
39441,1577399399.81,-1.2223596575927729,1.3760674041748049,11.733862626342772,2.389851220554258,3.240960713158584,7.559253778225038,-1.287681459554036,-1.6352967386881512,12.85161847330729,-7.163619995117188,-4.311370849609375,4.030609130859375,-12.910238126429118,-1.3805482445693595,9.102425924161585,-13.537815638950892,26.921590169270832,2.528236025855655,-9.038242366925402,6.300494547890383,-1.6262909544159505,-33.09670932633896,-12.994708994709004,8.362711738346253,29.93761044718004,33.12447958786354,30.5845688441609,1577399399.0,-27.69011189673621,-51.12494937695796,8.778173
39442,1577399399.82,-1.883159315795898,4.261080404663086,14.438113401489256,-4.889718927150819,5.042597462426162,12.91987129531488,1.9636443949381504,2.0110723897298177,12.4625607035319,-0.2361297607421875,1.898956298828125,4.228973388671875,-9.919515470179116,-6.61431289300686,4.128060689786585,-12.103489467075892,46.30025227864584,-0.4930042085193452,-8.31518297757137,7.805090260819431,-0.9757745726495664,-32.02307240085019,31.63711843711844,10.518432986453288,30.05741755773205,33.12447958786354,30.680414532602512,1577399399.0,-27.69011189673621,-51.12494937695796,8.778173
39443,1577399399.83,-1.670075368041992,-1.089960305786133,13.145244505004882,0.5355420347632428,-4.898127830542587,12.393146930080505,0.4936045756022129,-8.111612229410808,13.913446909586588,-19.187545776367188,-8.873748779296875,3.740692138671875,-4.456868985804116,-6.03447890863186,5.653939596036585,-12.835911342075892,68.97481282552083,12.873695010230657,-9.761301756279437,6.676643476122644,-1.3010327635327552,-23.433976996939982,-64.27382987382987,10.667103417357222,29.86572618084883,32.98071105520113,30.48872315571929,1577399399.0,-27.69011189673621,-51.12494937695796,8.778173
39444,1577399399.84,-0.2479195819091786,-2.969408609008789,5.833352634887695,0.7151071592749616,-3.8279196884527433,9.44827888808832,0.3116452494303379,12.777797255452477,9.98695618693034,-15.189743041992188,-8.995819091796875,4.534149169921875,-10.621419767054116,-18.33306289300686,6.416879049161585,-11.554173060825892,78.00801595052083,9.333655947730657,-8.857477519586892,7.6170157967033,-0.8131454772079686,-23.433976996939982,27.838665038665027,6.9503426447588845,30.009494713511245,33.17240243208434,30.728337376823312,1577399399.0,-27.69011189673621,-51.12494937695796,8.778173
39445,1577399399.85,0.2680308758544922,-1.312621060180664,7.524856107788085,-7.4299668885766,2.2677177383050684,0.7094428285180071,1.978009604899088,1.8003826436360677,7.233624277750651,-11.909103393554688,-5.837249755859375,3.923797607421875,-1.2220057045541155,-15.64751601800686,8.949838033536585,-10.699680873325892,62.99336751302084,-4.521324521019345,-9.038242366925402,8.181239189051691,-0.6505163817663776,-21.2867031459624,33.536345136345126,6.9503426447588845,29.93761044718004,33.12447958786354,30.680414532602512,1577399399.0,-27.69011189673621,-51.12494937695796,8.778173
39446,1577399399.86,0.8462305767822265,0.6386532928466796,9.616191257934569,-0.4041821168480853,1.337570393334366,10.771075305324649,1.90019805094401,-4.054637516276041,12.292572385660806,-6.034469604492188,-6.462860107421875,4.625701904296875,-7.096639493616616,0.4810240210556404,7.469735494474085,-13.293675013950892,81.01399739583333,7.182166689918155,-11.02665568764899,5.7362711555419885,-1.138403668091164,-37.65966625966626,23.8028083028083,7.061845467936834,30.009494713511245,32.98071105520113,30.48872315571929,1577399399.0,-27.69011189673621,-51.12494937695796,8.778173
39447,1577399399.87,1.1239579693603514,4.170100741577148,12.077430564575192,0.3583711119116803,1.049069093285537,16.05627547011957,3.3403103495279947,25.25398210652669,11.540793064371744,-6.614303588867188,-1.457977294921875,3.862762451171875,-8.057943204554116,-16.59356093988186,8.095345846036585,-11.676243373325892,79.96114095052083,0.3614879789806547,-10.122831450956449,9.309685973748474,-0.3252581908831888,-40.61216780476041,33.536345136345126,6.9503426447588845,29.817803336628028,33.02863389942193,30.680414532602512,1577399399.0,-27.69011189673621,-51.12494937695796,8.778173
39448,1577399399.88,-0.2455253802490224,2.0632032806396485,16.035045908813476,0.1524697691382428,2.080970008812881,6.987039581447695,4.640361850992838,-5.937677121988933,6.345375461832682,-5.546188354492188,2.204132080078125,3.343963623046875,-4.212728360804116,-6.37017226800686,5.409798971036585,-13.263157435825892,58.29366048177084,-22.038414364769345,-10.30359629829496,5.7362711555419885,-0.162629095441591,-40.61216780476041,-65.22344322344321,8.437046953798218,30.009494713511245,33.12447958786354,30.5845688441609,1577399399.0,-27.69011189673621,-51.12494937695796,8.778173
39449,1577399399.89,-1.0032902056884756,-4.083909481811523,10.092637388305665,4.428513934177305,-3.598076329077744,13.85121574111566,-0.4042210469563799,-18.42104457804362,8.34453384806315,-20.606613159179688,-10.735321044921877,3.404998779296875,-11.597982267054116,0.7099058569931402,7.820687642911585,-13.904026576450892,50.57271321614584,15.254066103980657,-10.122831450956449,7.428941332587169,-0.6505163817663776,-40.61216780476041,-65.22344322344321,8.437046953798218,29.91364902506964,33.22032527630515,30.728337376823312,1577399399.0,-27.69011189673621,-51.12494937695796,8.778173
39450,1577399399.9,-1.1289857928466789,-3.01968684387207,11.495639561157226,-1.774862567287537,0.5187534255609285,9.132244268947693,0.5522625162760415,0.3087950093587236,20.4687710550944,-8.140182495117188,-8.354949951171875,4.015350341796875,-6.928792813929116,-11.08513808831936,4.265389791349085,-12.042454310825892,77.71809895833333,9.013221377418157,-9.038242366925402,7.805090260819431,-0.9757745726495664,-29.070570855756035,-64.98603988603988,-10.704271025083209,29.86572618084883,33.148441009973936,30.656453110492105,1577399399.0,-27.69011189673621,-51.12494937695796,8.778173
39451,1577399399.91,3.1326931622314453,3.997718222045898,11.383112083129882,6.269655010837461,-0.6172952621832117,22.760040118557068,-1.2421916280110672,0.8522787862141917,13.54234565226237,-2.4333953857421875,-5.272674560546875,2.977752685546875,-4.823079923304116,2.8461363257431405,6.783089986661585,-13.110569545200892,104.28365071614584,9.577796572730657,-11.02665568764899,7.240866868471035,-1.7889200498575484,-39.53853087927163,-65.22344322344321,7.0990130756628185,30.009494713511245,32.88486536675951,30.5845688441609,1577399399.0,-27.69011189673621,-51.12494937695796,8.778173
39452,1577399399.92,-0.3125630267333974,2.4390929412841795,10.609784946899412,-3.7788093568383183,0.4385476699456935,5.074072454982851,-1.290075661214192,13.819274977620443,5.782738071695963,5.6232452392578125,-1.763153076171875,4.228973388671875,-7.081380704554116,-21.75103164300686,7.607064596036585,-9.082249232700892,96.98994954427084,-6.596519833519345,-9.580536908940926,6.488569012006514,-1.138403668091164,-40.61216780476041,-63.32421652421653,6.9503426447588845,29.86572618084883,33.17240243208434,30.680414532602512,1577399399.0,-27.69011189673621,-51.12494937695796,8.778173
39453,1577399399.93,1.2544419598388672,-4.383184689331054,6.016509061889647,1.506390807956602,-4.007484812964463,14.134928637844178,0.2398191996256512,-2.929362736002604,6.332207352701823,-13.846969604492188,-4.402923583984375,3.252410888671875,-0.4285486733041156,2.3273374976181405,3.288827291349085,-7.068089076450892,66.91487630208334,-4.826500302269345,-8.676712672248383,7.052792404354905,-0.9757745726495664,-21.2867031459624,-64.74863654863654,7.396353937470685,29.93761044718004,33.02863389942193,30.5606074220505,1577399399.0,-27.69011189673621,-51.12494937695796,8.778173
39454,1577399399.94,1.205360825805664,0.1191115325927734,6.738360862426757,-1.5091061830101935,0.8742923720941309,5.234483966213319,-1.5917450703938796,-3.217864036051432,7.113914194742838,-2.3723602294921875,-3.502655029296875,3.404998779296875,-7.050863126429116,-4.35601211175686,1.9918302210365848,-6.549290248325892,44.13350423177084,3.1080700102306547,-8.676712672248383,7.052792404354905,-0.9757745726495664,-22.36034007145118,47.78054538054538,7.0990130756628185,29.86572618084883,32.98071105520113,30.680414532602512,1577399399.0,-27.69011189673621,-51.12494937695796,8.778173
39455,1577399399.95,1.5692794781494142,-1.5280992095947266,15.72619389465332,2.187541180271055,4.2908181411371,19.81756627822504,-3.327541274007161,7.517736208089192,7.923154355875651,2.5104522705078125,-2.129364013671875,2.581024169921875,-4.823079923304116,-5.05791640863186,4.585824361661585,-3.924778529575893,17.888387044270832,5.549476260230655,-10.122831450956449,7.805090260819431,-0.6505163817663776,-22.36034007145118,37.33479853479852,7.0990130756628185,29.86572618084883,33.12447958786354,30.728337376823312,1577399399.0,-27.69011189673621,-51.12494937695796,8.778173
39456,1577399399.96,0.6666654522705078,-0.7547720733642578,16.434877586059567,-0.3886198060570686,-2.5063203720464937,17.76573545547113,-4.258885719807942,7.639840492757161,10.09469526163737,4.8908233642578125,-0.0236511230468748,3.710174560546875,10.222086092320884,-3.3489320336318595,2.663216939786585,-0.1100812639508928,-4.694620768229167,-2.1714710053943453,-9.94206660361794,7.993164724935561,-1.4636618589743595,-18.06579236949609,-65.22344322344321,6.9503426447588845,29.86572618084883,32.98071105520113,30.680414532602512,1577399399.0,-27.69011189673621,-51.12494937695796,8.778173
39457,1577399399.97,-0.0851138690185542,-0.7164648468017578,13.60612832458496,0.9676954344214465,-0.1408491318121187,8.180549109035583,-0.3647167195638018,-4.000767978922524,15.81923143107096,1.4270782470703116,2.692413330078124,3.557586669921875,-1.5882166420541155,4.3109800757431405,4.433236471036585,-1.2544904436383928,-7.029215494791668,12.248084658668157,-9.761301756279437,8.181239189051691,-0.9757745726495664,-39.53853087927163,-64.74863654863654,7.3220187220187185,30.05741755773205,33.07655674364273,30.704375954712912,1577399399.0,-27.69011189673621,-51.12494937695796,8.778173
39458,1577399399.98,-1.919072340698242,-4.137779019165039,14.162780210571288,4.723000738376523,-4.19423254245665,14.856780438381287,-0.2701457539876298,12.150516420491538,19.63080047403971,-5.637741088867188,-0.0541687011718748,3.618621826171875,-1.801839688929116,4.0058042944931405,1.4119962366615852,1.9040788922991072,35.40547688802084,1.1854625883556549,-9.761301756279437,8.181239189051691,-0.9757745726495664,-39.53853087927163,-63.32421652421653,6.9503426447588845,30.009494713511245,33.02863389942193,30.5366459999401,1577399399.0,-27.69011189673621,-51.12494937695796,8.778173
39459,1577399399.99,1.451963596801758,-2.761113064575196,12.735836021118162,-1.2194077821312874,2.5047437026605373,7.049288824611756,4.032234629313151,-10.141895237223304,21.99148331095377,1.8695831298828125,1.044464111328125,4.198455810546875,5.003580232945884,-6.30913711175686,5.745492330411585,-0.0185285295758927,76.17696126302083,7.288978213355655,-10.122831450956449,7.052792404354905,-1.6262909544159505,-39.53853087927163,-63.32421652421653,6.9503426447588845,30.009494713511245,33.17240243208434,30.728337376823312,1577399399.0,-27.69011189673621,-51.12494937695796,8.778173
39460,1577399400.0,-1.0380061297607412,-0.0796072052001953,10.511622678833008,1.6991240415991802,-1.1703558456793055,13.216752301174257,-2.815182118733724,2.861013979085285,17.43531755167643,6.8134307861328125,-3.472137451171875,3.649139404296875,9.947427889195884,12.79486679449314,2.693734517911585,-0.1100812639508928,92.10713704427084,18.33634149460565,-9.761301756279437,8.55738811728395,-1.951549145299146,-34.17034625182773,-63.32421652421653,-11.187449925521,30.009494713511245,33.12447958786354,30.48872315571929,1577399400.0,-27.690117405725346,-51.12503642753477,8.552947
39461,1577399400.01,0.7708132244873052,-0.7320271575927734,10.429022721557615,2.2461991209448837,-0.9572718979253992,13.010850958400818,-1.1009337300618491,13.206359352620442,4.553315519205729,5.6690216064453125,-1.213836669921875,4.351043701171875,45.897134920445886,-32.99675918206936,2.037606588224085,6.496974400111608,70.28706868489584,-6.611778622581845,-9.761301756279432,7.993164724935561,-2.276807336182332,-25.58125084791752,-64.27382987382987,-2.341559286736957,29.93761044718004,33.148441009973936,30.704375954712912,1577399400.0,-27.690117405725346,-51.12503642753477,8.552947
39462,1577399400.02,3.247614841918945,-4.829703298950195,9.671257896118163,4.7756731748999615,-4.598852623023056,19.326754937893003,-0.6963136494954424,-5.0039384745279945,-3.4253615132649733,4.3415069580078125,0.4646301269531251,5.358123779296875,-2.747884610804116,15.26679062261814,1.7171720179115852,11.700221470424108,-8.356730143229166,-17.888023739769345,-10.30359629829496,7.240866868471035,-1.4636618589743595,-19.13942929498485,35.435571835571835,-10.890109063713126,29.817803336628028,33.12447958786354,30.680414532602512,1577399400.0,-27.690117405725346,-51.12503642753477,8.552947
39463,1577399400.03,-0.4322731097412099,-0.5776011505126952,14.033493320922853,-2.8139460877953497,0.0937826308831935,12.723546759182067,-5.238114198811849,-16.646941147867835,11.749088608805335,10.383987426757812,4.676055908203125,4.839324951171875,41.838297029820886,-20.28618789300686,5.409798971036585,11.852809361049108,-40.85795084635416,-1.2254260835193451,-9.580536908940926,7.993164724935561,-1.138403668091164,-19.13942929498485,35.435571835571835,-10.890109063713126,29.86572618084883,33.12447958786354,30.728337376823312,1577399400.0,-27.690117405725346,-51.12503642753477,8.552947
39464,1577399400.04,0.1207874737548833,2.436698739624023,10.730692130737305,2.1803585752905863,5.31793065334413,12.359628106838318,-4.744908656819661,-5.97119594523112,17.4808073832194,18.394851684570312,4.859161376953125,4.351043701171875,19.74357046732089,-8.50640273675686,2.266488424161585,8.770533970424108,-31.702677408854168,23.73795282273065,-10.57474356930272,7.146829636412972,-1.2197182158119595,-19.13942929498485,35.435571835571835,-10.444097771001328,29.98553329140084,32.88486536675951,30.5366459999401,1577399400.0,-27.690117405725346,-51.12503642753477,8.552947
39465,1577399400.05,0.9132682232666016,-2.6390087799072264,16.375022544555662,5.043823760837461,-5.485904338110947,15.903046563869568,-4.699418825276693,9.579143837483723,19.84747572428385,7.271194458007812,2.448272705078125,4.839324951171875,51.359781404820886,-11.86333633050686,3.456673971036585,14.416285923549108,11.403401692708332,23.051307314918155,-10.665125992971973,6.488569012006514,-3.7404691951566944,-21.018293914590224,-2.311558811558811,0.6690169390676957,30.009494713511245,32.83694252253871,30.608530266271305,1577399400.0,-27.690117405725346,-51.12503642753477,8.552947
39466,1577399400.06,2.249232749633789,-10.468048208618164,9.17565815246582,-2.299192730861756,1.2262400161370997,15.2063338807641,-1.244585829671223,3.902491701253254,10.001321396891276,6.3556671142578125,5.988311767578125,7.280731201171875,11.351236482945884,7.6373960913681405,2.480111471036585,17.040797642299108,-0.1475016276041666,-5.833580380394345,-10.665125992971973,6.488569012006514,-3.7404691951566944,-32.02307240085019,22.140984940984943,11.707796433684758,29.96157186929044,33.02863389942193,30.680414532602512,1577399400.0,-27.690117405725346,-51.12503642753477,8.552947
39467,1577399400.07,2.6394876202392576,-1.4873977813720702,6.745543467407225,5.74053644394293,-6.641106639136337,16.353156475978942,-1.6803305318196609,4.443581276448566,7.022934531656901,14.290237426757812,8.826446533203125,3.496551513671875,23.16153921732089,18.28803085699314,-0.1749178258384147,21.130153111049108,-13.270060221354166,-12.455894833519343,-10.484361145633464,7.052792404354905,-0.9757745726495664,-32.02307240085019,22.140984940984943,11.707796433684758,29.86572618084883,33.17240243208434,30.5845688441609,1577399400.0,-27.690117405725346,-51.12503642753477,8.552947
39468,1577399400.08,0.400909067993164,1.8046295013427731,11.350790360717772,1.0694490049780865,3.457635963402725,11.622213995510194,1.3435461649576816,-23.71701865030925,11.674868357340497,23.78120422363281,7.849884033203124,5.785369873046875,25.57242788919589,-6.73638320550686,1.1068204554115852,19.238063267299108,-10.889689127604166,-7.756187802269345,-10.39397872196421,6.770680708180709,-0.8944600249287742,-32.02307240085019,19.292144892144883,8.288376522894284,30.009494713511245,32.88486536675951,30.728337376823312,1577399400.0,-27.690117405725346,-51.12503642753477,8.552947
39469,1577399400.09,1.2867636822509767,1.2132616912841796,9.024823447875976,1.3028836668433212,0.4409418716058494,8.23322154555902,-0.5287195332845053,6.995800246175132,9.371646360270182,22.07221984863281,8.917999267578125,5.724334716796875,14.937051912633384,11.92511581793064,-0.6326814977134148,16.766139439174108,-1.291910807291667,14.201209658668157,-10.484361145633464,5.924345619658119,-1.3010327635327552,-35.780801640060915,22.61579161579161,7.768030014730517,29.86572618084883,32.95674963309072,30.77626022104412,1577399400.0,-27.690117405725346,-51.12503642753477,8.552947
39470,1577399400.1,-0.0108936175537099,-1.7579425689697266,8.65851059387207,-5.045342035060976,4.108858814965225,2.986328607326601,-1.2374032246907547,-2.0878008524576823,0.8435000467936196,14.900588989257812,11.328887939453123,5.571746826171875,16.569742342320886,-7.10259414300686,-1.1819979039634148,16.338893345424108,-23.768107096354168,0.6666637602306548,-10.484361145633464,5.924345619658119,-1.3010327635327552,-27.728524698895075,33.536345136345126,8.288376522894284,30.009494713511245,32.98071105520113,30.728337376823312,1577399400.0,-27.690117405725346,-51.12503642753477,8.552947
39471,1577399400.11,-1.4162899920654295,0.5716156463623047,10.664851585083008,1.802074712985899,-2.8343259994879,13.549546331935971,1.173557847086588,-8.607211973063151,1.173899875895182,14.656448364257812,10.932159423828123,5.052947998046875,16.691812654820886,27.35175156011814,-0.0833650914634147,18.963405064174108,-55.17069498697917,6.251380557105655,-10.30359629829496,7.993164724935561,-1.7889200498575484,-27.728524698895075,33.536345136345126,-10.14675690919346,30.009494713511245,33.02863389942193,30.728337376823312,1577399400.0,-27.690117405725346,-51.12503642753477,8.552947
39472,1577399400.12,-0.184473237915038,0.7404068634033203,9.562321720581052,0.5104029173316026,1.6775470290765528,11.099080932766052,-0.4102065511067709,6.494214998372395,6.21249726969401,15.114212036132812,6.812286376953125,5.709075927734375,16.722330232945886,9.54474472418064,3.120980611661585,19.299098423549108,-88.31278483072916,4.313514346168155,-9.219007214263913,7.428941332587168,-1.951549145299146,-55.37467553023109,34.72336182336182,-2.1557212481070387,29.93761044718004,33.12447958786354,30.680414532602512,1577399400.0,-27.690117405725346,-51.12503642753477,8.552947
39473,1577399400.13,-0.4586093280029286,2.015319247436523,10.705553013305662,0.5092058165015241,1.6500137099847558,7.609532013088319,3.476779844156901,-16.31175291544596,5.971880002848307,15.205764770507812,7.422637939453125,5.815887451171875,15.593179842320884,13.19159531011814,6.386361471036585,16.857692173549108,-109.52250162760416,7.533118838355655,-9.761301756279437,7.428941332587169,-2.9273237179487124,-100.73583563213192,25.93943833943834,6.9503426447588845,29.86572618084883,32.98071105520113,30.5845688441609,1577399400.0,-27.690117405725346,-51.12503642753477,8.552947
39474,1577399400.14,-1.4952986468505858,1.553238327026367,12.508386863403318,-3.8147223817406624,-1.9173467636480552,9.438702081447694,2.538252793375651,3.1195877583821603,11.049981724039712,15.938186645507812,4.584503173828125,5.968475341796875,17.393716951695886,-1.3652894555068598,0.9237149866615852,17.651149204799108,-97.92582194010416,10.035560244605657,-9.761301756279437,7.428941332587169,-2.9273237179487124,-100.19901716938752,26.41424501424502,7.024677860210852,29.96157186929044,32.98071105520113,30.48872315571929,1577399400.0,-27.690117405725346,-51.12503642753477,8.552947
39475,1577399400.15,-2.302144606323242,-1.0277110626220702,8.589078745727537,3.810809905856992,-2.9684012924566496,10.01570468154535,-0.0857922261555986,4.117969850667317,15.634877903238932,11.391067504882812,5.255889892578125,7.097625732421875,16.234048982945886,7.85101913824314,0.7406095179115852,17.132350376674108,-79.34061686197917,-1.0118030366443451,-8.857477519586892,7.993164724935561,-2.439436431623926,-36.31762010280528,34.48595848595849,8.139706091990352,29.96157186929044,33.02863389942193,30.5845688441609,1577399400.0,-27.690117405725346,-51.12503642753477,8.552947
39476,1577399400.16,0.4440046978759771,0.2902969512939453,8.399936814575195,-0.4257299317894911,0.093782630883194,5.597205517726992,2.2988326273600257,-3.785289829508462,17.99675784098307,10.948562622070312,0.1594543457031251,6.563568115234375,10.176309725133384,5.3485777319931405,2.083382955411585,12.676783970424108,-7.105509440104167,16.718909853980655,-9.580536908940925,7.240866868471038,-2.4394364316239256,-32.0230724008502,41.133251933251934,7.247683506566751,29.93761044718004,32.93278821098032,30.608530266271305,1577399400.0,-27.690117405725346,-51.12503642753477,8.552947
39477,1577399400.17,0.3506308331298827,5.673659384155273,8.534012107543944,0.3942841368140241,6.007460731469131,10.731570977932067,-0.8399657491048174,9.430703334554035,4.343822873942057,17.708206176757812,3.119659423828125,6.578826904296875,6.834634920445884,-4.23394179925686,2.510629049161585,9.625026157924108,20.360310872395832,0.1783825102306547,-9.038242366925402,7.805090260819431,-1.951549145299146,-40.61216780476041,-65.22344322344321,6.9503426447588845,30.009494713511245,32.88486536675951,30.680414532602512,1577399400.0,-27.690117405725346,-51.12503642753477,8.552947
39478,1577399400.18,-0.0180762225341787,1.253963119506836,12.228265269165036,0.1859885923804303,-7.019390501441025,6.41482538467035,1.175952048746744,-5.851485862223307,5.071660178629557,16.029739379882812,9.223175048828123,5.632781982421875,16.996988436070886,9.43793320074314,2.663216939786585,8.801051548549108,11.723836263020834,-6.504967099144345,-9.038242366925402,7.805090260819431,-1.951549145299146,-40.61216780476041,-65.22344322344321,8.139706091990352,29.86572618084883,33.12447958786354,30.728337376823312,1577399400.0,-27.690117405725346,-51.12503642753477,8.552947
39479,1577399400.19,0.4643554119873052,-0.7823053924560547,6.011720658569336,-3.706983307033631,-4.052974644507431,8.995774774318788,-1.3714785176595046,-6.04781039835612,5.95751479288737,3.5022735595703125,2.783966064453125,6.639862060546875,2.4401036704458843,2.7240660132431405,2.388558736661585,9.716578892299108,-6.647745768229167,9.455726260230657,-8.947859943256145,7.334904100529103,-1.219718215811963,-40.61216780476041,-65.22344322344321,8.139706091990352,29.91364902506964,33.12447958786354,30.680414532602512,1577399400.0,-27.690117405725346,-51.12503642753477,8.552947
39480,1577399400.2,1.0760739361572265,2.309806051635742,11.926595859985351,-0.4688255616723035,3.0841405044183494,6.93795844741449,-1.4073915425618484,0.0562067342122393,5.844987314860026,9.987258911132812,8.002471923828125,6.212615966796875,11.900552889195884,8.46137070074314,5.425057760099085,9.213038853236608,-17.405192057291668,-2.781822567894345,-7.953653282894354,7.428941332587169,-1.3010327635327552,-36.3176201028053,30.687505087505087,7.545024368374619,29.86572618084883,32.88486536675951,30.632491688381705,1577399400.0,-27.690117405725346,-51.12503642753477,8.552947
39481,1577399400.21,1.4399925885009766,4.301781832885742,9.249878403930664,1.3208401792944926,3.287647645531631,12.59425986953363,-4.136781435139974,-17.113810471598303,13.269406663004556,12.733840942382812,4.981231689453125,6.060028076171875,1.8602696860708845,2.7545835913681405,3.151498189786585,4.955836704799108,-9.394327799479166,20.10636102585565,-9.399772061602416,7.428941332587169,-2.602065527065524,-40.61216780476041,35.435571835571835,7.0990130756628185,30.009494713511245,33.12447958786354,30.5366459999401,1577399400.0,-27.690117405725346,-51.12503642753477,8.552947
39482,1577399400.22,-2.6708516619873044,4.282628219604492,16.62641371887207,-2.0741377748070686,2.8973927749261623,3.240113983303164,4.769648740641276,4.848201357014973,11.078712143961589,13.740921020507812,13.892364501953123,6.487274169921875,4.393228670445884,-4.14238906488186,3.151498189786585,5.047389439174108,0.4018147786458333,16.596839541480655,-9.399772061602416,7.428941332587169,-2.602065527065524,-40.07534934201602,39.70883190883189,7.024677860210852,29.86572618084883,32.98071105520113,30.728337376823312,1577399400.0,-27.690117405725346,-51.12503642753477,8.552947
39483,1577399400.23,1.012627592163086,-2.0835539947509765,5.762723685913085,-3.115615496975037,-4.301971617163681,9.395606451564882,-0.1360704610188798,-1.158850608317057,2.9839163309733068,-4.920578002929688,-0.283050537109375,6.151580810546875,3.996500154820884,11.90985702886814,1.2594083460365852,3.613063267299107,-3.962198893229168,7.655189150855655,-10.303596298294956,7.805090260819428,-1.4636618589743562,-40.61216780476041,31.63711843711844,6.9503426447588845,30.009494713511245,33.12447958786354,30.5845688441609,1577399400.0,-27.690117405725346,-51.12503642753477,8.552947
39484,1577399400.24,-0.7028178973388662,1.4790180755615234,10.590631333618164,-0.693880517726991,1.62846589504335,8.803041540676208,0.0411004618326822,2.403721461995444,10.846474582926431,1.6254425048828125,4.248809814453125,5.052947998046875,6.117471834508384,-2.6622865258193595,6.584725728849085,5.993434361049108,-8.143107096354166,-1.5458606538318451,-10.122831450956449,7.805090260819431,-1.951549145299146,-36.3176201028053,31.63711843711843,8.139706091990352,30.009494713511245,32.98071105520113,30.5606074220505,1577399400.0,-27.690117405725346,-51.12503642753477,8.552947
39485,1577399400.25,0.7887697369384765,3.6146459564208975,3.3266234967041,-0.2162372865258186,6.845431312523818,5.354194049221132,-3.633999086507161,-8.295965757242838,10.6238138285319,11.879348754882812,16.608428955078125,6.334686279296875,1.6466466391958845,14.56488632574314,3.273568502286585,2.300807407924107,-4.542032877604167,11.530921572730657,-9.219007214263907,6.864717940238775,-1.138403668091164,-40.07534934201602,38.75921855921855,8.065370876538386,29.86572618084883,33.02863389942193,30.680414532602512,1577399400.0,-27.690117405725346,-51.12503642753477,8.552947
39486,1577399400.26,-1.17926402770996,7.208342648315429,12.288120310668944,3.7198302427710552,0.3691158218011622,11.7203762635766,-3.9548221089680986,0.0645864400227855,6.146656724039714,7.0575714111328125,5.194854736328125,5.480194091796875,-11.109701017054116,14.38178085699314,4.952035299161585,0.2866472516741072,3.117879231770833,7.380530947730655,-9.219007214263907,6.864717940238775,-1.138403668091164,-40.07534934201602,38.75921855921855,8.065370876538386,30.15326324617366,32.83694252253871,30.728337376823312,1577399400.0,-27.690117405725346,-51.12503642753477,8.552947
39487,1577399400.27,1.234091245727539,-2.1326351287841794,5.674138224487304,-4.149910614162538,-0.4317446335211032,5.326660730129335,1.427343223063151,2.8945328023274737,3.975115818277994,-12.199020385742188,1.959991455078125,4.503631591796875,6.437906404820884,0.3589537085556402,5.119881978849085,-1.0256086077008928,-17.344156901041668,0.2089000883556551,-9.851684179948688,6.95875517229684,-1.544976406695152,-29.875798549872624,41.13325193325193,9.403404754673788,29.86572618084883,32.95674963309072,30.632491688381705,1577399400.0,-27.690117405725346,-51.12503642753477,8.552947
39488,1577399400.28,-2.596631410522461,0.8900444671630859,15.285660789184568,3.6767346128882425,1.257364637719131,11.35645761123285,-2.259727333577473,-16.136976194254554,4.118767917887369,-1.3957977294921875,9.345245361328123,3.862762451171875,-6.318441251429116,20.51581406011814,5.501351705411585,-2.124241420200893,-38.87430826822917,9.852454775855657,-8.495947824909878,6.112420083774249,-0.8131454772079686,-33.096709326338974,18.34253154253154,11.113114710069022,30.249108934615272,33.12447958786354,30.5366459999401,1577399400.0,-27.690117405725346,-51.12503642753477,8.552947
39489,1577399400.29,1.7272967877197265,3.966593600463867,8.100661607055663,1.1939474913062116,-2.3674566757574302,6.603967315822694,3.294820517985026,8.590338551839192,4.5377532084147125,0.0080108642578124,8.185577392578125,3.527069091796875,-1.923910001429116,-2.5249574242568595,7.942757955411585,-1.9411359514508928,-43.29935709635416,9.364173525855657,-10.30359629829496,6.112420083774249,-0.8131454772079686,-39.53853087927163,13.594464794464791,11.113114710069022,29.96157186929044,33.02863389942193,30.48872315571929,1577399400.0,-27.690117405725346,-51.12503642753477,8.552947
39490,1577399400.3,-0.2383427752685536,1.455076058959961,11.2179121685791,0.3511885069312116,5.760857960473037,6.855358490139101,-1.843136244710286,-2.2266645487467445,13.281377671305338,-4.050827026367188,10.657501220703123,4.717254638671875,-0.5811365639291157,7.60687851324314,4.280648580411585,-3.253391810825893,-38.90482584635416,9.303138369605657,-10.30359629829496,6.112420083774249,-0.8131454772079686,-39.53853087927163,29.737891737891733,8.734387815606086,30.009494713511245,33.02863389942193,30.5366459999401,1577399400.0,-27.690117405725346,-51.12503642753477,8.552947
39491,1577399400.31,0.707366880493164,2.1134815155029294,12.115737791137692,0.7582027891577741,0.312852082787491,11.219988116603943,1.280099820963541,-1.011607206217448,12.39911435953776,-6.156539916992188,10.504913330078123,3.923797607421875,-2.061239102991616,6.7066099585556405,8.537850728849085,-4.992893763950892,-28.78824869791667,9.272620791480657,-10.30359629829496,6.112420083774249,-0.8131454772079686,-40.34375857338821,23.8028083028083,7.433521545196669,29.96157186929044,33.07655674364273,30.608530266271305,1577399400.0,-27.690117405725346,-51.12503642753477,8.552947
39492,1577399400.32,-1.790982551879882,-1.3712790008544922,9.968138901977538,-1.9041494569359747,-2.666731883276962,4.068507757717226,3.237359678141276,7.520130409749348,8.37087006632487,-17.280197143554688,3.195953369140625,4.167938232421875,-4.884115079554116,7.48480820074314,5.318246236661585,-5.816868373325892,-3.687540690104168,10.645911807105657,-10.032449027287198,7.146829636412971,-1.3823473112535574,-29.875798549872645,33.536345136345126,-11.187449925521,29.98553329140084,33.02863389942193,30.728337376823312,1577399400.0,-27.690117405725346,-51.12503642753477,8.552947
39493,1577399400.33,-1.7227478045654294,1.198896481323242,9.812515794067382,0.7127129576148054,4.187867469750381,10.872828875881288,-4.0146771504720045,1.161130800374348,7.789079062906901,-6.675338745117188,5.988311767578125,3.710174560546875,-9.431234220179116,11.33002304449314,3.853402486661585,-5.450657435825892,-3.0161539713541665,-5.314781552269345,-9.761301756279437,8.181239189051691,-1.951549145299146,-29.875798549872645,-65.22344322344321,-11.187449925521,29.86572618084883,33.02863389942193,30.728337376823312,1577399400.0,-27.690117405725346,-51.12503642753477,8.552947
