,timestamp,acc_x_dashboard,acc_y_dashboard,acc_z_dashboard,acc_x_above_suspension,acc_y_above_suspension,acc_z_above_suspension,acc_x_below_suspension,acc_y_below_suspension,acc_z_below_suspension,gyro_x_dashboard,gyro_y_dashboard,gyro_z_dashboard,gyro_x_above_suspension,gyro_y_above_suspension,gyro_z_above_suspension,gyro_x_below_suspension,gyro_y_below_suspension,gyro_z_below_suspension,mag_x_dashboard,mag_y_dashboard,mag_z_dashboard,mag_x_above_suspension,mag_y_above_suspension,mag_z_above_suspension,temp_dashboard,temp_above_suspension,temp_below_suspension,timestamp_gps,latitude,longitude,speed
22781,1577399233.21,2.137846897032202,-0.0391247588366995,6.756904246260479,4.80200939316168,5.261579321586795,10.11468448188596,-0.255478835687404,2.9158456462580986,16.431405993652344,11.705910287252289,-7.107246212842988,-1.1209627477134143,-6.935863960080031,5.946461747332317,-4.538187166539634,2.612416337176067,-6.689304258765244,-10.167935999428352,-19.48064236111111,4.192304754273503,-4.583964530839531,14.806583940898845,10.631235951548453,-37.661348267117496,28.428040854224697,33.84332225117561,35.80815886422859,1577399233.0,-27.69438542923172,-51.11461750642536,8.775868
22782,1577399233.22,1.6961166907333738,0.9736225434093932,8.654309061934308,1.8547471495093364,1.6463348147508572,7.516975680616425,3.2927280246641577,2.64051245534013,4.65432802734375,4.931007943502286,-5.032050900342988,-3.5928865758384143,0.4188723680449695,2.925221512957317,-0.4488316977896341,2.520863602801067,7.714992616234756,-9.832242640053352,-18.511017628205124,5.317069444444446,-4.358523652273656,16.450145507537332,10.631235951548453,-37.07136913567202,28.499925120555904,33.699553718513194,35.95192739689101,1577399233.0,-27.69438542923172,-51.11461750642536,8.775868
22783,1577399233.23,-1.3576875267959216,-4.286438503953887,9.040972630049543,0.4996290098608995,-4.596546014106565,14.968928347852756,-1.6237650844667026,0.928658268328411,15.300145709228516,-8.710349478372713,17.581474490282012,1.8087247522865848,2.875537407107469,-1.4235333698551829,-0.2962438071646345,-1.0191754596989329,-14.517063047827744,0.1317466177591462,-18.59916533119658,5.21481810897436,-4.433670611795614,12.341241590941108,9.898047265234766,-19.077005626584956,28.475963698445504,33.62766945218199,35.66439033156618,1577399233.0,-27.69438542923172,-51.11461750642536,8.775868
22784,1577399233.24,0.720479514219702,-4.588107913133574,9.943586655928447,2.1420513487280863,-1.8276517941358603,12.326926815870332,-2.527576211175686,-11.760610530499712,14.707580798339842,-14.050925650247711,11.111747927782012,-2.0670076695884143,-2.4802975538300305,17.146412919207318,-4.507669588414634,-4.681284834698933,-20.666355040015244,10.248323766196648,-19.48064236111111,5.41932077991453,-3.682201016576021,18.91548785749507,7.698481206293707,-4.032537774725275,28.57180938688711,33.84332225117561,35.76023602000779,1577399233.0,-27.69438542923172,-51.11461750642536,8.775868
22785,1577399233.25,-0.0073577904677969,-1.5115587798327932,9.85978959782298,-4.597626324611757,-1.5116171749952356,10.895194223096896,0.778816281500095,-9.912286848859088,5.609614489746093,-0.2569803377477134,11.416923709032012,2.0528653772865857,-0.4966549757050305,-5.955393721417683,1.9620569740853653,-14.996226240948932,-20.574802305640244,-0.6159340463033537,-19.128051549145297,5.41932077991453,-5.485728045103049,17.271926290856577,7.698481206293707,0.3923057111158077,28.475963698445504,33.939167939617214,35.66439033156618,1577399233.0,-27.69438542923172,-51.11461750642536,8.775868
22786,1577399233.26,0.4858477515243901,1.590129470899628,13.967042545821023,-0.5346661073265999,1.6583058230516383,8.137073910596893,9.539200156011812,22.34718632008622,-0.2130839477539062,-1.0199197908727136,-5.276191525342988,-1.6092439977134143,1.0292239305449695,2.620045731707317,-2.5850621665396343,14.697377274676068,9.485012147484756,9.119173375571648,-19.568790064102565,4.908064102564101,-4.508817571317573,17.271926290856577,7.698481206293707,0.3923057111158077,28.284272321562284,33.699553718513194,35.66439033156618,1577399233.0,-27.69438542923172,-51.11461750642536,8.775868
22787,1577399233.27,1.9151861426376704,0.4109851532726745,3.304465452315167,4.682299310153868,2.3633982119676538,5.654286789014862,-5.280908120355374,-15.66555343821456,11.568782421875,12.987648568502289,-4.757392697217988,-1.3345857945884143,-2.9990963819550305,1.0789080363948162,-0.8455602134146344,8.731190751238568,38.12575921779725,-4.598477991615853,-19.128051549145297,5.010315438034185,-4.583964530839531,17.374648888771482,13.83893645417083,-17.970794755124682,28.475963698445504,33.67559229640279,35.80815886422859,1577399233.0,-27.69438542923172,-51.11461750642536,8.775868
22788,1577399233.28,1.4339516089462645,0.6815299408703306,11.293916392256572,-1.8131697938500373,-0.0128469357374232,12.140179086378147,2.0357721530821262,-1.0681059162419015,16.50323204345703,-0.3180154939977134,-4.330146603467988,-3.9896150914634143,-0.2219967725800304,10.859791825457316,-0.0521031821646341,-10.815318037823932,-11.266940977515244,-24.022916468178355,-19.128051549145297,5.010315438034185,-4.583964530839531,-16.215640629402646,19.612797358891108,-3.5900534261411665,28.475963698445504,33.747476562734,35.856081708449395,1577399233.0,-27.69438542923172,-51.11461750642536,8.775868
22789,1577399233.29,0.7899113623642333,-6.769225625535919,6.831124497725323,-0.9512571961937872,-4.442120007026486,3.8634239472179863,11.32288039282822,7.098515946551067,9.411606726074218,2.8863302091272867,9.616386599657012,1.0763028772865857,-6.081371772580031,10.890309403582316,0.9549768959603658,-13.195689131573932,-37.96982183689025,-1.5009438119283538,-19.65693776709401,4.396807425213674,-4.734258449883449,-12.928517496125668,19.612797358891108,-3.5900534261411665,28.475963698445504,33.65163087429239,35.80815886422859,1577399233.0,-27.69438542923172,-51.11461750642536,8.775868
22790,1577399233.3,-0.8668761864638911,-0.9525126921863094,15.061192704512433,0.4014667417944929,-5.689499071967893,9.662180368116424,-2.527576211175686,-0.4863149128239327,15.37316885986328,-13.669455923685216,5.145561404344512,-1.2735506383384143,3.9283938524199695,-18.95588200266768,5.105367520960366,-17.712290694073932,-50.90927496189025,10.889192906821648,-19.304346955128203,4.805812767094015,-5.335434126059131,-13.133962691955478,19.429500187312687,-3.737548209002536,28.332195165783087,33.55578518585078,35.616467487345375,1577399233.0,-27.69438542923172,-51.11461750642536,8.775868
22791,1577399233.31,0.3876854834579833,1.0837558197765806,12.04330151188548,4.222612591403868,1.828294140922732,23.85261360786252,-2.834034023675686,9.562149454851848,6.639121203613281,-13.898337759622711,-8.785713009717988,-2.4637361852134143,-3.5178952100800305,15.834157059832316,-5.545267244664634,-1.2327985065739329,-12.121433165015244,12.170931188071648,-19.304346955128203,4.396807425213674,-3.8324949356199385,-12.928517496125668,19.612797358891108,-1.525126466081995,28.428040854224697,33.55578518585078,35.80815886422859,1577399233.0,-27.69438542923172,-51.11461750642536,8.775868
22792,1577399233.32,-0.5783748864150627,-0.7154867278308401,8.718952506758527,-0.7022602235375385,-3.3324075375440647,11.034057919385956,-3.937760989007717,-12.926586738995807,5.13915386352539,1.9097677091272864,5.420219607469512,0.3438810022865857,7.880420219607468,-2.201731612042683,-0.0673619712271341,5.664174149676068,36.41677484279725,16.000887242759145,-19.39249465811966,3.885550747863245,-4.2082297332297385,0.8363106244716825,19.79609453046953,-18.044542146555365,28.38011801000389,33.67559229640279,35.856081708449395,1577399233.0,-27.69438542923172,-51.11461750642536,8.775868
22793,1577399233.33,1.9774353858017333,0.358312716749237,2.5622629376667296,-0.7477500550805061,1.337482800590701,7.823433493116425,0.6806540134336888,-9.538791389874714,5.6024318847656245,26.812111459127287,8.243095584032012,2.2970060022865857,3.8063235399199695,-7.237132002667683,-2.0967809165396343,2.612416337176067,38.69033441310975,-29.210904749428355,-21.9487780448718,4.601310096153845,-4.884552368927366,16.450145507537332,20.895877559940057,-30.286609124049026,28.57180938688711,33.65163087429239,35.76023602000779,1577399233.0,-27.69438542923172,-51.11461750642536,8.775868
22794,1577399233.34,-0.2946619896865469,-1.0518720610827932,6.761692649580792,3.892212762302305,0.2050254153367945,12.762671518018772,-0.3368816921327164,4.395462272234661,4.007893579101562,3.801857552877287,-4.116523556592988,-0.9683748570884144,0.3578372117949695,7.472340653582317,-3.5616246665396343,18.542592118426068,50.92788324123475,-6.017545374428353,-21.9487780448718,4.601310096153845,-4.884552368927366,18.093707074175825,10.997830294705292,-31.171577821217245,28.61973223110792,33.747476562734,36.047773085332615,1577399233.0,-27.69438542923172,-51.11461750642536,8.775868
22795,1577399233.35,1.668583371641577,-0.2426318999499808,8.619593137862042,3.233807305759336,-1.1189681027296108,4.880959652784393,-5.517934084710842,-6.263523518780963,3.4428619873046875,9.264504037252289,-14.797675900342988,-2.6163240758384143,1.1207766649199695,13.240162919207316,-4.599222322789634,15.643422196551068,57.24502191310975,-11.907437952553352,-21.9487780448718,4.601310096153845,-4.884552368927366,9.875899240983376,13.563990696803195,-3.4425586432797965,28.57180938688711,33.65163087429239,35.80815886422859,1577399233.0,-27.69438542923172,-51.11461750642536,8.775868
22796,1577399233.36,2.203687442686499,-0.7298519377917781,9.973514176680402,0.8623505613745708,-0.3169105465772674,6.422825521925018,-1.852411343011624,-7.181699855450885,14.50527075805664,4.122292123189787,2.9482957793445106,-1.4261385289634143,0.5714602586699691,0.1023455363948171,0.3141077553353657,6.594960282488568,45.69411859279725,-23.27523580411585,-20.36211939102564,4.601310096153847,-4.433670611795618,13.163022374260354,13.747287868381616,-3.295063860418427,28.40407943211429,33.65163087429239,35.80815886422859,1577399233.0,-27.69438542923172,-51.11461750642536,8.775868
22797,1577399233.37,2.350930844786108,-8.564876870653105,5.1168761090534485,4.804403594821836,-6.098907555854611,12.255100766065649,7.975786471929782,16.938684769793255,24.15749475097656,-24.03017369712272,21.54875964653201,-0.6937166539634145,-6.356029975705031,6.373707841082317,-2.6460973227896343,-0.2867535846989328,-36.90170660251525,4.511019078696647,-19.128051549145297,5.010315438034185,-3.682201016576021,17.271926290856577,12.097613324175825,-4.032537774725275,28.14050378889987,33.747476562734,35.99985024111181,1577399233.0,-27.69438542923172,-51.11461750642536,8.775868
22798,1577399233.38,0.9383518652939208,1.4380976654797055,12.701706968428448,6.722159124606993,-1.497251965034298,9.609507931592988,-12.863344778070218,16.651380570574503,20.932505114746093,8.989845834127287,6.381523318407012,-1.9754549352134143,-1.2290768507050305,3.352467606707317,-0.6624547446646342,-20.97767155344893,-68.21274175876525,15.955110875571648,-19.128051549145297,5.010315438034185,-3.682201016576021,16.450145507537332,15.030368069430567,0.9822848425612848,28.475963698445504,33.699553718513194,35.66439033156618,1577399233.0,-27.69438542923172,-51.11461750642536,8.775868
22799,1577399233.39,-1.032076101014672,3.5162647064953303,15.883600974776105,-0.0917388001976936,1.502682715141482,19.9955547333508,10.709964767828218,8.657141227312785,19.055451013183596,-7.581199087747714,7.541191287157012,-2.9520174352134143,-0.8323483350800305,7.655446122332317,-2.2188512290396343,-4.711802412823933,-93.63388433689023,20.746370641196645,-19.128051549145297,5.010315438034185,-3.682201016576021,14.39569354923922,10.631235951548453,-4.032537774725275,28.428040854224697,33.699553718513194,35.856081708449395,1577399233.0,-27.69438542923172,-51.11461750642536,8.775868
22800,1577399233.4,0.3589550635361091,-3.830343087694122,9.768809934737044,-2.803172180324647,0.0924979373094513,9.311429824903534,-2.538350118646389,-23.415584212140335,-2.0542250244140625,-8.573020376810213,-1.5988233612804876,-3.623404153963415,1.1970706102324693,4.420582841082317,-3.4242955649771343,-20.04688542063643,-29.760593321265247,-0.6617104134908551,-20.802857905982904,6.135080128205129,-4.809405409405407,12.854854580515635,8.523318478396604,-20.183216498045223,28.428040854224697,33.60370803007159,35.83212028633899,1577399233.0,-27.69438542923172,-51.11461750642536,8.775868
22801,1577399233.41,-0.2850851830459219,-6.364605544969512,13.029712595869857,4.198670574802305,-2.447750024116329,3.568937143018768,11.871152573004,16.49336326100419,3.995922570800781,-8.130515493997713,-1.644599728467988,0.3438810022865854,-1.5037350538300305,7.136647294207317,1.0465296303353655,-3.338511397198933,-0.6468237900152439,-4.308560999428353,-20.71471020299145,3.1697913995726466,-4.433670611795614,14.806583940898845,9.16485857892108,-3.737548209002536,28.475963698445504,33.699553718513194,35.856081708449395,1577399233.0,-27.69438542923172,-51.11461750642536,8.775868
22802,1577399233.42,0.5073955664657958,2.146781356885956,11.858947984053447,-2.287221722560975,-2.1029849850538294,11.63979093940549,-13.753987795648342,-15.124463863019244,13.211204760742186,8.898293099752287,5.771171755907012,-3.8980623570884143,-7.393627631955031,1.6129656535823171,-0.2657262290396341,0.5677386028010671,13.025051209984756,-6.017545374428353,-20.538414797008546,5.828326121794872,-4.583964530839531,11.519460807621863,10.631235951548453,-4.032537774725275,28.428040854224697,33.699553718513194,35.856081708449395,1577399233.0,-27.69438542923172,-51.11461750642536,8.775868
22803,1577399233.43,-0.4287372826552969,0.7533559906750181,20.109366904951884,-1.6539553834496472,-1.0255942379835177,11.612257620313692,0.9511988010313448,2.9613354778010668,11.214440576171874,-13.837302603372711,-23.800361447217988,-2.2195955602134143,0.8156008836699693,4.527394364519816,0.1462610756478658,4.245106766863567,12.750393006859756,-6.4600502572408525,-20.538414797008546,5.828326121794872,-4.583964530839531,11.519460807621863,10.631235951548453,-3.737548209002536,28.428040854224697,33.60370803007159,36.047773085332615,1577399233.0,-27.69438542923172,-51.11461750642536,8.775868
22804,1577399233.44,0.8270214880966552,-1.6121152495593556,7.755286338545636,-0.3527067811547249,-6.254530663764768,9.33178053901486,4.913602548589938,17.762290140887004,17.03235061035156,3.756081185689788,12.942802615282012,-0.7394930211509144,6.217212211794969,4.267994950457317,-3.5311070884146343,14.178578446551068,3.473049256859756,1.5813315786966462,-19.921380876068376,5.930577457264956,-3.607054057054063,-16.421085825232456,10.997830294705292,-2.5575899461115803,28.4520022763351,33.65163087429239,35.856081708449395,1577399233.0,-27.69438542923172,-51.11461750642536,8.775868
22805,1577399233.45,1.285511106016577,-2.354317764207793,10.04414312565501,6.365423077243711,-1.2195245724561732,8.048488449171112,-4.3495636745545925,7.934092325945598,22.88138526611328,4.412209115377286,16.208183474657012,-0.5716463414634145,-1.4732174757050305,7.319752762957317,-2.9817906821646343,14.514271805926068,8.538967225609756,11.072298375571648,-19.833233173076923,5.41932077991453,-5.185140207015214,17.271926290856577,13.563990696803195,-3.737548209002536,28.428040854224697,33.699553718513194,35.76023602000779,1577399233.0,-27.69438542923172,-51.11461750642536,8.775868
22806,1577399233.46,-2.310579787538109,-2.3615003691882617,14.042459898115949,-0.5538197206078499,-2.663228173530393,11.318967916944551,-10.60082420922256,-24.689299495343462,12.502521069335936,-6.635154165872714,5.984794802782012,-0.9683748570884144,-3.1822018507050305,2.894703934832317,-0.7540074790396342,-4.223521162823933,-3.393405821265244,-3.637174280678354,-19.128051549145297,3.783299412393162,-3.982788854663856,19.73726864081431,13.93058503996004,0.9822848425612848,28.475963698445504,33.699553718513194,35.856081708449395,1577399233.0,-27.69438542923172,-51.11461750642536,8.775868
22807,1577399233.47,1.1322821997665775,-1.2290429839343555,13.285892173506571,-4.212159857326601,-0.2055801693800021,8.584789621046113,2.7851572727110323,2.883523923845989,18.116923962402343,6.426369271627288,2.0022508574695124,-1.5634676305259143,3.745288383669968,2.3911638957698167,0.0394495522103658,-1.156504561261432,-33.14804449314025,-4.6137367806783525,-19.304346955128203,3.5787967414529893,-3.982788854663856,-16.421085825232456,19.79609453046953,-34.71145260989011,28.4520022763351,33.48390091951957,35.80815886422859,1577399233.0,-27.69438542923172,-51.11461750642536,8.775868
22808,1577399233.48,-1.309803493592797,-3.956038674852324,12.44552739079173,-0.1396228334008186,-7.595283593452267,9.444308017042204,-0.638551101312404,9.320335087176067,11.980585107421874,-21.95497838462272,11.416923709032012,-1.1819979039634143,-5.623608100705031,5.885426591082317,-2.0052281821646343,-0.0731305378239328,-39.80087652439025,8.936067906821647,-19.833233173076923,4.601310096153845,-3.682201016576021,22.408056186601858,19.612797358891108,-32.20404130124683,28.428040854224697,33.699553718513194,35.95192739689101,1577399233.0,-27.69438542923172,-51.11461750642536,8.775868
22809,1577399233.49,0.2655811987900145,2.707024545362518,11.51897134831126,3.8275693174780874,2.774003796684451,12.049199423292208,11.456955685796968,7.5917214885432545,2.020706201171875,4.015480599752286,-11.959541134717988,-2.3416658727134143,-0.4051022413300305,1.7350359660823171,0.0089319740853658,-6.909068037823933,-21.642917540015244,4.297396031821647,-20.18582398504273,5.010315438034185,-3.682201016576021,19.120933053324883,19.612797358891108,-40.46374914148351,28.38011801000389,33.41201665318837,35.99985024111181,1577399233.0,-27.69438542923172,-51.11461750642536,8.775868
22810,1577399233.5,-2.339310207459984,-0.2665739165515433,6.218208872725323,1.4142140440405864,2.094050525200076,13.17208000190549,6.991769589605563,-0.4719497028629952,5.968744738769531,8.043800912252287,0.979911990282012,-2.5552889195884143,-6.172924506955031,7.075612137957317,-1.9136754477896345,-1.8431500690739329,-0.0975073837652439,4.877230016196647,-18.59916533119658,5.623823450854701,-4.433670611795614,16.450145507537332,15.763556755744256,-41.201223055790365,28.428040854224697,33.699553718513194,35.616467487345375,1577399233.0,-27.69438542923172,-51.11461750642536,8.775868
22811,1577399233.51,2.43951630621189,-1.9089962554187303,8.372990366865949,3.995163433689024,-0.939402978217892,7.466697445753144,2.552919711675876,0.6401569682795829,8.394071020507813,0.1397481778772866,-6.069648556592988,-3.0130525914634143,-1.1833004835175305,1.1857195598323171,-2.0052281821646343,3.131215165301067,15.130764100609758,-8.809903772865852,-19.128051549145297,5.214818108974358,-4.433670611795614,17.271926290856577,19.429500187312687,-31.761556952662723,28.76350076377033,33.699553718513194,35.80815886422859,1577399233.0,-27.69438542923172,-51.11461750642536,8.775868
22812,1577399233.52,-2.784631716249047,-4.255313882371856,9.09364506657298,0.9928345518530866,-3.695129089057736,13.710775375440646,0.261668722906345,6.456869901629192,6.093243225097656,6.456886849752286,20.60271472465701,1.7171720179115857,5.759448539919969,-14.134104658917684,2.3282679115853657,-0.5003766315739329,-5.285495665015244,-6.872037561928353,-20.36211939102564,5.21481810897436,-3.8324949356199385,10.081344436813186,19.612797358891108,-41.64370740437448,28.38011801000389,33.65163087429239,35.66439033156618,1577399233.0,-27.69438542923172,-51.11461750642536,8.775868
22813,1577399233.53,0.7970939673447021,-5.296791604539825,10.003441697432354,-5.248849176174257,-6.288049487006955,11.864845895460178,8.08591974829697,5.561438480730755,7.285555651855469,-12.128318228372711,11.783134646532012,-2.2501131383384143,2.616137993044969,0.7584734660823171,-3.5311070884146343,23.028676102801068,-16.851657774390244,7.074495641196647,-19.48064236111111,3.783299412393162,-4.2833766927516965,16.450145507537332,14.297179383116884,-4.032537774725275,28.428040854224697,33.41201665318837,35.95192739689101,1577399233.0,-27.69438542923172,-51.11461750642536,8.775868
22814,1577399233.54,-3.4310661644912344,-0.963286599657012,20.29850883610423,-2.671491089016054,-0.9549652890089084,10.797031955030487,3.3872989902403288,-6.552024818829792,6.5038488098144525,-21.25307408774772,-6.466377072217988,0.7100919397865855,-1.4884762647675318,-6.962473799542683,0.9244593178353656,10.073964188738568,16.29043206935976,3.442903844321646,-19.65693776709401,5.623823450854701,-4.734258449883449,17.271926290856577,15.763556755744256,-3.147569077557058,28.38011801000389,33.60370803007159,35.856081708449395,1577399233.0,-27.69438542923172,-51.11461750642536,8.775868
22815,1577399233.55,0.27515800543064,-0.7011215178699032,12.494608524824931,-1.1140629090844123,-4.700693786323361,1.723007663038299,-6.686304494867093,-18.751679378155963,14.168885424804689,-7.977927603372712,-5.291450314405488,-2.7994295445884143,3.8978762742949695,1.5519304973323171,-0.6929723227896342,-10.754282881573932,-9.863132383765244,-11.205533655678352,-19.21619925213675,5.930577457264956,-4.65911149036149,17.271926290856577,9.16485857892108,-4.032537774725275,28.523886542666308,33.55578518585078,35.99985024111181,1577399233.0,-27.69438542923172,-51.11461750642536,8.775868
22816,1577399233.56,0.6797780859970458,-0.2713623198718558,7.666700877119855,-3.843452801662538,0.5378194460985133,9.106725582960175,7.018105807867282,16.90756014821122,14.882357519531247,14.696632943502289,-2.285468869092988,0.0692227991615854,1.1818118211699695,-6.870921065167683,2.6944788490853657,12.683217118426068,-41.99814214939025,-14.013150843178352,-19.48064236111111,4.192304754273503,-5.185140207015214,13.9848031575796,9.898047265234768,-3.147569077557058,28.475963698445504,33.50786234162997,35.76023602000779,1577399233.0,-27.69438542923172,-51.11461750642536,8.775868
22817,1577399233.57,3.555214279844703,-1.2769270171374807,11.32743521549876,1.8571413511694923,2.2736156497117945,8.800267770460174,-3.69355241967178,6.818394352312786,5.8083332275390624,8.745705209127287,-10.189521603467988,-1.6397615758384143,-3.762035835080032,2.559010575457317,-0.0826207602896341,-5.139048506573933,-43.79867925876525,4.633089391196647,-19.128051549145297,3.783299412393162,-3.682201016576021,14.19024835340941,12.280910495754243,-1.525126466081995,28.475963698445504,33.55578518585078,35.856081708449395,1577399233.0,-27.69438542923172,-51.11461750642536,8.775868
22818,1577399233.58,-2.1908697045302965,-3.841116995164824,8.535796079756572,-0.831547113185976,-5.01433420380383,4.947997299268769,-2.0271880642030298,-9.083893074445026,0.9145850341796874,5.236183724752286,10.287773318407012,1.5645841272865857,5.027026664919969,-8.015330244855184,-0.8760777915396343,-3.124888350323933,-6.506198790015244,7.8526938833841475,-19.48064236111111,4.192304754273503,-3.682201016576021,13.163022374260354,8.798264235764236,-36.48139000422654,28.61973223110792,33.45993949740917,35.80815886422859,1577399233.0,-27.69438542923172,-51.11461750642536,8.775868
22819,1577399233.59,2.0289107214950928,-1.7809064666003718,4.989983421065167,2.0678310972632428,0.5521846560594508,10.770695736768772,-6.025504836663967,-4.96347201731612,-0.40222587890625,9.981667123189789,5.206596560594512,0.6490567835365857,3.134936821169969,6.770436356707317,-2.7986852134146343,3.863637040301067,29.99282464748476,-4.094937952553353,-19.48064236111111,4.192304754273503,-3.682201016576021,10.69768002430262,10.631235951548453,-37.07136913567202,28.35615658789349,33.747476562734,35.76023602000779,1577399233.0,-27.69438542923172,-51.11461750642536,8.775868
22820,1577399233.6,1.8170238745712648,1.1962832978039244,8.578891709639386,3.535476714939024,-3.154039513862424,2.893772274854705,-1.663269411859279,1.8073302776057536,7.539341027832031,23.485695443502287,1.498710818407012,-1.8839022008384143,1.6395754930449695,3.260914872332317,-2.7071324790396343,16.101185868426068,44.06142816310975,-13.646939905678352,-19.833233173076923,3.783299412393162,-4.583964530839531,10.69768002430262,10.631235951548453,-3.737548209002536,28.38011801000389,33.41201665318837,35.76023602000779,1577399233.0,-27.69438542923172,-51.11461750642536,8.775868
22821,1577399233.61,-0.6442154320693594,-3.340728848192168,9.304334812666731,-2.0190711366234746,-0.1157976071241419,9.3078385224133,4.125910202398533,-2.6961630451481517,20.45366478271484,8.989845834127287,8.975517459032012,0.6185392054115855,5.973071586794969,-4.398997237042683,1.1991175209603655,13.598744462176068,26.54433831935976,-8.703092249428353,-18.59916533119658,5.623823450854701,-5.03484628797129,19.942713836644124,7.881778377872128,1.4247691911453937,28.428040854224697,33.55578518585078,35.95192739689101,1577399233.0,-27.69438542923172,-51.11461750642536,8.775868
22822,1577399233.62,-0.4526792992568599,-2.8930131377429493,16.829310630537822,2.735813360446836,-2.4645094357374235,11.103489767530489,0.4376425449278299,7.743753293963175,18.108544256591795,-11.121238150247711,-0.973213009717988,-1.6702791539634143,-3.304272163205031,3.398243973894817,-2.3866979087271343,7.083241532488568,13.513332459984756,-5.712369593178354,-20.450267094017093,4.908064102564103,-3.4567601380101385,20.14815903247393,10.631235951548453,-20.25696388947591,28.523886542666308,33.67559229640279,35.71231317578698,1577399233.0,-27.69438542923172,-51.11461750642536,8.775868
22823,1577399233.63,-1.6138671044326405,1.6200569916515806,10.958728159834696,0.2434494322241803,-3.1396743039014865,9.635844149854703,-9.078111953363187,-21.66542279856612,16.101006164550782,2.3675313810022867,6.381523318407012,-1.0599275914634143,7.193774711794969,-0.9505109089176828,-0.5709020102896342,-3.430064131573933,4.541164491234756,16.504427281821645,-20.538414797008546,4.601310096153845,-3.982788854663856,23.846172557410533,13.563990696803195,-4.032537774725275,28.428040854224697,33.747476562734,35.95192739689101,1577399233.0,-27.69438542923172,-51.11461750642536,8.775868
22824,1577399233.64,-2.248330544374047,-1.0255358428210744,15.431096861006573,-2.995905413967226,1.2584741458055446,10.483391537550022,0.7237496433165013,-7.115859309796589,18.06664572753906,-14.935935415872711,-15.438545040967988,-4.142202982088414,-4.860668647580031,3.596608231707317,-0.2657262290396341,-15.179331709698932,-20.452731993140244,-1.3788734994283538,-20.538414797008546,5.41932077991453,-3.982788854663856,17.271926290856577,13.563990696803195,-1.6726212489433638,28.475963698445504,33.65163087429239,35.99985024111181,1577399233.0,-27.69438542923172,-51.11461750642536,8.775868
22825,1577399233.65,2.686119077207984,-1.607326846239043,8.490306248213605,1.1723996763648052,-2.9792627926710176,7.897653744581269,3.8769132297422826,13.773550175066692,17.810466149902343,5.114113412252286,3.5128709746570124,-1.3345857945884143,2.555102836794969,0.9720965129573172,-1.3033238852896345,6.518666337176067,-14.715427305640244,-5.895475061928353,-21.067301014957263,5.21481810897436,-4.433670611795614,-16.421085825232456,20.895877559940057,-1.0826421174978862,28.428040854224697,33.55578518585078,35.76023602000779,1577399233.0,-27.69438542923172,-51.11461750642536,8.775868
22826,1577399233.66,0.7216766150497802,0.3535243134289249,8.718952506758527,1.7098979490698831,-0.5252060910108616,4.823498812940644,-0.868394460687404,-6.194091670636434,0.7841010437011718,6.884132943502288,-3.612983517530488,-2.2348543492759143,-2.693920600705032,-6.596262862042684,-0.1741734946646341,0.8881731731135671,10.339504334984756,-0.6311928353658534,-20.00952857905983,4.396807425213674,-4.283376692751694,-12.928517496125668,19.796094530469528,-35.00644217561285,28.428040854224697,33.7235151406236,35.76023602000779,1577399233.0,-27.69438542923172,-51.11461750642536,8.775868
22827,1577399233.67,3.1505941992782964,-3.845905398485137,-0.0450226702434255,5.6567393858374615,3.621551184379763,6.889694845655487,-11.017415298089748,-1.7193287678044014,16.472107421875,13.689552865377289,-8.572089962842988,-1.4566561070884143,-5.135326850705031,4.603688309832317,-5.362161775914634,-0.1646832721989328,2.191310975609756,-11.022428186928352,-21.41989182692308,4.805812767094015,-3.8324949356199385,-13.133962691955478,19.429500187312687,-31.761556952662723,28.475963698445504,33.50786234162997,35.66439033156618,1577399233.0,-27.69438542923172,-51.11461750642536,8.775868
22828,1577399233.68,0.730056320860327,-5.258484377977325,12.687341758467513,6.458796941989805,-1.075872472846798,12.523251352003149,6.359700351324313,-3.754400178937214,24.109610717773435,-20.36806432212272,-3.078925900342988,-3.9590975133384143,-2.6634030225800305,1.9791765910823167,-0.5709020102896342,-1.2327985065739329,-14.868015196265244,-2.508023890053354,-18.77546073717949,6.237331463675212,-4.583964530839531,-13.133962691955478,19.429500187312687,-31.761556952662723,28.428040854224697,33.65163087429239,35.856081708449395,1577399233.0,-27.69438542923172,-51.11461750642536,8.775868
22829,1577399233.69,-4.144538259217797,0.4397155731945494,15.352088206221415,2.996781341403868,-1.8707474240186728,11.680492367628146,-2.2283010036561537,-15.806811336163776,5.619191296386719,7.586037240377286,18.52751941215701,2.6021817835365857,-5.409985053830031,-5.222971846417683,-0.9065953696646342,-17.376597334698932,-20.727390196265244,1.9475425161966464,-20.36211939102564,5.21481810897436,-4.13308277370778,-16.421085825232456,19.429500187312687,-29.99161955832629,28.475963698445504,33.41201665318837,36.047773085332615,1577399233.0,-27.69438542923172,-51.11461750642536,8.775868
22830,1577399233.7,1.1418590064072027,-3.392204183885528,13.078793729903056,1.754190679782774,-3.07981926239758,9.076798062208224,-1.9002953762147496,-12.168821913556355,7.734468463134765,-13.242209829935211,-1.2478712128429876,-0.7547518102134143,-2.251415717892531,6.739918778582316,-4.538187166539634,-13.058360030011432,-28.463596250952747,14.475008336509148,-19.921380876068376,5.112566773504273,-4.659111490361493,13.163022374260354,20.89587755994006,-31.761556952662723,28.428040854224697,33.48390091951957,35.9040045526702,1577399233.0,-27.69438542923172,-51.11461750642536,8.775868
22831,1577399233.71,-1.9394785302138904,0.0303070893078307,11.629104624678448,-7.355746637111757,1.7828043093797634,6.410854513624237,10.104231747808688,-15.507536128644244,8.429984045410155,6.578957162252286,8.670341677782012,-2.5552889195884143,-7.881908881955031,-15.354807783917684,4.495015958460366,-20.42835514719893,0.177150819359756,-21.550992640053355,-18.77546073717949,5.41932077991453,-4.2833766927516965,9.875899240983376,9.898047265234768,-4.032537774725275,28.475963698445504,33.50786234162997,35.856081708449395,1577399233.0,-27.69438542923172,-51.11461750642536,8.775868
22832,1577399233.72,2.480217734434546,0.6192806977062681,14.205265611006572,1.782921099704649,-1.214736169135861,8.297485421827362,-1.251466726312404,12.51659430348466,-2.9544448486328125,-4.926169790872714,-5.276191525342988,-2.7994295445884143,4.752368461794969,9.517018387957316,-6.033548494664634,18.145863602801068,25.17104730373476,-5.315641077553353,-20.18582398504273,5.41932077991453,-3.381613178488186,16.450145507537332,8.065075549450551,3.3422013683431966,28.57180938688711,33.699553718513194,35.80815886422859,1577399233.0,-27.69438542923172,-51.11461750642536,8.775868
22833,1577399233.73,2.3114265173935302,-0.8459707183093562,4.709861826826886,6.56414181503668,-5.950467052924924,0.5905502777843932,-2.17323436547256,-9.241910384015338,15.011644409179686,13.811623177877289,0.8120653105945121,-1.3498445836509143,-4.830151069455031,-7.816965987042683,-1.2728063071646345,13.202015946551068,35.60805902248475,-11.113980921303352,-19.48064236111111,4.805812767094015,-4.583964530839535,17.271926290856577,13.93058503996004,2.1622431054522404,28.4520022763351,33.699553718513194,36.047773085332615,1577399233.0,-27.69438542923172,-51.11461750642536,8.775868
22834,1577399233.74,0.8521606055282958,-0.944132986375762,13.688118052412822,0.4313942625464463,0.0374312991258571,7.508595974805877,0.3694077976133762,4.722270798845989,2.461239306640625,8.684670052877287,-5.276191525342988,-4.050650247713414,3.318042289919969,0.6669207317073162,-1.9441930259146345,15.872304032488568,43.87832269435975,-6.9178139291158525,-18.77546073717949,6.237331463675212,-4.583964530839531,0.9390332223865894,11.822667566808192,2.235990496882925,28.428040854224697,33.67559229640279,35.736274597897385,1577399233.0,-27.69438542923172,-51.11461750642536,8.775868
22835,1577399233.75,1.814629672911108,-4.724577407762481,3.946111497237042,3.4732274717749614,-2.4908456539991426,3.9759514252453294,1.1092161106016576,-9.0743162678044,7.551312036132812,-2.3626932283727133,3.970634646532013,-2.5552889195884143,-6.172924506955031,-1.3472394245426829,-3.5005895102896343,15.857045243426068,57.30605706935975,2.344271031821646,-18.77546073717949,6.237331463675212,-4.583964530839531,18.91548785749507,13.563990696803195,-1.3776316832206257,28.428040854224697,33.55578518585078,35.66439033156618,1577399233.0,-27.69438542923172,-51.11461750642536,8.775868
22836,1577399233.76,1.046090940000952,-1.2290429839343555,11.53094235661204,6.128397112888242,-0.2379018917921107,7.129115011671112,1.8873316501524384,-13.039114217023153,2.9927520751953125,-11.426413931497711,2.0480272246570124,-5.088247903963414,-5.959301460080031,6.038014481707317,-0.9371129477896342,3.009144852801067,47.96767816310975,-18.499234827553355,-19.65693776709401,5.623823450854701,-4.433670611795614,17.271926290856577,13.563990696803195,-3.737548209002536,28.092580944679067,33.65163087429239,35.856081708449395,1577399233.0,-27.69438542923172,-51.11461750642536,8.775868
22837,1577399233.77,0.9287750586532958,-2.544656796190215,10.393696568037823,4.16994015488043,-0.2929685299757044,13.88076369331174,1.4348275363829073,10.534195328875285,15.14332550048828,-6.467307486185214,14.453422732469512,-1.6550203649009143,-5.867748725705031,9.974782059832316,-2.8597203696646343,6.152455399676067,29.13833245998476,-9.404996546303352,-20.6265625,4.090053418803418,-4.809405409405414,13.9848031575796,7.698481206293707,-3.147569077557058,28.523886542666308,33.699553718513194,35.856081708449395,1577399233.0,-27.69438542923172,-51.11461750642536,8.775868
22838,1577399233.78,0.0429204443954833,0.9544689301281432,17.16928726628001,0.7258810667456651,-1.162063732612424,15.389110739210174,3.844591507330173,0.6437482707698173,21.438878765869138,-15.607322134622711,-4.940498165967988,-5.118765482088414,2.158374321169969,2.055470536394817,-1.8984166587271345,-14.279063155011432,-39.14474859470275,-11.617520960365852,-18.59916533119658,5.21481810897436,-4.433670611795614,16.450145507537332,7.698481206293707,-37.07136913567202,28.428040854224697,33.651630874292394,35.95192739689101,1577399233.0,-27.69438542923172,-51.11461750642536,8.775868
22839,1577399233.79,0.2967058203720458,-1.5929616362781056,12.850147471358136,6.264866607517148,-1.6983649044874232,18.19032668159299,1.595239047613376,12.289145145769815,17.149666491699218,5.144630990377286,17.428886599657012,-1.3345857945884143,-3.2737545850800305,17.390553544207318,-3.1648961509146343,-7.061655928448933,-70.01327886814025,23.004671422446645,-18.59916533119658,5.21481810897436,-4.433670611795614,16.450145507537332,7.698481206293707,-37.07136913567202,28.38011801000389,33.65163087429239,35.99985024111181,1577399233.0,-27.69438542923172,-51.11461750642536,8.775868
22840,1577399233.8,0.1626305274032958,-4.760490432664824,3.802459397627667,3.5522361265601177,-4.655203954780393,6.202558969190643,-1.5603187404725605,-21.236860701398157,3.632003918457031,4.473244271627286,20.87737292778201,0.4354337366615854,-4.372387397580031,10.829274247332316,-2.0662633384146343,-22.68665592844893,-59.17953863376525,21.692415563071645,-20.89100560897436,5.41932077991453,-4.2833766927516965,16.861035899196956,13.563990696803195,-34.41646304416737,28.428040854224697,33.50786234162997,35.856081708449395,1577399233.0,-27.69438542923172,-51.11461750642536,8.775868
22841,1577399233.81,-1.3086063927627194,-1.2481965972156055,10.488267533613994,-1.281657025295351,0.5078919253465601,11.19207522895627,-0.8755770656678737,-9.038403242902058,5.498284112548828,-0.2569803377477133,2.7499315215320124,-2.1890779820884143,0.1289553758574695,0.6821795207698162,-1.9289342368521345,-12.692149092511432,-15.432590391577744,0.3453696646341466,-20.538414797008546,6.032828792735044,-4.283376692751694,17.477371486686387,10.631235951548453,-35.30143174133559,28.4759636984455,33.699553718513194,35.856081708449395,1577399233.0,-27.69438542923172,-51.11461750642536,8.775868
22842,1577399233.82,-0.8405399682021719,0.7533559906750181,5.739368540694073,-0.4173502259789436,-3.381488671577268,5.790756283643768,1.7317085422422822,-21.93357338450362,3.8953661010742175,5.144630990377286,0.2169725371570121,-1.9144197789634143,-9.102612006955033,4.267994950457317,-1.3033238852896345,-8.221323897198932,4.388576600609756,-22.863248499428355,-20.71471020299145,5.623823450854701,-3.8324949356199385,16.861035899196956,12.097613324175825,0.0973161453930689,28.428040854224697,33.65163087429239,35.99985024111181,1577399233.0,-27.69438542923172,-51.11461750642536,8.775868
22843,1577399233.83,0.7180853125595458,0.482811203077362,12.807051841475324,4.098114105075743,-1.1476985226514858,12.247918161085178,1.0541494724180638,25.778077299090125,4.311957189941406,-12.555564322122711,-4.971015744092988,-4.233755716463414,-3.2737545850800305,-6.077464033917683,-0.1436559165396341,12.194935868426068,3.137355897484756,-3.423551233803354,-20.71471020299145,5.623823450854701,-3.8324949356199385,-16.421085825232456,15.763556755744256,-1.6726212489433638,28.57180938688711,33.699553718513194,35.66439033156618,1577399233.0,-27.69438542923172,-51.11461750642536,8.775868
22844,1577399233.84,-0.0696070336318594,-3.3431230498523243,11.10956286442454,-0.7046544251976936,-0.5491481076124232,15.372351327589085,-4.641656277093655,-2.981073042706745,25.910050366210932,2.8558126310022867,-2.865302853467988,-2.4332186070884143,-3.975658881955032,6.007496903582317,-3.8973180259146334,5.999867509051067,-7.421726133765244,10.431429234946648,-20.71471020299145,5.623823450854701,-3.8324949356199385,-16.215640629402646,15.21366524100899,-40.46374914148351,28.428040854224697,33.55578518585078,35.856081708449395,1577399233.0,-27.69438542923172,-51.11461750642536,8.775868
22845,1577399233.85,-0.0217230004287349,-4.7832353484363095,10.993444083906963,0.3272464903296495,-2.674002081001096,13.27862197578244,2.1195692111875952,0.3169397441584892,10.619481463623046,-12.250388540872711,10.150444216844512,-0.7242342320884144,0.3883547899199695,3.4287615520198167,-0.8455602134146343,-7.397349287823932,-17.400974180640244,0.8031333365091466,-19.65693776709401,4.805812767094015,-4.283376692751694,4.328878953578471,15.21366524100899,-36.92387435281066,28.499925120555904,33.62766945218199,35.83212028633899,1577399233.0,-27.69438542923172,-51.11461750642536,8.775868
22846,1577399233.86,0.6678070776962646,-0.6161273589343557,11.107168662764384,1.8379877378882423,-1.1476985226514858,12.511280343702364,-0.2482962307069352,-5.48061957590987,5.384559533691406,2.7337423185022867,4.977714724657012,0.4964688929115854,1.0902590867949695,2.101246903582317,-4.080423494664634,-3.979380537823933,4.510646913109756,14.063021031821648,-21.243596420940168,4.601310096153845,-4.2833766927516965,16.655590703367146,16.680042613636363,-41.64370740437448,28.428040854224697,33.55578518585078,35.856081708449395,1577399233.0,-27.69438542923172,-51.11461750642536,8.775868
22847,1577399233.87,-2.1980523095107656,-3.965615481492949,11.408838071944071,-2.0166769349633187,-4.705482189643674,7.145874423292206,2.32068215064072,-7.726380733136432,9.272743029785156,-1.1419901033727131,4.062187380907012,0.1302579554115854,1.8226809617949693,1.2162371379573171,1.1991175209603655,-14.019663740948932,-1.2876929306402438,-15.325406702553352,-21.243596420940168,4.601310096153845,-4.2833766927516965,16.450145507537332,19.429500187312687,-31.761556952662723,28.475963698445504,33.699553718513194,35.76023602000779,1577399233.0,-27.69438542923172,-51.11461750642536,8.775868
22848,1577399233.88,0.0417233435654056,-0.0594754729480281,9.225326157881574,-4.147516412502382,5.572825537407107,14.855203768995334,4.487434653082127,10.953180619402628,11.010933435058591,9.233986459127289,-5.764472775342988,-1.0141512242759143,4.569262993044969,-5.711253096417683,0.4056604897103658,-13.409312178448932,-16.790622618140244,-15.203336390053352,-20.714710202991448,4.805812767094015,-4.2833766927516965,19.73726864081431,25.29500967782218,-32.3515360841082,28.4520022763351,33.699553718513194,35.76023602000779,1577399233.0,-27.69438542923172,-51.11461750642536,8.775868
22849,1577399233.89,0.2607927954697021,-5.943226052782012,3.304465452315167,6.343875262302305,-6.06179743012219,9.262348690870333,3.541724997320407,10.19302159230302,3.5721488769531247,15.093361459127289,8.609306521532012,3.1209806116615857,-1.747875678830031,8.754078934832316,-3.8820592368521343,7.205311844988568,-3.866428282202744,4.724642125571648,-20.71471020299145,4.396807425213674,-5.335434126059131,19.73726864081431,20.529283216783217,-32.3515360841082,28.428040854224697,33.62766945218199,35.95192739689101,1577399233.0,-27.69438542923172,-51.11461750642536,8.775868
22850,1577399233.9,-1.0105282860732656,0.3152170868664244,14.164564182783916,-2.040618951564881,3.980681433403201,12.075535641553929,-0.9881045436952164,-27.416295186261436,5.72693037109375,-7.520163931497714,-6.039130978467988,-2.9214998570884143,4.996509086794969,-2.751048018292683,5.959859708460366,-3.765757490948933,26.97158441310976,6.097933141196647,-18.95175614316239,5.21481810897436,-4.13308277370778,17.6828166825162,13.563990696803195,-3.737548209002536,28.428040854224697,33.36409380896756,35.95192739689101,1577399233.0,-27.69438542923172,-51.11461750642536,8.775868
22851,1577399233.91,0.6414708594345458,4.689423519971893,9.850212791182354,-3.23532557998285,-1.3296578488233606,9.669362973096892,-2.19238797875381,-6.907563765362995,16.80250725097656,18.236672006002287,-14.797675900342988,-0.6631990758384145,6.674975883669969,3.779713700457317,-7.315286775914634,-20.82508366282393,-14.196628477515244,-12.578824671303352,-18.95175614316239,5.21481810897436,-4.13308277370778,18.093707074175825,13.93058503996004,0.6872952768385466,28.475963698445504,33.65163087429239,35.80815886422859,1577399233.0,-27.69438542923172,-51.11461750642536,8.775868
22852,1577399233.92,-0.8357515648818594,-5.1782786223620905,11.388487357832744,1.055083795017149,-2.8523701046827363,9.80822666938596,3.1586527316954074,22.419012369890908,12.023680737304687,-5.261863150247713,0.1406785918445123,-0.4037996617759143,-1.7783932569550305,-0.1875714557926829,-1.6084996665396345,22.204701493426068,-7.848972227515244,-0.8600746713033537,-19.56879006410256,4.908064102564103,-4.2082297332297385,18.093707074175825,13.93058503996004,0.6872952768385466,28.428040854224697,33.55578518585078,35.856081708449395,1577399233.0,-27.69438542923172,-51.11461750642536,8.775868
22853,1577399233.93,-4.149326662538109,-0.446139041063262,17.435043650557354,1.8954485777319927,0.8215323428270294,14.0854679352551,-5.76214265404678,-13.944122444562211,9.162609753417968,-11.273826040872711,5.099785037157012,1.5645841272865857,4.447192680544969,-1.1030987995426829,-1.5474645102896345,7.891957352801068,22.89748773342226,0.4979575552591484,-18.95175614316239,4.805812767094015,-4.433670611795614,16.861035899196956,10.997830294705295,0.6872952768385466,28.428040854224697,33.53182376374038,35.856081708449395,1577399233.0,-27.69438542923172,-51.11461750642536,8.775868
22854,1577399233.94,4.194466123106421,-2.241790286180449,8.985905991865948,-0.3574951844750374,-0.7598378537061732,4.126786129835174,2.2895575290586887,-5.435129744366901,21.64837141113281,4.595314584127286,-7.778632931592988,-0.0528475133384145,-0.2830319288300305,-1.3777570026676829,1.3211878334603655,-16.735728194073932,-14.562839415015244,-16.729215296303355,-20.00952857905983,5.21481810897436,-5.636021964146966,16.450145507537332,12.097613324175825,-2.852579511834319,28.284272321562284,33.699553718513194,35.95192739689101,1577399233.0,-27.69438542923172,-51.11461750642536,8.775868
22855,1577399233.95,-0.1893171166396719,-1.059054666063262,13.309834190108136,0.3009102720679303,-0.8125102902296107,18.099347018507054,-4.567436025628811,0.7299395305354412,13.872004418945313,6.029640756002286,-16.384589962842988,-2.9214998570884143,8.170337211794969,-9.220774580792684,2.2367151772103657,-14.233286787823932,-38.45810308689025,-8.825162561928353,-20.538414797008546,4.601310096153845,-5.485728045103049,16.655590703367146,7.881778377872128,-36.92387435281065,28.428040854224697,33.41201665318837,35.66439033156618,1577399233.0,-27.69438542923172,-51.11461750642536,8.775868
22856,1577399233.96,0.3541666602157958,-1.3403733611316218,13.184138602949933,3.977206921237852,-2.259805193794064,6.450358841016817,-0.2159745082948263,1.6433274638850517,0.1137245788574218,1.6045919278772869,0.2932664824695121,-1.0904451695884143,-2.373486030392531,11.07341487233232,-2.3104039634146343,6.091420243426068,-17.202609922827747,11.560579625571645,-20.009528579059825,5.214818108974358,-4.583964530839535,9.875899240983376,12.097613324175825,-40.31625435862215,28.499925120555904,33.62766945218199,35.856081708449395,1577399233.0,-27.69438542923172,-51.11461750642536,8.775868
22857,1577399233.97,2.233614963438452,-2.4141728057117,5.708243919112042,0.3727363218726178,0.9448337283250756,4.011864450147674,-3.253019314203029,-20.44677415354659,3.4452561889648434,14.025246224752289,15.536796755907012,1.8697599085365848,1.3649172899199695,-7.237132002667683,0.0394495522103658,4.138295243426067,24.83535394435976,6.525179234946647,-20.538414797008546,4.601310096153845,-4.2833766927516965,11.724906003451672,11.914316152597404,-0.9351473346365172,28.428040854224697,33.55578518585078,35.95192739689101,1577399233.0,-27.69438542923172,-51.11461750642536,8.775868
22858,1577399233.98,2.501765549375953,-2.146022219774199,4.729015440108136,5.8267277037085545,3.334246985161013,5.117985617139862,10.355622922125097,-7.034456453351276,24.55732642822265,8.348976693502287,-3.872382931592988,-3.7759920445884143,3.318042289919969,11.073414872332316,-3.9888707602896334,11.004750321551068,3.045803163109756,-16.332486780678355,-19.833233173076923,4.601310096153845,-3.982788854663856,16.450145507537332,7.698481206293707,-4.032537774725275,28.475963698445504,33.699553718513194,35.76023602000779,1577399233.0,-27.69438542923172,-51.11461750642536,8.775868
22859,1577399233.99,1.4722588355087645,-0.7286548369616994,8.05934994938548,4.004740240329649,-2.371135570991329,16.816054928663302,-7.25612448998428,-3.4934321979801823,12.993332409667968,12.255226693502289,-6.741035275342988,-0.5411287633384145,-3.823070991330032,4.145924637957317,0.5887659584603658,-17.010386397198932,-21.826023008765244,-18.224576624428355,-20.36211939102564,4.396807425213674,-5.335434126059131,19.73726864081431,9.898047265234768,-4.032537774725275,28.428040854224697,33.55578518585078,35.95192739689101,1577399233.0,-27.69438542923172,-51.11461750642536,8.775868
22860,1577399234.0,-1.0189079918838124,-3.103702883836699,12.25279415714915,0.916220098728087,-2.1377009091260954,15.8092931305676,-2.3480110866639667,5.916977427263958,12.612654345703124,1.8945089200647869,3.4518358184070124,0.1760343225990854,5.896777641482469,-0.9657696979801828,1.2601526772103655,4.611317704363568,-25.762790586890247,5.960604039634148,-19.921380876068376,5.317069444444443,-5.109993247493248,17.374648888771485,12.372559081543455,-20.478206063767963,28.40407943211429,33.699553718513194,35.80815886422859,1577399234.0,-27.694440119401584,-51.114697924682325,9.946298
22861,1577399234.01,-1.7000583641982654,-1.406213906785918,12.28511587956126,-0.8626717347680061,-6.084542345893674,10.840127584913304,2.2488561008360324,-8.8827801349919,-0.8068459594726562,0.6280294278772866,19.93132800590701,3.3346036585365857,11.466235649294967,9.089772294207316,0.5277308022103658,5.877797196551067,6.799465272484756,11.621614781821648,-18.77546073717949,5.41932077991453,-4.583964530839531,17.271926290856577,14.297179383116884,-3.4425586432797965,28.428040854224697,33.65163087429239,35.80815886422859,1577399234.0,-27.694440119401584,-51.114697924682325,9.946298
22862,1577399234.02,0.1626305274032958,-2.0143411284656056,7.403338694502667,0.6097622862280866,-1.274591210639767,5.084466793897675,5.387654477300876,13.43596774098466,22.27086384277344,3.618752084127287,12.973320193407012,2.1444181116615857,3.531665336794969,-2.964671065167683,-1.7916051352896345,8.319203446551068,1.1842308974847562,7.410189000571647,-18.95175614316239,4.396807425213674,-5.636021964146966,-14.777524258593967,20.162688873626376,-3.737548209002536,28.428040854224697,33.55578518585078,35.76023602000779,1577399234.0,-27.694440119401584,-51.114697924682325,9.946298
22863,1577399234.03,-0.678931356141625,-1.9473034819812307,8.866195908858135,-2.5529781068383195,1.2680509524461696,12.365234042432832,-8.355063051995998,-12.38789136546065,22.948422912597653,15.017067513814789,-7.656562619092988,0.2065519007240855,5.332202446169969,-6.138499190167683,1.2296350990853655,-3.857310225323933,-1.6233862900152438,-6.811002405678353,-20.36211939102564,5.623823450854701,-4.433670611795614,-16.421085825232456,19.429500187312687,-36.77637956994928,28.428040854224697,33.747476562734,35.80815886422859,1577399234.0,-27.694440119401584,-51.114697924682325,9.946298
22864,1577399234.04,0.7827287573837646,-0.2115072783679495,12.230049241377667,1.434564758151915,-2.0335531369092985,8.122708700635958,2.3733545871641577,-5.837355623273151,5.644330413818359,1.8487325528772869,-16.933906369092988,0.7711270960365855,9.375781547732467,0.7126970988948171,1.5653284584603655,7.083241532488568,0.6349144912347562,0.1927817740091466,-20.538414797008546,5.010315438034185,-5.185140207015214,-14.469356464849252,19.5211487731019,-35.67016869848901,28.38011801000389,33.48390091951957,35.9040045526702,1577399234.0,-27.694440119401584,-51.114697924682325,9.946298
22865,1577399234.05,-1.032076101014672,1.5673845551281431,11.00900639469798,-1.054207867580506,-2.0958023800733607,3.734137057569549,-7.995932802972561,-16.910538301495805,4.948814831542968,6.639992318502286,-6.191718869092988,0.1302579554115854,10.215014946169967,-9.403880049542684,-1.1812535727896345,12.591664384051068,17.236476991234756,-2.355435999428354,-18.95175614316239,4.396807425213674,-3.8324949356199385,-12.517627104466046,19.612797358891108,-41.34871783865174,28.428040854224697,33.41201665318837,35.80815886422859,1577399234.0,-27.694440119401584,-51.114697924682325,9.946298
22866,1577399234.06,0.4882419531845458,-1.5115587798327932,3.831189817549542,-2.3734129823266,-1.8156807858350796,5.1323508271008,10.092260739507909,21.28176658131669,-0.1771709228515625,5.907570443502286,2.1700975371570124,0.2523282679115854,4.111499321169969,0.209157059832317,0.2530725990853658,3.466908524676067,30.66421136623476,-1.5009438119283538,-19.833233173076923,3.783299412393162,-4.884552368927366,-12.517627104466046,19.612797358891108,-41.34871783865174,28.57180938688711,33.699553718513194,35.856081708449395,1577399234.0,-27.694440119401584,-51.114697924682325,9.946298
22867,1577399234.07,2.179745426084937,-1.4648718474597469,10.979078873946026,2.5562482359351177,-0.9441913815382044,8.091584079053925,-4.849951821527248,-0.5772945759098702,10.579977136230468,6.197487435689788,-12.447822384717988,-1.6397615758384143,4.447192680544969,1.8876238567073167,1.4432581459603655,17.962758134051068,32.80044183498475,1.4287436880716462,-17.893983707264955,5.21481810897436,-5.335434126059131,16.861035899196956,22.36225493256743,-40.61124392434488,28.4520022763351,33.699553718513194,35.856081708449395,1577399234.0,-27.694440119401584,-51.114697924682325,9.946298
22868,1577399234.08,-0.4311314843154532,-2.064619363328887,10.704942783858137,4.196276373142148,-1.8144836850050012,10.90477102973752,0.9116944736387668,-13.176780812482136,18.652028033447262,-5.444968618997714,-0.912177853467988,1.7476895960365857,1.5785403367949693,1.5824480754573171,-1.3948766196646345,-5.505259444073932,2.420192811547256,-12.639859827553355,-17.893983707264955,5.21481810897436,-5.335434126059131,15.32019693047337,15.305313826798203,-14.578414749313188,28.428040854224697,33.60370803007159,35.808158864228595,1577399234.0,-27.694440119401584,-51.114697924682325,9.946298
22869,1577399234.09,0.720479514219702,-1.899419448778105,8.037802134444073,-3.7117717103539447,-1.016017431342892,14.11060705268674,6.125068588629,21.42781288258622,1.7501614135742187,0.7500997403772866,4.611503787157012,-1.4566561070884143,1.8837161180449693,1.3077898723323171,2.6334436928353657,15.796010087176068,-2.355808165015244,10.095735875571648,-19.48064236111111,2.9652887286324763,-4.884552368927366,10.081344436813186,15.21366524100899,1.7197587568681325,28.428040854224697,33.41201665318837,35.99985024111181,1577399234.0,-27.694440119401584,-51.114697924682325,9.946298
22870,1577399234.1,-1.8915944970107652,0.4756285980968932,14.190900401045637,0.3176696836890241,-4.3990243771436734,8.67576928413205,2.045348959722751,-11.09262826731612,5.875370874023437,5.907570443502286,10.623466677782012,1.5035489710365857,3.6537356492949695,2.253834794207317,-0.9371129477896342,7.098500321551067,5.883937928734756,11.591097203696648,-19.304346955128203,6.0328287927350415,-4.13308277370778,16.450145507537332,14.663773726273726,3.0472118026204567,28.428040854224697,33.84332225117561,35.95192739689101,1577399234.0,-27.694440119401584,-51.114697924682325,9.946298
22871,1577399234.11,-0.7088588768935786,-2.0023701201648243,9.620369431807354,-0.401787915187928,2.18742438994617,8.017363827589081,2.0776706821348605,0.6664931865413016,11.142614526367186,0.0481954435022867,2.4294969512195124,0.5575040491615856,-0.7713131788300305,1.3535662395198171,-0.0978795493521345,-2.6671246784489324,1.4436303115472562,-7.909635218178352,-20.71471020299145,3.987802083333333,-4.13308277370778,0.0145298411524379,17.046636956793208,1.8672535397295016,28.40407943211429,33.62766945218199,35.927965974780605,1577399234.0,-27.694440119401584,-51.114697924682325,9.946298
22872,1577399234.12,2.7794929419540777,2.1060799286632994,8.200607847334698,5.331127960056211,-1.3823302853467982,7.742030636671112,0.9966886325743136,4.369126053972942,7.884106066894531,11.034523568502289,-16.293037228467988,-3.5013338414634143,0.6630129930449695,9.883229325457316,-1.7916051352896345,7.739369462176067,19.61684808498476,4.053255406821647,-20.71471020299145,3.987802083333333,-4.13308277370778,17.066481095026766,14.113882211538462,-3.000074294695689,28.475963698445504,33.55578518585078,35.80815886422859,1577399234.0,-27.694440119401584,-51.114697924682325,9.946298
22873,1577399234.13,0.3014942236923583,-2.926531960985137,9.287575401045636,-0.0007591371117569,-7.29361418427258,2.323952279737518,-8.371822463617093,-37.44321173899581,22.732944763183596,4.686867318502286,0.1864549590320121,1.0763028772865857,0.2662844774199695,-8.061106612042684,-0.8150426352896342,-4.131968428448933,18.73183831935976,-11.998990686928352,-19.128051549145297,4.601310096153845,-3.982788854663856,15.217474332558467,10.631235951548453,-3.4425586432797965,28.475963698445504,33.65163087429239,35.80815886422859,1577399234.0,-27.694440119401584,-51.114697924682325,9.946298
22874,1577399234.14,1.7607601355575926,-1.997581716844512,6.692260801436261,-1.2960222352562871,-0.7885682736280482,6.054118466260956,14.816020614996187,27.03024476735185,1.5155296508789062,0.2007833341272862,7.007133669969512,-0.5716463414634144,1.2123293992949695,-6.230051924542683,1.5348108803353655,-9.716685225323932,3.228908631859756,-8.550504358803353,-18.68731303418803,5.112566773504273,-4.659111490361494,17.066481095026766,9.3481557504995,-38.103832615701606,28.428040854224697,33.747476562734,35.95192739689101,1577399234.0,-27.694440119401584,-51.114697924682325,9.946298
22875,1577399234.15,-1.7120293724990467,-0.4700810576648245,6.500724668623761,-0.9596369020043354,-1.407469402778439,9.41677469795041,-4.049091366204984,-6.195288771466511,19.06861912231445,11.614357552877289,10.318290896532012,1.0152677210365857,2.249927055544969,-2.659495283917683,-1.3948766196646345,8.426014969988568,16.504055116234756,3.5649741568216475,-18.59916533119658,3.5787967414529875,-4.13308277370778,17.271926290856577,8.431669892607394,-39.28379087859256,28.428040854224697,33.62766945218199,35.784197442118185,1577399234.0,-27.694440119401584,-51.114697924682325,9.946298
22876,1577399234.16,0.2943116187118895,2.390989926221893,11.255609165694072,2.8004568052710552,-1.2769854122999231,9.125879196241424,6.414766989507907,12.078455399676066,-2.0566192260742184,-3.4613260408727133,-7.595527462842988,-3.6234041539634143,-1.9920163038300305,5.275075028582317,-1.6390172446646345,13.018910477801068,36.21841058498475,0.8183921255716463,-18.59916533119658,3.5787967414529875,-4.13308277370778,16.450145507537332,7.698481206293707,-36.77637956994928,28.76350076377033,33.55578518585078,35.95192739689101,1577399234.0,-27.694440119401584,-51.114697924682325,9.946298
22877,1577399234.17,1.3501545508407955,-4.485157241746856,10.896478916670636,-3.343064654689882,-2.340010949409298,3.578513949659393,-7.48596784935928,-26.935060652570023,12.59589493408203,-17.468894400247713,-6.557929806592988,-0.3275057164634145,4.752368461794969,-8.244212080792684,-1.7916051352896345,-0.6834821003239329,39.66689691310975,-4.705289515053353,-19.128051549145297,3.783299412393162,-5.185140207015214,16.450145507537332,7.698481206293707,-36.1864004385038,28.475963698445504,33.55578518585078,35.99985024111181,1577399234.0,-27.694440119401584,-51.114697924682325,9.946298
22878,1577399234.18,1.0951720740341555,-1.778512264940215,9.819088169600322,-2.9073199525414446,2.55134304228992,10.220029354932834,4.566443307867282,-2.298725569562214,14.22395206298828,-3.186667837747712,5.328666873094511,-1.7007967320884143,-10.018139350705033,0.8805437785823171,1.5042933022103655,2.246205399676067,12.597805116234756,-10.686734827553352,-19.48064236111111,5.828326121794872,-4.433670611795614,16.450145507537332,13.563990696803195,-40.90623349006763,28.284272321562284,33.55578518585078,35.80815886422859,1577399234.0,-27.694440119401584,-51.114697924682325,9.946298
22879,1577399234.19,0.1027754858993895,0.2697272553234557,9.218143552901106,1.9744572325171488,-0.6772378964307826,8.80385907295041,-1.366388405999906,1.2015972575862237,2.8215666564941406,17.809425912252287,4.062187380907012,1.9002774866615848,0.2968020555449695,3.9323015910823167,-0.6777135337271344,5.526845048113567,3.045803163109756,0.9252036490091466,-18.95175614316239,3.987802083333333,-4.13308277370778,18.504597465835445,13.563990696803195,-19.077005626584956,28.57180938688711,33.74747656273399,35.95192739689101,1577399234.0,-27.694440119401584,-51.114697924682325,9.946298
22880,1577399234.2,0.6797780859970458,-1.164399539110137,8.119204990889386,-0.3048227479515999,-6.596901501167111,1.5745671601086118,-0.7319249660584977,-12.70153178294112,8.674192614746094,-10.114158072122711,-2.590644650342988,-2.7078768102134143,2.524585258669969,-3.849680830792683,-1.3338414634146345,-10.876353194073932,14.093166444359756,-0.3717934213033537,-18.95175614316239,3.987802083333333,-4.13308277370778,-13.955743475274724,19.429500187312687,-4.032537774725275,28.475963698445504,33.65163087429239,35.76023602000779,1577399234.0,-27.694440119401584,-51.114697924682325,9.946298
22881,1577399234.21,-0.8094153466201407,-5.078919253465606,7.544596592451885,0.0543075010718366,-2.4980282589796112,4.687029318311737,2.521795090093845,19.16289811207841,0.7517793212890624,-3.0951151033727133,10.379326052782012,-0.2359529820884145,-12.917309272580033,8.845631669207316,-6.827005525914634,-14.294321944073932,13.391262147484756,-2.996305140053354,-19.128051549145297,3.783299412393162,-3.982788854663856,-13.750298279444912,19.612797358891108,-3.8850429918639056,28.38011801000389,33.50786234162997,35.76023602000779,1577399234.0,-27.694440119401584,-51.114697924682325,9.946298
22882,1577399234.22,2.5723944983505618,1.7265989655285343,9.560514390303448,2.0750137022437114,2.983496441948123,9.1163023896008,-3.5008191860292013,-5.284295039777057,10.424354028320312,1.8487325528772864,-1.522529415967988,-2.1585604039634143,-5.959301460080032,4.695241044207317,0.4209192787728657,-6.939585615948932,4.968410584984758,-9.298185022865852,-19.392494658119656,3.681048076923075,-4.358523652273652,-14.674801660679062,16.954988371003996,-36.40764261279586,28.40407943211429,33.62766945218199,35.83212028633899,1577399234.0,-27.694440119401584,-51.114697924682325,9.946298
22883,1577399234.23,-1.407965761659203,-1.956880288621856,12.098368150069073,-1.834717608791444,-1.6600576779249232,3.463592269971893,7.556801181402438,5.216673441668255,-9.162609753417968,-4.407370962747714,4.092704959032012,-2.4332186070884143,-1.3206295850800305,5.030934403582317,-2.3104039634146343,-0.1952008503239328,-10.107273008765244,8.844515172446647,-19.304346955128203,4.805812767094015,-5.03484628797129,23.02439177409129,16.496745442057946,-40.90623349006763,28.475963698445504,33.55578518585078,35.95192739689101,1577399234.0,-27.694440119401584,-51.114697924682325,9.946298
22884,1577399234.24,0.3517724585556395,-3.338334646532012,5.315594846846417,3.106914617771055,-10.001456261909295,5.5537303192883,-4.203517373285061,-14.949687141827836,-3.208230224609375,3.4051290372522867,11.081230349657012,-1.3040682164634143,-4.250317085080031,-0.7368878620426829,-0.2046910727896341,-12.402232100323932,6.280666444359756,4.480501500571647,-19.304346955128203,4.805812767094015,-5.03484628797129,15.012029136728652,20.3459860452048,-31.02408303835588,28.38011801000389,33.50786234162997,35.99985024111181,1577399234.0,-27.694440119401584,-51.114697924682325,9.946298
22885,1577399234.25,-2.0065161766982653,-7.441996292039825,10.652270347334698,-7.248007562404726,-0.9417971798780482,16.799295517042207,8.0787371433165,12.128733634539348,5.063736511230468,-30.49990025962272,22.67791003715701,-2.1585604039634143,-4.250317085080031,-7.511790205792683,1.2601526772103655,3.466908524676067,22.48550042873476,4.999300328696647,-18.59916533119658,3.987802083333333,-3.8324949356199385,11.930351199281484,19.429500187312687,-29.99161955832629,28.475963698445504,33.699553718513194,35.99985024111181,1577399234.0,-27.694440119401584,-51.114697924682325,9.946298
22886,1577399234.26,-1.1122818566299062,3.5725284455090023,9.950769260908915,-0.329961865383241,0.6311933108446072,11.438677999952365,-1.3424463893983427,-8.077131276349323,9.16739815673828,-6.680930533060212,1.7428514434070124,-1.2277742711509143,-1.5800289991425305,14.750783036394818,-3.3785191977896343,-7.000620772198932,17.46535882717226,-14.013150843178355,-19.56879006410256,5.521572115384616,-3.75734797609798,14.806583940898845,17.046636956793208,-30.4341039069104,28.40407943211429,33.67559229640279,35.95192739689101,1577399234.0,-27.694440119401584,-51.114697924682325,9.946298
22887,1577399234.27,0.4212043067001708,-2.952868179246856,11.210119334151104,-0.0869503968773811,-4.542676476753049,13.291790084913302,3.635098862066501,14.0249413493831,11.877634436035155,-7.367576040872714,-11.288154415967988,-2.6468416539634143,-0.0999264600800304,-6.718333174542683,1.0160120522103655,8.868519852801068,11.041408631859756,7.837435094321647,-19.65693776709401,6.441834134615387,-4.13308277370778,9.875899240983376,13.563990696803195,-1.9676108146661029,28.475963698445504,33.747476562734,35.856081708449395,1577399234.0,-27.694440119401584,-51.114697924682325,9.946298
22888,1577399234.28,-1.1709397973037343,-3.812386575242949,5.892597446944073,-1.015900641018006,0.4731760012742945,5.910466366651581,-5.508357278070218,-19.86977155344893,9.51216319580078,-10.907615103372711,8.395683474657012,0.6185392054115855,-8.248119819455031,-0.2486066120426829,-3.6531774009146334,-9.564097334698932,-2.691501524390244,-2.599576624428354,-19.65693776709401,6.441834134615387,-4.13308277370778,11.519460807621863,13.563990696803195,-3.147569077557058,28.38011801000389,33.50786234162997,35.66439033156618,1577399234.0,-27.694440119401584,-51.114697924682325,9.946298
22889,1577399234.29,0.4451463233017337,-1.9724425994128711,7.982735496260479,2.0582542906226178,-4.238612865913205,9.001380709913299,5.097956076421969,-1.8055200275700265,11.049240661621091,-2.3779520174352133,0.0643846465320123,-0.6479402867759144,-3.639965522580032,1.1552019817073171,-3.7142125571646334,-20.24524967844893,-5.865329649390244,-7.177213343178353,-20.273971688034187,5.521572115384614,-4.057935814185818,11.519460807621863,13.563990696803195,-3.147569077557058,28.428040854224697,33.55578518585078,35.856081708449395,1577399234.0,-27.694440119401584,-51.114697924682325,9.946298
22890,1577399234.3,-0.9913746727920156,0.2050838104992369,9.062520444990948,-0.8566862306176166,-0.8089189877393772,6.469512454298065,2.3889168979551734,-2.4627283832829168,11.411962213134766,10.607277474752289,4.001152224657012,0.9542325647865856,-4.830151069455031,-4.124339033917683,-0.5709020102896343,-7.214243819073932,3.213649842797256,5.716463414634148,-21.41989182692308,5.21481810897436,-4.13308277370778,11.519460807621863,13.563990696803195,-3.147569077557058,28.475963698445504,33.819360829065204,35.71231317578698,1577399234.0,-27.694440119401584,-51.114697924682325,9.946298
22891,1577399234.31,1.5584500952743896,2.6256216889172057,13.61389780094798,-1.327146856838319,1.4955001101610133,12.762671518018772,-7.948048769769436,-9.179661140851277,11.133037719726564,-0.0738748689977134,-11.074531369092988,-5.088247903963414,-3.762035835080032,-3.941233565167683,1.9620569740853653,-20.76404850657393,-13.616794493140244,-9.618619593178352,-20.18582398504273,5.41932077991453,-3.682201016576021,16.861035899196956,10.631235951548453,0.6872952768385466,28.57180938688711,33.50786234162997,35.856081708449395,1577399234.0,-27.694440119401584,-51.114697924682325,9.946298
22892,1577399234.32,0.4451463233017333,-0.7861156768054495,9.543754978682356,1.4980111021460552,-0.4150728146436732,6.837022409132049,3.587214828863376,18.715182401629196,9.457096557617186,0.7500997403772866,-4.635322384717988,0.3438810022865854,-1.8394284132050305,7.075612137957317,-2.4629918540396343,-2.514536787823933,-25.823825743140244,3.168245641196646,-20.18582398504273,5.41932077991453,-3.682201016576021,-16.421085825232456,10.631235951548453,-2.852579511834319,28.284272321562284,33.55578518585078,35.95192739689101,1577399234.0,-27.694440119401584,-51.114697924682325,9.946298
22893,1577399234.33,-0.4407082909560786,-4.011105313035918,7.72655591862376,1.3878778257788678,-6.302414696967892,0.2936692719250182,2.7588210544493137,-13.9393340412419,11.001356628417968,-11.960471548685211,7.571708865282012,-1.1514803258384143,-10.231762397580033,-0.7979230182926829,-1.4253941977896345,-14.263804365948932,-40.80795660251525,4.419466344321647,-19.92138087606837,5.112566773504273,-3.907641895141901,-15.804750237743024,11.181127466283716,-3.8850429918639056,28.33219516578309,33.41201665318837,35.76023602000779,1577399234.0,-27.694440119401584,-51.114697924682325,9.946298
22894,1577399234.34,-0.7399834984756094,-2.8068218779773244,5.552620811201885,-2.190256555324648,-1.7354750302198458,13.806543441846896,2.637913870611423,6.550243766375286,11.608286749267576,3.649269662252287,13.156425662157012,2.4495938929115857,-4.601269233517531,-7.054026533917684,1.1533411537728655,-9.86927311594893,-43.56979742282775,3.5497153677591475,-20.36211939102564,3.987802083333333,-4.13308277370778,12.54668678677092,11.181127466283716,-36.62888478708791,28.38011801000389,33.53182376374038,35.736274597897385,1577399234.0,-27.694440119401584,-51.114697924682325,9.946298
22895,1577399234.35,-1.417542568299828,0.3774663300304869,12.261173862959698,-3.084490875393007,-0.5706959225538294,10.397200277784396,7.425120090093844,1.821695487566691,-9.749189160156249,-10.144675650247711,-17.055976681592988,-2.0975252477134143,-5.989819038205031,7.441823075457317,0.3446253334603658,-5.901987959698933,-7.574314024390244,11.438509313071648,-18.95175614316239,3.987802083333333,-3.8324949356199385,18.093707074175825,10.631235951548453,-3.4425586432797965,28.38011801000389,33.65163087429239,35.80815886422859,1577399234.0,-27.694440119401584,-51.114697924682325,9.946298
22896,1577399234.36,-1.9035655053115468,3.5713313446789243,14.08555552799876,-2.746908441310976,-5.311215209663205,9.980609188917208,-7.06458835717178,-11.66723666575362,0.2633621826171874,4.076515756002286,-0.6070020722179879,1.6256192835365857,2.097339164919969,-7.908518721417683,-1.5474645102896345,2.337758134051067,25.47622308498476,6.342073766196647,-18.95175614316239,3.987802083333333,-3.8324949356199385,20.76449461996337,11.181127466283716,-1.2301369003592555,28.38011801000389,33.84332225117561,35.95192739689101,1577399234.0,-27.694440119401584,-51.114697924682325,9.946298
22897,1577399234.37,1.7344239172958738,-3.954841574022247,5.308412241865948,2.034312274021055,-2.6261180477979704,8.659009872510957,0.5537613254454079,-2.2304908222477606,11.906364855957031,-5.322898306497712,-3.246772580030488,-1.7465730992759143,-5.944042671017531,-2.415354658917683,-0.3115025962271345,2.703969071551068,24.75905999904726,-17.81258931974085,-19.65693776709401,4.601310096153847,-4.283376692751694,21.380830207452806,13.563990696803195,-4.032537774725275,28.499925120555908,33.60370803007159,35.83212028633899,1577399234.0,-27.694440119401584,-51.114697924682325,9.946298
22898,1577399234.38,2.039684628965796,-4.317563125535918,6.953228782393292,6.918483660739805,-2.4669036373975803,5.278397128370331,-5.637644167718655,-18.04060148508956,5.3390697021484375,6.365334115377286,-6.313789181592988,-0.5106111852134145,-4.219799506955031,5.091969559832317,-2.4629918540396343,15.551869462176068,60.81557855373475,-1.4704262338033538,-19.833233173076923,6.237331463675212,-5.485728045103049,18.093707074175825,19.429500187312687,-34.12147347844463,28.14050378889987,33.41201665318837,35.856081708449395,1577399234.0,-27.694440119401584,-51.114697924682325,9.946298
22899,1577399234.39,1.572815305235327,0.2769098603039244,10.393696568037823,-2.0142827333031623,-0.2666323117139857,3.4109198334484554,0.23293830298447,-11.37993246653487,7.046135485839844,9.203468881002289,-2.132880978467988,-1.8839022008384143,-10.628490913205033,-5.863840987042683,-0.6319371665396342,8.166615555926068,43.72573480373475,-0.3717934213033537,-20.36211939102564,4.805812767094015,-5.636021964146966,19.942713836644124,15.21366524100899,0.8347900596999165,28.61973223110792,33.41201665318837,35.99985024111181,1577399234.0,-27.694440119401584,-51.114697924682325,9.946298
22900,1577399234.4,0.8569490088486083,0.6312517060070494,13.10872125065501,-2.160329034572693,1.7301318728563255,9.803438266065642,5.641439853277438,-5.236411006573932,15.363592053222655,-3.2782205721227133,-0.6680372284679879,-1.0904451695884143,-1.4426998975800305,-9.586985518292684,2.6944788490853657,-4.131968428448933,13.421779725609756,-13.311246546303352,-18.95175614316239,3.987802083333333,-5.636021964146966,-16.421085825232456,19.429500187312687,-4.032537774725275,28.475963698445504,33.65163087429239,35.856081708449395,1577399234.0,-27.694440119401584,-51.114697924682325,9.946298
22901,1577399234.41,0.1315059058212651,-3.650777963182403,9.802328757979229,5.308383044284727,-1.937785070503049,7.896456643751192,4.971063388433688,0.7239540263850495,5.42047255859375,-9.625876822122711,6.167900271532012,-0.5716463414634144,-7.439403999142531,9.471242020769816,-2.7223912681021343,4.626576493426067,30.557399842797253,3.610750524009146,-19.56879006410256,3.681048076923075,-4.959699328449331,-13.5448530836151,19.612797358891108,-4.032537774725275,28.428040854224697,33.53182376374038,35.927965974780605,1577399234.0,-27.694440119401584,-51.114697924682325,9.946298
22902,1577399234.42,2.1809425269150147,-0.130104421922637,7.2548981915729795,-2.3207405458031625,0.4133209597703882,7.325439547803924,1.1283697238829076,-3.498220601300495,3.2130186279296877,-2.3016580721227133,13.705742068407012,0.3133634241615854,-3.701000678830032,-8.335764815167684,3.4269007240853657,0.7508440715510671,31.91543206935976,4.572054234946647,-19.833233173076923,4.601310096153845,-3.982788854663856,-13.133962691955478,19.79609453046953,-3.4425586432797965,28.428040854224697,33.65163087429239,35.99985024111181,1577399234.0,-27.694440119401584,-51.114697924682325,9.946298
22903,1577399234.43,-0.0073577904677969,-1.154822732469512,10.307505308272198,-1.8466886170922248,-3.683158080756955,1.1316398529797056,3.6111568454649383,-15.36388402903487,20.702661755371093,-10.693992056497711,-1.583564572217988,-0.2359529820884145,0.4188723680449695,7.106129716082317,-2.4935094321646343,-10.204966475323932,5.243068788109756,-18.499234827553355,-20.89100560897436,5.41932077991453,-4.583964530839531,16.450145507537332,19.79609453046953,-32.3515360841082,28.61973223110792,33.699553718513194,35.80815886422859,1577399234.0,-27.694440119401584,-51.114697924682325,9.946298
22904,1577399234.44,0.3122681311630624,-2.717039315721465,8.841056791426494,6.3534520689429295,-0.4940814694288294,5.467539059522674,11.32288039282822,16.567583512469035,20.884621081542967,-0.6079324861852111,-3.124702267530488,-2.1585604039634143,-14.626293647580033,8.815114091082316,-1.1812535727896345,11.920277665301068,-18.499606993140244,-8.825162561928353,-18.95175614316239,4.396807425213674,-4.433670611795614,16.450145507537332,19.429500187312687,-32.3515360841082,28.523886542666308,33.41201665318837,35.856081708449395,1577399234.0,-27.694440119401584,-51.114697924682325,9.946298
22905,1577399234.45,-1.4534555932021718,-0.2953043364734183,9.926827244307354,-3.019847430568788,-1.1333333126905485,13.825697055128146,-3.083030996331936,-2.413647249249714,18.139668878173826,-7.214988150247714,17.184745974657012,-1.2430330602134143,-5.699902046017531,-6.214793135480184,1.4890345131478655,-18.64307682688643,-60.55282964939025,10.996004430259148,-19.65693776709401,6.0328287927350415,-3.231319259444269,16.861035899196956,22.72884927572428,-31.024083038355872,28.475963698445504,33.699553718513194,35.95192739689101,1577399234.0,-27.694440119401584,-51.114697924682325,9.946298
22906,1577399234.46,-1.2427658471084218,-1.614509451219512,13.029712595869857,1.2011300962866802,-0.4007076046827356,9.382058773878144,9.66130444067978,17.20204695241044,13.941436267089845,-20.42909947837272,6.106865115282012,1.0763028772865857,0.7545657274199695,12.873951981707316,0.1920374428353658,-29.27845280344893,-84.47861089939025,19.281526891196645,-21.243596420940168,5.828326121794872,-5.185140207015214,9.875899240983376,18.32971715784216,-29.696629992603548,28.38011801000389,33.55578518585078,35.80815886422859,1577399234.0,-27.694440119401584,-51.114697924682325,9.946298
22907,1577399234.47,0.4307811133407958,-4.873017910692168,10.33144732487376,4.509916790622618,-5.337551427924923,11.10348976753049,-3.4349786403749047,-19.908078780011436,0.8690952026367187,-12.616599478372711,5.313408084032012,-0.3885408727134145,-7.576733100705031,2.070729325457317,1.3822229897103655,-31.23157780344893,-61.10214605564025,20.197054234946645,-20.36211939102564,4.805812767094015,-2.930731421356421,11.10857041596224,13.563990696803195,-3.4425586432797965,28.475963698445504,33.747476562734,35.76023602000779,1577399234.0,-27.694440119401584,-51.114697924682325,9.946298
22908,1577399234.48,-1.2786788720107656,1.44168896796994,9.906476530196024,-2.3542593690453497,4.042930676567263,18.57339894721799,6.828963876714938,13.701724125262004,-13.448230725097655,1.8334737638147869,-1.4920118378429876,1.3662198694740857,-5.318432319455031,-4.215891768292683,-3.3174840415396343,-12.066538740948932,-2.477878477515244,6.372591344321647,-20.18582398504273,3.783299412393162,-3.0810253404003385,16.450145507537332,13.93058503996004,4.522159631234151,28.4759636984455,33.55578518585078,35.66439033156618,1577399234.0,-27.694440119401584,-51.114697924682325,9.946298
22909,1577399234.49,0.6271056494736083,-4.916113540574981,6.033855344893292,0.2602088438452745,-4.625276434028439,5.053342172315643,-0.2925889614198272,2.332857542010052,5.615599993896484,-2.8509744783727133,-6.161201290967988,-0.2054354039634145,4.096240532107469,0.5143328410823171,-1.2422887290396345,6.976430009051068,18.68606195217226,-17.20223775724085,-19.833233173076923,5.828326121794872,-4.583964530839531,17.271926290856577,14.663773726273725,2.457232671174979,28.428040854224697,33.67559229640279,35.808158864228595,1577399234.0,-27.694440119401584,-51.114697924682325,9.946298
22910,1577399234.5,3.603098313047828,-5.488327737352325,0.4266350568073546,8.52978137802496,-2.028764733588986,8.474656344678925,3.6853770969297823,3.160054215594036,7.802703210449218,2.6727071622522867,-0.1797559784679878,-2.2806307164634143,-14.809399116330033,-0.3706769245426829,-1.9747106040396345,14.178578446551068,22.02773675685976,13.025423375571648,-20.89100560897436,3.783299412393162,-4.2833766927516965,-16.421085825232456,13.197396353646353,1.867253539729502,28.428040854224697,33.55578518585078,35.856081708449395,1577399234.0,-27.694440119401584,-51.114697924682325,9.946298
22911,1577399234.51,-1.4821860131240467,-0.6735881987781057,13.094356040694072,0.2530262388648053,2.769215393364138,18.79605970161252,-6.418153908929592,-28.6110018146794,21.588516369628906,1.2078634122522869,-5.337226681592988,1.4425138147865857,-10.323315131955033,-6.443674971417683,-0.5098668540396342,-12.768443037823932,-14.959567930640244,1.4897788443216462,-19.65693776709401,5.21481810897436,-4.13308277370778,19.73726864081431,10.631235951548453,-1.6726212489433638,28.57180938688711,33.699553718513194,35.95192739689101,1577399234.0,-27.694440119401584,-51.114697924682325,9.946298
22912,1577399234.52,-1.3445194176650626,-2.424946713182403,15.314978080488997,1.3842865232886332,-5.424939788520626,14.6600763336926,7.657357651129002,10.42885045582841,17.34479392700195,-10.953391470560211,3.2534715605945124,-0.6784578649009143,5.759448539919968,3.611867020769817,1.4432581459603655,-5.947764326886432,-36.81015386814025,7.745882359946646,-19.304346955128203,3.5787967414529875,-4.13308277370778,18.915487857495062,11.54772180944056,-35.15393695847422,28.35615658789349,33.7714379848444,35.927965974780605,1577399234.0,-27.694440119401584,-51.114697924682325,9.946298
22913,1577399234.53,-2.1334088646865466,-2.5267002837390438,4.872667539717511,1.2514083311499615,-0.9417971798780482,9.05884154975705,-2.8220630153749044,-14.279310676984087,14.566322900390624,-12.647117056497711,22.43376941215701,2.1139005335365857,-4.097729194455031,-10.624583174542684,-4.873880525914634,3.924672196551067,-38.85483160251525,12.231966344321648,-18.77546073717949,4.601310096153845,-3.682201016576021,16.450145507537332,8.065075549450551,-36.77637956994928,28.428040854224697,33.55578518585078,36.14361877377422,1577399234.0,-27.694440119401584,-51.114697924682325,9.946298
22914,1577399234.54,-3.636967507264672,-3.704647500535918,14.96662173893626,-8.600731500393007,2.527401025688357,17.996396347120335,1.027813254156345,1.19680885426591,0.3303998291015624,-35.44374791587271,-12.417304806592988,-3.5318514195884143,2.036304008669969,-1.1641339557926829,-0.7234899009146342,-27.75257389719893,-4.308933165015244,-10.717252405678352,-18.95175614316239,3.987802083333333,-4.734258449883449,16.450145507537332,8.065075549450551,-36.77637956994928,28.38011801000389,33.65163087429239,35.856081708449395,1577399234.0,-27.694440119401584,-51.114697924682325,9.946298
22915,1577399234.55,0.968279386045874,-0.7322461394519344,11.36693954289134,3.027905962985898,-5.49317453583508,-1.6743644927234185,10.168875192632909,16.04085914723466,-4.534617944335937,-2.6831277986852125,-14.004218869092988,-0.8310457555259143,9.085864555544967,11.622731278582316,0.1004847084603658,20.129506180926068,41.80312738185975,2.496858922446646,-19.92138087606837,5.726074786324786,-3.607054057054063,16.450145507537332,14.297179383116884,-35.89141087278106,28.499925120555904,33.65163087429239,35.80815886422859,1577399234.0,-27.694440119401584,-51.114697924682325,9.946298
22916,1577399234.56,2.1809425269150147,0.4253503632336119,5.827954002119855,1.174793878024962,-0.5060524777296116,4.731322049024628,-5.610110848626858,-30.58023268015792,7.352593298339843,17.229591927877287,-20.626533322217988,-0.8463045445884145,-0.8476071241425305,-12.592966963605182,-0.2046910727896344,22.982899735613568,95.42251214748477,-12.777188929115855,-20.18582398504273,6.646336805555557,-3.682201016576021,18.40187486792054,12.922450596278718,-3.9587903832945903,28.61973223110792,33.60370803007159,35.80815886422859,1577399234.0,-27.694440119401584,-51.114697924682325,9.946298
22917,1577399234.57,2.322200424864233,-1.8970252471179492,5.234191990401104,2.1420513487280863,1.538595740043826,6.887300643995331,3.3046990329649386,4.304482609148724,30.260314782714843,15.734230599752289,1.315605349657012,-0.1138826695884145,-5.013256538205031,27.36980159108232,-2.7071324790396343,13.781849930926068,40.09414300685975,-27.044156702553355,-20.18582398504273,6.646336805555557,-3.682201016576021,22.81894657826148,12.280910495754243,-3.8850429918639056,28.284272321562284,33.55578518585078,35.856081708449395,1577399234.0,-27.694440119401584,-51.114697924682325,9.946298
22918,1577399234.58,3.593521506407203,-5.991110085985137,5.250951402022198,3.298450750583555,-8.064547118842892,5.225724691846893,-3.810868301019436,32.67098387867997,21.686678637695312,0.7500997403772866,0.0033494902820121,-0.8768221227134145,-5.074291694455031,5.824391434832317,1.5042933022103655,2.337758134051067,-24.175876524390244,9.454866734946648,-18.42286992521367,4.192304754273503,-5.78631588319089,18.093707074175825,19.79609453046953,-4.032537774725275,28.428040854224697,33.50786234162997,35.856081708449395,1577399234.0,-27.694440119401584,-51.114697924682325,9.946298
22919,1577399234.59,-1.3038179894424062,-1.3008690337390432,14.196885905196028,2.1324745420874613,-3.73104211396008,14.182433102491428,7.061201437750095,-8.02805014231612,12.43548342285156,-9.976828970560211,16.147148318407012,1.3814786585365857,-1.8699459913300305,-17.430003096417682,3.2743128334603657,-16.094859053448932,-61.74301519626525,27.704378453696645,-19.128051549145297,4.192304754273503,-4.13308277370778,21.58627540328261,18.51301432942057,-3.8850429918639056,28.4520022763351,33.747476562734,36.047773085332615,1577399234.0,-27.694440119401584,-51.114697924682325,9.946298
22920,1577399234.6,-3.2227706200576405,-3.3167868315906057,11.712901682783915,1.52674152206793,-0.0870671872022674,17.579805258253145,-7.145991213617092,1.1656842326838797,24.683022015380857,-15.424216665872711,9.952079959032012,0.8321622522865855,-3.990917671017531,9.730641434832316,-3.3937779868521343,-49.64893620188643,-77.76474371189025,11.972566930259148,-19.65693776709401,3.987802083333333,-3.231319259444269,-14.98296945442378,18.696311500999,-37.071369135672015,28.428040854224697,33.699553718513194,35.83212028633899,1577399234.0,-27.694440119401584,-51.114697924682325,9.946298
22921,1577399234.61,-2.9234954125381094,2.0318596771984554,11.337012022139383,0.3176696836890241,-1.6313272580030482,9.920754147413303,-5.271331313714748,-21.69175901682784,0.4141968872070312,10.698830209127289,2.1700975371570124,0.1302579554115854,1.7006106492949695,-1.8355206745426829,-1.1202184165396345,-22.19837467844893,-45.11093511814025,3.473421422446646,-19.65693776709401,3.987802083333333,-3.231319259444269,-16.215640629402646,15.580259584165836,-40.46374914148351,28.38011801000389,33.36409380896756,36.047773085332615,1577399234.0,-27.694440119401584,-51.114697924682325,9.946298
22922,1577399234.62,-0.8932124047256094,-3.311998428270293,6.819153489424542,-3.910490448146913,-6.180310412299924,10.033281625440646,3.888884238043064,-9.639347859601276,0.507570751953125,-8.069480337747713,-4.574287228467988,-2.6163240758384143,-0.1609616163300304,-2.659495283917683,-2.2188512290396343,-15.789683272198932,-7.513278868140244,-7.848600061928353,-19.833233173076923,4.601310096153845,-3.381613178488186,19.73726864081431,19.79609453046953,-40.61124392434488,28.38011801000389,33.41201665318837,36.047773085332615,1577399234.0,-27.694440119401584,-51.114697924682325,9.946298
22923,1577399234.63,1.0867923682236091,-3.015117422410918,6.96041138737376,4.45125884994879,-0.7837798703077357,9.031308230665251,5.281112503423922,7.937683628435832,10.25316860961914,15.291725716939789,2.2616502715320124,0.1607755335365855,3.821582328982469,4.023854325457317,-0.9828893149771344,6.671254227801068,8.676296327172256,0.3758872427591466,-20.273971688034187,4.294556089743589,-3.75734797609798,13.471190168005071,18.05477140047452,-36.407642612795854,28.33219516578309,33.48390091951957,35.927965974780605,1577399234.0,-27.694440119401584,-51.114697924682325,9.946298
22924,1577399234.64,-1.235583242127953,-4.279255898973418,7.204619956709698,-3.244902386623476,-3.687946484077268,11.788231442335178,-3.102184609613186,-15.514718733624711,14.063540551757812,-1.874411978372713,0.949394412157012,0.7100919397865855,5.728930961794969,-7.847483565167683,2.0230921303353657,-4.803355147198933,-8.581394102515244,3.259798375571646,-18.59916533119658,5.21481810897436,-4.13308277370778,16.450145507537332,21.2624719030969,-40.90623349006763,28.38011801000389,33.699553718513194,35.856081708449395,1577399234.0,-27.694440119401584,-51.114697924682325,9.946298
22925,1577399234.65,-0.1007316552138906,0.7413849823742369,13.89401939518626,-2.938444574123476,-3.6328798458936737,13.184051010206272,0.78839308814072,-0.4767381061833077,23.05376778564453,7.280861459127286,-13.546455197217988,-0.7547518102134145,6.430835258669969,2.406422684832317,1.1075647865853655,-26.07410710032393,-33.42270269626525,-7.451871546303353,-18.59916533119658,5.21481810897436,-4.13308277370778,17.271926290856577,22.36225493256743,-41.201223055790365,28.38011801000389,33.50786234162997,35.95192739689101,1577399234.0,-27.694440119401584,-51.114697924682325,9.946298
22926,1577399234.66,-0.1174910668349844,-4.231371865770293,18.24188961003001,0.9904403501929304,-5.658374450385861,10.483391537550022,6.953462363043063,24.32000848805497,4.970362646484375,-14.600242056497711,-11.105048947217988,-2.0059725133384143,5.789966118044969,4.023854325457317,-1.9441930259146345,4.718129227801067,-35.77255621189025,15.497347203696648,-20.36211939102564,3.987802083333333,-3.8324949356199385,16.450145507537332,22.36225493256743,-40.31625435862215,28.57180938688711,33.50786234162997,36.047773085332615,1577399234.0,-27.694440119401584,-51.114697924682325,9.946298
22927,1577399234.67,-1.6880873558974845,-1.6432398711413874,12.841767765547589,2.629271386569884,-0.7346987362745334,17.740216769483613,-2.023596761712796,1.6002318340022392,11.155782635498046,0.2007833341272866,14.499199099657012,2.2207120569740857,0.4951663133574691,-6.367381026105182,-1.4559117759146338,-4.910166670636432,-4.019016172827744,0.6352866568216462,-19.656937767094018,5.010315438034187,-4.433670611795614,16.450145507537332,22.36225493256743,-40.31625435862215,28.523886542666308,33.53182376374038,35.927965974780605,1577399234.0,-27.694440119401584,-51.114697924682325,9.946298
22928,1577399234.68,-0.4311314843154532,-3.7118301055163863,13.580378977705791,2.7717263853491803,-3.412613293159299,5.2376957001476745,4.954303976812595,15.126274113054972,0.2035071411132812,-1.935447134622713,-17.147529415967988,0.3438810022865854,6.308764946169969,8.326832841082316,-2.3714391196646343,27.270619462176068,23.98086175685976,8.539339391196647,-19.128051549145297,4.192304754273503,-4.884552368927366,10.69768002430262,13.563990696803195,1.5722639740067632,28.428040854224697,33.65163087429239,35.856081708449395,1577399234.0,-27.694440119401584,-51.114697924682325,9.946298
22929,1577399234.69,2.039684628965796,3.030241769483612,4.427346030928448,-0.3215821595726936,-5.002363195503049,1.3495122040539242,-5.345551565179592,-40.78551725657393,6.023811376953125,30.870949349752287,-8.053291134717988,0.0387052210365854,9.146899711794967,-6.138499190167683,1.3517054115853655,5.999867509051067,47.96767816310975,-0.4328285775533537,-19.128051549145297,4.192304754273503,-4.884552368927366,12.546686786770922,12.280910495754243,4.079675282650042,28.475963698445504,33.699553718513194,35.99985024111181,1577399234.0,-27.694440119401584,-51.114697924682325,9.946298
22930,1577399234.7,1.8780760169052495,-3.896183633348418,3.65401889469798,-5.7899387513695695,-4.724635802924924,6.659851486280487,-3.00402234154678,-4.15902025950362,19.182343701171877,15.230690560689789,-3.200996212842988,1.3509610804115857,14.273852836794967,-15.873606612042684,2.8775843178353657,-2.789194990948933,2.557521913109756,-26.403287561928355,-19.83323317307692,5.828326121794872,-3.8324949356199416,16.244700311707522,11.54772180944056,-1.2301369003592555,28.4520022763351,33.50786234162997,35.76023602000779,1577399234.0,-27.694440119401584,-51.114697924682325,9.946298
22931,1577399234.71,-0.2802967797256094,-2.4644510405749807,12.54608386051829,2.237819415134336,-3.473665435493283,9.411986294630095,-2.919028182611233,17.36245846364091,13.571532110595705,1.2078634122522869,-14.523017697217988,-1.3345857945884143,6.629199516482469,8.937184403582316,1.5348108803353655,17.794911454363568,-6.979221250952744,4.892488805259148,-20.18582398504273,5.828326121794872,-4.583964530839531,16.141977713792613,13.105747767857142,-19.740732149461117,28.428040854224697,33.60370803007159,35.856081708449395,1577399234.0,-27.694440119401584,-51.114697924682325,9.946298
22932,1577399234.72,-5.147708754823266,2.908137484815643,12.965069151045634,-2.8187344911156638,-3.65442766083508,8.366917269971893,0.3430715793516574,-19.122780635480183,-4.199429711914062,11.309181771627289,33.20647449028201,6.630502096036586,6.522387993044969,-12.913401533917684,1.0770472084603655,7.800404618426067,21.35635003810976,1.4592612661966462,-19.48064236111111,5.010315438034185,-3.0810253404003385,16.450145507537332,11.731018981018982,-41.79120218723584,28.61973223110792,33.747476562734,35.66439033156618,1577399234.0,-27.694440119401584,-51.114697924682325,9.946298
22933,1577399234.73,3.382831760313453,1.6176627899914242,9.900491026045636,-5.404472284084413,4.763585376274294,15.353197714307834,-0.9330379055116228,-12.095798762921588,10.951078393554686,-2.8814920564977133,-5.398261837842988,-2.0364900914634143,7.559985649294969,-5.375559737042683,0.3446253334603658,-4.803355147198933,17.022853944359756,-7.024625452553353,-19.48064236111111,5.010315438034185,-3.0810253404003385,10.286789632642996,9.898047265234768,-1.0826421174978862,28.428040854224697,33.699553718513194,35.95192739689101,1577399234.0,-27.694440119401584,-51.114697924682325,9.946298
22934,1577399234.74,-0.9387022362685784,-5.433261099168731,8.08448906681712,4.32316906113043,-5.335157226264768,13.859215878370334,-2.6377094875428733,4.656430253191692,16.17043801269531,2.398048959127286,3.634941287157013,1.0000089319740857,9.665698539919967,8.204762528582316,0.3446253334603658,7.617299149676067,12.994533631859756,-6.994107874428353,-19.74508547008547,4.294556089743589,-4.50881757131758,10.286789632642996,9.898047265234768,-1.0826421174978862,28.428040854224697,33.699553718513194,35.99985024111181,1577399234.0,-27.694440119401584,-51.114697924682325,9.946298
22935,1577399234.75,0.4212043067001708,1.4740106903820491,14.799027622725324,-0.0103359437523816,-2.062283556831174,6.042147457960176,-1.9050837795350613,-3.5221626179020573,7.046135485839844,-0.4400858064977134,-15.346992306592988,-1.3040682164634143,2.890796196169969,-6.672556807355184,1.2143763100228655,9.478871415301068,10.797268006859756,0.6200278677591463,-19.128051549145297,5.010315438034185,-3.982788854663856,17.271926290856577,8.248372721028971,-3.737548209002536,28.428040854224697,33.53182376374038,35.80815886422859,1577399234.0,-27.694440119401584,-51.114697924682325,9.946298
22936,1577399234.76,1.6925253882431397,-2.1484164214343555,8.870984312178448,-0.9871702210961312,-0.9609507931592982,5.644709982374237,-1.0479595851991228,-16.09650973704268,15.004461804199218,12.316261849752289,-4.269111447217988,1.3509610804115857,5.423755180544969,0.148121903582317,-0.1436559165396341,6.366078446551067,15.191799256859756,-0.6769692025533537,-18.59916533119658,3.987802083333333,-3.8324949356199385,17.271926290856577,12.097613324175825,-32.3515360841082,28.475963698445504,33.50786234162997,35.76023602000779,1577399234.0,-27.694440119401584,-51.114697924682325,9.946298
22937,1577399234.77,0.3972622900986083,-1.135669119188262,5.18630795719798,0.537936236423399,0.6671063357469508,7.634291561964081,-1.27301454125381,4.376308658953411,8.932766394042968,16.283547006002287,-4.971015744092988,0.7711270960365855,-3.945141303830032,14.888112137957316,0.3141077553353658,-10.815318037823932,-2.905124571265244,-9.893277796303352,-18.59916533119658,3.987802083333333,-3.8324949356199385,23.02439177409129,15.030368069430567,-3.4425586432797965,28.61973223110792,33.699553718513194,35.95192739689101,1577399234.0,-27.694440119401584,-51.114697924682325,9.946298
22938,1577399234.78,0.2093174597763431,-2.3866394866199023,8.686630784346416,4.471609564060118,-1.0842521786573458,8.50937226875119,1.5868593418028294,8.721784672137003,9.60793126220703,1.1315694669397889,2.2311326934070124,0.5575040491615857,-4.158764350705031,-0.9810284870426832,-0.5709020102896344,17.749135087176068,20.51711663967226,6.479402867759148,-19.48064236111111,4.805812767094015,-3.5319070975320974,23.02439177409129,15.030368069430567,-3.4425586432797965,28.428040854224697,33.50786234162997,35.808158864228595,1577399234.0,-27.694440119401584,-51.114697924682325,9.946298
22939,1577399234.79,-4.27621935052639,-0.771750466844512,10.728884800459698,-4.633539349514101,-0.5395713009717982,3.157134457471893,-3.619332168206936,-18.481134590558305,-0.8786720092773437,-14.478171743997711,7.297050662157012,-0.8463045445884145,1.8837161180449693,-2.232249190167683,-0.7540074790396342,13.232533524676068,55.32241449123475,5.426546422446647,-18.95175614316239,3.5787967414529875,-3.231319259444269,16.655590703367146,15.21366524100899,-3.000074294695689,28.428040854224697,33.41201665318837,35.856081708449395,1577399234.0,-27.694440119401584,-51.114697924682325,9.946298
22940,1577399234.8,1.2807227026962644,-0.292910134813262,10.056114133955791,-0.2353908998070686,0.3582543215867945,8.445925924757049,9.541594357671968,-5.552445625714557,13.584700219726562,-2.1490701814977133,-11.105048947217988,-1.9754549352134143,3.257007133669969,-3.910715987042683,0.4056604897103658,3.924672196551067,41.77260980373475,-15.844205530678352,-19.128051549145297,4.601310096153845,-4.2833766927516965,16.450145507537332,13.563990696803195,-3.4425586432797965,28.475963698445504,33.699553718513194,35.95192739689101,1577399234.0,-27.694440119401584,-51.114697924682325,9.946298
22941,1577399234.81,2.7794929419540777,1.2465615326672057,8.971540781905011,3.3702768003882424,2.256856238090701,6.6454862763195495,-6.932907265863186,8.503912321062785,23.063344592285155,9.783302865377289,-10.159004025342988,-1.1209627477134143,-1.5342526319550305,-2.506907393292683,-1.6695348227896345,6.244008134051067,3.473049256859756,-10.534146936928352,-19.128051549145297,4.601310096153845,-4.2833766927516965,16.861035899196956,19.429500187312687,-41.79120218723584,28.475963698445504,33.50786234162997,35.95192739689101,1577399234.0,-27.694440119401584,-51.114697924682325,9.946298
22942,1577399234.82,0.576827414610327,-5.396150973436309,11.95950445378001,0.9629070311011334,-6.553805871284299,10.427127798536349,-0.4075106411073277,7.81198804127763,10.595539447021483,-7.855857290872713,-4.436958126905488,-0.8920809117759144,0.7850833055449693,5.687062333269817,1.2906702553353655,-14.30958073313643,-51.41281500095275,-1.0279213509908516,-19.74508547008547,5.5215721153846165,-4.358523652273656,20.04543643455903,20.254337459415584,-36.997621744241336,28.40407943211429,33.48390091951957,35.927965974780605,1577399234.0,-27.694440119401584,-51.114697924682325,9.946298
22943,1577399234.83,-0.6513980370498281,-2.3998075957507616,13.640234019209698,1.179582281345274,-3.6017552243116424,4.936026290967988,5.157811117925876,14.807845292254193,-0.6584054565429687,-12.677634634622711,4.367363162157012,0.0997403772865854,-2.0530514600800305,-12.821848799542684,-1.8831578696646345,-13.714487959698932,-41.60141363376525,39.11795267244665,-19.833233173076923,5.41932077991453,-4.2833766927516965,23.02439177409129,22.72884927572428,-32.3515360841082,28.284272321562284,33.65163087429239,35.95192739689101,1577399234.0,-27.694440119401584,-51.114697924682325,9.946298
22944,1577399234.84,-3.4502197777724843,-1.4780399565906055,12.615515708662825,-1.8466886170922248,0.6383759158250758,13.789784030225803,-1.0000755519959976,-21.49064607737472,4.46279189453125,-1.6302713533727131,5.801689334032012,3.1209806116615857,-6.203442085080031,-14.164622237042684,-2.4935094321646343,-6.634409834698933,-1.959079649390244,25.079866734946645,-19.833233173076923,5.41932077991453,-4.2833766927516965,17.271926290856577,21.995660589410587,-41.79120218723584,28.428040854224697,33.55578518585078,35.99985024111181,1577399234.0,-27.694440119401584,-51.114697924682325,9.946298
22945,1577399234.85,0.8629345129989989,2.817157821729705,11.821837858321024,-3.168287933498476,10.564735998832887,9.79864986274533,16.78166017798447,-9.77102895090987,-9.37808790283203,2.9015889981897875,-11.669624142530488,-0.8157869664634143,-1.8089108350800305,8.509938309832316,1.0465296303353655,-12.097056319073932,20.01357660060976,-4.247525843178353,-19.833233173076923,5.41932077991453,-4.2833766927516965,16.655590703367146,15.946853927322678,-31.90905173552409,28.4520022763351,33.65163087429239,35.95192739689101,1577399234.0,-27.694440119401584,-51.114697924682325,9.946298
22946,1577399234.86,-0.9530674462295156,-4.267284890672637,7.147159116865948,0.0686727110327745,-7.072150530708127,-0.1803826567859187,2.0297866489317355,-3.610748079327839,13.954604376220702,-5.963767447122714,-3.231513790967988,-0.8463045445884145,5.332202446169969,-13.14228336985518,-0.1894322837271342,2.368275712176067,26.17812738185976,-23.67196431974085,-18.070279113247864,3.783299412393162,-4.2833766927516965,13.368467570090166,14.663773726273725,-15.094646489327976,28.428040854224697,33.55578518585078,35.99985024111181,1577399234.0,-27.694440119401584,-51.114697924682325,9.946298
22947,1577399234.87,-1.656962734315453,-4.485157241746856,6.31637114079173,0.3894957334937116,0.0996805422899195,6.796320980909393,6.711647995367282,8.44405727955888,0.5458779785156249,-12.738669790872711,-15.224921994092988,-1.0599275914634143,1.4259524461699695,-15.507395674542684,3.8541468178353657,5.847279618426067,12.811428163109756,-12.029508265053352,-20.00952857905983,3.1697913995726466,-4.734258449883449,16.450145507537332,14.297179383116884,-3.737548209002536,28.57180938688711,33.65163087429239,35.856081708449395,1577399234.0,-27.694440119401584,-51.114697924682325,9.946298
22948,1577399234.88,0.959899680235327,2.0821379120617367,5.394603501631573,3.612091168064024,-2.462115234077268,8.347763656690644,-5.1947168605897485,2.0850576701838786,1.024718310546875,17.046486459127287,3.4823533965320124,0.7406095179115855,-2.9075436475800305,4.145924637957317,-5.240091463414634,3.985707352801067,23.12636956935976,6.799837438071647,-21.067301014957263,4.396807425213674,-3.231319259444269,20.353604228303745,15.21366524100899,-3.5900534261411665,28.475963698445504,33.55578518585078,35.95192739689101,1577399234.0,-27.694440119401584,-51.114697924682325,9.946298
22949,1577399234.89,-0.6920994652724848,-1.819213693162872,13.567210868574932,0.4900522032202741,-2.0551009518507044,6.22410678413205,-5.786084670648343,-4.348162190655963,14.171279626464845,-8.405173697122715,-6.618964962842988,-0.2054354039634145,-6.844311225705031,-5.009348799542683,-0.8760777915396342,-11.028941084698932,8.386379334984756,8.112093297446647,-20.18582398504273,5.010315438034185,-3.982788854663856,20.353604228303745,14.480476554695304,-3.000074294695689,28.38011801000389,33.50786234162997,35.856081708449395,1577399234.0,-27.694440119401584,-51.114697924682325,9.946298
22950,1577399234.9,2.781887143614234,-1.329599453660918,11.535730759932354,1.4872371946753526,1.981523047172732,14.648105325391818,2.813887692632908,-5.740390456036823,15.433023901367186,-17.438376822122713,-1.614082150342988,-2.4027010289634143,-5.257397163205031,-3.8344220417301833,-0.5403844321646343,1.2543841106135676,-3.042453672827744,-1.3330971322408536,-19.304346955128203,3.987802083333333,-4.433670611795614,16.96375849711186,11.822667566808192,1.2035270168533392,28.38011801000389,33.62766945218199,35.97588881900141,1577399234.0,-27.694440119401584,-51.114697924682325,9.946298
22951,1577399234.91,1.9894063941025144,-2.383048184129668,9.306729014326889,3.0470595762671486,-7.1188374630811735,4.876171249464081,-7.414141799554592,-10.67124877512862,8.243236315917969,2.6116720060022867,4.397880740282012,2.1444181116615857,-4.128246772580031,9.333912919207316,-1.6084996665396345,-6.542857100323933,2.832180116234756,5.609651891196647,-20.89100560897436,4.192304754273503,-4.583964530839531,16.450145507537332,11.731018981018982,0.9822848425612848,28.61973223110792,33.65163087429239,35.856081708449395,1577399234.0,-27.694440119401584,-51.114697924682325,9.946298
22952,1577399234.92,-3.285019863221703,-3.862664810106231,12.79508083317454,-2.248914495998475,-2.622526745307737,8.105949289014863,2.49306467017197,4.929369242449504,14.11621298828125,-8.527244009622713,11.294853396532012,1.7171720179115857,-7.546215522580031,-11.997874190167684,1.3211878334603655,-6.207163740948933,-8.367771055640244,-7.696012171303353,-20.71471020299145,5.623823450854701,-4.433670611795614,17.477371486686387,7.881778377872128,1.7197587568681325,28.428040854224697,33.55578518585078,35.80815886422859,1577399234.0,-27.694440119401584,-51.114697924682325,9.946298
22953,1577399234.93,0.5660535071396244,0.4768256989269718,8.036605033613995,4.259722717136289,0.2505152468797638,8.972650289991426,1.629954971685641,2.0910431743342706,11.335347760009764,-2.850974478372713,-10.570991330030488,-1.8228670445884143,-4.997997749142531,2.162282059832317,-4.095682283727134,-1.4464215534489329,-7.772678282202744,-0.6922279916158538,-18.24657451923077,3.1697913995726466,-4.433670611795614,12.1357963951113,7.881778377872128,-2.5575899461115803,28.57180938688711,33.67559229640279,35.9040045526702,1577399234.0,-27.694440119401584,-51.114697924682325,9.946298
22954,1577399234.94,1.3860675757431395,1.3710600189953306,4.949281992842511,1.5315299253882426,3.118768835746951,7.715694418409393,4.295898520269626,-1.894105488995808,5.80354482421875,20.556007943502287,-0.7290723847179879,-1.7313143102134143,-1.6258053663300305,-5.070383955792683,-0.6624547446646342,-13.226206709698932,-9.130710508765244,7.532259313071647,-18.95175614316239,3.5787967414529875,-5.03484628797129,19.73726864081431,8.431669892607392,1.2772744082840235,28.61973223110792,33.50786234162997,35.99985024111181,1577399234.0,-27.694440119401584,-51.114697924682325,9.946298
22955,1577399234.95,2.22882656011814,-4.307986318895293,3.534308811690167,3.59533175644293,-3.0151758175733616,3.1643170624523616,-6.741371133050686,0.4546063396174725,10.153809240722657,-4.651511587747714,-2.163398556592988,-1.5176912633384143,1.3343997117949695,-0.5842999714176829,-2.9207555259146343,-14.385874678448932,-6.231540586890244,7.196565953696647,-19.48064236111111,5.010315438034185,-3.982788854663856,20.55904942413356,12.097613324175825,-4.032537774725275,28.428040854224697,33.50786234162997,35.95192739689101,1577399234.0,-27.694440119401584,-51.114697924682325,9.946298
22956,1577399234.96,-0.0336940087295156,-7.0541356230945125,8.025831126143292,-0.4245328309594124,-4.150027404487424,11.340515731885958,7.099508664312594,-5.9019990680973695,14.949395166015623,-7.245505728372714,0.4305955840320121,-1.5482088414634143,-4.524975288205031,-11.418040205792684,0.4361780678353658,-24.60926335032393,-13.128513243140244,-7.268766077553353,-19.128051549145297,4.192304754273503,-3.682201016576021,20.14815903247393,12.097613324175825,-33.23650478127641,28.428040854224697,33.55578518585078,35.99985024111181,1577399234.0,-27.694440119401584,-51.114697924682325,9.946298
22957,1577399234.97,-0.4778184166885004,0.1799446930675968,18.559121330000718,2.277323742526915,0.6024628909227325,15.01082687690549,0.548972922125095,-0.1858426044743232,11.985373510742187,-20.673240103372716,-6.084907345655488,-2.6468416539634143,-6.615429389767532,-3.513987471417683,-2.3409215415396343,-4.437144209698933,4.022365663109756,-1.4551674447408538,-20.00952857905983,3.987802083333333,-4.433670611795614,20.559049424133555,12.464207667332667,-2.852579511834319,28.428040854224697,33.55578518585078,35.9040045526702,1577399234.0,-27.694440119401584,-51.114697924682325,9.946298
22958,1577399234.98,-0.7567429100967031,-3.3167868315906057,6.153565427901104,-4.329475738674257,-3.702311694038205,8.826603988721892,-2.419837136468654,3.806488663836223,12.208034265136718,-11.456931509622711,10.470878787157012,2.0833829554115857,-4.799633491330031,-2.873118330792683,1.3822229897103655,-2.545054365948933,3.015285584984756,-5.437711390053353,-19.833233173076923,5.010315438034185,-4.583964530839531,21.99716579494224,19.612797358891108,-3.8850429918639056,28.475963698445504,33.41201665318837,35.95192739689101,1577399234.0,-27.694440119401584,-51.114697924682325,9.946298
22959,1577399234.99,-1.503733828065453,0.3798605316906432,11.84458277409251,-3.0892792787133194,-6.10609016083508,10.564794393995331,-1.289773952874904,8.532642740984661,9.014169250488282,-5.353415884622714,-3.017890744092988,-2.4637361852134143,1.3649172899199695,-0.1265362995426829,-2.3409215415396343,3.344838212176067,-5.895847227515244,6.372591344321647,-19.48064236111111,4.192304754273503,-3.682201016576021,-12.928517496125668,15.21366524100899,-32.20404130124683,28.57180938688711,33.55578518585078,36.047773085332615,1577399234.0,-27.694440119401584,-51.114697924682325,9.946298
22960,1577399235.0,-1.2870585778213126,-4.334322537157012,12.20969852726634,5.307185943454649,-4.753366222846799,8.948708273389862,-2.7909383937928736,-8.825319295148152,16.053122131347656,-9.122336783060211,-5.489814572217988,-1.2582918492759143,-1.5342526319550305,-3.300364424542683,-5.179056307164634,-15.118296553448932,-16.454929258765244,-6.688932093178353,-19.92138087606837,4.294556089743589,-4.057935814185818,-14.161188671104536,15.21366524100899,-32.20404130124683,28.4520022763351,33.55578518585078,35.99985024111181,1577399235.0,-27.69449526431632,-51.11478143687034,9.471197
22961,1577399235.01,3.897585117247047,1.2657151459484557,7.408127097822979,4.089734399265196,2.224534515678592,6.15946333930783,8.641374533453218,-1.5696911640446356,8.942343200683593,-2.2101053377477133,-18.948066525342988,-4.325308450838414,-9.697704780392533,3.108326981707317,-2.7986852134146343,-11.974986006573932,-10.168308165015244,3.595491734946646,-20.18582398504273,4.601310096153845,-3.982788854663856,16.450145507537336,19.429500187312687,-37.071369135672015,28.475963698445504,33.579746607961184,35.80815886422859,1577399235.0,-27.69449526431632,-51.11478143687034,9.471197
22962,1577399235.02,2.489794541075172,0.7653269989757994,8.856619102217511,-1.1188513124047248,-1.286562218940548,3.6287921845226734,-5.795661477288967,-9.912286848859088,2.8658593872070317,16.863380990377287,-10.525214962842988,-1.3651033727134143,-4.128246772580031,-7.908518721417683,-0.5098668540396342,-7.824595381573933,21.02065667873476,-0.7380043588033537,-19.48064236111111,4.192304754273503,-4.2833766927516965,13.9848031575796,19.429500187312687,-32.3515360841082,28.38011801000389,33.55578518585078,35.99985024111181,1577399235.0,-27.69449526431632,-51.11478143687034,9.471197
22963,1577399235.03,0.232062375547827,-0.8124518950671682,4.925339976240949,3.5498419248999613,-3.608937829292112,5.034188559034393,0.8219119113829075,-5.715251338605182,9.488221179199218,1.4825216153772869,6.351005740282012,-0.8157869664634145,-0.0083737257050304,-9.434397627667684,1.1685999428353655,-4.803355147198933,13.910060975609756,-5.224088343178353,-21.067301014957263,3.987802083333333,-3.231319259444269,14.19024835340941,21.07917473151848,-32.20404130124683,28.66765507532872,33.65163087429239,35.76023602000779,1577399235.0,-27.69449526431632,-51.11478143687034,9.471197
22964,1577399235.04,-0.5137314415908442,-2.569795913621856,9.032592924238996,0.2626030455054303,-3.13728010224133,8.948708273389862,0.5178483005430637,-4.281124544171589,16.948553552246093,-16.950095572122713,-1.7208936737804876,-2.4332186070884143,0.5104251024199695,-12.577708174542684,-3.1038609946646343,-5.474741865948933,-2.752536680640244,-8.642057093178353,-20.09767628205128,5.317069444444443,-2.8555844618344657,14.19024835340941,21.07917473151848,-32.20404130124683,28.499925120555904,33.55578518585078,35.856081708449395,1577399235.0,-27.69449526431632,-51.11478143687034,9.471197
22965,1577399235.05,-1.6066844994521716,-4.873017910692168,17.195623484541727,-0.454460351711366,-1.2350868832471888,14.026809994581267,4.992611203375095,18.834892484637,8.820238916015624,-25.64760533774772,-0.3933790253429878,-1.1514803258384143,-4.647045600705031,0.9110613567073162,-2.035745760289634,8.075062821551068,3.015285584984756,6.128450719321646,-20.538414797008546,5.010315438034185,-1.8786739880489929,10.286789632642998,15.763556755744258,-31.466567386939985,28.428040854224697,33.50786234162997,35.97588881900141,1577399235.0,-27.69449526431632,-51.11478143687034,9.471197
22966,1577399235.06,0.2751580054306395,0.7605385956554869,13.403208054854227,-0.7716920716820687,-2.277761706245236,6.427613925245331,-7.517092470941312,-24.87125882151534,11.688492504882811,-3.674949087747713,-0.1797559784679878,0.0997403772865854,-4.280834663205031,-6.199534346417683,0.1920374428353658,-2.575571944073933,16.992336366234756,9.149690953696648,-20.538414797008546,5.010315438034185,-1.8786739880489929,10.286789632642996,15.030368069430567,-2.852579511834319,28.428040854224697,33.41201665318837,36.047773085332615,1577399235.0,-27.69449526431632,-51.11478143687034,9.471197
22967,1577399235.07,-0.4981691307998281,0.4971764130382994,12.467075205733137,-1.6814887025414436,0.0158834841844508,13.624584115675022,-1.5603187404725605,-26.245530574445027,17.46570111083984,-12.525046743997711,-5.978095822217988,-2.7994295445884143,5.423755180544969,-13.127024580792684,-1.2117711509146345,-23.75477116282393,-0.1890601181402439,-22.985318811928355,-19.833233173076923,4.601310096153845,-3.682201016576021,10.286789632642996,13.563990696803195,-2.5575899461115803,28.38011801000389,33.41201665318837,35.76023602000779,1577399235.0,-27.69449526431632,-51.11478143687034,9.471197
22968,1577399235.08,0.6199230444931395,-6.631559030076934,7.31834453556712,2.7573611753882425,-1.7773735592725797,8.020955130079317,1.4898941745665013,-3.072052705792684,5.421669659423828,-6.482566275247712,-3.902900509717988,-0.7242342320884143,-6.340771186642531,6.831471512957316,-3.6379186118521343,4.916493485613568,8.752590272484758,0.4064048208841462,-18.863608440170932,4.499058760683759,-3.9076418951419,16.655590703367146,14.663773726273725,-1.0826421174978864,28.428040854224697,33.62766945218199,35.999850241111815,1577399235.0,-27.69449526431632,-51.11478143687034,9.471197
22969,1577399235.09,-0.0600302269912344,3.609638571241424,15.811774924971417,4.172334356540587,3.4778990847703883,9.01335171821408,8.808968649664157,13.433573539324504,2.8993782104492185,-1.0809549471227131,-12.997138790967988,-3.1656404820884143,-8.431225288205031,-8.518870283917684,-0.5709020102896342,2.978627274676067,4.510646913109756,-4.674771936928353,-19.65693776709401,5.623823450854701,-4.433670611795614,16.861035899196956,10.631235951548453,-1.3776316832206257,28.57180938688711,33.699553718513194,35.99985024111181,1577399235.0,-27.69449526431632,-51.11478143687034,9.471197
22970,1577399235.1,2.858501596739234,1.308810775831268,8.48072944157298,3.3128159605444925,-0.3169105465772669,7.756395846632049,-3.245836709222561,8.400961649676066,7.864952453613281,0.1092305997522865,-14.004218869092988,-1.5176912633384143,-7.210522163205031,6.678883622332317,-1.9747106040396345,4.412953446551067,12.872463319359756,5.792757359946647,-19.65693776709401,5.623823450854701,-4.433670611795614,16.861035899196956,10.631235951548453,-1.3776316832206257,28.66765507532872,33.55578518585078,35.95192739689101,1577399235.0,-27.69449526431632,-51.11478143687034,9.471197
22971,1577399235.11,1.0628503516220458,0.6192806977062681,5.18630795719798,-1.2960222352562871,-1.9042662472608607,8.390859286573455,-0.9689509304139664,-13.520348750714556,12.957419384765624,17.809425912252287,-1.980293087842988,-2.3416658727134143,1.8531985399199693,-6.046946455792683,-3.0428258384146343,-4.070933272198933,2.069240663109756,-8.611539515053353,-19.128051549145297,5.828326121794872,-3.0810253404003385,16.861035899196956,8.431669892607392,-2.852579511834319,28.428040854224697,33.65163087429239,35.856081708449395,1577399235.0,-27.69449526431632,-51.11478143687034,9.471197
22972,1577399235.12,2.397617777159155,-2.614088644334746,7.867813816572979,3.613288268894102,-2.0551009518507053,9.444308017042204,4.370118771734469,6.466446708269817,9.190143072509764,-2.484763540872712,2.7194139434070124,-3.2266756383384148,-5.898266303830031,6.633107255144816,-2.7834264243521343,1.1933489543635671,7.745510194359756,-2.9963051400533525,-19.83323317307692,4.805812767094016,-3.531907097532104,14.087525755494504,9.989695851023974,-20.478206063767963,28.4759636984455,33.60370803007159,35.9040045526702,1577399235.0,-27.69449526431632,-51.11478143687034,9.471197
22973,1577399235.13,-0.8429341698623282,-7.698175869676543,0.7019682477253233,2.9560799131812114,-8.430859972846799,2.869830258253143,-5.946496181878811,-18.418885347394244,9.212887988281247,-11.426413931497711,22.92205066215701,-1.3040682164634143,-3.4568600538300305,-6.382639815167683,-1.5779820884146345,-7.855112959698933,21.78359613185976,1.1846030630716462,-19.304346955128203,4.805812767094015,-4.13308277370778,16.450145507537332,10.264641608391608,0.6872952768385466,28.57180938688711,33.699553718513194,35.76023602000779,1577399235.0,-27.69449526431632,-51.11478143687034,9.471197
22974,1577399235.14,-2.1765044945693592,-2.7493610381335745,14.70565375797923,-9.01492838760004,1.579297168266482,15.934988717725805,-1.1485160549256852,11.484693387957316,17.937358837890624,-19.14736119712272,-10.464179806592988,-5.912222513338414,-2.1751217725800305,-19.62726872141768,0.4361780678353658,3.924672196551067,7.714992616234756,-5.651334436928353,-19.304346955128203,4.805812767094015,-4.13308277370778,18.093707074175825,12.464207667332667,-1.6726212489433638,28.428040854224697,33.50786234162997,35.856081708449395,1577399235.0,-27.69449526431632,-51.11478143687034,9.471197
22975,1577399235.15,0.4403579199814212,-0.0738406829089656,12.9231706219929,-3.7285311219750383,2.55134304228992,14.907876205518772,-5.764536855706936,7.634817118426067,11.79862578125,0.0481954435022868,5.404960818407012,0.3743985804115856,3.134936821169969,10.402028153582316,-3.1954137290396343,13.812367509051068,20.19668206935976,3.595491734946646,-19.48064236111111,5.828326121794872,-4.133082773707776,18.093707074175825,12.464207667332667,-1.6726212489433638,28.428040854224697,33.699553718513194,35.99985024111181,1577399235.0,-27.69449526431632,-51.11478143687034,9.471197
22976,1577399235.16,2.714849497129859,-0.9776518096179494,11.540519163252666,4.458441454929258,-3.565842199409299,4.223751297071503,3.1107686984922824,-2.6231398945133857,10.588356842041016,-8.588279165872713,-2.041328244092988,-3.4402986852134143,-3.731518256955031,7.167164872332318,-2.1120397056021343,0.7813616496760671,2.496486756859756,-12.105802210365852,-19.833233173076923,5.010315438034185,-3.682201016576021,18.504597465835445,12.83080201048951,-2.85257951183432,28.428040854224697,33.699553718513194,35.856081708449395,1577399235.0,-27.69449526431632,-51.11478143687034,9.471197
22977,1577399235.17,3.696472177793921,-3.3526998564929493,7.709796507002666,3.358305792087461,1.5242305300828884,7.33501635444455,-2.8220630153749044,5.757763016863567,9.03332286376953,3.1915059903772867,-1.797187619092988,-3.5623689977134143,0.9681887742949696,2.681080887957317,0.4972132240853658,2.093617509051067,0.4212914443597561,5.365511266196647,-20.89100560897436,4.192304754273503,-4.583964530839531,17.6828166825162,15.030368069430567,-4.032537774725275,28.428040854224697,33.55578518585078,35.80815886422859,1577399235.0,-27.69449526431632,-51.11478143687034,9.471197
22978,1577399235.18,-0.1964997216201407,-0.6137331572741994,-0.3371152727824881,1.562654546970274,-1.2171303707960168,4.873777047803924,4.623904147711032,-7.489354768780964,13.986926098632813,11.034523568502289,0.4611131621570121,-1.7313143102134143,2.921313774294969,2.009694169207317,-6.247171541539634,-9.808237959698932,-15.875095274390244,-0.7380043588033537,-20.89100560897436,4.192304754273503,-4.583964530839531,17.6828166825162,15.030368069430567,-4.032537774725275,28.66765507532872,33.55578518585078,35.856081708449395,1577399235.0,-27.69449526431632,-51.11478143687034,9.471197
22979,1577399235.19,0.42838691168064,-1.548668905565215,6.311582737471417,1.7613732847632426,-5.567394787299924,12.918294625928928,-2.067889492425685,2.7937413615901296,17.1233302734375,6.639992318502288,-7.061469845655488,-2.4789949742759143,1.6395754930449695,-9.953196455792684,-2.2493688071646343,-5.901987959698933,-29.424899961890244,3.198763219321646,-19.304346955128203,4.396807425213674,-4.433670611795614,-15.599305041913214,19.429500187312687,-4.032537774725275,28.475963698445504,33.747476562734,35.99985024111181,1577399235.0,-27.69449526431632,-51.11478143687034,9.471197
22980,1577399235.2,-1.0560181176162344,0.9185559052257992,13.02013578922923,-3.2053980592308973,-0.9729218014600802,10.702460989454316,-1.3556144985292011,-9.232333577374714,15.234305163574218,-1.5387186189977131,-3.292548947217988,-2.8299471227134143,-0.0541500928925307,-2.003367354230183,-1.7916051352896345,-22.86976139719893,-61.65146246189025,2.557894078696646,-20.538414797008546,5.41932077991453,-3.381613178488186,2.788039984854887,16.954988371003992,-36.7026321785186,28.428040854224697,33.67559229640279,35.95192739689101,1577399235.0,-27.69449526431632,-51.11478143687034,9.471197
22981,1577399235.21,-3.306567678163109,-5.931255044481231,12.79029242985423,-0.6280399720726937,-7.583312585151486,14.891116793897677,-4.062259475335842,-0.7496770954411203,13.5224509765625,-8.496726431497713,21.02996081840701,1.2899259241615857,-0.1609616163300304,0.026051591082317,0.2225550209603658,-23.84632389719893,-67.84653082126525,14.429231969321648,-19.304346955128203,5.21481810897436,-4.433670611795614,18.093707074175825,20.895877559940057,-41.79120218723584,28.284272321562284,33.50786234162997,35.80815886422859,1577399235.0,-27.69449526431632,-51.11478143687034,9.471197
22982,1577399235.22,0.1889667456650145,-3.3646708647937307,9.71374329655345,0.9449505186499616,4.184188574516482,16.70352745063596,-0.4446207668397477,3.0930165691096607,6.849810949707031,-16.248191275247713,2.7194139434070124,1.3204435022865857,-4.280834663205031,-4.307444502667683,-1.0897008384146345,-6.756480147198933,-45.44662847751525,9.668489781821648,-19.304346955128203,5.21481810897436,-4.433670611795614,18.093707074175825,20.895877559940057,-41.79120218723584,28.475963698445504,33.55578518585078,35.76023602000779,1577399235.0,-27.69449526431632,-51.11478143687034,9.471197
