,timestamp,acc_x_dashboard,acc_y_dashboard,acc_z_dashboard,acc_x_above_suspension,acc_y_above_suspension,acc_z_above_suspension,acc_x_below_suspension,acc_y_below_suspension,acc_z_below_suspension,gyro_x_dashboard,gyro_y_dashboard,gyro_z_dashboard,gyro_x_above_suspension,gyro_y_above_suspension,gyro_z_above_suspension,gyro_x_below_suspension,gyro_y_below_suspension,gyro_z_below_suspension,mag_x_dashboard,mag_y_dashboard,mag_z_dashboard,mag_x_above_suspension,mag_y_above_suspension,mag_z_above_suspension,temp_dashboard,temp_above_suspension,temp_below_suspension,timestamp_gps,latitude,longitude,speed
26216,1577397319.89,-1.811476334139196,-0.4968844372260855,7.993013044850418,-1.310562630704554,-0.9580894301995996,9.962915454697027,-0.1182502039467406,-4.807031377131764,10.369871341761144,4.831267566215701,-8.478676400533537,-4.603502227038872,4.358431188071647,-9.90332626714939,-6.59942626953125,-2.355435999428354,-11.758199552210366,-3.1689899723704267,-7.66885016025641,3.834425080128205,-4.339736912393161,-2.738617070759928,17.5915873015873,-17.026270604395606,30.05741755773205,36.33531015065744,41.31928594962111,1577397318.999,-27.71748375728769,-51.110425051930335,2.2071567
26217,1577397319.9,-0.5904334874595084,-0.8979132153022573,10.84570432292659,-0.9107309534584602,-0.8060576247796778,11.082204730820076,1.1470853734458364,-1.4766968678544206,9.310437107142006,-3.4237373165967986,-8.295570931783535,-4.649278594226372,4.678865758384147,-9.20142197027439,-6.32476806640625,-3.652433069740853,-8.126607755335366,-7.166792706745427,-8.142235972617916,3.377945903922467,-3.9522604023580583,-0.8054756090470375,17.929887057387056,-53.25508635244962,30.05741755773205,36.598885793871865,41.29532452751072,1577397318.999,-27.71748375728769,-51.110425051930335,2.2071567
26218,1577397319.91,-0.0900453404868521,-1.430623084687023,10.861266633717603,0.7221145787681021,-2.696279835473037,8.614979920029059,0.7077493688071647,-1.9770850148270769,11.485569315393958,3.0917656130907014,-13.300453744283535,-5.122301055163872,5.487581578696647,-9.62866806402439,-5.83648681640625,0.2995932974466463,-10.598531583460366,-7.929732159870427,-8.047558810145615,3.4692417391636146,-4.339736912393161,-0.1610951218094077,18.26818681318681,-51.0287345467033,30.249108934615272,36.57492437176146,41.31928594962111,1577397318.999,-27.71748375728769,-51.110425051930335,2.2071567
26219,1577397319.92,0.2786617151772103,-2.0483271130073355,10.830142012135571,-1.3153510340248664,-0.6779678359613185,9.29253898985328,-0.6689165857826791,0.943841010563548,9.235019754847084,2.9696953005907014,-13.575111947408535,-4.420396758288872,3.717562047446646,-12.19214462652439,-5.10406494140625,1.5202964224466462,-9.438863614710366,-5.915572003620427,-9.183684759813232,3.4692417391636146,-3.099812080280829,-1.9331414617128904,-2.875547924297924,-52.44550387763278,30.009494713511245,36.57492437176146,41.07967172851709,1577397318.999,-27.71748375728769,-51.110425051930335,2.2071567
26220,1577397319.93,0.2630994043861946,-2.2386661449897574,9.002169044606276,-0.2331718836342415,-1.317219679223037,7.982910681747809,-2.6177967371498667,-3.0472931569169206,7.520771366175208,0.0247490115282013,-7.532631478658537,-3.169176055163872,4.297396031821647,-8.22485947027439,-5.43975830078125,2.039095250571646,-3.1217249428353657,-4.084517316120427,-9.56239340970244,3.4692417391636146,-3.564783892322956,-1.9331414617128904,-2.875547924297924,-52.44550387763278,30.10534040195285,36.57492437176146,41.22344026117951,1577397318.999,-27.71748375728769,-51.110425051930335,2.2071567
26221,1577397319.94,-0.6814131505454458,-2.828836854218273,6.283553059498855,-0.5216731836830697,-2.272506141625381,6.658917163681402,-0.638989065030726,0.110658832829173,8.928561942347084,3.732634753715701,-4.206215463033536,-2.406236602038872,2.161165563071646,-10.51367782964939,-3.95965576171875,3.519197789634146,-1.397481778772866,0.4473430354420731,-8.99433043486863,3.286650068681319,-3.2548026842948694,-1.2887609744752604,8.457493894993895,-54.87425130208333,30.15326324617366,36.50304010543026,41.29532452751072,1577397318.999,-27.71748375728769,-51.110425051930335,2.2071567
26222,1577397319.95,-0.0996221471274771,-0.913475526093273,7.794294307057449,-3.422248494962367,1.8838279404058689,11.49999292051734,-1.2363423792397104,0.139389252751048,8.799275052698645,7.608367175590701,-12.751137338033535,-2.894517852038872,1.0014975943216462,-10.08643173589939,-2.47955322265625,4.816194859946647,2.1883336509146343,2.6903850276295733,-8.99433043486863,3.286650068681319,-3.2548026842948694,-0.3221902436188151,18.775636446886445,-50.82633892799908,30.15326324617366,36.57492437176146,41.41513163806272,1577397318.999,-27.71748375728769,-51.110425051930335,2.2071567
26223,1577397319.96,-0.0708917272056021,1.4304478991996945,10.190890168873857,-1.3081684290443978,0.7106691269293065,9.103397058700937,-1.0088932215248665,-4.177356340510671,9.388248661097084,10.0802910037157,-12.751137338033535,-2.314683867663872,1.7339194693216462,-1.2973692358993902,-3.57818603515625,3.809114781821646,7.650980135289634,-1.765181378620427,-8.615621784979425,4.38220009157509,-2.9448214762667897,-0.3221902436188151,18.775636446886445,-50.82633892799908,30.009494713511245,36.38323299487824,41.27136310540031,1577397318.999,-27.71748375728769,-51.110425051930335,2.2071567
26224,1577397319.97,0.6078644434486947,0.0693442554008671,10.496150880543777,-0.1637400354897103,0.8351676132574315,8.30133950254859,0.1475061803306021,0.9773598338057355,10.19509462056974,-2.1877754025342986,-7.563149056783536,-0.3920764457888719,0.7878745474466463,-8.13330673589939,-1.10626220703125,4.083772984946647,10.763773104039634,-7.746626691120427,-9.183684759813232,4.199608421092795,-3.564783892322956,-0.3221902436188151,18.775636446886445,-50.82633892799908,30.08137897984245,36.57492437176146,41.31928594962111,1577397318.999,-27.71748375728769,-51.110425051930335,2.2071567
26225,1577397319.98,1.645750863126429,0.178280430937976,10.29623504192073,-0.1481777246986947,1.0973326950445408,11.073825025009528,-0.0667748682533822,-0.4005032216141863,10.611685709436928,2.4203788943407014,-5.884682259908536,0.981214569836128,2.222200719321646,-4.2423155249618905,-0.86212158203125,1.8407309927591464,8.062967439977134,-7.578780011432927,-8.426267460034818,1.6433250343406596,-3.719774496336995,-0.5638329263329266,22.412358821733815,-16.115490320226648,30.249108934615272,36.50304010543026,41.36720879384191,1577397318.999,-27.71748375728769,-51.110425051930335,2.2071567
26226,1577397319.99,1.6481450647865852,-0.310136707733898,10.497347981373856,2.7212729649985703,-1.8990106826410056,5.751514734482184,2.079626920076696,2.514437299626048,8.361136148890052,2.0846855349657014,-8.265053353658537,0.2182751167111281,0.8183921255716463,-1.8466856421493905,-1.04522705078125,4.480501500571647,8.139261385289634,-4.511763409870427,-8.426267460034818,1.6433250343406596,-3.719774496336995,-1.1276658526658527,-3.0446978021978017,-12.168775755494504,30.249108934615272,36.52700152754066,41.27136310540031,1577397318.999,-27.71748375728769,-51.110425051930335,2.2071567
26227,1577397320.0,2.2921853113686166,-2.129729969452648,8.03610867473323,1.335030203768102,0.2916838364019617,8.81130445616187,1.296722977205602,2.4162750315596417,8.935744547327552,0.4062187380907013,-4.847084603658536,0.2487926948361281,-1.0736977181783538,-9.44556259527439,0.87738037109375,5.457064000571647,9.512552400914634,1.805375262004573,-8.99433043486863,2.921466727716725,-3.2548026842948694,-0.1610951218094077,-2.706398046398046,-13.787940705128204,30.392877467277685,36.57492437176146,41.31928594962111,1577397319.999,-27.71748010430132,-51.11044654726278,2.151358
26228,1577397320.01,1.2016264551674447,-0.8608030895698354,8.920766188160965,0.6514856297934928,-0.5199505263910065,8.041568622421638,-0.2259892786537723,-3.900826048762624,8.353953543909583,2.8171074099657014,-1.7953267911585369,1.240613983898628,1.6271079458841462,-1.3736631812118902,0.55694580078125,0.5742515005716464,5.285867830602134,-0.4224079411204268,-10.319810709480848,3.834425080128205,-4.0297557043650745,4.349568288854004,-3.0446978021978017,-17.026270604395606,30.10534040195285,36.62284721598228,41.29532452751072,1577397319.999,-27.71748010430132,-51.11044654726278,2.151358
26229,1577397320.02,0.5228702845131478,-2.3045066906440543,8.972241523854324,0.8154884435141959,-1.6883209365472558,7.963757068466559,0.1618713902915396,-0.1862221730302009,8.646046146448645,-4.995392590034299,-4.358803353658536,1.072767304211128,1.2151206411966462,-7.4924375952743905,1.85394287109375,5.029817906821647,5.606302400914634,-0.4224079411204268,-8.99433043486863,3.6518334096459095,-2.9448214762667897,6.927090237804523,-0.6765995115995113,-49.409569597069606,30.15326324617366,36.38323299487824,41.22344026117951,1577397319.999,-27.71748010430132,-51.11044654726278,2.151358
26230,1577397320.03,1.6816638880287726,-2.0028372814643665,8.40002732707698,0.0110366857016959,0.3682982895269617,10.74821359922828,-1.0687482630287728,-1.1008072072098891,9.553448575647865,-0.2346504025342987,-3.8705221036585367,1.713636444836128,-0.2192055306783537,-5.508795017149391,1.79290771484375,3.412386266196646,7.162698885289634,0.9508830745045732,-8.99433043486863,3.6518334096459095,-2.9448214762667897,8.215851212279782,-3.0446978021978017,-48.59998712225275,30.15326324617366,36.33531015065744,41.12759457273789,1577397319.999,-27.71748010430132,-51.11044654726278,2.151358
26231,1577397320.04,1.4087248987709602,-0.9206581310737416,10.44228134319026,1.3230591954673208,0.0067738388433679,8.464145215439215,-0.1350096155678343,4.381914594547923,11.868641581018958,1.5353691287157014,-9.668861947408535,1.438978241711128,1.1846030630716462,0.4726502953506097,1.79290771484375,3.626009313071646,3.3785191977896343,4.826615496379573,-8.426267460034818,3.4692417391636146,-4.0297557043650745,7.249280481423338,-3.382997557997557,-49.409569597069606,30.15326324617366,36.52700152754066,41.31928594962111,1577397319.999,-27.71748010430132,-51.11044654726278,2.151358
26232,1577397320.05,0.6569455774818977,-0.3280932201850698,10.834930415455888,-1.3644321680580695,0.4832199692144627,12.485206903671637,-0.9634033899818978,-2.824632402522389,13.639153708704503,0.2688896365282014,-5.274330697408536,3.178480194836128,2.344271031821646,-6.332769626524391,4.08172607421875,-2.0197426400533534,-8.752218106897866,3.3465129573170733,-9.562393409702436,3.1040583981990224,-3.4097932883089124,7.088185359613931,-2.706398046398045,-52.04071264022436,30.15326324617366,36.52700152754066,41.31928594962111,1577397319.999,-27.71748010430132,-51.11044654726278,2.151358
26233,1577397320.06,2.031217330411585,-0.1928208263862417,13.664876777760574,1.689372049471227,-1.1615965713128809,8.14811059629859,2.149058768221227,-1.038557964045827,9.527112357386146,0.8029472537157013,-5.518471322408536,3.178480194836128,4.022737828696647,4.2568299828506095,2.58636474609375,-2.935269983803354,-13.192525724085366,-2.2534626286204267,-10.130456384536249,2.191100045787545,-2.014877852182537,6.927090237804523,-3.382997557997557,-55.076646920787546,30.201186090394465,36.57492437176146,41.463054482283525,1577397319.999,-27.71748010430132,-51.11044654726278,2.151358
26234,1577397320.07,2.6154025354897104,-3.702720460175304,8.572409846608231,4.066814298006383,-4.491931080590224,5.31337583067359,2.26876885122904,-2.7025281178544205,7.657240860804115,-0.9060371212842988,-1.6732564786585369,3.636243866711128,3.503939000571646,-0.4733946265243902,4.17327880859375,-2.538541468178354,-7.760396817835366,-0.6360309879954268,-10.130456384536249,2.191100045787545,-2.014877852182537,6.927090237804523,-3.382997557997557,-55.076646920787546,30.249108934615272,36.52700152754066,41.22344026117951,1577397319.999,-27.71748010430132,-51.11044654726278,2.151358
26235,1577397320.08,3.041570430997523,-2.7294774853217887,8.538891023366043,3.078009012361852,-1.496784803734756,8.22472504942359,1.5169895299399772,-6.784641948420827,7.49443514791349,7.4557792849657,0.6765970369664636,4.856946991711128,-0.0666176400533536,-5.569830173399391,4.99725341796875,-1.5619789681783538,-2.0536097084603657,-3.0774372379954267,-10.035779222063947,2.464987551510988,-2.5573449662316827,7.249280481423338,-3.0446978021978017,-62.36288919413919,30.34495462305688,36.52700152754066,41.22344026117951,1577397319.999,-27.71748010430132,-51.11044654726278,2.151358
26236,1577397320.09,2.4071069910561165,-2.8934802990424915,9.4989658890887,2.6434614110434924,-2.9644304214105373,9.722298187851326,2.1634239781821645,1.9661651194502667,12.024264688929115,0.4062187380907013,-1.1239400724085369,2.323988007336128,1.9322837271341464,0.9761903344131098,3.57818603515625,-0.1734291634908538,-14.581075528772868,4.643510027629572,-10.31981070948085,3.834425080128205,-4.0297557043650745,3.1413548752834464,-2.9601228632478627,-64.69043880923763,30.249108934615272,36.550962949651066,41.31928594962111,1577397319.999,-27.71748010430132,-51.11044654726278,2.151358
26237,1577397320.1,-0.2336974400962271,-1.6006114025581166,12.57551502238948,1.4762881017173208,-1.113712538109756,13.228606519150151,0.7723928136313833,-4.244393986995045,14.411283744104896,-5.819367199409299,3.9419778963414633,3.697279022961128,-0.5548988900533537,-7.7670957983993905,3.80706787109375,-4.705289515053353,-28.542867520960368,10.045121355754572,-8.804976109924027,3.834425080128205,-4.0297557043650745,-0.8054756090470375,-2.0297985347985343,-65.6012190934066,30.15326324617366,36.33531015065744,41.31928594962111,1577397319.999,-27.71748010430132,-51.11044654726278,2.151358
26238,1577397320.11,0.3073921350990853,1.416082689238757,14.976899287526198,0.3677727330649771,1.1871152573004002,17.41127681944312,2.0293486852134146,-7.42149959002239,12.141580570276773,-1.0586250119092986,-1.1544576505335369,2.476575897961128,1.6423667349466462,-3.8913633765243913,3.19671630859375,-9.160855921303352,-30.129781583460368,2.7819377620045733,-8.804976109924027,3.834425080128205,-4.0297557043650745,-2.738617070759928,-1.353199023199023,-65.6012190934066,30.009494713511245,36.52700152754066,41.27136310540031,1577397319.999,-27.71748010430132,-51.11044654726278,2.151358
26239,1577397320.12,0.753910744718226,-2.8324281567085072,12.449819435231277,3.9518926183188823,-3.2182157973871,12.73779517881812,3.042095987459508,-2.3769166920731704,11.078555033167396,-2.0504463009717986,-3.7637105802210367,1.759412812023628,5.548616734946647,4.5009706078506095,0.96893310546875,-5.864957483803353,-26.986471036585368,0.0963908870045732,-9.373039084757837,3.65183340964591,-3.874765100351035,1.9331414617128904,-0.1691498778998777,-68.63715337396978,30.009494713511245,36.479078683319855,41.12759457273789,1577397319.999,-27.71748010430132,-51.11044654726278,2.151358
26240,1577397320.13,0.2810559168373666,-1.564698377655773,13.269833503834793,0.7855609227622428,-3.182302772484756,11.713076868271248,0.8669637792075553,-1.8286445118973893,10.895398606165443,0.5588066287157013,2.141440786966464,2.568128632336128,2.924105016196646,-5.966558689024391,2.20489501953125,-2.5690590463033534,-16.366353849085368,0.6151897151295732,-10.509165034425452,3.286650068681319,-2.63484026823871,-0.7249280481423338,-0.9303243284493282,-68.7383511833219,30.15326324617366,36.59888579387187,41.24740168328991,1577397319.999,-27.71748010430132,-51.11044654726278,2.151358
26241,1577397320.14,1.6984232996498665,-2.3619675304878043,11.000130330006668,2.898443887850133,-2.871056556664444,10.16642259581031,1.593603983064977,2.169672260563548,8.935744547327552,4.159880847465701,-1.4901510099085369,0.7981091010861281,4.388948766196647,2.730951076600609,0.11444091796875,6.921907750571647,-8.736959317835366,7.512162371379573,-8.236913135090218,2.191100045787545,-2.63484026823871,-0.4832853654282228,-3.382997557997557,-68.02996651785715,30.249108934615272,36.71869290442388,41.27136310540031,1577397319.999,-27.71748010430132,-51.11044654726278,2.151358
26242,1577397320.15,2.031217330411585,-2.203950220917492,9.379255806080886,3.417985648104039,-2.909363783226944,6.441044812607184,2.1155399449790395,-1.019404350764577,7.97327547994474,10.0497734255907,-6.647621713033536,0.7981091010861281,4.358431188071647,0.8998963891006098,0.17547607421875,5.975862828696647,-4.037252286585366,9.739945574504572,-8.426267460034818,3.4692417391636146,-3.4097932883089155,-0.8054756090470375,-3.382997557997557,-66.00601033081502,30.009494713511245,36.33531015065744,41.12759457273789,1577397319.999,-27.71748010430132,-51.11044654726278,2.151358
26243,1577397320.16,1.369220571378382,-0.0802933483588984,10.157371345631669,1.3853084386313834,-0.0243507827386622,10.35077612364234,2.7523975865806016,-2.0967950978348893,6.656464566858802,9.3631279177782,-4.023109994283536,-0.4836291801638719,2.527376500571646,-8.10278915777439,-0.74005126953125,7.196565953696647,0.3572789634146341,8.854935808879572,-9.373039084757837,3.65183340964591,-3.874765100351039,-2.738617070759928,0.0,-61.553306719322336,30.10534040195285,36.479078683319855,41.07967172851709,1577397319.999,-27.71748010430132,-51.11044654726278,2.151358
26244,1577397320.17,1.1070554895912728,-0.903898719452648,7.514172712819167,2.437560068270055,-0.979637245141006,9.42541718199195,3.044490189119664,-6.011314812190358,10.787659531458411,1.7795097537157014,-0.9408346036585366,-0.5751819145388719,3.564974156821646,1.2355897484756095,-1.89971923828125,3.381868688071646,2.9970494712271343,1.439164324504573,-8.615621784979425,4.38220009157509,-3.2548026842948694,-3.382997557997558,0.6765995115995117,-61.553306719322336,30.009494713511245,36.59888579387187,41.24740168328991,1577397319.999,-27.71748010430132,-51.11044654726278,2.151358
26245,1577397320.18,0.8532701136147103,0.1543384143364135,11.167724446217605,2.953510526033727,-1.726628163109756,10.74821359922828,3.2216611119712266,-4.967442888362234,10.314804703577552,-1.2722480587842986,2.965415396341464,-1.093980742663872,2.283235875571646,-4.715337985899391,-2.51007080078125,-0.1581703744283537,2.9817906821646343,-8.540083722370428,-8.047558810145615,2.37369171626984,-2.7898308722527494,-3.382997557997558,0.6765995115995117,-61.553306719322336,30.05741755773205,36.52700152754066,41.22344026117951,1577397319.999,-27.71748010430132,-51.11044654726278,2.151358
26246,1577397320.19,1.8181333826576789,0.1040601794731322,10.471011763112136,3.432350858064977,-0.223069520531631,12.096149133896247,2.0676559117759146,-1.7352706471512955,9.424161685999428,3.763152331840701,-1.0018697599085369,-3.260728789538872,3.076692906821646,-2.5180723608993905,-4.21905517578125,4.266878453696647,4.233011385289634,-8.601118878620428,-8.804976109924027,3.834425080128205,-3.4097932883089155,0.8054756090470372,-0.3382997557997558,-55.8862293956044,29.96157186929044,36.52700152754066,41.31928594962111,1577397319.999,-27.71748010430132,-51.11044654726278,2.151358
26247,1577397320.2,1.3991480921303352,-0.6896176708686635,9.745568660084793,3.725640561434117,-1.3651037124261622,10.12093276426734,3.082797415682164,0.4542267710615949,7.525559769495521,2.8934013552782014,-3.2449117520960367,-4.435655547351372,3.229280797446646,-1.3889219702743902,-4.81414794921875,9.927889195884148,13.495096346227132,-6.724287823932927,-8.142235972617918,3.560537574404762,-3.0223167782738125,-3.060807314378743,0.6765995115995117,-55.48143815819597,30.05741755773205,36.550962949651066,41.31928594962111,1577397319.999,-27.71748010430132,-51.11044654726278,2.151358
26248,1577397320.21,1.8708058191811163,-0.319713514374523,9.937104792897292,2.340594901033727,-1.6595905166253808,8.890313110947028,1.6366996129477895,-5.77428884783489,5.816099784143959,4.617644519340701,-3.2296529630335367,-4.847642852038872,4.999300328696647,-3.7998106421493913,-6.14166259765625,12.354036656821648,31.942972322789632,-7.594038800495427,-8.804976109924027,2.7388750572344303,-3.4097932883089155,-3.382997557997558,0.0,-55.076646920787546,30.05741755773205,36.57492437176146,41.03174888429628,1577397319.999,-27.71748010430132,-51.11044654726278,2.151358
26249,1577397320.22,0.946643978360804,-0.6285655285346792,11.069562178151198,2.2304616246665394,-1.8918280776605367,8.121774378036871,0.7484507970298209,-4.072011467463796,7.515982962854896,2.2983085818407014,-4.480873666158536,-5.854722930163872,5.121370641196647,-1.3889219702743902,-6.62994384765625,12.842317906821648,37.95493521341464,-12.690474347370428,-9.183684759813232,4.564791762057388,-2.169868456196577,-3.2219024361881505,0.1691498778998781,-62.16049357543498,29.96157186929044,36.52700152754066,41.463054482283525,1577397319.999,-27.71748010430132,-51.11044654726278,2.151358
26250,1577397320.23,1.7570812403236946,-1.977698164032726,8.008575355641433,2.161029776522008,-1.9301353042230367,4.60469213926734,0.4779060094321646,1.7722347849776106,7.343600443323646,2.4966728396532014,-0.2236715177210365,-6.693956328601372,3.137728063071646,0.9914491234756098,-6.11114501953125,17.328401891196645,39.63340201028964,-10.950972394245428,-9.183684759813232,4.929975103021979,-3.719774496336995,-2.899712192569336,-1.8606486568986569,-62.16049357543498,29.93761044718004,36.57492437176146,41.12759457273789,1577397319.999,-27.71748010430132,-51.11044654726278,2.151358
26251,1577397320.24,0.8005976770912728,-0.5567394787299917,8.330595478932448,1.2883432713950556,-0.5690316604242096,5.12183969786109,-0.716800618985804,-1.5976040516923111,6.004044614466224,3.1833183474657014,0.7986673494664634,-6.373521758288872,0.6352866568216463,-0.9158995093368902,-7.63702392578125,15.772005406821648,42.22739615091464,-3.8098591129954262,-8.236913135090218,3.6518334096459095,-3.2548026842948694,-0.8860231699517414,-1.1840491452991453,-62.16049357543498,30.05741755773205,36.67077006020308,41.27136310540031,1577397319.999,-27.71748010430132,-51.11044654726278,2.151358
26252,1577397320.25,1.5475885950600228,0.3554513537895385,8.481430183522292,0.1355351720298209,3.2628880966558684,7.798557153915778,-0.4055544031654916,-1.2253056935380144,6.625339945276771,-0.5398261837842987,0.4934915682164634,-6.922838164538872,0.8794272818216463,2.029046779725609,-6.20269775390625,13.635774938071648,47.90366568216464,-6.037642316120427,-7.66885016025641,4.564791762057388,-2.169868456196577,-0.9665707308564452,-2.1989484126984125,-55.68383377690018,30.249108934615272,36.52700152754066,41.07967172851709,1577397319.999,-27.71748010430132,-51.11044654726278,2.151358
26253,1577397320.26,2.639344552091273,0.082512364531726,9.28109353801448,2.194548599764196,0.4425185409918054,6.0747319586032775,0.7101435704673209,-0.3849409108231706,5.069108866175209,-0.6313789181592987,-5.030190072408536,-7.472154570788872,1.6728843130716462,6.6677186547256095,-7.27081298828125,18.793245641196645,57.60825552591464,-5.244185284870427,-9.941102059591646,4.564791762057388,-3.099812080280829,29.64150241293098,-2.1989484126984125,-55.68383377690018,30.009494713511245,36.57492437176146,41.12759457273789,1577397319.999,-27.71748010430132,-51.11044654726278,2.151358
26254,1577397320.27,3.6473034510170543,0.475161436797351,9.093148707692215,2.9846351476157578,-0.069840614281631,4.951851379989996,1.641488016268102,-0.8278682179520769,3.939045682581459,1.1691581912157014,1.5005716463414636,-7.258531523913872,-1.9281899056783536,4.1652772484756095,-6.01959228515625,19.891878453696645,72.74497427591463,-7.410933331745427,-7.858204485201012,3.6518334096459095,-3.874765100351035,28.513836560265133,-2.706398046398046,-47.7904046474359,30.22514751250487,36.52700152754066,41.12759457273789,1577397319.999,-27.71748010430132,-51.11044654726278,2.151358
26255,1577397320.28,4.834827474454554,0.3482687488090698,9.35770799113948,3.5676232518638047,1.845520713843369,7.288592200302496,0.8633724767173209,-2.7815367726395768,3.147762033899818,2.8476249880907014,0.9512552400914634,-7.777330352038872,-1.5619789681783538,7.873162990663109,-6.06536865234375,23.920198766196645,96.31980337747714,-15.665938214557926,-7.858204485201012,3.6518334096459095,-3.564783892322956,28.19164631664632,-3.0446978021978017,-48.59998712225276,30.249108934615272,36.550962949651066,41.12759457273789,1577397319.999,-27.71748010430132,-51.11044654726278,2.151358
26256,1577397320.29,5.031152010587366,-0.3532323376167104,9.482206477467605,4.749161771150914,0.0019854355230554,3.769115759872808,-0.8963657434975227,4.556691315739329,13.925260807093178,5.746794909965701,6.352866568216464,-7.502672148913872,-2.385953577553354,10.97069717035061,-5.28717041015625,35.39480814119665,98.37973990091464,-14.155318097370428,-8.426267460034818,2.7388750572344303,-3.4097932883089155,28.19164631664632,-3.382997557997557,-49.409569597069606,30.201186090394465,36.479078683319855,41.31928594962111,1577397319.999,-27.71748010430132,-51.11044654726278,2.151358
26257,1577397320.3,3.640120846036585,-0.9350233410346792,6.7264803666277615,0.0301902989829459,1.7353874374761813,8.47372202207984,-3.4868919397865854,-10.296935783870047,20.51649797750333,2.6645195193407014,12.486899771341465,-6.251451445788872,-2.996305140053354,3.432855373475609,-2.81524658203125,17.297884313071645,58.49326529153964,-19.678999737995422,-6.911432860477997,4.199608421092795,-4.0297557043650745,-1.4498560962846678,-3.382997557997557,-17.026270604395606,30.05741755773205,36.71869290442388,41.27136310540031,1577397319.999,-27.71748010430132,-51.11044654726278,2.151358
26258,1577397320.31,1.3357017481361946,-2.061495222138195,8.832180726735183,-0.6617339808022102,-0.194339100609756,10.28134427549781,-3.599419417813929,-9.913863518245048,20.74155293355802,-5.9414375119093,17.949546255716463,-5.061265898913872,-2.813199671303354,11.88622451410061,-4.43267822265625,-3.484586390053354,1.639017244664634,-35.151411847370426,-8.615621784979425,3.6518334096459095,-2.944821476266786,-3.382997557997558,-3.382997557997557,-9.740028331043955,30.17722466828406,36.57492437176146,41.12759457273789,1577397319.999,-27.71748010430132,-51.11044654726278,2.151358
26259,1577397320.32,2.356828756192835,-3.137688868378429,10.51410739299495,3.176171280428258,-3.7784589858636624,8.437808997177497,-0.3911891932045541,2.0176404551436247,14.212565006311928,-17.2024238400343,10.625327505716465,-5.427476836413872,-7.0551430306783525,16.37230849847561,-2.03704833984375,-17.59896627286585,-40.10902963033537,-15.009810284870424,-8.615621784979425,3.286650068681319,-2.324859060210617,-0.3221902436188152,-3.382997557997557,-12.978358230311354,30.009494713511245,36.479078683319855,41.1994788390691,1577397319.999,-27.71748010430132,-51.11044654726278,2.151358
26260,1577397320.33,-0.3270713048423209,-3.278946766327648,12.216384773366045,1.9886472569907585,-0.9556952285394434,8.380348157333746,-1.8444696009193975,0.991725043766673,12.189464603479896,-16.2563789181593,19.383872427591463,-4.969713164538872,-9.404996546303352,4.1957948266006095,-4.03594970703125,-13.646939905678352,-58.96889291158536,6.535599871379573,-8.615621784979425,3.286650068681319,-2.324859060210617,-0.1610951218094077,-3.382997557997557,-10.549610805860803,30.009494713511245,36.33531015065744,41.41513163806272,1577397319.999,-27.71748010430132,-51.11044654726278,2.151358
26261,1577397320.34,-0.0014598790610709,0.8845699206840697,9.506148494069167,0.1546887853110709,2.5182913803472746,12.807227026962654,1.4714996983970083,3.548732416813548,9.16079950338224,0.0094902224657013,17.064536490091463,-3.779527617663872,-9.069303186928352,1.5407655297256098,-2.69317626953125,-12.945035608803352,-62.02065072408536,12.242386980754572,-7.858204485201012,3.6518334096459095,-2.9448214762667897,1.1276658526658527,0.0,-8.120863381410256,30.201186090394465,36.57492437176146,41.12759457273789,1577397319.999,-27.71748010430132,-51.11044654726278,2.151358
26262,1577397320.35,-0.1032134496177115,0.4093208911430545,10.071180085866043,-0.1445864222084593,3.6770849838629,10.681175952743905,-0.1685284388100228,2.4234576365401104,7.202342545374427,2.9544365115282014,-0.4983297208460362,-3.749010039538872,-6.872037561928353,11.70311904535061,-3.54766845703125,-22.222379358803355,-58.87734017721037,14.866898699504572,-8.804976109924025,3.1040583981990224,-2.9448214762667897,-0.8054756090470375,-3.0446978021978017,-8.930445856227106,30.08137897984245,36.38323299487824,41.41513163806272,1577397319.999,-27.71748010430132,-51.11044654726278,2.151358
26263,1577397320.36,0.1565574305092415,0.130396397734851,9.815000508229325,0.5952218907798209,-0.1919448989495997,10.106567554306404,-0.4570297388588504,-11.410239555842704,11.310792594202551,-3.2558906369092986,9.770835318216465,-2.314683867663872,-6.597379358803353,4.1042420922256095,-2.32696533203125,-24.43490377286585,-53.71986947408537,2.308915301067073,-7.858204485201012,3.286650068681319,-2.63484026823871,-3.3024499970928543,7.865469322344321,-14.901116608001372,30.249108934615272,36.45511726120945,41.2234402611795,1577397319.999,-27.71748010430132,-51.11044654726278,2.151358
26264,1577397320.37,1.3799944788490852,-1.8113011486518664,11.747121247975418,0.3510133214438834,-1.0059734634027246,14.030664075302496,2.254403641268102,-3.099965593440358,10.216642435511146,-11.5261543087843,1.5921243807164631,-2.711412383288872,-5.834439905678353,5.8437440453506095,-1.47247314453125,-27.868131311928355,-54.72694955221037,-12.171675519245428,-8.615621784979425,4.0170167506105,-2.63484026823871,-1.772046339903483,-3.382997557997557,-15.204710036057692,30.009494713511245,36.52700152754066,41.31928594962111,1577397319.999,-27.71748010430132,-51.11044654726278,2.151358
26265,1577397320.38,1.846863802579554,-2.735462989472179,11.15814763957698,5.098715213533727,-5.52862039943788,11.624491406845468,3.185748087068883,7.436915912907297,11.133621671350989,-3.0422675900342986,5.498374380716464,-2.467271758288872,-2.569059046303354,11.39794326410061,-1.77764892578125,-19.933560999428355,-50.27138314596037,-4.694868878620427,-8.615621784979425,4.747383432539684,-3.564783892322956,-1.772046339903483,-3.382997557997557,-16.62147936698718,30.34495462305688,36.33531015065744,41.31928594962111,1577397319.999,-27.71748010430132,-51.11044654726278,2.151358
26266,1577397320.39,0.6258209558998665,-3.8798913830268655,12.330109352223465,5.546430923982945,-7.470317945824599,10.219095032333747,1.5816329747641955,4.116158210270579,10.97321016012052,-6.490753918159299,9.541953482278965,-3.169176055163872,-5.010465296303353,3.036126857850609,-2.02178955078125,-12.914518030678352,-43.77113900533536,7.512162371379573,-8.615621784979423,4.199608421092797,-4.184746308379118,-1.772046339903483,-3.382997557997557,-16.62147936698718,30.297031778836075,36.33531015065744,41.41513163806272,1577397319.999,-27.71748010430132,-51.11044654726278,2.151358
26267,1577397320.4,0.3672471766029915,-3.128112061737804,10.50692478801448,0.9328043248618522,-2.719024751244522,14.186287183212654,0.8921028966391958,-1.4551490529130144,11.157563687952551,-10.3970039181593,10.106528677591465,-3.077623320788872,-5.315641077553353,2.395257717225609,-3.19671630859375,-11.937955530678352,-39.22401986471037,14.134476824504572,-8.804976109924027,4.564791762057388,-4.0297557043650745,-0.3221902436188154,-2.5372481684981683,-13.180753849015568,30.201186090394465,36.52700152754066,41.34324737173152,1577397319.999,-27.71748010430132,-51.11044654726278,2.151358
26268,1577397320.41,-0.6215581090415396,-1.0020609875190545,10.46861756145198,0.4994538243735709,-3.079352101098037,8.794545044540778,0.1475061803306021,-5.941882964045827,9.527112357386146,-1.0281074337842986,5.315268911966464,-3.901597930163872,-2.355435999428354,6.6066834984756095,-4.28009033203125,-14.074185999428352,-29.519430020960368,10.502885027629572,-8.804976109924027,4.564791762057388,-4.0297557043650745,-1.772046339903483,-3.382997557997557,-17.026270604395606,30.249108934615272,36.57492437176146,41.22344026117951,1577397319.999,-27.71748010430132,-51.11044654726278,2.151358
26269,1577397320.42,-1.7803517125571646,-0.9206581310737416,11.225185286061356,-2.457385225919398,-0.7617648940667872,9.091426050400154,0.4779060094321646,-7.129406987483328,9.05784883199552,4.037810534965701,2.660239615091464,-4.481431914538872,-4.491666468178353,-2.6401426733993905,-2.41851806640625,-11.358121546303352,-21.920553067835368,-0.5139606754954268,-9.373039084757837,1.825916704822951,-3.2548026842948694,-3.060807314378743,-3.382997557997557,-17.026270604395606,30.201186090394465,36.52700152754066,41.41513163806272,1577397319.999,-27.71748010430132,-51.11044654726278,2.151358
26270,1577397320.43,-0.8621753758872427,-1.3025332958686635,9.838942524830886,-1.930660860685023,-0.1536376723870997,10.08980814268531,-0.2930269251381478,-0.8398392262528581,5.614986844690834,-4.110382824409299,3.453696646341464,-3.443834258288872,-3.3167397103658534,5.8284852562881095,-2.35748291015625,-7.329801233803352,0.5098668540396343,-11.088301495807928,-8.615621784979423,3.65183340964591,-3.4097932883089124,-0.8054756090470375,7.442594627594626,-16.823874985691393,30.15326324617366,36.52700152754066,41.36720879384192,1577397319.999,-27.71748010430132,-51.11044654726278,2.151358
26271,1577397320.44,-0.3701669347251334,-0.9302349377143668,9.738386055104325,1.4236156651938834,-2.0977294204339745,5.464210535263434,-1.3943596888100227,4.346001569645579,7.116151285608803,-1.4248359494092986,2.782309927591464,-2.436754180163872,-3.331998499428354,6.0268495141006095,-2.38800048828125,4.938265172446647,18.881448885289632,-2.4670856754954267,-8.426267460034818,3.1040583981990206,-2.4798496642246697,-3.382997557997558,-2.706398046398046,-17.026270604395606,30.201186090394465,36.38323299487824,41.07967172851709,1577397319.999,-27.71748010430132,-51.11044654726278,2.151358
26272,1577397320.45,0.1086733973061156,0.4512194201957885,10.128640925709792,0.0301902989829459,-0.3236259902581935,8.291762695907964,-0.4989282679115853,4.997224421208078,10.350717728479896,1.1996757693407014,1.7752298494664631,-3.535386992663872,-3.515103968178354,0.5947206078506098,-3.08990478515625,7.410189000571647,16.195902010289632,3.605912371379573,-8.426267460034818,3.1040583981990206,-2.4798496642246697,-3.382997557997558,-3.382997557997557,-17.026270604395606,30.15326324617366,36.81453859286549,41.31928594962111,1577397319.999,-27.71748010430132,-51.11044654726278,2.151358
26273,1577397320.46,0.4318906214272103,-0.3460497326362417,9.984988826100418,0.3438307164634146,0.4377301376714929,10.659628137802498,1.823447342439977,1.6644957102705793,9.814416556604897,-1.5774238400342986,3.362143911966464,-3.993150664538872,-3.606656702553354,6.8813417016006095,-2.69317626953125,5.090853063071647,14.670023104039634,10.655472918254572,-9.183684759813232,4.564791762057388,-2.7898308722527494,-0.8054756090470375,16.914987789987787,-17.026270604395606,30.15326324617366,36.67077006020308,41.27136310540031,1577397319.999,-27.71748010430132,-51.11044654726278,2.151358
26274,1577397320.47,0.3959775965248666,-0.6596901501167105,9.831759919850418,0.6466972264731803,-0.586988172875381,9.595405499863045,0.5880392857993522,5.095386689274485,11.418531668909583,-2.6302802853467986,5.803550161966463,-3.581163359851372,-2.630094202553354,6.2404725609756095,-2.26593017578125,7.089754430259146,16.699442049352132,18.818925066692078,-8.426267460034822,2.5562833867521366,-4.0297557043650745,-2.0942365835222976,16.23838827838828,-53.45748197115384,30.08137897984245,36.43115583909905,41.48701590439393,1577397319.999,-27.71748010430132,-51.11044654726278,2.151358
26275,1577397320.48,0.6880701990639291,-0.520826453827648,9.451081855885574,-0.4893514612709603,-0.405028846703506,10.077837134384527,-0.5037166712318978,-5.88921052752239,7.20713094869474,-0.5703437619092987,8.702720083841463,-2.558824492663872,-2.111295374428354,0.8388612328506098,-2.23541259765625,-6.383756311928353,28.158792635289632,7.329056902629573,-7.858204485201012,2.921466727716725,-4.184746308379115,-1.1276658526658527,15.561788766788766,-54.26706444597069,30.05741755773205,36.57492437176146,41.41513163806272,1577397319.999,-27.71748010430132,-51.11044654726278,2.151358
26276,1577397320.49,0.314574740079554,-0.7626408215034292,10.147794538991045,-0.419919613126429,-0.4984027114495997,10.992422168564216,3.271939346834508,-6.348897246272389,5.746667935999428,-5.117462902534299,3.484214224466464,-2.314683867663872,-4.278043421303353,3.280267482850609,-1.19781494140625,-0.9821449838033536,37.58872427591464,-0.3918903629954268,-7.858204485201012,2.921466727716725,-4.184746308379115,-1.1276658526658527,15.561788766788766,-54.26706444597069,30.009494713511245,36.52700152754066,41.27136310540031,1577397319.999,-27.71748010430132,-51.11044654726278,2.151358
26277,1577397320.5,-0.3019321874106807,-1.824469257782726,8.334186781422684,0.3605901280845084,-1.8152136245355373,8.758632019638434,-1.233948177579554,-7.380798161799733,9.51753555074552,-2.3251045040967986,5.956138052591464,-1.521226836413872,-3.362516077553354,6.8508241234756095,-2.20489501953125,11.072298375571648,42.77671255716464,-9.974409894245428,-7.290141510367205,3.1040583981990224,-3.2548026842948725,-2.094236583522298,14.20858974358974,-55.8862293956044,30.17722466828406,36.52700152754066,41.31928594962111,1577397319.999,-27.71748010430132,-51.11044654726278,2.151358
26278,1577397320.51,-1.2991171788657585,-0.5519510754096792,8.67536051799495,-0.2858443201576791,-1.0634343032464746,8.160081604599373,-1.5607567041908823,-2.478670262629811,9.184741519983804,0.2536308474657013,5.406821646341464,-2.772447539538872,-3.3014809213033534,2.257928615663109,-1.06048583984375,17.191072789634145,43.58542837747714,-20.075728253620422,-8.426267460034818,2.7388750572344303,-3.099812080280829,-1.9331414617128904,15.561788766788766,-55.8862293956044,30.201186090394465,36.59888579387187,41.27136310540031,1577397319.999,-27.71748010430132,-51.11044654726278,2.151358
26279,1577397320.52,-0.8537956700766959,-0.6525075451362418,8.761551777760573,-1.2076119593178352,-0.0458985976800685,8.808910254501715,-2.974532784513148,-2.307484843928639,10.415361173304117,-5.392121105659299,0.8291849275914634,-3.169176055163872,-3.972867640053354,4.7451112328506095,-1.62506103515625,12.109896031821648,41.15928091653964,-30.329634503620422,-9.183684759813232,3.4692417391636146,-3.719774496336995,-1.772046339903483,15.561788766788766,-55.8862293956044,30.15326324617366,36.57492437176146,41.12759457273789,1577397319.999,-27.71748010430132,-51.11044654726278,2.151358
26280,1577397320.53,-1.3470012120688832,-1.071492835663585,9.40798622600276,-1.1070554895912728,-0.7282460708245997,7.0683256475681215,-5.471685116056117,-4.811819780452077,14.301150467737708,-5.880402355659299,1.3479837557164631,-2.619859648913872,-2.752164515053354,3.585443264100609,-2.11334228515625,-3.576139124428354,29.684671541539632,-30.970503644245422,-9.183684759813232,3.4692417391636146,-3.719774496336995,-2.416426827141113,14.20858974358974,-55.076646920787546,30.249108934615272,36.57492437176146,41.27136310540031,1577397319.999,-27.71748010430132,-51.11044654726278,2.151358
26281,1577397320.54,-0.6574711339438833,-0.9972725841987417,10.601495753590653,-0.2978153284584603,-0.8862633803949121,9.634909827255624,0.9423811315024772,10.927661933415107,12.778438211878331,-5.468415050971799,-1.6732564786585369,-3.047105742663872,-4.003385218178353,3.219232326600609,-1.04522705078125,4.511019078696647,8.139261385289634,-17.512251691120426,-8.615621784979425,2.373691716269838,-3.0998120802808327,-0.4832853654282228,-3.382997557997557,-54.67185568337912,30.009494713511245,36.57492437176146,41.41513163806272,1577397319.999,-27.71748010430132,-51.11044654726278,2.151358
26282,1577397320.55,-0.7005667638266959,-2.515196436737804,12.067944270436357,-0.0105111292397103,-1.565019551049209,11.18156409971656,-0.6186383509193978,3.907862665836985,14.250872232874428,-4.537628918159299,1.1953958650914631,-2.589342070788872,-4.537442835365853,5.9047792016006095,-1.45721435546875,-4.690030725990853,-7.195821622522866,-0.2087848942454266,-8.99433043486863,4.747383432539684,-3.2548026842948694,-3.2219024361881505,-3.382997557997557,-55.8862293956044,30.009494713511245,36.479078683319855,41.2234402611795,1577397319.999,-27.71748010430132,-51.11044654726278,2.151358
26283,1577397320.56,-0.3917147496665396,-1.1768377087104605,11.795005281178543,0.6383175206626334,-3.2852534438714747,12.42654896299781,-1.521252376798304,-6.322561028010671,16.482268180140053,0.0094902224657013,6.566489615091464,-2.375719023913872,-0.8600746713033537,1.1135194359756098,-1.56402587890625,-13.616422327553352,-26.620260099085368,5.040238543254573,-8.804976109924027,3.4692417391636146,-3.719774496336995,-3.382997557997558,-3.382997557997557,-54.26706444597069,30.05741755773205,36.52700152754066,41.31928594962111,1577397319.999,-27.71748010430132,-51.11044654726278,2.151358
26284,1577397320.57,-0.1546887853110709,-3.276552564667492,10.013719246022292,0.8298536534751334,-3.7449401626214742,11.272543762802496,-1.329716243985804,-3.7009102101395768,16.398471122034582,-3.1948554806592986,3.392661490091464,-2.833482695788872,0.3606284536966463,3.7685487328506095,-2.02178955078125,-16.332486780678355,-47.67738900533536,2.6903850276295733,-8.804976109924027,3.4692417391636146,-3.719774496336995,-0.8054756090470375,15.561788766788766,-15.407105654761905,30.009494713511245,36.52700152754066,41.27136310540031,1577397319.999,-27.71748010430132,-51.11044654726278,2.151358
26285,1577397320.58,0.1062791956459603,-1.6233563183296011,8.686134425465651,-0.477380452970179,-1.438126863060928,12.13804766294898,2.165818179842321,-2.3410036671708268,10.481201718958411,2.0236503787157014,2.568686880716464,-2.207872344226372,-0.8600746713033537,0.2132508812881098,-1.22833251953125,-21.29159322599085,-59.380880216272864,2.736161394817073,-8.142235972617916,4.108312585851648,-3.9522604023580583,-1.127665852665853,15.561788766788766,-15.811896892170328,30.17722466828406,36.67077006020308,41.24740168328991,1577397319.999,-27.71748010430132,-51.11044654726278,2.151358
26286,1577397320.59,-0.8466130650962271,-1.0475508190620229,9.803029499928543,-0.6928586023842416,-2.169555470238662,11.86391157286109,2.103568936678258,-0.0928483082841071,4.745891642054115,1.5048515505907014,1.3174661775914631,-1.765367461413872,0.1470054068216463,0.1979920922256097,-1.89971923828125,-13.097623499428352,-36.78261361471037,1.957963152629573,-7.479495835311807,2.556283386752136,-3.2548026842948694,0.4832853654282225,14.885189255189252,-17.026270604395606,30.15326324617366,36.67077006020308,41.07967172851709,1577397319.999,-27.71748010430132,-51.11044654726278,2.151358
26287,1577397320.6,-0.6047986974204459,-2.294929884003429,11.29222293254573,-0.6258209558998665,-1.209480604516006,13.95165542051734,2.735638174959508,-0.0425700734208259,4.67885399556974,-3.3779609494092986,0.3103860994664634,-2.162095977038872,-1.1957680306783538,-2.8842832983993905,-0.16021728515625,-4.369596155678353,-10.323873380335366,2.7514201838795733,-8.804976109924027,4.199608421092795,-4.0297557043650745,0.4832853654282225,14.885189255189252,-17.026270604395606,30.05741755773205,36.57492437176146,41.27136310540031,1577397319.999,-27.71748010430132,-51.11044654726278,2.151358
26288,1577397320.61,-0.1546887853110709,-2.412245765351085,11.51488368694026,-1.4685799402748665,-1.1592023696527247,12.110514343857185,0.6957783605063834,-1.309102751643483,7.049113639124427,-3.8967597775342986,0.8902200838414634,-0.5751819145388719,2.161165563071646,-0.6870176733993902,-1.22833251953125,4.388948766196647,12.014993807164634,2.5072795588795733,-8.804976109924027,4.199608421092795,-4.0297557043650745,0.4832853654282225,13.53199023199023,-13.787940705128204,30.15326324617366,36.52700152754066,41.41513163806272,1577397319.999,-27.71748010430132,-51.11044654726278,2.151358
26289,1577397320.62,0.4163283106361947,-1.9058721142280384,10.304614747731277,1.2799635655845083,-1.894222279320693,10.74103099424781,0.0206134923423213,-2.324244255549733,15.796329404505286,2.4051201052782014,-3.489052377096036,-0.7430285942263719,1.9780600943216464,-0.0156309546493906,-1.28936767578125,5.960604039634147,-2.2672327553353657,1.408646746379573,-8.426267460034822,3.4692417391636123,-4.184746308379118,-3.2219024361881505,6.258545482295482,-14.597523179945052,30.32099320094648,36.50304010543026,41.31928594962111,1577397319.999,-27.71748010430132,-51.11044654726278,2.151358
26290,1577397320.63,-0.0277960973227896,-1.9501648449409288,10.715220332448071,-0.419919613126429,0.5885648422613367,13.55661214659156,0.0110366857016959,-4.639437260920826,13.50148711324552,3.5495292849657014,-2.7413717130335367,-0.0869006645388719,-0.8295570931783537,-0.9006407202743902,0.14495849609375,-4.705289515053353,-20.669332364710368,-3.962447003620426,-8.426267460034818,2.7388750572344303,-4.649718120421247,-0.6443804872376302,15.730938644688644,-16.014292510874544,30.15326324617366,36.52700152754066,41.31928594962111,1577397319.999,-27.71748010430132,-51.11044654726278,2.151358
26291,1577397320.64,-0.2289090367759146,-1.634130225800304,11.512489485280105,0.4395987828696646,-2.399398829613662,12.677940137314216,2.9223859044516955,4.726679633610423,11.217418729456458,4.526091784965701,4.369223990091464,-0.4836291801638719,6.158968297446647,-2.3349668921493905,-1.10626220703125,3.564974156821646,-23.599019864710368,-0.7581013004954268,-8.99433043486863,3.286650068681319,-2.9448214762667897,-1.4498560962846678,-3.382997557997557,-16.62147936698718,30.009494713511245,36.57492437176146,41.27136310540031,1577397319.999,-27.71748010430132,-51.11044654726278,2.151358
26292,1577397320.65,1.032835238126429,-2.986854163788585,11.091109993092603,2.2520094396079458,-4.537420912133194,11.176775696396248,1.6941604527915397,-0.8350508229325456,9.311634207972084,-2.3403632931592986,-5.884682259908536,-0.4225940239138719,5.792757359946647,-4.410162204649391,0.38909912109375,-2.172330530678354,-11.910787442835366,2.6293498713795733,-8.615621784979425,4.38220009157509,-2.9448214762667897,-2.416426827141113,-3.382997557997557,-13.787940705128204,30.15326324617366,36.52700152754066,41.31928594962111,1577397319.999,-27.71748010430132,-51.11044654726278,2.151358
26293,1577397320.66,-0.0996221471274771,-1.7825707287299917,11.117446211354324,-1.0292439356361949,-1.2070864028558503,10.435770282577888,0.8130942418540397,-4.057646257502858,5.945386673792396,4.510832995903201,-4.236733041158536,0.1419811713986281,4.419466344321647,-4.471197360899391,-0.75531005859375,6.677767125571647,11.358865877477132,1.271317644817073,-7.763527322728711,3.7431292448870552,-3.332297986301892,0.4832853654282227,6.935144993894993,-15.00231441735348,30.12930182406326,36.359271572767845,41.34324737173152,1577397319.999,-27.71748010430132,-51.11044654726278,2.151358
26294,1577397320.67,2.414289596036585,-1.2917593883979603,9.249968916432447,1.698948856111852,-4.355461585961319,6.223172461532965,0.8059116368735709,-2.745623747737233,11.22938973775724,6.967498034965701,-9.363686166158535,-1.246568633288872,4.633089391196647,3.585443264100609,-1.41143798828125,7.074495641196647,16.440042635289632,-3.3520954411204267,-8.426267460034818,3.1040583981990206,-3.099812080280829,0.6443804872376299,15.730938644688644,-16.823874985691393,30.009494713511245,36.52700152754066,41.31928594962111,1577397319.999,-27.71748010430132,-51.11044654726278,2.151358
26295,1577397320.68,1.5284349817787728,-3.408233655976085,9.017731355397292,2.175394986482946,-2.832749330101944,8.121774378036871,0.2073612218345084,1.326913276188548,13.748089884241615,5.838347644340701,-3.9010396817835367,-0.4531116020388719,2.924105016196646,-5.813970798399391,0.54168701171875,11.621614781821648,7.773050447789634,-1.826216534870427,-7.479495835311807,4.0170167506105,-3.564783892322956,-0.6443804872376302,17.084137667887667,-49.20717397836538,30.009494713511245,36.33531015065744,41.07967172851709,1577397319.999,-27.71748010430132,-51.11044654726278,2.151358
26296,1577397320.69,0.0152995325600218,-0.8296784679878042,10.20046697551448,-1.751095736173304,0.2174635849371179,13.841522144150153,-0.2116240686928353,-4.14623171892864,12.440855777796305,4.404021472465701,3.056968130716464,-0.1174182426638719,5.457064000571647,-8.43848251714939,-1.19781494140625,1.2761557974466462,-0.3751429115853658,-2.4670856754954267,-8.236913135090218,2.556283386752136,-3.564783892322956,-0.6443804872376302,-3.21384768009768,-55.68383377690018,30.009494713511245,36.67077006020308,41.12759457273789,1577397319.999,-27.71748010430132,-51.11044654726278,2.151358
26297,1577397320.7,-0.1403235753501338,0.1794775317680546,12.276239814869948,-0.0643806665932259,-1.4453094680413965,9.499637433456794,-0.1254328089272103,0.6541426096846418,8.832793875940833,1.9168388552782012,-2.436195931783536,-1.917955352038872,5.991121617759147,-0.6107237280868902,-1.94549560546875,6.158968297446647,2.2035924399771343,-4.710127667682927,-8.615621784979425,2.9214667277167274,-3.0998120802808327,-0.5638329263329267,-2.9601228632478627,-48.90358055030907,30.201186090394465,36.57492437176146,41.22344026117951,1577397319.999,-27.71748010430132,-51.11044654726278,2.151358
26298,1577397320.71,1.559559603360804,-1.0451566174018667,11.000130330006668,0.9567463414634146,-0.6037475844964747,8.849611682724372,0.2504568517173209,-2.2715718190262955,8.62449833150724,6.967498034965701,-3.1686178067835367,-1.734849883288872,3.595491734946646,-2.8232481421493905,-1.56402587890625,8.234163609946647,13.876566072789634,-5.274702862995427,-7.66885016025641,3.4692417391636146,-1.8598872481684976,-2.738617070759928,-3.382997557997557,-49.409569597069606,30.05741755773205,36.52700152754066,41.22344026117951,1577397319.999,-27.71748010430132,-51.11044654726278,2.151358
26299,1577397320.72,2.6417387537514294,-2.275776270722179,10.025690254323074,1.926398013826696,-1.592552870141006,6.991711194443122,-1.1980351526772102,-3.2292524830887954,8.078620352991615,8.8901054568407,-2.8024068692835367,-2.589342070788872,5.487581578696647,6.5151307641006095,-2.66265869140625,10.858675328696648,16.165384432164632,-6.342818097370427,-8.99433043486863,4.0170167506105,-4.494727516407208,-3.2219024361881505,-2.5372481684981683,-48.39759150354853,30.009494713511245,36.33531015065744,41.27136310540031,1577397319.999,-27.71748010430132,-51.11044654726278,2.151358
26300,1577397320.73,1.5547712000404914,-2.6432862255561638,6.526564528004714,1.878513980623571,-2.7106450454339748,3.675741895126715,-0.0440299524818968,2.9238457835127667,6.156076419886146,8.0203544802782,7.237876333841465,-0.910875273913872,6.311556188071647,3.9821717797256095,-0.31280517578125,13.178011266196648,15.371927400914634,-1.612593487995427,-7.479495835311807,3.286650068681319,-4.184746308379115,-3.2219024361881505,-1.1840491452991453,-16.014292510874544,30.08137897984245,36.33531015065744,41.31928594962111,1577397319.999,-27.71748010430132,-51.11044654726278,2.151358
26301,1577397320.74,1.4398495203529915,-1.0643102306831167,7.585998762623856,1.4319953710044302,-0.952103926049209,7.387951569198979,1.2440505406821647,-1.5688736317704362,9.723436893518958,8.7069999880907,-0.5441060880335366,-3.199693633288872,4.053255406821647,2.318963771913109,-1.48773193359375,10.080477086509148,9.573587557164634,0.2032024104420731,-7.479495835311807,3.286650068681319,-4.184746308379115,-2.416426827141113,-3.2138476800976794,-15.407105654761905,29.96157186929044,36.479078683319855,41.24740168328991,1577397319.999,-27.71748010430132,-51.11044654726278,2.151358
26302,1577397320.75,0.9993164148842416,-0.721939393280773,10.042449665944169,-0.1972588587318978,-1.250182032738662,10.839193262314216,0.0397671056235709,-3.9666665944169206,10.688300162561926,8.3713066287157,-7.685219369283536,-3.779527617663872,3.870149938071646,1.2661073266006098,0.75531005859375,3.473421422446646,3.2564488852896343,-1.612593487995427,-7.290141510367206,3.1040583981990206,-3.4097932883089155,-0.8054756090470375,-2.706398046398046,-13.38314946771978,30.249108934615272,36.52700152754066,41.22344026117951,1577397319.999,-27.71748010430132,-51.11044654726278,2.151358
26303,1577397320.76,-1.0573028111899772,-0.4250583874213979,11.840495112721513,-1.885171029142054,-1.2837008559808496,14.25811323301734,-1.2291597742592415,-6.530856572444264,12.079331327112708,-0.5398261837842987,11.022056021341465,-0.7582873832888719,5.792757359946647,0.8083436547256098,-0.25177001953125,2.924105016196646,1.547464510289634,-5.793501691120427,-8.047558810145615,2.008508375305253,-3.719774496336995,0.4832853654282225,-3.0446978021978017,-13.38314946771978,30.15326324617366,36.479078683319855,41.12759457273789,1577397319.999,-27.71748010430132,-51.11044654726278,2.151358
26304,1577397320.77,-0.0577236180747427,-2.411048664521007,11.033649153248856,1.9934356603110708,-2.875844959984756,9.464921509384528,-0.1314183130776009,-1.3510012806962168,11.70823006978849,-7.696198254096799,4.460776724466464,-0.3463000786013719,3.381868688071646,3.7227723656631095,-0.81634521484375,3.046175328696646,1.2270299399771345,-3.764082745807927,-9.373039084757837,2.921466727716725,-3.564783892322956,7.652018285946856,-2.6218231074481078,-16.925072795043498,30.03345613562165,36.38323299487824,41.12759457273789,1577397319.999,-27.71748010430132,-51.11044654726278,2.151358
26305,1577397320.78,-0.4731176061118521,-0.3508381359565542,11.718390828053542,-0.4821688562904915,-0.1823680923089747,11.79447972471656,0.7245087804282584,-0.8877232594559831,10.396207560022864,2.1762382693407014,-0.9408346036585366,-0.910875273913872,2.283235875571646,-5.142584079649391,-0.12969970703125,5.640169469321647,5.331644197789634,-0.4224079411204268,-9.373039084757837,2.921466727716725,-3.564783892322956,7.73256584685156,-3.21384768009768,-16.823874985691393,30.249108934615272,36.38323299487824,41.22344026117951,1577397319.999,-27.71748010430132,-51.11044654726278,2.151358
26306,1577397320.79,-0.2097554234946646,1.7416941150200071,10.217226387135574,-1.0064990198647104,0.5694112289800867,10.669204944443122,1.1267346593345084,-2.9347656788895766,11.971592252405678,14.2917167849657,-5.579506478658536,-1.185533477038872,2.069612828696646,-0.4428770483993902,-1.01470947265625,2.802034703696646,4.934915682164634,-2.0398395817454267,-7.479495835311807,2.921466727716725,-2.9448214762667897,7.571470725042153,-2.0297985347985343,-47.7904046474359,30.009494713511245,36.71869290442388,41.31928594962111,1577397319.999,-27.71748010430132,-51.11044654726278,2.151358
26307,1577397320.8,0.5037166712318978,0.762465636016101,8.191731782643386,1.6917662511313831,0.3347794662847742,9.316481006454842,2.632687503572789,0.0460153880049543,10.223825040491615,7.303191394340701,-13.178383431783535,-1.795885039538872,1.6423667349466462,1.0524842797256098,-0.74005126953125,4.053255406821647,0.7540074790396342,-1.704146222370427,-7.858204485201012,5.477750114468864,-2.9448214762667897,7.571470725042153,-3.382997557997557,-48.59998712225275,30.249108934615272,36.479078683319855,41.27136310540031,1577397319.999,-27.71748010430132,-51.11044654726278,2.151358
26308,1577397320.81,-0.9004826024497428,-0.1952150280463979,8.415589637867996,-1.6984232996498667,0.2773186264410247,9.581040289902107,0.2911582799399771,-0.4160655324052019,9.322408115442787,4.4497978396532005,0.1577982088414632,0.080946015148628,1.6728843130716462,-6.439581149961891,-0.89263916015625,1.5355552115091462,0.8913365806021342,1.515458269817073,-8.331590297562519,3.19535423344017,-2.55734496623169,7.893660968660967,-2.5372481684981683,-53.25508635244962,30.10534040195285,36.479078683319855,41.12759457273789,1577397319.999,-27.71748010430132,-51.11044654726278,2.151358
26309,1577397320.82,-1.1650418858970084,-0.434635194062023,9.563609333912918,-0.9681917933022104,0.5191329941168055,10.93735553038062,-0.295421126798304,-0.4998625905106706,11.698653263147865,-4.934357433784299,-0.2389303067835365,0.8286266792111281,0.3911460318216463,-2.3960020483993905,-0.61798095703125,0.1164878286966463,0.3267613852896341,-1.032759503620427,-7.858204485201012,3.6518334096459095,-2.63484026823871,8.054756090470375,-1.8606486568986569,-51.63592140281592,30.201186090394465,36.52700152754066,41.22344026117951,1577397319.999,-27.71748010430132,-51.11044654726278,2.151358
26310,1577397320.83,-0.1522945836509146,0.0011095080864135,8.0815985062762,-0.0009343225990853,0.3946345077886805,9.979674866318122,0.3725611363852896,0.3931746287276105,9.613303617151772,-0.5703437619092987,-7.990395150533536,0.7675915229611281,-0.6769692025533537,-2.0603086890243905,-0.46539306640625,1.5202964224466462,-2.1451624428353657,-0.7886188786204268,-6.911432860477997,3.1040583981990206,-2.7898308722527494,8.054756090470375,-1.8606486568986569,-52.44550387763278,30.05741755773205,36.52700152754066,41.27136310540031,1577397319.999,-27.71748010430132,-51.11044654726278,2.151358
26311,1577397320.84,0.4857601587807259,-2.1357154736030384,9.757539668385574,0.9567463414634146,-2.028297572289443,6.316546326279059,-0.8005976770912728,-2.9132178639481703,6.630128348597084,0.0552665896532014,-10.187660775533535,-0.2089709770388719,2.374788609946646,-1.6025450171493902,-0.98419189453125,-0.3412758431783537,-0.4972132240853658,0.6457072932545732,-7.952881647673314,3.5605375744047603,-3.0223167782738094,6.927090237804523,0.0,-58.31497682005494,30.201186090394465,36.52700152754066,41.03174888429628,1577397319.999,-27.71748010430132,-51.11044654726278,2.151358
26312,1577397320.85,0.6760991907631478,-3.0634686169135854,9.994565632741043,2.022166080232946,-3.506717097435928,7.8356672796482,-0.8233425928627571,-3.997791215998952,7.919405942591224,-2.4929511837842986,4.460776724466464,0.1877575385861281,1.4440024771341462,-5.813970798399391,-0.31280517578125,0.2538169302591463,6.750711580602134,-1.276900128620427,-7.66885016025641,3.1040583981990206,-3.099812080280829,2.0942365835222976,-2.875547924297924,-62.16049357543498,30.392877467277685,36.479078683319855,41.34324737173152,1577397319.999,-27.71748010430132,-51.11044654726278,2.151358
26313,1577397320.86,1.0088932215248665,-3.501607520722179,9.451081855885574,1.150676675936071,-1.058645899926162,11.528723340439216,0.949563736482946,-1.7424532521317644,11.454444693811928,-5.331085949409299,-4.480873666158536,-0.0563830864138719,-0.2497231088033537,-4.776373142149391,-0.61798095703125,2.740999547446646,7.620462557164634,-2.2229450504954267,-7.66885016025641,3.1040583981990206,-3.099812080280829,2.0942365835222976,-3.0446978021978017,-61.95809795673076,30.15326324617366,36.52700152754066,41.12759457273789,1577397319.999,-27.71748010430132,-51.11044654726278,2.151358
26314,1577397320.87,2.371193966153773,-1.105011658905773,9.647406392018386,2.285528262850133,-0.4792490981683497,10.30049788877906,2.2807398595298207,-2.9419482838700457,12.36663552633146,4.770232409965701,-9.516274056783535,-0.7888049614138719,0.6352866568216463,1.6933534203506098,-1.59454345703125,-0.4633461556783537,-1.534810880335366,-2.8027790348704267,-8.426267460034818,4.199608421092795,-3.719774496336995,1.9331414617128904,-3.21384768009768,-62.16049357543498,30.05741755773205,36.38323299487824,41.463054482283525,1577397319.999,-27.71748010430132,-51.11044654726278,2.151358
26315,1577397320.88,0.4354819239174446,0.6631062671196166,10.945063691823076,2.7595801915610703,-1.690715138207412,9.709130078720468,1.1003984410727896,-0.7967435963700457,12.936455521448648,2.7865898318407014,-2.7261129239710367,-1.765367461413872,1.5202964224466462,-2.1823790015243905,-0.89263916015625,-1.5314613900533538,-11.544576505335366,-2.6807087223704267,-9.278361922285534,3.560537574404762,-2.712335570245723,2.0942365835222976,-3.382997557997557,-62.36288919413919,30.10534040195286,36.52700152754066,41.31928594962111,1577397319.999,-27.71748010430132,-51.11044654726278,2.151358
26316,1577397320.89,-1.220108524080602,-0.2047918346870229,7.023361372487137,-0.4366790247475228,-0.5833968703851465,11.018758386825937,0.5018480260337271,1.1174206309248766,11.685485154017003,-4.201935558784299,10.442222036966465,-0.7888049614138719,3.168245641196646,-7.87390732183689,-1.94549560546875,-4.751065882240853,-27.459493497522868,-0.7123249333079269,-7.858204485201012,2.921466727716725,-2.9448214762667897,-2.899712192569336,-1.0148992673992672,-61.95809795673077,30.009494713511245,36.52700152754066,41.36720879384191,1577397319.999,-27.71748010430132,-51.11044654726278,2.151358
26317,1577397320.9,-1.3326360021079455,-1.5527273693549917,8.282711445729324,-0.5587833094154916,-2.2725061416253807,10.252613855575934,-0.649762972501429,-2.3314268605302018,10.64759873433927,-2.0657050900342986,0.8291849275914634,-0.3310412895388719,4.785677281821647,-2.1823790015243905,-3.36456298828125,-6.200650843178353,-36.08070931783536,2.6598674495045733,-7.858204485201012,2.921466727716725,-2.9448214762667897,-2.416426827141113,-1.353199023199023,-62.36288919413919,30.392877467277685,36.57492437176146,41.22344026117951,1577397319.999,-27.71748010430132,-51.11044654726278,2.151358
26318,1577397320.91,-1.5912097814048207,-1.363585438202648,9.750357063405104,-2.36640556283346,-1.726628163109756,8.852005884384528,-0.3600645716225228,-4.819002385432546,9.278115384729896,1.2301933474657014,-7.807289681783536,-1.826402617663872,3.931185094321646,-8.16382431402439,-2.54058837890625,-9.435514124428352,-30.465474942835368,-0.7886188786204268,-8.426267460034818,2.7388750572344303,-2.169868456196577,-3.382997557997558,-0.6765995115995113,-59.124559294871794,29.96157186929044,36.57492437176146,41.22344026117951,1577397319.999,-27.71748010430132,-51.11044654726278,2.151358
26319,1577397320.92,-0.8286565526450552,-1.820877955292492,10.2268031937762,-0.2678878077065072,-2.6687465163812405,11.485627710556404,0.2576394566977896,-2.182986357600514,12.159537082727942,1.1538994021532014,-11.148964486471035,-2.802965117663872,2.634188024009146,-5.905523532774391,-3.41033935546875,-10.091642054115852,-32.693258145960364,0.2489787776295732,-6.911432860478,3.1040583981990206,-2.634840268238703,-2.98025975347404,-2.452673229548229,-59.02336148551969,30.22514751250487,36.43115583909905,41.1755174169587,1577397319.999,-27.71748010430132,-51.11044654726278,2.151358
26320,1577397320.93,-0.6981725621665397,-2.235074842499523,10.413550923268389,0.3031292882407584,-3.574951844750381,10.42739057676734,-1.3632350672279916,-4.665773479182546,13.89174198385099,1.5048515505907014,-2.4056783536585367,-1.307603789538872,2.649446813071646,-7.4924375952743905,-3.66973876953125,-12.853482874428352,-42.45888314596037,-0.8191364567454268,-7.479495835311807,1.4607333638583646,-1.3949154361263716,-2.899712192569336,-3.21384768009768,-58.92216367616759,30.05741755773205,36.52700152754066,41.41513163806272,1577397319.999,-27.71748010430132,-51.11044654726278,2.151358
26321,1577397320.94,-0.7221145787681021,-3.6141349987495226,10.90915066692073,0.8226710484946647,-3.917322682152725,12.00516947081031,0.1738423985923209,1.2574814280440167,12.692246952112708,-2.3708808712842986,-1.8868795255335369,-2.009508086413872,1.7339194693216462,-6.180181735899391,-4.52423095703125,-10.351041468178352,-47.55531869283536,4.124711199504573,-7.479495835311807,1.4607333638583646,-1.3949154361263716,-2.899712192569336,-3.21384768009768,-58.92216367616759,30.15326324617366,36.38323299487824,41.463054482283525,1577397319.999,-27.71748010430132,-51.11044654726278,2.151358
26322,1577397320.95,-0.0589207189048209,-2.663636939667492,9.831759919850418,0.8849202916587271,-2.952459413109756,10.769761414169684,0.4779060094321646,-2.259600810725514,10.774491422327552,-1.5774238400342986,-8.448158822408537,-2.925035430163872,1.1235679068216462,-6.546392673399391,-3.70025634765625,-13.158658655678352,-45.14443002096037,6.383011980754573,-8.047558810145615,3.4692417391636146,-2.4798496642246697,-3.2219024361881505,-3.21384768009768,-54.06466882726649,30.009494713511245,36.52700152754066,41.27136310540031,1577397319.999,-27.71748010430132,-51.11044654726278,2.151358
26323,1577397320.96,-0.4791031102622428,-0.8344668713081167,11.864437129323074,-0.7227861231361942,-0.5139650222406154,12.77610240538062,1.0800477269614617,-2.0668675770829363,9.531900760706458,3.4427177615282014,-10.004555306783535,-3.138658477038872,2.985140172446646,-9.81177353277439,-4.64630126953125,-6.9941078744283525,-33.12050423971037,1.683304949504573,-8.899653272396328,2.830170892475578,-2.712335570245723,1.772046339903483,0.6765995115995117,-42.9329097985348,30.03345613562165,36.550962949651066,41.27136310540031,1577397319.999,-27.71748010430132,-51.11044654726278,2.151358
26324,1577397320.97,0.4247080164467415,-1.6915910656440545,10.885208650319168,0.7676044103110709,-0.8766865737542872,10.207124024032966,0.7867580235923208,-0.8613870411942643,9.996375882776771,0.0705253787157013,-12.506996713033535,-2.741929961413872,2.252718297446646,-4.471197360899391,-3.48663330078125,-5.468228968178353,-18.868795255335368,-0.4529255192454268,-9.562393409702436,4.564791762057388,-4.0297557043650745,1.772046339903483,-3.382997557997557,-42.52811856112638,30.05741755773205,36.57492437176146,41.41513163806272,1577397319.999,-27.71748010430132,-51.11044654726278,2.151358
26325,1577397320.98,-0.5856450841391959,-0.2143686413276479,11.36165478069026,-0.7144064173256478,-0.2494057387933497,10.764973010849372,1.2727809606040397,1.125800336735423,8.330011527308022,2.2372734255907014,-5.487953744283536,-2.131578398913872,1.6728843130716462,-9.29297470464939,-2.08282470703125,1.3066733755716462,-12.490621427210366,0.3100139338795732,-7.858204485201012,4.38220009157509,-3.874765100351035,-3.382997557997558,-3.382997557997557,-62.36288919413919,30.15326324617366,36.52700152754066,41.55890017072513,1577397319.999,-27.71748010430132,-51.11044654726278,2.151358
26326,1577397320.99,-0.7484507970298209,-0.5160380505073354,10.212437983815262,-1.6409624598061163,0.6508140854254002,11.21268872129859,0.8083058385337272,0.1369950510908918,6.982075992640053,-1.6689765744092986,-5.274330697408536,-0.6362170707888719,2.405306188071646,-8.68262314214939,-2.78472900390625,2.924105016196646,-3.3048304115853657,2.6903850276295733,-7.858204485201012,4.38220009157509,-3.874765100351035,-2.738617070759928,0.6765995115995117,-42.9329097985348,30.009494713511245,36.33531015065744,41.463054482283525,1577397319.999,-27.71748010430132,-51.11044654726278,2.151358
26327,1577397321.0,-0.8956941991294303,-1.1205739696967885,8.880064759938309,-0.5839224268471321,-1.1544139663324122,8.373165552353278,-0.5827253260170541,-2.904838158137624,9.158405301722084,-0.1278388790967987,-10.935341439596035,-0.2700061332888719,3.412386266196646,-9.84229111089939,-1.93023681640625,-0.3565346322408538,4.141458650914634,0.8135539729420733,-8.615621784979423,3.1040583981990224,-2.9448214762667893,-1.369308535379964,-0.4228746947496947,-53.96347101791439,30.10534040195285,36.52700152754066,41.31928594962111,1577397320.999,-27.717476695306665,-51.11047127816519,2.2731104
26328,1577397321.01,0.3672471766029915,-1.114588465546398,9.237997908131668,-0.9729801966225228,0.0043796371832117,10.958903345322028,-0.5300528894936165,-2.2188993825028582,8.708295389612708,3.0917656130907014,-14.856850228658535,-0.941392852038872,0.6047690786966463,-11.82593368902439,-1.04522705078125,0.5437339224466463,10.092386385289634,-2.4060505192454267,-8.236913135090218,4.38220009157509,-3.2548026842948694,30.285882900168613,-3.21384768009768,-42.730514179830585,30.15326324617366,36.479078683319855,41.27136310540031,1577397320.999,-27.717476695306665,-51.11047127816519,2.2731104
26329,1577397321.02,0.0464241541420531,-0.3125309093940542,12.297787629811356,-0.6737049891029916,0.0211390488043054,9.893483606552495,0.8873144933188833,-2.5756354298661392,8.562249088343178,-0.9670722775342988,-17.603432259908537,-0.2394885551638719,2.344271031821646,-7.6755430640243905,-1.25885009765625,6.982942906821647,16.379007479039632,-5.091597394245427,-8.047558810145615,3.834425080128205,-3.099812080280829,27.547265829408687,-3.382997557997557,-42.9329097985348,30.05741755773205,36.38323299487824,41.27136310540031,1577397320.999,-27.717476695306665,-51.11047127816519,2.2731104
26330,1577397321.03,1.0064990198647104,-0.3616120434272573,10.942669490162915,0.9854767613852896,0.3275968613043055,10.72187738096656,0.7867580235923208,-0.1024251149247321,10.946873941858804,0.5893242068407014,-10.721718392721035,0.6455212104611281,1.2151206411966462,-8.01123642339939,-0.12969970703125,6.342073766196647,17.569193025914632,-4.511763409870427,-7.66885016025641,3.834425080128205,-2.634840268238703,27.547265829408687,-3.382997557997557,-54.67185568337912,30.201186090394465,36.52700152754066,41.55890017072513,1577397320.999,-27.717476695306665,-51.11047127816519,2.2731104
26331,1577397321.04,0.2499312952553353,0.3195383288871948,8.826195222584793,0.9591405431235708,-0.2661651504144435,8.885524707626717,0.7807725194419303,1.1006612193037824,10.301636594446691,3.824187488090701,-5.274330697408536,2.018812226086128,2.283235875571646,-9.27771591558689,-1.21307373046875,6.326814977134147,11.145242830602134,-2.5738971989329267,-6.911432860477997,5.295158443986569,-2.7898308722527494,28.19164631664632,-3.382997557997557,-55.076646920787546,30.392877467277685,36.43115583909905,41.24740168328991,1577397320.999,-27.717476695306665,-51.11047127816519,2.2731104
26332,1577397321.05,0.8293280970131478,-0.8416494762885854,8.51494900676448,0.7005667638266959,-0.1488492690667872,7.365206653427497,1.160253482576696,1.1808669749190168,8.21508984762052,1.6574394412157014,-8.692299447408537,1.988294647961128,1.7339194693216462,-9.26245712652439,-0.98419189453125,3.961702672446646,6.460794588414634,2.5988322932545733,-7.66885016025641,3.4692417391636146,-2.4798496642246697,29.480407291121576,-0.3382997557997558,-9.33523709363553,30.15326324617366,36.52700152754066,41.41513163806272,1577397320.999,-27.717476695306665,-51.11047127816519,2.2731104
26333,1577397321.06,1.1980351526772102,-0.9565711559760854,7.411222041432449,0.8681608800376334,-0.539104139672256,7.834470178818121,0.7269029820884146,-1.6203489674637956,7.563866996058021,3.793669909965701,-14.856850228658535,-0.1174182426638719,0.6963218130716463,-9.38452743902439,-1.19781494140625,4.724642125571647,15.463480135289634,5.070756121379573,-7.479495835311807,4.38220009157509,-3.874765100351035,-3.382997557997558,-2.706398046398046,-8.930445856227106,30.34495462305688,36.57492437176146,41.31928594962111,1577397320.999,-27.717476695306665,-51.11047127816519,2.2731104
26334,1577397321.07,1.2351452784096322,-2.188387910126476,9.10871101848323,0.968717349764196,-1.381863124047256,6.304575317978277,-0.0655777674233031,-2.8916700490067644,6.615763138636146,-2.5997627072217986,-12.049233041158535,0.5234508979611281,1.4897788443216462,-10.33057236089939,-0.06866455078125,4.449983922446647,12.411722322789634,6.535599871379573,-7.763527322728711,4.290904256333942,-3.332297986301892,-3.382997557997558,-2.706398046398046,-8.930445856227106,30.17722466828406,36.52700152754066,41.12759457273789,1577397320.999,-27.717476695306665,-51.11047127816519,2.2731104
26335,1577397321.08,2.6728633753334603,-2.244651649140148,8.989000935475417,2.109554440828649,-1.4524920730218651,8.021217908310309,1.5325518407309926,-3.8685043263505134,6.024395328577553,-1.0586250119092986,-7.990395150533536,0.7675915229611281,0.3453696646341463,-8.39270614996189,-0.09918212890625,8.463045445884148,27.30430044778964,5.681107683879573,-8.426267460034818,4.564791762057388,-3.099812080280829,-1.5304036571893715,-2.6218231074481078,-8.424456809466575,29.96157186929044,36.479078683319855,41.27136310540031,1577397320.999,-27.717476695306665,-51.11047127816519,2.2731104
26336,1577397321.09,1.4566089319740851,0.705004796172351,10.210043782155106,2.005406668611852,-0.2853187636956935,8.43541479551734,-0.0583951624428343,-4.093559282405201,6.203960453089271,3.2138359255907014,-8.692299447408537,0.7981091010861281,-0.8295570931783537,-8.83521103277439,-0.19073486328125,12.140413609946648,47.96470083841464,-1.643111066120427,-8.426267460034818,4.199608421092795,-3.099812080280829,-2.094236583522298,-2.706398046398046,-6.501698431776557,30.201186090394465,36.33531015065744,41.22344026117951,1577397320.999,-27.717476695306665,-51.11047127816519,2.2731104
26337,1577397321.1,1.7367305262123665,0.4967092517387572,10.48777117473323,0.7364797887290396,-0.3236259902581935,8.009246900009527,0.7987290318931021,-1.239670903498952,5.473728946741615,-1.6994941525342986,-8.905922494283537,0.5844860542111281,-1.0431801400533538,-7.156744235899391,-0.77056884765625,16.748567906821645,59.71396841653964,-4.603316144245427,-8.99433043486863,4.38220009157509,-2.9448214762667897,-2.094236583522298,-2.0297985347985343,-6.501698431776557,30.009494713511245,36.57492437176146,41.463054482283525,1577397320.999,-27.717476695306665,-51.11047127816519,2.2731104
26338,1577397321.11,2.80095316415182,-0.7710205273139761,10.716417433278153,2.4124209508384142,-0.7043040542230372,6.594273718857184,1.6558532262290395,-1.1175666188309832,5.090656681116615,-3.0422675900342986,-7.471596322408535,-0.4836291801638719,-1.5162026009908538,-4.562750095274391,-0.75531005859375,21.097322789634145,79.84031118997713,-5.167891339557927,-7.763527322728711,4.290904256333942,-2.7123355702457297,-3.2219024361881505,16.23838827838828,-9.740028331043955,30.24910893461527,36.43115583909905,41.34324737173152,1577397320.999,-27.717476695306665,-51.11047127816519,2.2731104
26339,1577397321.12,3.0583298426186167,-1.0212146008003042,8.780705391041824,1.4714996983970083,0.5550460190191492,7.84165278379859,-1.3177452356850228,-0.6866103200028582,7.652452457483802,-4.171417980659299,1.1038431307164631,1.011732147961128,-3.362516077553354,-5.600347751524391,-0.16021728515625,22.638460484946645,94.13779654153964,-4.084517316120427,-6.722078535533394,3.6518334096459095,-2.63484026823871,-3.382997557997558,17.253287545787547,-9.740028331043955,30.34495462305688,36.52700152754066,41.31928594962111,1577397320.999,-27.717476695306665,-51.11047127816519,2.2731104
26340,1577397321.13,4.231488656095179,-0.405904774140148,8.615505476491043,2.76676279654154,1.7449642441168065,6.713983801864996,-3.1612805140053357,-3.779918864924733,13.089684427698646,-1.6994941525342986,-6.311928353658536,0.7370739448361281,-4.217008265053353,0.3505799828506097,-0.19073486328125,19.952913609946645,84.43320669778963,-3.5352009098704267,-8.426267460034818,2.7388750572344303,-4.0297557043650745,-3.060807314378743,18.944786324786325,-12.168775755494504,30.15326324617366,36.52700152754066,41.27136310540031,1577397320.999,-27.717476695306665,-51.11047127816519,2.2731104
26341,1577397321.14,2.40471278939596,1.040193028594226,9.348131184498856,2.381296329256384,-0.1440608657464747,6.867212708114996,1.5026243199790397,-4.735205327327076,14.732106766565831,6.448699206840701,-2.4972310880335367,1.042249726086128,-3.667691858803354,-0.1071836890243902,0.32806396484375,10.797640172446648,54.61753286966464,-7.899214581745427,-6.154015560699591,6.025525125915753,-3.4097932883089155,-3.382997557997558,18.944786324786325,-10.549610805860803,30.009494713511245,36.38323299487824,41.463054482283525,1577397320.999,-27.717476695306665,-51.11047127816519,2.2731104
26342,1577397321.15,2.544773586515101,-0.0611397350776484,7.996604347340652,2.601562881990758,-0.0327304885492096,6.608638928818121,0.395306052156774,-6.672114470393485,14.11440273824552,-4.903839855659299,0.4934915682164635,-0.1479358207888719,-4.690030725990853,0.0454042016006097,-0.31280517578125,-1.2873207650533534,11.145242830602132,-22.80705149580793,-6.154015560699591,6.025525125915753,-3.4097932883089155,-2.738617070759928,18.60648656898657,-11.359193280677657,30.201186090394465,36.52700152754066,41.22344026117951,1577397320.999,-27.717476695306665,-51.11047127816519,2.2731104
26343,1577397321.16,1.942631868985804,-1.5144201427924917,8.488612788502762,3.166594473787633,-2.5286857192621,10.81046284239234,-1.243524984220179,-10.653671831233329,9.426555887659584,-9.8782050900343,3.6978372713414633,0.1267223823361281,-4.186490686928353,-3.3115293921493905,-0.31280517578125,-21.215299280678355,-16.305318692835368,-28.223921612995422,-9.183684759813232,4.929975103021979,-2.7898308722527494,-3.2219024361881505,18.43733669108669,-15.204710036057692,30.009494713511245,36.67077006020308,41.41513163806272,1577397320.999,-27.717476695306665,-51.11047127816519,2.2731104
26344,1577397321.17,2.967350179532679,-2.007625684784679,10.48777117473323,6.144981339022007,-2.626847987328506,12.053053504013434,4.945486307283726,15.704094245426823,8.837582279261147,-9.0847480587843,-0.0863424161585365,-1.185533477038872,-2.782682093178354,-0.3513243140243902,-2.26593017578125,-4.278043421303353,-25.765767911585368,-10.889937237995428,-8.236913135090218,4.747383432539684,-2.014877852182537,-0.4832853654282228,-3.382997557997557,-16.62147936698718,30.249108934615272,36.57492437176146,41.27136310540031,1577397320.999,-27.717476695306665,-51.11047127816519,2.2731104
26345,1577397321.18,1.3033800257240853,-2.5858253857124134,11.063576674000808,2.9319627110923205,-3.632412684594131,10.915807715439216,3.2863045567954456,9.237355561344796,13.841463748987708,-10.9615791134718,2.446616568216464,-1.261827422351372,-3.576139124428354,-1.4194395483993902,-1.77764892578125,-9.557584436928352,-23.965230802210368,8.214066668254572,-9.562393409702436,3.4692417391636146,-3.4097932883089155,-0.4832853654282228,-3.382997557997557,-16.216688129578753,30.22514751250487,36.57492437176146,41.27136310540031,1577397320.999,-27.717476695306665,-51.11047127816519,2.2731104
26346,1577397321.19,0.8341165003334603,0.973155382109851,10.217226387135574,1.1638447850669302,1.0243095444097752,14.14319155332984,0.0062482823813834,-0.9032855702469988,16.13870024190763,-6.307648449409299,8.061850943216463,-0.1174182426638719,-4.644254358803353,-2.273931735899391,-1.80816650390625,-13.448575647865852,-47.662130216272864,16.728470965129574,-9.562393409702436,3.4692417391636146,-3.4097932883089155,-0.8054756090470375,-3.382997557997557,-13.787940705128204,30.15326324617366,36.45511726120945,41.24740168328991,1577397320.999,-27.717476695306665,-51.11047127816519,2.2731104
26347,1577397321.2,1.6146262415443975,-0.827284266327648,9.381650007741042,3.0588553990806018,-1.1400487563714747,8.768208826279059,1.0884274327720085,-9.545156462580984,13.250095938929114,0.9555351443407012,-8.448158822408537,-1.734849883288872,-0.0055824838033536,5.2333924828506095,-2.87628173828125,-32.50680318692835,-70.10780892721037,9.129594012004572,-8.99433043486863,2.556283386752136,-3.564783892322956,-2.094236583522298,18.26818681318681,-14.19273194253663,30.05741755773205,36.52700152754066,41.31928594962111,1577397320.999,-27.717476695306665,-51.11047127816519,2.2731104
26348,1577397321.21,1.5811074183022102,-1.6868026623237418,8.94351110393245,1.6869778478110709,-2.746558070336319,6.575120105575934,-1.013681624845179,-8.551562773616139,11.772873514612709,-0.3872382931592987,-5.426918588033536,-1.673814727038872,-1.9281899056783536,-3.9218809546493913,-2.11334228515625,-33.72750631192835,-81.27724252096037,-4.298140362995427,-8.236913135090218,3.286650068681319,-3.2548026842948694,-1.4498560962846678,18.60648656898657,-17.026270604395606,29.86572618084883,36.71869290442388,41.41513163806272,1577397320.999,-27.717476695306665,-51.11047127816519,2.2731104
26349,1577397321.22,1.3273220423256478,-1.576669385956554,7.991815944020339,-0.4845630579506478,0.6149010605230565,11.222265527939216,1.5505083531821646,8.296434308903391,6.78575145650724,0.3909599490282015,2.492392935403964,-1.078721953601372,-2.721646936928354,-6.210699314024391,-0.89263916015625,-25.487760218178355,-76.45546517721037,-2.6807087223704267,-8.615621784979425,4.0170167506105,-2.78983087225275,-2.738617070759928,-3.382997557997557,-17.026270604395606,30.15326324617366,36.479078683319855,41.07967172851709,1577397320.999,-27.717476695306665,-51.11047127816519,2.2731104
26350,1577397321.23,-0.2121496251548209,-1.3755564465034291,9.791058491627762,1.2488389440024772,-1.9792164382562405,9.395489661239996,1.803096628328649,0.9522207163740948,3.274654721888099,0.5588066287157013,1.958335318216464,-0.941392852038872,-0.5396401009908537,1.998529201600609,-3.51715087890625,-15.371183069740852,-45.02235970846037,8.793900652629572,-8.99433043486863,3.6518334096459095,-2.9448214762667897,-1.449856096284668,-3.0446978021978017,-17.026270604395606,30.392877467277685,36.479078683319855,41.1994788390691,1577397320.999,-27.717476695306665,-51.11047127816519,2.2731104
26351,1577397321.24,-0.2720046666587271,-2.496042823456554,9.83654832317073,-1.2004293543373663,1.0171269394293063,11.229448132919684,2.649446915193883,0.4266934519697981,5.653294071253334,-7.619904308784299,7.604087271341464,-0.6056994926638719,-1.8671547494283536,-6.943121189024391,-0.74005126953125,-2.141812952553354,-11.544576505335366,8.122513933879572,-7.1007871854226,4.0170167506105,-1.7048966441544575,-1.4498560962846678,15.561788766788766,-55.076646920787546,30.009494713511245,36.57492437176146,41.22344026117951,1577397320.999,-27.717476695306665,-51.11047127816519,2.2731104
26352,1577397321.25,2.057553548673304,-2.242257447479992,9.31940076457698,1.3015113805259146,0.2605592148199304,13.84391634581031,0.3174944982016959,-5.549233891780202,12.39776014791349,-2.5539863400342986,-6.739174447408536,-0.941392852038872,-0.6159340463033537,-1.3584043921493902,-0.92315673828125,-0.3412758431783537,-3.7320765053353657,4.155228777629573,-6.911432860477997,4.564791762057388,-2.7898308722527494,-2.094236583522298,15.90008852258852,-52.647899496337,30.15326324617366,36.67077006020308,41.22344026117951,1577397320.999,-27.717476695306665,-51.11047127816519,2.2731104
26353,1577397321.26,2.726732912686976,-1.6389186291206166,12.950207582203934,4.9215442906821645,-2.159978663598037,10.89904830381812,0.8130942418540397,-8.424670085627858,13.73851307760099,2.7865898318407014,-9.623085580221035,-0.956651641101372,0.1164878286966463,5.5690858422256095,-1.62506103515625,-4.796842249428353,-4.708639005335366,-6.617476300495427,-8.99433043486863,3.651833409645909,-2.634840268238709,-2.094236583522298,15.90008852258852,-48.59998712225275,30.08137897984245,36.52700152754066,41.31928594962111,1577397320.999,-27.717476695306665,-51.11047127816519,2.2731104
26354,1577397321.27,4.286555294278773,-2.527167445038585,12.501294770924636,2.7811280065024766,-1.2741240493402246,11.37310023252906,2.678177335115758,5.002012824528391,14.604016977747474,-2.7370918087842986,-2.8939596036585367,-1.307603789538872,0.4826987661966463,-2.426519626524391,0.37384033203125,-2.828458460365854,-22.164693692835368,-4.618574933307928,-8.804976109924027,2.7388750572344303,-2.4798496642246697,-2.738617070759928,16.23838827838828,-53.45748197115385,30.009494713511245,36.43115583909905,41.1515559948483,1577397320.999,-27.717476695306665,-51.11047127816519,2.2731104
26355,1577397321.28,2.9984748011147104,-2.733068787812023,11.423904023854323,3.0564611974204454,-3.383415711937881,9.22789554502906,0.4419929845298209,5.784916767399484,13.47036249166349,3.5190117068407014,7.695640005716464,-1.032945586413872,3.839632359946646,5.7827088891006095,-0.19073486328125,-1.8366371713033536,-43.16078744283536,9.038041277629572,-9.373039084757837,4.0170167506105,-1.7048966441544575,0.4832853654282225,15.561788766788766,-55.8862293956044,30.05741755773205,36.479078683319855,41.22344026117951,1577397320.999,-27.717476695306665,-51.11047127816519,2.2731104
26356,1577397321.29,2.36640556283346,-3.331619202851085,11.057591169850417,2.6829657384360703,-1.506361610375381,7.30535161192359,-1.042412044767054,3.3643788889815167,10.262132267054117,-0.2346504025342987,6.810630240091464,-0.6362170707888719,3.412386266196646,4.8671815453506095,0.48065185546875,-7.665494593178353,-43.74062142721037,14.164994402629572,-8.615621784979425,3.6518334096459095,-2.324859060210617,-3.060807314378743,14.885189255189252,-49.409569597069606,30.05741755773205,36.57492437176146,41.27136310540031,1577397320.999,-27.717476695306665,-51.11047127816519,2.2731104
26357,1577397321.3,2.507663460782679,-3.4010510509956164,9.374467402760574,0.8154884435141959,-0.8838691787347559,8.047554126572027,-1.9474202723061165,-4.481419951350514,6.110586588343177,5.594207019340701,4.247153677591464,-1.063463164538872,5.457064000571647,6.4846131859756095,0.14495849609375,1.3066733755716462,-40.20058236471037,20.90937916825457,-9.183684759813232,4.199608421092795,-4.339736912393161,-3.060807314378743,13.193690476190474,-52.647899496337,30.34495462305688,36.479078683319855,41.22344026117951,1577397320.999,-27.717476695306665,-51.11047127816519,2.2731104
26358,1577397321.31,-0.4659350011313833,-2.436187781952648,9.182931269948076,-1.6912406946693976,-0.692333045922256,10.017982092880622,-0.5300528894936165,-3.897234746272389,5.346836258753334,9.9887382693407,15.538657583841465,1.286390351086128,5.609651891196647,4.5925233422256095,2.46429443359375,0.8183921255716463,-22.256246427210368,10.563920183879572,-9.183684759813232,3.834425080128205,-2.7898308722527494,29.480407291121576,13.193690476190474,-17.026270604395606,30.009494713511245,36.57492437176146,41.07967172851709,1577397320.999,-27.717476695306665,-51.11047127816519,2.2731104
26359,1577397321.32,-0.9328043248618522,-0.7195451916206167,10.4566465531512,-2.478933040860804,2.733769529761337,15.878987756943122,1.021389786287633,-0.0401758717606697,6.318882132776771,3.976775378715701,9.923423208841465,2.079847382336128,5.365511266196647,3.280267482850609,2.55584716796875,6.860872594321647,9.085306307164634,3.5143596370045733,-8.804976109924027,4.929975103021979,-1.8598872481684976,0.1610951218094073,14.20858974358974,-17.026270604395606,30.201186090394465,36.67077006020308,41.12759457273789,1577397320.999,-27.717476695306665,-51.11047127816519,2.2731104
26360,1577397321.33,0.630609359220179,-0.654901746796398,14.404685090748854,2.3429891026938834,0.5023735824957117,10.832010657333749,1.7228908727134145,-1.5724649342606705,9.63963983541349,6.326628894340701,-4.175697884908536,0.950696991711128,7.349153844321647,15.18212295160061,1.21307373046875,14.093538609946648,25.076517244664632,-0.8191364567454268,-8.047558810145615,3.4692417391636146,-3.4097932883089155,-3.382997557997558,12.85539072039072,-12.168775755494504,30.15326324617366,36.52700152754066,41.41513163806272,1577397320.999,-27.717476695306665,-51.11047127816519,2.2731104
26361,1577397321.34,2.1102259851967418,-1.6053998058784291,10.87084344035823,1.160253482576696,-2.037874378930068,8.368377149032964,0.5521262608970083,-0.0545410817216072,8.839976480921303,6.006194324028201,8.855307974466463,2.598646210461128,3.809114781821646,5.4775331078506095,5.08880615234375,18.671175328696645,33.16367544778964,-5.213667706745427,-8.899653272396327,3.925720915369352,-2.867326174259766,-1.6109512180940753,13.362840354090354,-13.585545086423991,30.10534040195285,36.57492437176146,41.27136310540031,1577397320.999,-27.717476695306665,-51.11047127816519,2.2731104
26362,1577397321.35,3.735888912442835,-0.6381423351753042,10.607481257741044,1.9742820470298208,0.4377301376714929,11.478445105575934,0.6742305455649771,3.0387674632002666,10.37944814840177,11.2094413943407,8.305991568216463,2.049329804211128,4.938265172446647,9.50585342035061,2.95257568359375,24.438997594321645,41.80015005716464,5.070756121379573,-9.373039084757837,4.38220009157509,-2.014877852182537,-3.382997557997558,16.23838827838828,-13.38314946771978,30.201186090394465,36.52700152754066,41.07967172851709,1577397320.999,-27.717476695306665,-51.11047127816519,2.2731104
26363,1577397321.36,2.1269853968178354,-2.3284487072456166,8.919569087330887,4.143428751131383,-2.89260437160585,6.934250354599372,0.3821379430259146,-7.330519926936452,15.280378946741614,9.3783867068407,10.533774771341465,1.866224335461128,7.288118688071647,16.25023818597561,3.07464599609375,11.865755406821648,25.412210604039632,2.9955608088795733,-8.804976109924027,4.564791762057388,-3.719774496336995,-3.382997557997558,16.23838827838828,-13.38314946771978,30.009494713511245,36.52700152754066,41.27136310540031,1577397320.999,-27.717476695306665,-51.11047127816519,2.2731104
26364,1577397321.37,1.6409624598061163,-0.2287338512885854,11.632199568287918,2.26876885122904,-1.786483204613662,9.299721594833748,4.325388077303258,-3.614718950373952,13.786397110804115,4.617644519340701,9.313071646341465,1.255872772961128,3.626009313071646,2.242669826600609,5.48553466796875,7.867952672446647,1.303323885289634,-5.579878644245427,-8.99433043486863,4.747383432539684,-2.63484026823871,-3.060807314378743,15.561788766788766,-16.62147936698718,30.15326324617366,36.71869290442388,41.22344026117951,1577397320.999,-27.717476695306665,-51.11047127816519,2.2731104
26365,1577397321.38,-0.1738423985923209,2.3402445300590697,8.141453547780106,-0.0512125574623656,1.5534281113043065,12.66118072569312,3.4969943028891954,-5.022509526545827,6.725896415003334,8.4933769412157,18.590415396341463,1.377943085461128,2.191683141196646,10.39086318597561,4.29534912109375,6.647249547446647,6.765970369664634,-15.131880597370428,-7.1007871854226,2.191100045787545,-3.564783892322956,-3.2219024361881505,18.775636446886445,-16.823874985691393,30.201186090394465,36.57492437176146,41.12759457273789,1577397320.999,-27.717476695306665,-51.11047127816519,2.2731104
26366,1577397321.39,0.4055544031654916,-0.1473309948432729,8.953087910573075,1.677401041170446,-2.6699436172113185,6.663705567001715,1.5385373448813833,-3.178974248225514,10.690694364222084,-2.8286445431592986,7.726157583841464,0.6760387885861281,5.609651891196647,10.63500381097561,1.94549560546875,-0.5243813119283537,6.888040682164634,-17.634322003620426,-8.236913135090218,2.921466727716725,-3.564783892322956,-3.382997557997558,18.26818681318681,-16.62147936698718,30.15326324617366,36.33531015065744,41.41513163806272,1577397320.999,-27.717476695306665,-51.11047127816519,2.2731104
26367,1577397321.4,-1.4236156651938834,0.3578455554496947,8.404815730397292,0.7197203771079459,0.5885648422613367,12.232618628525154,2.580015067049352,12.6299393137862,9.558236978968177,11.2094413943407,11.571372427591465,1.316907929211128,1.0625327505716462,0.0759217797256097,3.22723388671875,14.063021031821648,4.294046541539634,2.6293498713795733,-8.047558810145615,3.834425080128205,-2.4798496642246697,0.4832853654282225,-3.382997557997557,-17.026270604395606,30.05741755773205,36.81453859286549,41.41513163806272,1577397320.999,-27.717476695306665,-51.11047127816519,2.2731104
26368,1577397321.41,-1.9216096105063836,0.9516075671684447,8.531708418385573,-0.0464241541420531,0.7393995468511815,11.267755359482184,0.7556334020102896,-0.7033697316239519,8.516759256800208,0.9555351443407012,3.514731802591464,-0.4836291801638719,2.771517125571646,9.87206435785061,-0.19073486328125,8.478304234946647,6.582864900914634,11.235306902629572,-7.858204485201012,4.38220009157509,-1.3949154361263716,-1.6109512180940753,17.084137667887667,-49.20717397836538,30.249108934615272,36.57492437176146,41.12759457273789,1577397320.999,-27.717476695306665,-51.11047127816519,2.2731104
26369,1577397321.42,-1.6247286046470084,0.6690917712700073,8.756763374440261,-0.3696413782631478,-0.9437242202386622,8.016429504989997,1.153070877596227,1.0515800852705792,8.899831522425208,4.617644519340701,-1.7648092130335369,-0.1174182426638719,3.015657750571646,5.7216737328506095,0.32806396484375,9.210726109946648,9.359964510289634,13.157914324504572,-8.804976109924027,3.834425080128205,-2.4798496642246697,-3.060807314378743,-3.382997557997557,-49.409569597069606,30.249108934615272,36.57492437176146,41.463054482283525,1577397320.999,-27.717476695306665,-51.11047127816519,2.2731104
26370,1577397321.43,-0.6622595372641958,0.3051731189262572,8.593957661549636,-3.0942428675209603,1.270912315405869,11.14325687315406,-0.6425803675209603,2.6341473826338606,8.552672281702552,2.3288261599657014,1.897300161966464,1.133802460461128,2.161165563071646,-2.1518614233993905,0.29754638671875,8.234163609946647,17.874368807164632,20.42109791825457,-7.858204485201012,4.38220009157509,-1.3949154361263716,-1.9331414617128904,16.069238400488402,-55.68383377690018,30.009494713511245,36.71869290442388,41.12759457273789,1577397320.999,-27.717476695306665,-51.11047127816519,2.2731104
26371,1577397321.44,0.9227019617592416,-0.8344668713081167,7.741621870534011,-0.2714791101967416,0.5071619858160242,9.541535962509528,-3.427036898282679,-5.6473961598466085,7.108968680628334,3.2748710818407014,-1.9173971036585369,1.194837616711128,4.022737828696647,5.8742616234756095,0.66375732421875,1.5508140005716462,24.008402010289632,8.030961199504572,-7.858204485201012,1.825916704822951,-2.63484026823871,-2.255331705331705,16.069238400488402,-50.82633892799908,30.009494713511245,36.52700152754066,41.27136310540031,1577397320.999,-27.717476695306665,-51.11047127816519,2.2731104
26372,1577397321.45,2.2730316980873666,-1.2773941784370229,11.806976289479325,1.9192154088462268,-0.5630461562738189,6.340488342880621,-0.5288557886635384,-5.928714854914968,5.928627262171302,0.4672538943407013,-8.692299447408537,-0.4225940239138719,3.244539586509146,5.1265809594131095,0.95367431640625,12.155672399009148,33.484110018102136,-4.206587628620428,-8.426267460034818,3.1040583981990206,-2.169868456196577,-0.4832853654282226,18.94478632478632,-16.62147936698718,30.249108934615272,36.50304010543026,41.29532452751072,1577397320.999,-27.717476695306665,-51.11047127816519,2.2731104
26373,1577397321.46,4.382323360685023,0.7097931994926635,9.489389082448074,5.237578909822789,1.4097760116949314,6.9198851446384335,-0.4223138147865853,-0.6698509083817644,5.816099784143959,10.5685722537157,1.0428079744664631,-0.4531116020388719,-0.3412758431783537,10.90966201410061,0.99945068359375,20.654817906821645,43.02085318216464,-18.061568097370422,-7.66885016025641,4.564791762057388,-1.5499060401404114,0.3221902436188151,19.79053571428572,-16.823874985691393,30.15326324617366,36.57492437176146,41.27136310540031,1577397320.999,-27.717476695306665,-51.11047127816519,2.2731104
26374,1577397321.47,5.35436923470846,0.235741270781726,6.080045918385574,5.213636893221227,0.543075010718368,4.532866089462652,2.8481656529868515,0.1417834544112043,6.512812467249428,11.8808281130907,0.0052103182164634,-0.5751819145388719,2.679964391196646,7.2475526391006095,1.21307373046875,20.013948766196645,44.30259146341464,-24.409224347370422,-9.373039084757837,4.0170167506105,-2.9448214762667897,0.0,-3.21384768009768,-16.823874985691393,30.009494713511245,36.52700152754066,41.27136310540031,1577397320.999,-27.717476695306665,-51.11047127816519,2.2731104
26375,1577397321.48,4.3655639490639295,0.6834569812309448,8.785493794362136,2.896049686189977,-0.0291391860589747,6.378795569443121,1.143494070955602,-1.3545925831864518,9.52471815572599,14.7799980349657,10.503257193216465,-0.3615588676638719,0.0859702505716463,10.02465224847561,1.79290771484375,10.736605016196648,31.912454744664632,-16.505171612995426,-9.562393409702436,3.4692417391636146,-2.4798496642246697,-0.6443804872376302,-3.21384768009768,-16.014292510874544,30.201186090394465,36.57492437176146,41.31928594962111,1577397320.999,-27.717476695306665,-51.11047127816519,2.2731104
26376,1577397321.49,2.962561776212367,-2.543926856659679,7.676978425709793,2.594380277010289,-2.617271180687881,4.990158606552496,1.1363114659751334,6.117710798161204,12.902936698206458,4.404021472465701,10.106528677591465,-2.223131133288872,1.6728843130716462,10.63500381097561,1.76239013671875,8.478304234946647,6.674417635289634,0.2184611995045732,-8.99433043486863,3.286650068681319,-2.63484026823871,-0.8054756090470375,18.26818681318681,-15.00231441735348,29.86572618084883,36.57492437176146,41.27136310540031,1577397320.999,-27.717476695306665,-51.11047127816519,2.2731104
26377,1577397321.5,-0.7149319737876334,-0.5830756969917105,10.90915066692073,-4.537946468595179,0.763341563452744,9.735466296982183,-2.1461390100990854,-3.222069878108327,12.11045594869474,-4.018830090034299,16.240561880716463,-1.460191680163872,-1.5924965463033538,4.6230409203506095,4.72259521484375,-2.782682093178354,-12.338033536585366,5.284379168254573,-8.236913135090218,4.747383432539684,-2.324859060210617,7.08818535961393,-2.875547924297924,-16.823874985691393,30.009494713511245,36.57492437176146,41.41513163806272,1577397320.999,-27.717476695306665,-51.11047127816519,2.2731104
26378,1577397321.51,-1.390096841951696,0.9994916003715696,9.295458747975417,-0.2547196985756478,-0.6755736343011622,12.711458960556405,-2.299367916349085,-0.3131148610184831,11.301215787561928,-6.918000011909299,28.081382193216463,0.7370739448361281,2.100130406821646,13.41210342035061,-0.37384033203125,-4.918912561928353,-23.934713224085368,1.133988543254573,-8.236913135090218,3.286650068681319,-2.63484026823871,1.28876097447526,-3.21384768009768,-46.77842655391484,30.15326324617366,36.52700152754066,41.31928594962111,1577397320.999,-27.717476695306665,-51.11047127816519,2.2731104
26379,1577397321.52,-1.641488016268102,-1.842425770233898,9.922739582936355,-0.3026037317787728,-2.1551902602777244,9.634909827255624,-0.2020472620522103,0.3165601756026105,11.871035782679115,-12.5332343869093,19.017661490091463,0.1572399604611281,1.4592612661966462,12.95433974847561,0.81634521484375,-5.407193811928353,-24.789205411585368,5.864213152629573,-9.941102059591646,3.1040583981990206,-1.8598872481684976,0.6443804872376299,-2.5372481684981683,-48.39759150354853,30.201186090394465,36.52700152754066,41.27136310540031,1577397320.999,-27.717476695306665,-51.11047127816519,2.2731104
26380,1577397321.53,-2.7619743932212266,-1.2941535900581167,10.427916133229324,-2.105437581876429,1.1679616440191505,14.200652393173591,-1.4278785120522102,-4.921953056819265,15.766401883753334,-9.8782050900343,15.782798208841465,1.530530976086128,0.0554526724466463,3.005609279725609,1.79290771484375,-10.473111780678352,-39.40712533346037,4.124711199504573,-9.941102059591646,4.199608421092795,-3.099812080280829,1.1276658526658527,17.5915873015873,-55.8862293956044,30.009494713511245,36.479078683319855,41.27136310540031,1577397320.999,-27.717476695306665,-51.11047127816519,2.2731104
26381,1577397321.54,-1.7899285191977896,1.193421934844226,10.020901851002762,-0.3217573450600228,1.184721055640244,13.539852734970466,1.0501202062095083,-7.577122697932546,16.070465494593176,-0.6313789181592987,10.014975943216465,1.469495819836128,0.2690757193216463,10.69603896722561,-0.55694580078125,-22.954801233803355,-55.12367806783536,-6.159712628620427,-9.562393409702436,4.564791762057388,-2.4798496642246697,1.1276658526658527,-2.0297985347985343,-55.8862293956044,30.15326324617366,36.52700152754066,41.41513163806272,1577397320.999,-27.717476695306665,-51.11047127816519,2.2731104
26382,1577397321.55,0.1350096155678353,0.326720933867664,9.563609333912918,1.5373402440513049,-1.3315848891839748,11.413801660751716,4.609100974031773,3.408671619694408,11.03785360494474,8.2797538943407,-3.107582650533536,-0.0563830864138719,0.2080405630716463,6.3015077172256095,0.29754638671875,-20.74227681974085,-63.165059903772864,1.408646746379573,-9.562393409702436,4.564791762057388,-1.7048966441544608,-0.3221902436188151,-2.3680982905982906,-60.743724244505486,30.34495462305688,36.550962949651066,41.43909306017312,1577397320.999,-27.717476695306665,-51.11047127816519,2.2731104
26383,1577397321.56,0.8460875086342415,-1.2941535900581167,10.198072773854324,2.584803470369664,-2.049845387230849,12.59893148252906,2.7619743932212266,-0.1934047780106697,7.693153885706459,-0.3262031369092987,2.355063833841464,-0.1174182426638719,-0.6464516244283537,1.3576600609756098,-0.67901611328125,-19.567350061928355,-48.92860970846037,9.160111590129572,-8.99433043486863,4.0170167506105,-2.63484026823871,1.9331414617128904,-1.8606486568986569,-64.99403223729396,30.05741755773205,36.57492437176146,41.31928594962111,1577397320.999,-27.717476695306665,-51.11047127816519,2.2731104
26384,1577397321.57,0.0847313807045531,-2.2781704723823357,10.64100008098323,1.823447342439977,-3.108082521019913,10.609349902939217,3.425168253084508,0.321348578922923,6.658858768518959,-7.375763683784299,7.420981802591464,-0.6056994926638719,-0.4328285775533537,4.2263124047256095,-1.56402587890625,-10.412076624428352,-32.571187833460364,11.540482683879572,-9.562393409702436,3.834425080128205,-2.169868456196577,1.9331414617128904,-1.8606486568986569,-64.99403223729396,29.96157186929044,36.479078683319855,41.12759457273789,1577397320.999,-27.717476695306665,-51.11047127816519,2.2731104
26385,1577397321.58,-0.7029609654868522,-0.961359559296398,10.83253621379573,-0.3648529749428353,-1.6164948867425684,11.85194056456031,0.5688856725181022,-6.131024895198171,10.163969998987708,-2.6760566525342986,1.912558951028964,-0.4683703911013719,-1.5009438119283538,-2.6706602515243905,-0.03814697265625,-8.306363733803353,-22.317281583460368,10.991166277629572,-10.509165034425452,4.0170167506105,-2.324859060210617,-3.382997557997558,-1.353199023199023,-68.43475775526557,30.201186090394465,36.67077006020308,41.27136310540031,1577397320.999,-27.717476695306665,-51.11047127816519,2.2731104
26386,1577397321.59,-1.0046303746665397,-0.1616962048042104,9.973017817799636,-0.8772121302162728,0.0043796371832117,14.183892981552496,3.109133633943883,0.3859920237471418,12.21819502340177,5.166960925590701,-3.5958639005335367,-0.2089709770388719,-2.324918421303354,-1.5415098608993902,-1.38092041015625,-2.416471155678354,-18.807760099085368,9.862015887004572,-8.615621784979425,4.0170167506105,-2.9448214762667897,-3.382997557997558,-1.0148992673992672,-65.6012190934066,30.15326324617366,36.479078683319855,41.22344026117951,1577397320.999,-27.717476695306665,-51.11047127816519,2.2731104
26387,1577397321.6,-1.150676675936071,0.3578455554496947,9.872461348073074,-0.8041889795815071,1.166764543189072,12.960455933212652,2.1215254491294298,1.097069916813548,9.2888892922006,0.2536308474657013,-7.288490853658536,0.2487926948361281,-1.4551674447408538,-1.9687559546493905,-0.34332275390625,1.0930503286966466,-12.780538419397868,14.927933855754572,-8.615621784979425,3.286650068681319,-1.7048966441544575,-1.8525939008081869,-2.6218231074481078,-55.78503158625229,30.05741755773205,36.62284721598228,41.39117021595232,1577397320.999,-27.717476695306665,-51.11047127816519,2.2731104
26388,1577397321.61,-1.0285723912681022,1.3538334460746946,12.14695292522151,-0.352881966642054,-1.3028544692620996,8.770603027939215,-0.3097863367592415,0.1800906809737043,7.1400933022103645,-0.2651679806592987,-6.739174447408536,0.4929333198361281,0.3301108755716463,-2.0908262671493905,-1.04522705078125,1.3982261099466462,4.751810213414634,8.641312762004572,-9.183684759813232,3.834425080128205,-3.4097932883089155,-3.2219024361881505,-3.21384768009768,-62.16049357543498,30.15326324617366,36.479078683319855,41.27136310540031,1577397320.999,-27.717476695306665,-51.11047127816519,2.2731104
26389,1577397321.62,-0.7412681920493521,-0.0072701977241328,9.84253382732112,-0.0799429773842406,-1.3770747207269434,5.325346838974371,-3.934607650235804,2.799347297184642,6.883913724573646,-1.1349189572217986,-1.2765279630335369,0.1724987495236281,-1.1042152963033538,-1.6330625952743902,-1.25885009765625,0.5742515005716463,15.005716463414634,10.502885027629572,-9.562393409702436,3.1040583981990206,-2.169868456196577,-1.4498560962846678,19.62138583638584,-62.36288919413919,30.273070356725672,36.57492437176146,41.31928594962111,1577397320.999,-27.717476695306665,-51.11047127816519,2.2731104
26390,1577397321.63,-0.5066364293540396,-0.7554582165229604,7.473471284596512,-2.22634476571432,1.6144802536382905,7.49688774473609,-1.4446379236733042,-1.116369518000905,6.511615366419349,-2.4929511837842986,-2.3751607755335367,-0.5141467582888719,-2.355435999428354,-2.563848728086891,-0.45013427734375,-0.0666176400533533,24.75608267435213,8.793900652629572,-9.562393409702436,3.1040583981990206,-2.169868456196577,-2.094236583522298,20.80543498168497,-58.31497682005495,30.009494713511245,36.57492437176146,41.1994788390691,1577397320.999,-27.717476695306665,-51.11047127816519,2.2731104
26391,1577397321.64,0.8484817102943978,1.8685868030082884,7.380097419850418,-0.5731485193764291,3.4807604477300877,5.097897681259528,-1.7654609461342414,-2.221293584163014,1.532873014124427,6.479216784965701,-3.4127584317835367,-0.1784533989138719,-1.6230141244283538,6.1489198266006095,-0.16021728515625,15.863558141196648,45.24863638528964,0.1879436213795732,-9.562393409702436,3.834425080128205,-3.4097932883089155,-3.382997557997558,19.95968559218559,-55.8862293956044,30.201186090394465,36.52700152754066,41.12759457273789,1577397320.999,-27.717476695306665,-51.11047127816519,2.2731104
26392,1577397321.65,0.8460875086342415,1.7536651233207885,9.628252778737137,0.9064681066001332,0.2390113998785242,5.35168305723609,0.1163815587485709,-2.3960703053544203,6.962922379358802,6.235076159965701,-9.089027963033535,-0.8498401176638719,-1.8366371713033536,0.3505799828506097,0.87738037109375,12.750765172446648,54.25132193216464,-6.159712628620427,-8.236913135090218,5.112566773504274,-2.014877852182537,-3.382997557997558,21.31288461538461,-54.26706444597069,30.201186090394465,36.57492437176146,41.463054482283525,1577397320.999,-27.717476695306665,-51.11047127816519,2.2731104
26393,1577397321.66,2.380770772794398,-1.413863673065929,9.093148707692215,1.584027176424352,-0.4648838882074122,6.907914136337652,-0.506110872892054,-8.374391850764576,11.061795621546302,-5.3158271603468,1.6531595369664642,0.447156952648628,-3.423551233803354,2.273187404725609,1.48773193359375,1.3677085318216462,50.37558951028964,-14.307905987995428,-9.183684759813232,3.834425080128205,-1.8598872481684976,-2.094236583522298,-3.0446978021978017,-53.86227320856226,30.10534040195285,36.67077006020308,41.31928594962111,1577397320.999,-27.717476695306665,-51.11047127816519,2.2731104
26394,1577397321.67,0.0775487757240843,-0.1880324230659292,10.253139412037918,2.162226877352086,-1.729022364769912,9.69356776792945,-2.147336110929164,-1.0110246449540294,14.649506809290443,-2.6760566525342986,19.872153677591463,1.805189179211128,-4.506925257240853,3.9211366234756095,1.42669677734375,9.348055211509148,19.75119986185213,-20.228316144245422,-9.183684759813232,3.834425080128205,-1.8598872481684976,-3.2219024361881505,-3.2138476800976794,-58.71976805746337,30.15326324617366,36.50304010543026,41.31928594962111,1577397320.999,-27.717476695306665,-51.11047127816519,2.2731104
26395,1577397321.68,-0.1666597936118521,-0.769823426483898,10.1118815140887,1.0620912145102896,-1.2334226211175685,13.01312836973609,1.603180789705602,-7.771053032405202,12.902936698206458,-9.7256171994093,10.045493521341465,1.316907929211128,-4.400113733803353,0.9609315453506098,1.30462646484375,-3.454068811928354,-2.8470667397103657,-27.888228253620422,-11.077228009259256,3.834425080128205,-2.4798496642246697,-3.382997557997558,-3.382997557997557,-62.36288919413919,30.34495462305688,36.52700152754066,41.22344026117951,1577397320.999,-27.717476695306665,-51.11047127816519,2.2731104
26396,1577397321.69,-0.6550769322837271,0.6738801745903198,11.510095283619949,-1.2507075892006478,0.3826634994878992,13.049041394638436,3.944710013338414,4.738650641911204,8.938138748987708,-2.2793281369092986,3.514731802591464,1.316907929211128,-2.691129358803354,3.6159608422256095,1.02996826171875,-12.060025843178352,-2.9996546303353657,-20.533491925495422,-8.236913135090218,2.556283386752136,-1.7048966441544575,-3.382997557997558,-0.6765995115995113,-62.36288919413919,30.392877467277685,36.479078683319855,41.41513163806272,1577397320.999,-27.717476695306665,-51.11047127816519,2.2731104
26397,1577397321.7,-0.1678568944419302,-0.3951308666694453,9.431928242604323,0.759224704500524,-1.1639907729730372,8.60899441587867,1.6738097386802118,12.255246753971749,11.398180954798256,-1.9741523556592984,1.5158304354039636,-1.505968047351372,-3.393033655678354,3.8601014672256095,-0.78582763671875,3.763338414634146,-4.662862638147866,6.428788347942072,-9.183684759813232,2.9214667277167257,-1.8598872481685005,14.095823158323157,-1.9452235958485955,-61.45210890997024,30.10534040195285,36.45511726120945,41.1755174169587,1577397320.999,-27.717476695306665,-51.11047127816519,2.2731104
26398,1577397321.71,-1.9766762486899767,0.2309528674614135,8.735215559498855,-2.536393880704554,1.0075501327886816,10.599773096298591,-1.3656292688881475,-3.576411723811452,12.031447293909585,-0.8450019650342987,5.650962271341464,0.6760387885861281,-5.468228968178353,-5.325689548399391,0.99945068359375,-5.529264124428353,-18.258443692835368,28.66084401200457,-8.804976109924027,2.7388750572344303,-1.2399248321123315,30.285882900168613,-1.5223489010989009,-52.44550387763278,30.249108934615272,36.57492437176146,41.27136310540031,1577397320.999,-27.717476695306665,-51.11047127816519,2.2731104
26399,1577397321.72,-1.9838588536704456,0.7983786609184448,8.297076655690262,-3.331268831876429,2.618847850073837,12.89341828672828,0.1379293736899771,1.5447856272627667,8.42099119039396,-6.277130871284299,5.010093130716464,1.194837616711128,-3.728727015053354,1.1745545922256098,-0.06866455078125,-15.722135218178352,-23.293844083460368,27.10444752762957,-8.426267460034818,4.199608421092795,-2.4798496642246697,28.836026803883943,-3.0446978021978017,-47.38561341002747,30.05741755773205,36.52700152754066,41.22344026117951,1577397320.999,-27.717476695306665,-51.11047127816519,2.2731104
26400,1577397321.73,-1.7815488133872426,0.4021382861625858,8.536496821705887,-1.023258431485804,-0.3786926284417872,8.842429077743903,0.4060799596274771,-4.220451970393483,7.731461112268959,-3.2711494259717986,-2.787148080221036,0.6150036323361281,-2.660611780678354,5.7521913109756095,-0.55694580078125,-12.639859827553352,-18.685689786585368,13.157914324504572,-8.99433043486863,4.564791762057388,-2.324859060210623,27.8694560730275,-3.0446978021978017,-15.00231441735348,30.08137897984245,36.57492437176146,41.31928594962111,1577397320.999,-27.717476695306665,-51.11047127816519,2.2731104
26401,1577397321.74,-1.112369449373571,1.5669173938286007,10.15497714397151,-1.1800786402260384,1.3331615585699308,11.403027753281012,-1.1716989344154916,-7.505296648127859,5.796946170862709,-2.8591621212842986,-8.631264291158537,0.8591442573361281,-2.981046350990854,-6.7142393530868905,0.23651123046875,-5.2240883431783525,9.512552400914632,-8.250166730182928,-9.941102059591646,3.4692417391636146,-3.4097932883089155,28.19164631664632,15.561788766788766,-15.00231441735348,30.05741755773205,36.742654326534286,41.22344026117951,1577397320.999,-27.717476695306665,-51.11047127816519,2.2731104
26402,1577397321.75,0.6904644007240853,-1.4832955212104604,9.182931269948076,1.928792215486852,-2.6124827773675685,9.187194116806404,1.7995053258384146,0.6876614329268292,13.092078629358802,-5.300568371284299,-9.974037728658535,0.8591442573361281,-2.324918421303354,2.547845607850609,-0.22125244140625,6.830355016196647,17.538675447789632,-13.514448956745428,-9.941102059591646,3.4692417391636146,-3.4097932883089155,-1.9331414617128904,15.730938644688644,-13.585545086423991,30.34495462305688,36.479078683319855,41.22344026117951,1577397320.999,-27.717476695306665,-51.11047127816519,2.2731104
26403,1577397321.76,1.588290023282679,-2.005231483124523,12.113434101979324,1.8952733922446643,-1.8295788344964747,10.91341351377906,1.3661548253501334,0.5440093333174543,16.609160868128335,-4.446076183784299,-6.800209603658536,1.072767304211128,-1.4093910775533538,-6.851568454649391,1.85394287109375,2.191683141196646,2.7071324790396343,-11.134077862995428,-8.99433043486863,2.921466727716725,-2.324859060210617,-2.094236583522298,-3.382997557997557,-12.168775755494504,30.15326324617366,36.479078683319855,41.31928594962111,1577397320.999,-27.717476695306665,-51.11047127816519,2.2731104
26404,1577397321.77,1.8911565332924445,-1.267817371796398,12.593471534840653,-0.2235950769936165,-0.9772430434808496,15.670692212509527,2.196942801424352,0.4099340403487043,14.35861130758146,-5.285309582221799,-6.037270150533536,0.8133678901486281,-2.233365686928354,-11.18506454839939,1.02996826171875,-7.451871546303353,-9.011617520960366,-5.427290753620427,-8.710298947451726,3.925720915369352,-2.092373154189564,-3.382997557997558,14.20858974358974,-16.216688129578753,30.10534040195285,36.57492437176146,41.03174888429628,1577397320.999,-27.717476695306665,-51.11047127816519,2.2731104
26405,1577397321.78,2.0048811121498664,-2.6516659313667104,10.916333271901198,4.050054886385289,-3.5498127273187405,9.903060413193122,3.27074224600443,-1.6802040089677015,12.316357291468178,-1.4858711056592986,-0.8187642911585366,0.7981091010861281,-2.630094202553354,-0.1377012671493909,0.22125244140625,-6.048062952553353,-11.178365567835366,-0.9259479801829268,-10.31981070948085,4.564791762057388,-2.169868456196577,-3.382997557997558,14.20858974358974,-16.216688129578753,30.009494713511245,36.52700152754066,41.29532452751072,1577397320.999,-27.717476695306665,-51.11047127816519,2.2731104
26406,1577397321.79,1.6146262415443975,-1.4761129162299915,9.8820381547137,0.4731176061118521,-0.3619332168206934,12.907783496689216,0.5832508824790397,-4.833367595393483,12.996310562952551,-2.7676093869092986,0.1883157869664634,0.7675915229611281,-2.691129358803354,-12.55835556402439,1.12152099609375,-8.001187952553353,-12.917867520960366,-5.000044659870427,-10.31981070948085,4.564791762057388,-2.169868456196577,-3.382997557997558,14.885189255189252,-16.62147936698718,30.392877467277685,36.52700152754066,41.31928594962111,1577397320.999,-27.717476695306665,-51.11047127816519,2.2731104
26407,1577397321.8,0.372035579923304,-0.2478874645698354,9.173354463307447,-0.1350096155678343,-1.4225645522699122,11.02115258848609,1.7779575108970085,-1.6323199757645768,11.741748893030676,2.0541679568407014,-2.4972310880335367,0.8286266792111281,-0.4938637338033537,-3.7387754858993913,-0.67901611328125,-13.189176233803352,-20.669332364710368,-5.000044659870427,-10.130456384536249,3.6518334096459095,-2.63484026823871,-3.382997557997558,-2.3680982905982906,-16.216688129578753,30.15326324617366,36.52700152754066,41.22344026117951,1577397320.999,-27.717476695306665,-51.11047127816519,2.2731104
26408,1577397321.81,-0.7041580663169302,-2.3176747997749136,8.602337367360184,-0.3373196558510384,-2.0450569839105373,11.018758386825937,1.0788506261313833,3.887511951725657,11.186294107874428,-3.5152900509717986,-1.7037740567835369,0.7065563667111281,-2.126554163490854,-8.65210556402439,-0.16021728515625,-5.468228968178353,-25.109639981897868,5.253861590129572,-10.130456384536249,3.4692417391636123,-2.169868456196584,-3.060807314378743,17.591587301587303,-13.787940705128204,30.05741755773205,36.479078683319855,41.31928594962111,1577397320.999,-27.717476695306665,-51.11047127816519,2.2731104
26409,1577397321.82,-0.8537956700766959,-1.820877955292492,9.815000508229325,-1.4590031336342415,-0.9054169936761622,10.257402258896247,-0.3552761683022103,-0.0832715016434822,5.988482303675209,-1.4858711056592986,-8.081947884908537,0.3098278510861281,0.2995932974466463,-5.264654392149391,-1.83868408203125,-1.0126625619283538,-10.262838224085366,12.242386980754572,-9.373039084757837,3.6518334096459095,-2.63484026823871,-1.772046339903483,17.5915873015873,-13.787940705128204,30.201186090394465,36.52700152754066,41.31928594962111,1577397320.999,-27.717476695306665,-51.11047127816519,2.2731104
26410,1577397321.83,-1.3517896153891955,-2.0411445080268664,13.6361463578387,-1.4111191004311163,-3.4241171401605373,8.552730676864996,-2.929042952970179,-4.098347685725514,6.232690873011146,-11.0989082150343,-8.417641244283537,0.4318981635861281,1.4897788443216462,-3.1589415015243905,-0.28228759765625,2.130647984946646,9.085306307164634,13.646195574504572,-9.373039084757837,3.6518334096459095,-2.63484026823871,4.510663410663409,17.084137667887667,-16.823874985691393,30.05741755773205,36.33531015065744,41.41513163806272,1577397320.999,-27.717476695306665,-51.11047127816519,2.2731104
26411,1577397321.84,0.1541632288490853,-0.9446001476753042,14.70156609660823,0.4443871861899771,-0.9700604385003808,10.073048731064215,-2.076707161954554,0.666113617985423,7.559078592737708,-3.9272773556592986,-8.478676400533537,0.8896618354611281,-0.1276527963033537,-8.77417587652439,-0.28228759765625,5.090853063071647,21.536478182164632,14.683793230754572,-8.804976109924027,4.564791762057388,-2.7898308722527494,3.22190243618815,15.730938644688644,-16.014292510874544,30.392877467277685,36.52700152754066,41.12759457273789,1577397320.999,-27.717476695306665,-51.11047127816519,2.2731104
26412,1577397321.85,1.931857961515101,-1.9800923656928824,11.415524318043778,2.2819369603598987,-1.8810541701898345,10.68476725523414,-1.4194988062416636,-1.785548882014577,13.398536441858802,2.0389091677782014,-4.648720345846036,0.4318981635861281,1.1846030630716464,-1.6178038062118905,-0.54168701171875,0.8794272818216464,20.78879751810213,14.988969012004574,-9.089007597340933,4.290904256333944,-3.0223167782738125,3.86628292342578,15.900088522588522,-15.204710036057692,30.297031778836075,36.52700152754066,41.1755174169587,1577397320.999,-27.717476695306665,-51.11047127816519,2.2731104
26413,1577397321.86,2.988897994474085,0.637967149687976,12.834088801686354,1.8856965856040395,0.2222519882574304,10.47288040831031,2.7811280065024766,-12.32003618670208,14.17186357808927,8.4933769412157,-10.767494759908535,-0.7888049614138719,0.8794272818216463,0.3810975609756097,-0.40435791015625,-7.146695765053353,3.1038609946646343,-2.5281208317454267,-8.236913135090218,2.556283386752136,-3.2548026842948694,3.382997557997558,15.561788766788766,-16.62147936698718,30.15326324617366,36.52700152754066,41.31928594962111,1577397320.999,-27.717476695306665,-51.11047127816519,2.2731104
26414,1577397321.87,3.1684631189858043,1.0138568103325072,13.09266258098323,2.771551199861852,-0.1632144790277247,9.05551302549781,4.780286392732945,-8.467765715510671,10.61647411275724,9.4394218630907,-3.9620748380335367,-1.643297148913872,1.1846030630716462,4.3789002953506095,-1.35040283203125,6.616731969321647,6.064066072789634,-19.007613019245422,-8.236913135090218,2.556283386752136,-3.2548026842948694,-2.899712192569336,10.994742063492062,-53.65987758985806,30.05741755773205,36.52700152754066,41.07967172851709,1577397320.999,-27.717476695306665,-51.11047127816519,2.2731104
26415,1577397321.88,2.887144423917445,0.1411703052055546,9.458264460866042,3.0277307774985704,-1.7721179946527246,6.283027503036871,-1.8109507776772105,-0.0473584767411384,5.715543314417396,1.2149345584032012,0.7834085604039633,-2.116319609851372,1.0625327505716462,1.1440370141006098,-0.03814697265625,14.734407750571648,14.090189119664634,-29.322554425495422,-8.331590297562517,3.7431292448870574,-2.092373154189561,-3.382997557997558,16.23838827838828,-58.71976805746337,30.05741755773205,36.38323299487824,41.22344026117951,1577397320.999,-27.717476695306665,-51.11047127816519,2.2731104
26416,1577397321.89,1.3704176722084602,-1.1002232555854603,9.496571687428542,2.086809525057164,-1.641634004174209,8.968124664902106,1.209334616609899,-3.870898528010671,8.322828922327552,-3.7136543087842986,9.435141958841465,-1.643297148913872,-1.2262856088033538,-0.3665831030868902,-1.45721435546875,-0.6006752572408536,13.388284822789634,-25.46208079268293,-9.75174773464704,5.112566773504274,-2.9448214762667897,-3.382997557997558,14.885189255189252,-57.10060310782967,30.201186090394465,36.59888579387187,41.12759457273789,1577397320.999,-27.717476695306665,-51.11047127816519,2.2731104
26417,1577397321.9,0.5611775110756478,-1.4665361095893668,9.257151521412917,1.363760623689977,-1.4369297622308497,12.642027112411872,3.5544551427329454,8.385019770329173,11.598096793421302,-5.636261730659299,10.716880240091465,-3.321763945788872,-0.8905922494283537,1.7849061547256098,-1.35040283203125,8.325716344321647,3.1648961509146343,-1.582075909870427,-9.941102059591646,4.564791762057388,-2.169868456196577,4.349568288854003,16.576688034188034,-55.48143815819597,30.15326324617366,36.67077006020308,41.22344026117951,1577397320.999,-27.717476695306665,-51.11047127816519,2.2731104
