,timestamp,acc_x_dashboard,acc_y_dashboard,acc_z_dashboard,acc_x_above_suspension,acc_y_above_suspension,acc_z_above_suspension,acc_x_below_suspension,acc_y_below_suspension,acc_z_below_suspension,gyro_x_dashboard,gyro_y_dashboard,gyro_z_dashboard,gyro_x_above_suspension,gyro_y_above_suspension,gyro_z_above_suspension,gyro_x_below_suspension,gyro_y_below_suspension,gyro_z_below_suspension,mag_x_dashboard,mag_y_dashboard,mag_z_dashboard,mag_x_above_suspension,mag_y_above_suspension,mag_z_above_suspension,temp_dashboard,temp_above_suspension,temp_below_suspension,timestamp_gps,latitude,longitude,speed
28299,1577310533.85,0.8907306103217886,-1.3646365511266192,9.30272894569955,1.2514375287311827,-2.807055458627096,7.106399293480848,0.0624828238138336,3.396613018649961,1.6672110853241713,0.7087893602324694,2.5805961794969514,2.8159909132050305,1.4495849609375,3.647036668730945,2.5854343321265243,1.3883637218940548,-8.199180044778963,-3.033893864329268,-9.096842948717953,4.443860061155317,-1.725021009511747,-10.039475633677023,-11.52008545312712,-199.3231148408881,25.48078593464522,35.28100757779974,32.76505825620751,1577310532.999,-27.69405488161229,-51.117394453322575,6.5938597
28300,1577310533.86,0.8248900646674917,-1.010294705423494,8.683827816549162,0.8911101788776671,-1.2101229513028764,11.3393478286371,2.976226244223989,4.998333929294493,5.077751350216749,4.615039360232469,4.991484851371951,3.3653073194550305,-5.584716796875,1.4192534656059452,3.958725347751524,0.0455902843940547,14.063393197408535,10.531169612233231,-9.096842948717953,4.443860061155317,-1.725021009511747,-9.204607230475286,-12.605414377289376,-196.3262393639345,25.74436157785965,34.993470512474914,32.50148261299308,1577310532.999,-27.69405488161229,-51.117394453322575,6.5938597
28301,1577310533.87,-0.0202631213676635,-1.2640800814000566,9.517009994283535,2.3036891583698544,-2.936342348275533,11.731996900902724,0.550899962485708,-1.9376682801781624,3.368291364865186,0.4036135789824695,0.8105766482469513,3.1211666944550305,-0.640869140625,-4.318051221894055,2.9821628477515243,-2.273745653105945,26.789223275533537,17.67228289348323,-10.612983440170945,4.269591039149227,-1.5434398506157752,-11.987501907814408,-9.93383548704382,-164.85904685592186,25.60059304519724,35.13723904513733,32.6931739898763,1577310532.999,-27.69405488161229,-51.117394453322575,6.5938597
28302,1577310533.88,0.694406074188976,-1.6268016329137285,8.336668575826504,0.1297540509479796,-0.3601813619474076,7.795929371605849,0.0553002188333643,-5.787544549709414,12.82778212414253,0.2510256883574695,0.0018608279344514,2.6328854444550305,2.349853515625,-1.6935395031440548,1.7004245665015243,-1.2056304187309452,19.587074838033537,6.624919612233232,-9.26530300332384,3.746783973130957,-1.9066021684077223,16.954602736512456,-12.271467016008682,-116.90903922466424,25.696438733638843,35.13723904513733,32.789019678317906,1577310532.999,-27.69405488161229,-51.117394453322575,6.5938597
28303,1577310533.89,-1.1910277331840695,2.4134136685999423,12.174573837056974,-0.5992803545695979,-1.854163197884908,11.291463795433971,1.1255083609232086,-5.143504303127381,13.76630917492378,0.9224124071074696,1.5735161013719514,2.5108151319550305,0.7171630859375,1.068301317168445,2.7837985899390243,0.4270600109565547,7.532631478658536,-0.8061106612042683,-9.60222311253562,2.875438863100502,-2.6329268039916136,-6.282567819269207,-10.893934150725816,-91.81020710517774,25.74436157785965,35.18516188935813,32.64525114565549,1577310532.999,-27.69405488161229,-51.117394453322575,6.5938597
28304,1577310533.9,-1.3322856311332882,-1.642363943704744,10.05091696449838,-2.590059034989519,-0.3649697652677201,8.423210206566786,-2.123423291908822,4.909748467868711,13.641810688595656,-2.3124508741425305,-2.5463569455030486,2.3887448194550305,-4.180908203125,-3.5551117687690548,3.3178562071265243,-0.2290679187309452,-1.5921243807164631,3.3900563309832314,-9.60222311253562,2.875438863100502,-2.6329268039916136,0.2572346724777273,-9.098967083842082,-143.88091851724658,25.60059304519724,35.13723904513733,32.789019678317906,1577310532.999,-27.69405488161229,-51.117394453322575,6.5938597
28305,1577310533.91,-1.349045042754382,-0.8331237825719316,6.706217245260099,-2.5349923968059254,2.417092563833841,12.5268718520746,-0.9287166634908534,-0.7070486268578499,8.264433759884717,2.631396782107469,1.970244616996952,2.8465084913300305,0.640869140625,2.029605028105945,3.2568210508765243,1.7240570812690548,-4.674399771341464,-4.6055491377667686,-8.928382894112062,5.315205171185774,-2.2697644861996698,2.761839882082937,-11.687059133767466,-146.1285751249618,25.60059304519724,35.233084733578934,32.789019678317906,1577310532.999,-27.69405488161229,-51.117394453322575,6.5938597
28306,1577310533.92,-2.019421507598132,0.136527889791349,10.17900675331674,0.8288609357136045,-1.4423605123380336,10.02971952053163,-2.6884548837056967,-3.7788093568383183,8.139935273556592,-0.2830319288300305,-1.7376411251905486,3.1059079053925305,0.732421875,1.2971831531059452,2.6159519102515243,2.8226898937690548,0.2694478849085365,-17.88069562214177,-9.012612921415007,5.4023396821888205,-1.089486953375842,-2.8039494725953062,-12.02100649504816,-164.10982798668337,25.55267020097643,35.233084733578934,32.6931739898763,1577310532.999,-27.69405488161229,-51.117394453322575,6.5938597
28307,1577310533.93,2.6708195446479603,-5.461115591653964,4.192305502096036,2.239045713545636,-1.3070881185392054,7.336242652855849,2.263951250327505,-2.43805642715082,6.317947810177687,-0.7255368116425305,-2.9430854611280486,3.0601315382050305,1.7852783203125,-2.197079542206555,3.1347507383765247,-0.4884673327934452,4.831825814596037,3.802043635670732,-7.412242402659081,4.792398105167502,-1.725021009511747,-5.865133617668339,-12.271467016008682,-158.86529590201462,25.74436157785965,35.185161889358135,32.789019678317906,1577310532.999,-27.69405488161229,-51.117394453322575,6.5938597
28308,1577310533.94,0.7578524181831167,1.0463245206507237,10.048522762838225,2.4569180646198547,-1.3872938741544398,5.006684437523818,-2.1473653085103845,-0.8602775331078498,15.327328657345657,1.1665530321074695,1.2988578982469514,3.823070991330032,-1.983642578125,0.7478667468559451,4.813217535251525,-1.3887358874809452,1.6427389005335369,3.1153981278582314,-7.412242402659081,4.792398105167502,-1.725021009511747,-3.082238940329218,-12.104493335368334,-152.87154494810736,25.45682451253482,35.233084733578934,32.789019678317906,1577310532.999,-27.69405488161229,-51.117394453322575,6.5938597
28309,1577310533.95,0.1042353649604604,1.326446114889005,12.27273610512338,1.7961184064167297,-2.720864198861471,10.288293299828505,-2.899144629799447,0.0351538877905866,18.959332575802684,-2.4650387647675305,-0.1965034298780487,2.7854733350800305,-3.631591796875,0.8089019031059451,3.0126804258765243,-0.7783843249809452,-21.031821646341463,6.258708674733232,-9.096842948717953,4.443860061155317,-1.725021009511747,-2.8039494725953062,-12.187980175688509,-164.10982798668337,25.64851588941804,35.424776110462155,32.789019678317906,1577310532.999,-27.69405488161229,-51.117394453322575,6.5938597
28310,1577310533.96,0.3137280102241328,-1.8602362947789628,9.058520376363614,-0.0988922075969417,-1.4052503866056116,9.4239865005121,0.3114797964700835,1.7769355955542587,12.484214185910108,-1.2443356397675305,-1.0967719845655486,2.9075436475800305,-0.2593994140625,-0.1981781750190547,3.104233160251524,0.8237885265815548,-38.73201695884146,-3.323810856516768,-8.4230027302944,3.921052995137047,-2.4513456450956417,-2.8039494725953062,-12.187980175688509,-164.10982798668337,25.528708778866022,35.35289184413095,32.86090394464911,1577310532.999,-27.69405488161229,-51.117394453322575,6.5938597
28311,1577310533.97,-1.617195628691882,1.7167009854944737,11.360545272603847,2.3731210065143857,-0.5804479146817826,9.967470277367568,2.4710496939310205,5.47238585800543,3.7082680006073736,-0.8170895460175305,-0.5016792111280487,2.6634030225800305,1.739501953125,-1.8156098156440548,1.4868015196265243,-2.182192918730945,-34.12386266196646,17.30607195598323,-8.591462784900287,5.315205171185774,-2.2697644861996698,-1.6907916016596571,-12.521927536969203,-245.02546586443069,25.60059304519724,35.32893042202055,32.64525114565549,1577310532.999,-27.69405488161229,-51.117394453322575,6.5938597
28312,1577310533.98,-1.97632587771532,-1.039025125345369,10.213722677389004,-0.6387846819621755,-1.839797987923971,9.795087757836315,3.6705447256693016,-9.175339898830506,-2.454407072634812,-1.3664059522675305,0.7190239138719513,2.7549557569550305,-4.119873046875,-2.0597504406440548,2.7990573790015243,-1.5718413562309452,-7.176841177591464,13.369304377858231,-8.591462784900287,5.315205171185774,-2.2697644861996698,-3.082238940329218,-9.93383548704382,-260.75906211843704,25.504747356755622,35.13723904513733,32.789019678317906,1577310532.999,-27.69405488161229,-51.117394453322575,6.5938597
28313,1577310533.99,-1.9643548694145383,-1.9224855379430248,6.96718522621713,-1.141567030594988,-2.3521571431974087,9.364131459008192,1.154238780845083,-6.074848748928163,7.019448896603468,0.8918948289824695,0.0171196169969513,3.1822018507050305,-3.936767578125,-2.6090668468940548,2.4633640196265243,-2.395815965605945,12.506996713033535,8.822185237233231,-9.770683167141508,5.140936149179684,-2.0881833273036983,-3.082238940329218,-9.93383548704382,-260.75906211843704,25.504747356755622,35.47269895468296,32.6931739898763,1577310532.999,-27.69405488161229,-51.117394453322575,6.5938597
28314,1577310534.0,-0.5900831164848515,-2.130781082376619,9.908461965719082,-1.0350250567180348,-1.0449230367520956,7.384126686058974,-2.098284174477182,-5.743251818996521,14.87721874523628,-4.174023139767531,-6.193207531440549,2.1751217725800305,-1.28173828125,-3.6619232922065543,2.4633640196265243,-4.211611864043445,2.436195931783536,16.00907488567073,-9.26530300332384,5.140936149179684,-1.5434398506157752,-11.987501907814408,-9.766861806403472,-236.7840583028082,25.576631623086836,35.233084733578934,32.88486536675951,1577310533.999,-27.694028086293944,-51.11744964045818,6.397165
28315,1577310534.01,-0.0418109363090697,1.031959310689786,12.057257955709318,-1.6347725725871756,-0.6163609395841264,5.729733338891005,0.5461115591653956,-2.7995808778344125,13.184518171505813,-5.821972358517531,-4.713104992378049,1.7478756788300305,-1.983642578125,-0.8085297375190549,2.0971530821265243,-3.036685106230945,-9.709800161966465,-9.763019840891769,-9.096842948717953,5.140936149179684,-0.9986963739278598,-11.987501907814408,-10.60173020960521,-199.3231148408881,25.74436157785965,35.13723904513733,32.64525114565549,1577310533.999,-27.694028086293944,-51.11744964045818,6.397165
28316,1577310534.02,0.2526758678901479,2.035129806295255,12.064440560689786,1.0587042950886043,-1.2699779928067836,11.461452113305068,1.6761747427591456,5.821939300388243,13.502946992306592,-4.723339546017531,-4.377411633003049,1.8394284132050305,-7.14111328125,-2.8532074718940548,2.3412937071265243,-4.959292528105945,-25.029624380716463,5.923015315358232,-9.096842948717953,5.140936149179684,-0.9986963739278598,18.90262901064984,-9.850348646723646,-162.61139024820653,25.504747356755622,35.52062179890376,32.88486536675951,1577310533.999,-27.694028086293944,-51.11744964045818,6.397165
28317,1577310534.03,-0.4212918994438358,-1.9990999910680252,9.87135183998666,2.277352940108136,-2.397646974740377,11.78466933742616,-1.347701954018197,-12.189639788967224,8.64032342052925,-5.730419624142531,-3.9196479611280486,1.1680416944550305,-4.364013671875,-3.860287550019055,1.0290378477515243,-5.294985887480945,-24.968589224466463,0.4603688309832316,-8.591462784900287,4.61812908316141,-2.2697644861996698,19.18091847838376,-9.766861806403472,-155.8684204250611,25.672477311528443,35.13723904513733,32.64525114565549,1577310533.999,-27.694028086293944,-51.11744964045818,6.397165
28318,1577310534.04,-1.1958161365043822,-1.8578420931188069,6.241742123189786,1.5566982404011047,-1.856557399545064,10.745585816918348,0.3749261404642237,4.216627087253477,3.833963587765577,-3.7162594678925305,-2.9736030392530486,1.1070065382050305,-4.2877197265625,-4.363827589081555,-0.3137355897484756,-3.997988817168445,-13.143027701028965,-9.305256169016769,-8.086082621082625,4.443860061155317,-0.2723717383439576,-1.9690810693935688,-10.935677570885904,-153.6207638173458,25.64851588941804,35.25704615568934,32.74109683409711,1577310533.999,-27.694028086293944,-51.11744964045818,6.397165
28319,1577310534.05,-0.9324539538871948,0.5148117520960361,9.962331503072598,-1.0769235857707693,2.1992202127596223,7.491865760766005,-3.152930005776009,4.66793410019293,9.078462324337842,-7.439403999142531,-5.231903820503049,0.3745846632050305,-5.950927734375,-4.928402784394055,0.8459323790015244,-7.858462449980945,-1.5616068025914631,11.385661799733231,-8.254542675688512,4.966667127173593,-0.0907905794479859,1.370392543413376,-12.438440696649028,-187.33561293307372,25.45682451253482,35.13723904513733,32.789019678317906,1577310533.999,-27.694028086293944,-51.11744964045818,6.397165
28320,1577310534.06,-0.6619091662895386,2.0710428311975986,8.820297311178066,-1.7975782854778006,1.0140903909822787,6.586857533226943,-2.075539258705697,-5.710930096584413,8.202184516720655,-4.601269233517531,-1.6613471798780486,1.0459713819550305,-9.307861328125,-2.0597504406440548,1.3342136290015243,-8.682437059355944,1.2460103849085369,5.587321955983232,-8.254542675688512,4.966667127173593,-0.0907905794479859,-0.8559231984579215,-12.605414377289376,-187.33561293307372,25.60059304519724,35.28100757779974,32.88486536675951,1577310533.999,-27.694028086293944,-51.11744964045818,6.397165
28321,1577310534.07,0.1197976757514766,-0.7325673128453691,9.895293856588223,0.5487393414753234,-0.7600130391935014,9.258786585961316,1.3984473501810204,-5.52178816543207,9.334641901974562,-6.813793647580031,-5.277680187690549,0.7255368116425305,-10.101318359375,-3.0057953625190548,1.9445651915015243,-6.698794481230945,4.725014291158536,-7.962482731516768,-9.517993085232677,4.705263594164455,-1.089486953375842,-0.8559231984579215,-12.605414377289376,-187.33561293307372,25.36097882409321,35.233084733578934,32.789019678317906,1577310533.999,-27.694028086293944,-51.11744964045818,6.397165
28322,1577310534.08,-0.599659923125476,-1.3742133577672442,11.906423251119474,0.2542525372761051,-2.2480093709806117,11.494970936547254,2.1107223440775047,3.4229492369116805,12.842147334103467,-6.584911811642531,-5.689667492378049,1.4426998975800305,-7.7362060546875,-5.340390089081555,1.2274021055640243,-7.614321824980945,4.648720345846036,10.973674495045731,-8.759922839506174,5.140936149179684,-2.814507962887585,-6.282567819269208,-12.480184116809117,-175.72272045987856,25.74436157785965,35.233084733578934,32.90882678886992,1577310533.999,-27.694028086293944,-51.11744964045818,6.397165
28323,1577310534.09,0.5327974621284293,-4.529771145853181,8.19301647621713,2.7801352887409485,-4.767906618295065,11.28188698879335,-1.2160208627096034,-12.309349871975035,18.818074677853463,-4.723339546017531,-8.86349561737805,0.9849362257050304,-3.41796875,-9.109310987519056,0.7238620665015244,-5.142397996855945,-9.496177115091465,-10.648029606516769,-8.928382894112062,4.269591039149227,-1.1802775328238315,-0.8559231984579215,-12.438440696649028,-155.8684204250611,25.64851588941804,35.233084733578934,32.83694252253871,1577310533.999,-27.694028086293944,-51.11744964045818,6.397165
28324,1577310534.1,-0.5685353015434448,-2.695812674173494,9.880928646627286,0.709150852705792,0.5208848489900914,7.3051180312738175,-0.3756560799947596,3.583360748142149,10.895661384396435,-3.7467770460175305,-4.560517101753049,0.3440670850800305,-0.30517578125,-9.689144971894056,-1.2292629334984757,-3.555483934355945,-20.055259146341463,-13.089435856516769,-8.928382894112062,4.269591039149227,-1.1802775328238315,-3.082238940329218,-12.104493335368334,-200.821552579365,25.45682451253482,35.233084733578934,32.789019678317906,1577310533.999,-27.694028086293944,-51.11744964045818,6.397165
28325,1577310534.11,-0.993506096221179,-0.3794225679723227,9.109995712056971,-3.009044325516862,1.40913366490806,7.525384584008193,1.441542980063833,7.780396258396054,11.719266755490189,-4.616528022580031,-7.1087348751905495,0.9086422803925304,-6.500244140625,-9.445004346894056,0.5102390196265244,-5.508608934355945,-23.503745474466463,3.878337580983232,-9.349533030626784,4.879532616170546,-1.4526492711677892,1.9269714788812,-12.605414377289376,-200.821552579365,25.74436157785965,35.08931620091653,32.64525114565549,1577310533.999,-27.694028086293944,-51.11744964045818,6.397165
28326,1577310534.12,-0.7959844592582885,-0.9791700838414628,8.248083114400723,-2.107627400468035,0.9494469461580606,10.86649300075624,0.8753142874368804,-1.2421526979027722,3.4820159437226086,-2.7702145460175305,-9.35177686737805,1.7173581007050305,-5.615234375,-6.194882276581555,2.2955173399390243,-5.264468309355945,1.4291158536585369,9.646159846608231,-10.107603276353284,4.792398105167502,-0.9986963739278598,-4.891120480599648,-11.227881512006512,-201.94538088322255,25.504747356755622,35.233084733578934,32.789019678317906,1577310533.999,-27.694028086293944,-51.11744964045818,6.397165
28327,1577310534.13,1.239086951874523,-2.054166629251619,8.068517989889004,-1.8358855120403008,0.4251167825838414,11.183724720726945,-1.0723687631002283,-3.4460153260765995,12.401614228634717,-1.7326168897675305,-10.63351514862805,2.4192623975800305,-1.373291015625,-7.797055128144055,2.7075046446265243,-2.273745653105945,3.5958639005335367,1.3758961747332317,-8.4230027302944,5.838012237204049,-0.9986963739278598,-11.709212440080496,-12.521927536969203,-206.06608466403384,25.60059304519724,35.32893042202055,32.88486536675951,1577310533.999,-27.694028086293944,-51.11744964045818,6.397165
28328,1577310534.14,0.1305715832221792,-3.210566031107088,8.999862435689787,2.732251255537824,-2.309061513314596,7.29075282131288,-0.0380736459127284,-7.791491339260194,8.647506025509717,-1.5495114210175305,-7.764862804878049,2.7549557569550305,4.0283203125,-7.613949659394055,1.7004245665015243,-1.5108061999809452,-0.7681497713414634,-11.533039372141769,-9.265303003323838,5.663743215197955,-2.2697644861996698,-9.482896698209196,-11.854032814407812,-189.583269540789,25.60059304519724,35.32893042202055,32.88486536675951,1577310533.999,-27.694028086293944,-51.11744964045818,6.397165
28329,1577310534.15,1.7466577038276478,-0.4237152986852128,9.193792770162442,0.8671681622761047,-1.999012398324361,7.5493266006097555,-0.8377370004049163,8.20536705307379,9.264012952999952,-2.587109077267531,-7.2002876095655495,1.9004635694550305,-5.0811767578125,-7.507138135956556,2.8143161680640247,-2.456851121855945,-7.085288443216463,4.1377369950457314,-9.433763057929731,5.489474193191865,-0.6355340561359087,-5.586844149934429,-12.354953856328857,-188.08483180231227,25.504747356755622,35.20912331146853,32.74109683409711,1577310533.999,-27.694028086293944,-51.11744964045818,6.397165
28330,1577310534.16,1.7059562756049915,-0.0143068147984941,9.976696713033537,0.1776380841511046,2.484130210318216,7.992253907738662,-1.2399628793111657,-13.96134901748285,7.747286201290968,-0.4203610303925305,-3.0041206173780486,2.7549557569550305,-4.57763671875,-4.043393018769055,3.1957858946265243,-2.334780809355945,-2.965415396341464,-8.023517887766769,-9.265303003323838,5.315205171185774,-0.453952897239937,18.067760607448104,-12.104493335368334,-164.85904685592186,25.79228442208045,35.13723904513733,32.789019678317906,1577310533.999,-27.694028086293944,-51.11744964045818,6.397165
28331,1577310534.17,-0.1040601794731322,-1.3981553743688069,10.951136788717127,0.6564784161823546,-1.2675837911466274,11.650594044457412,-0.8018239755025721,6.02784064316168,16.692023603634716,-3.4721188428925305,-4.957245617378049,2.1446041944550305,-1.03759765625,-1.4188813000190548,1.1816257383765243,-0.2290679187309452,-8.214438833841463,-14.218586247141769,-10.612983440170945,4.966667127173593,-2.996089121783572,18.067760607448104,-11.77054597408764,-161.86217137896827,25.504747356755622,35.28100757779974,32.64525114565549,1577310533.999,-27.694028086293944,-51.11744964045818,6.397165
28332,1577310534.18,-0.0130805163871947,-0.991141092142244,10.484267464986662,1.2047505963581358,-0.7552246358731889,13.40075545803163,-1.0963107797017908,1.543500933689024,12.688918427853467,-1.1833004835175305,-6.666229992378049,1.8699459913300305,-0.030517578125,-3.677182081269055,2.0666355040015243,-1.2056304187309452,-13.768638052591465,-0.3330882002667683,-8.4230027302944,3.746783973130955,-1.725021009511747,18.067760607448104,-11.77054597408764,-161.86217137896827,25.60059304519724,35.28100757779974,32.83694252253871,1577310533.999,-27.694028086293944,-51.11744964045818,6.397165
28333,1577310534.19,0.4202699841010854,-2.997482083353181,11.101971493306973,-0.1036806109172542,-2.6801627706388147,10.855719093285536,1.0644562185892237,-1.0937121949730852,9.24007093639839,-1.3511471632050305,-5.064057140815549,2.6023678663300305,-0.4730224609375,-5.477719190644055,1.9750827696265243,-0.3816558093559452,-17.568076529153963,-5.7652171065167686,-9.096842948717953,4.792398105167502,-1.725021009511747,17.23289220424637,-11.687059133767466,-163.36060911744505,25.64851588941804,35.28100757779974,32.81298110042831,1577310533.999,-27.694028086293944,-51.11744964045818,6.397165
28334,1577310534.2,1.0260030041206167,-1.1754946199742753,8.348639584127286,0.0339859845417296,-0.5325638814786576,5.952394093285537,-0.5624038094869471,0.9593157286108992,8.992271064572218,-0.1762204053925304,-3.6449897580030486,2.3582272413300305,-0.823974609375,-2.2733734875190548,3.3178562071265243,-0.5952788562309452,-11.784995474466465,9.402019221608231,-9.60222311253562,5.315205171185774,-1.1802775328238315,5.823024027155972,-9.93383548704382,-116.90903922466424,25.74436157785965,35.233084733578934,32.64525114565549,1577310533.999,-27.694028086293944,-51.11744964045818,6.397165
28335,1577310534.21,1.4545651012885854,0.0766728482874424,10.960713595357754,1.3579795026081358,0.5879224954744664,8.279558106957412,-1.0891281747213222,-13.207175494533631,13.581955647091748,0.3425784227324695,-4.438446789253049,2.8770260694550305,0.579833984375,-1.3578461437690548,3.3788913633765243,-0.8089019031059452,-17.064536490091463,-1.2180979658917683,-7.74916251187085,5.489474193191865,-1.3618586917198034,-0.8559231984579215,-9.432914445122778,-157.3668581635378,25.45682451253482,35.13723904513733,32.6931739898763,1577310533.999,-27.694028086293944,-51.11744964045818,6.397165
28336,1577310534.22,1.0475508190620229,-1.5681436922399004,9.95514889809213,0.9940608502643858,-2.206110841927877,7.429616517601943,-0.4762125497213221,6.837080804294493,11.35295390148628,0.5256838914824695,-1.3256538205030486,2.7549557569550305,0.30517578125,-2.2428559093940548,1.8835300352515243,0.8695648937690548,-23.290122427591463,-3.598469059641769,-9.265303003323838,5.315205171185774,-2.996089121783572,-10.87434403687876,-9.93383548704382,-149.87466947115377,25.504747356755622,35.424776110462155,32.789019678317906,1577310533.999,-27.694028086293944,-51.11744964045818,6.397165
28337,1577310534.23,1.6784229565131947,-1.9931144869176347,10.576444228902677,1.032368076826886,-2.943524953256002,12.9482513442621,2.168183183921254,5.848275518649961,8.394917750363234,-0.1609616163300304,-3.4618842892530486,2.6176266553925305,-1.4495849609375,-1.0526703625190548,3.6535495665015247,1.5562104015815548,-25.792563833841463,-0.0584299971417681,-8.928382894112062,6.360819303222321,-1.5434398506157752,-6.839146754737033,-9.892092066883734,-145.0047468211041,25.72040015574925,35.18516188935813,32.789019678317906,1577310533.999,-27.694028086293944,-51.11744964045818,6.397165
28338,1577310534.24,0.5327974621284293,-0.454839920267244,10.232876290670257,3.077016294600323,-2.692133778939596,11.315405812035536,3.7854664053568015,-0.3934082093773811,-0.9412716234160626,0.8308596727324695,-2.4853217892530486,2.7854733350800305,2.86865234375,-1.7240570812690548,0.2660983946265244,-3.433413621855945,5.030190072408536,16.14640398723323,-8.928382894112062,5.315205171185774,-1.9066021684077188,-0.8559231984579215,-9.26594076448243,-140.884043040293,25.840207266301256,35.233084733578934,32.88486536675951,1577310533.999,-27.694028086293944,-51.11744964045818,6.397165
28339,1577310534.25,1.650889637421398,-0.8905846224156816,8.3534279874476,2.085816807295636,-0.8581753072599076,7.499048365746474,5.131007738364614,-5.370953460842226,4.182319929318311,-2.7091793897675305,-3.1872260861280486,0.8323483350800305,2.9296875,-2.6701020031440548,1.3036960508765243,-3.647036668730945,18.793617806783537,13.003093440358231,-8.928382894112062,4.966667127173593,-0.453952897239937,5.823024027155972,-9.26594076448243,-152.87154494810736,25.840207266301256,35.13723904513733,32.6931739898763,1577310533.999,-27.694028086293944,-51.11744964045818,6.397165
28340,1577310534.26,1.916646021698741,-1.1084569734899004,10.2687893155726,0.8599855572956359,-1.1957577413419394,6.7233270278558495,-1.7523220345846031,-4.033791833644959,10.123531348996046,-0.3898434522675305,1.0852348513719514,1.6563229444550305,-2.044677734375,-2.6243256359565548,1.5630954649390243,-1.831240770293445,27.399574838033537,0.9944264481707316,-7.74916251187085,4.095322017143136,-2.4513456450956417,2.761839882082937,-12.605414377289376,-227.7934318719474,25.504747356755622,35.28100757779974,32.7171354119867,1577310533.999,-27.694028086293944,-51.11744964045818,6.397165
28341,1577310534.27,0.1245860790717891,-1.6555320528356037,9.79473738686166,0.3476264020221984,-1.1454795064786576,8.576439112816786,-3.6126167245260095,-4.758037835842225,21.38705305920112,-1.5495114210175305,-0.9441840939405486,1.7631344678925305,-0.91552734375,0.0154448718559451,2.7075046446265243,-1.2971831531059452,2.3141256192835367,-1.8589671065167683,-9.265303003323838,5.315205171185774,-2.2697644861996698,-0.2993442629900964,-12.605414377289376,-242.77780925671544,25.60059304519724,35.233084733578934,32.6931739898763,1577310533.999,-27.694028086293944,-51.11744964045818,6.397165
28342,1577310534.28,1.871156190155773,-1.5322306673375563,10.845791915670254,2.0259617657917297,-0.9635201803067828,11.724814295922256,0.962702648032583,-7.092384454494569,12.619486579708935,-0.5424313428925305,-1.0204780392530486,1.6563229444550305,-1.953125,-1.7240570812690548,1.5783542540015243,0.0761078625190547,-4.613364615091464,-18.36897687214177,-9.265303003323838,5.315205171185774,-2.2697644861996698,-2.525660004861394,-9.432914445122778,-254.76531116452983,25.504747356755622,35.28100757779974,32.64525114565549,1577310533.999,-27.694028086293944,-51.11744964045818,6.397165
28343,1577310534.29,1.8184837536323355,-2.0493782259313065,10.469902255025724,1.123347739912823,-2.265965883431784,9.098375074730848,0.895665001548208,10.188963128513244,12.095156416134715,-1.5189938428925305,-5.262421398628049,2.0835690382050305,-0.244140625,-0.7169770031440549,1.3952487852515243,0.9916352062690548,-8.763755240091463,-12.387531559641769,-10.444523385565056,5.140936149179684,-1.725021009511747,-1.1342126661918337,-9.349427604802605,-248.02234134138428,25.504747356755622,35.08931620091653,32.789019678317906,1577310533.999,-27.694028086293944,-51.11744964045818,6.397165
28344,1577310534.3,0.4094960766303823,-0.8307295809117757,9.761218563619474,1.5136026105182925,-0.6714275777677202,9.981835487328503,2.025728185141958,9.497038848728089,5.228586054806593,0.3120608446074695,-0.8068549923780487,1.4274411085175305,-2.899169921875,-0.0761078625190548,3.2873386290015243,-0.8394194812309452,-4.521811880716464,12.667400080983231,-9.349533030626787,4.879532616170547,-1.2710681122718137,-1.1342126661918337,-9.349427604802605,-248.02234134138428,25.62455446730764,35.13723904513733,32.789019678317906,1577310533.999,-27.694028086293944,-51.11744964045818,6.397165
28345,1577310534.31,1.5096317394721792,-0.9480454622594316,9.538557809224942,-0.0845269976360042,-0.9443665670255332,10.34934544216249,1.9574934378275048,-3.380174780422304,9.395694044308543,-0.9696774366425304,-3.7975776486280486,0.8323483350800305,2.3956298828125,-2.5480316906440548,1.0748142149390243,-0.8394194812309452,5.930458627096036,6.518108088795732,-9.60222311253562,4.966667127173593,-0.8171152150318806,4.014142486885541,-9.224197344322343,-205.69147522941455,25.840207266301256,35.08931620091653,32.7171354119867,1577310533.999,-27.694028086293944,-51.11744964045818,6.397165
28346,1577310534.32,0.568710487030773,-1.6830653719274002,9.619960665670254,-1.009885939286394,-1.959508070931784,13.50370612941835,-0.7515457406392909,4.241766204685118,14.22599589367378,1.3801760789824695,-0.0744331173780487,1.6868405225800305,-2.838134765625,-0.8085297375190549,1.8530124571265243,0.9306000500190548,-3.6062845369664633,3.5121266434832314,-9.60222311253562,4.966667127173593,-0.8171152150318806,18.62433954291593,-9.26594076448243,-164.85904685592186,25.504747356755622,35.28100757779974,32.64525114565549,1577310533.999,-27.694028086293944,-51.11744964045818,6.397165
28347,1577310534.33,-1.5286101672661008,-1.333511929544588,10.984655611959315,-0.6411788836223318,-1.274766396127096,11.468634718285536,-3.3516487435689784,0.0950089292944928,15.612238654904248,1.7769045946074695,-0.6542671017530487,1.8089108350800305,-2.44140625,0.1680327624809451,2.6769870665015243,2.1818207531440548,-19.017661490091463,2.8407399247332314,-9.433763057929731,4.443860061155317,-1.725021009511747,-10.596054569144847,-9.850348646723646,-149.12545060191542,25.60059304519724,35.13723904513733,32.88486536675951,1577310533.999,-27.694028086293944,-51.11744964045818,6.397165
28348,1577310534.34,0.932629139374523,-1.468784323343416,9.970711208883143,0.2327047223346984,-1.0856244649747515,10.269139686547256,-5.35559553311976,-7.089990252834413,10.107969038205033,2.692431938357469,-0.5016792111280486,1.6258053663300305,2.01416015625,-2.2123383312690548,2.7990573790015243,2.7311371593940548,-23.595298208841463,-0.4551585127667683,-9.517993085232671,5.053801638176639,-2.178973906751684,1.370392543413376,-12.438440696649028,-158.86529590201468,25.672477311528443,34.993470512474914,32.789019678317906,1577310533.999,-27.694028086293944,-51.11744964045818,6.397165
28349,1577310534.35,0.8847451061713979,-1.3574539461461503,11.02056863686166,1.0215941693561832,-2.995000288949361,8.876911421166396,3.2922608633646147,2.11451802963629,2.1257007032440924,1.6853518602324695,-0.8984077267530487,1.4426998975800305,7.4462890625,1.342959520293445,0.1287692930640244,2.3496674328315548,-1.1953958650914631,2.5355641434832314,-9.770683167141508,5.140936149179684,-2.0881833273036983,1.370392543413377,-10.852190730565727,-202.3199903178418,25.504747356755622,35.13723904513733,32.7171354119867,1577310533.999,-27.694028086293944,-51.11744964045818,6.397165
28350,1577310534.36,2.7282803844917103,-2.920867630228181,10.910435360494471,1.9206168927448544,-1.6745980733731898,9.349766249047256,3.435912962973989,4.713423931735899,1.812060285763624,1.5327639696074695,1.1462700076219514,0.4966549757050305,-1.739501953125,-0.2897309093940549,1.7004245665015243,0.5338715343940548,23.432289681783537,16.84830828410823,-9.770683167141508,5.140936149179684,-2.0881833273036983,-3.082238940329218,-12.104493335368334,-212.8090544871794,25.936052954742863,35.233084733578934,32.6931739898763,1577310533.999,-27.694028086293944,-51.11744964045818,6.397165
28351,1577310534.37,1.018820399140148,0.5196001554163486,9.045352267232754,-0.4424601458293631,1.9310696268221224,7.159071730004286,-2.0108958138814783,0.930585308689024,9.756021394162062,3.6384768602324695,6.120635241996951,1.7478756788300305,-1.0986328125,-0.2286957531440548,1.7004245665015243,-2.121157762480945,32.55704554115854,20.75455828410823,-11.286823658594496,5.315205171185774,-1.1802775328238315,-9.76118616594311,-9.599888125763124,-206.81530353327216,25.504747356755622,35.08931620091653,32.64525114565549,1577310533.999,-27.694028086293944,-51.11744964045818,6.397165
28352,1577310534.38,0.6070177135932734,-0.3961819795934164,10.082041586080411,1.7362633649128234,-2.433559999642721,9.726853010521864,-1.6266264474264007,-5.653469256740662,10.72088466320503,0.3578372117949696,3.1299125857469514,0.7407956007050305,2.86865234375,2.441592332793445,0.8764499571265243,0.0761078625190549,32.48075159584604,7.143718440358232,-9.770683167141508,5.315205171185774,-2.8145079628875926,-5.447699416067472,-12.062749915208247,-177.97037706759386,25.45682451253482,35.32893042202055,32.7171354119867,1577310533.999,-27.694028086293944,-51.11744964045818,6.397165
28353,1577310534.39,3.0203729870307727,-0.8355179842320879,9.174639156881192,1.1472897565143858,-0.6714275777677202,6.984295008812881,-1.328548340736947,-0.6136747621117561,7.548567463497999,3.089160453982469,4.960967273246951,1.2290768507050305,4.7607421875,5.325503465605945,0.5407565977515244,1.0221527843940548,23.066078744283537,2.0472828934832314,-10.781443494776832,4.443860061155317,-2.0881833273036983,-0.8559231984579215,-12.605414377289376,-185.8371751945969,25.504747356755622,35.13723904513733,32.64525114565549,1577310533.999,-27.694028086293944,-51.11744964045818,6.397165
28354,1577310534.4,1.4737187145698354,0.3328524259241611,12.662990975728848,2.078634202315167,-0.0585119527677201,8.119146595726942,-3.6557123544088217,-4.7412784242211305,18.78216165295112,0.4951663133574695,4.869414538871951,1.0764889600800305,0.244140625,7.034487840605945,1.0290378477515243,1.2662934093940548,8.722817025533537,-7.260578434641768,-10.781443494776832,4.443860061155317,-2.0881833273036983,-0.8559231984579215,-11.102651251526252,-188.8340506715505,25.60059304519724,35.08931620091653,32.789019678317906,1577310533.999,-27.694028086293944,-51.11744964045818,6.397165
28355,1577310534.41,0.3939337658393667,-3.0166356966344314,9.787554781881193,1.2310868146198546,-1.4806677389005336,11.303434803734756,1.7551833975443016,-0.4005908143578499,10.107969038205033,-0.4508786085175305,9.93533250762195,1.1070065382050305,-0.1220703125,6.668276903105945,1.4257663633765243,-0.0764800281059452,-0.3714212557164634,0.8570973466082317,-10.781443494776832,4.792398105167502,-1.3618586917198034,-0.5776337307240097,-12.521927536969203,-194.07858275621945,25.64851588941804,35.13723904513733,32.83694252253871,1577310533.999,-27.694028086293944,-51.11744964045818,6.397165
28356,1577310534.42,0.7590495190131948,2.4517208951624423,11.176191744771817,-0.4711905657512386,1.4701858072420444,10.946698756371472,-0.4977603646627288,-6.097593664699647,15.548792310910107,1.0902590867949693,6.853057116996951,2.7549557569550305,-1.007080078125,6.378359910918445,2.8448337461890243,1.5867279797065548,-10.320151724466465,-16.33955792682927,-9.854913194444446,4.705263594164455,-1.4526492711677894,-4.751975746732692,-12.521927536969203,-197.07545823317304,25.672477311528443,35.20912331146853,32.81298110042831,1577310533.999,-27.694028086293944,-51.11744964045818,6.397165
28357,1577310534.43,0.0731107433784292,-0.8235469759313067,11.128307711568691,3.5271262067096982,-2.265965883431784,15.19401250148866,2.851727757895864,9.604777923435115,18.968909382443307,1.0444827196074695,8.25686571074695,1.6258053663300305,1.64794921875,5.874819871855945,2.0971530821265243,2.8837250500190548,-30.339682974466463,-14.157551090891769,-9.433763057929731,5.140936149179684,-2.4513456450956417,-11.709212440080496,-12.354953856328857,-164.10982798668337,25.60059304519724,35.424776110462155,32.64525114565549,1577310533.999,-27.694028086293944,-51.11744964045818,6.397165
28358,1577310534.44,-0.475161436797351,-5.152263577493807,9.605595455709317,1.0778579083698543,-3.1542146993497524,13.73833789211366,2.0712180166849268,-1.054207867580506,11.089591718869093,0.9529299852324696,5.113555163871951,2.0835690382050305,0.30517578125,3.799624559355945,1.2426608946265243,4.592709425019055,-32.23177281821646,-17.23982648151677,-8.4230027302944,5.489474193191865,-0.9986963739278598,-7.2565809563379,-11.019164411206075,-164.10982798668337,25.504747356755622,35.233084733578934,32.789019678317906,1577310533.999,-27.694028086293944,-51.11744964045818,6.397165
28359,1577310534.45,-1.624378233672351,-2.2959809969274003,10.520180489889004,-1.2421235003215505,-1.1909693380216264,13.474975709496473,7.50844998689977,6.056571063083555,2.2238629713104987,3.058642875857469,4.747344226371951,2.3277096632050305,1.068115234375,3.799624559355945,1.3647312071265243,0.5949066906440548,-13.005698599466465,4.030925471608232,-8.4230027302944,5.489474193191865,-0.9986963739278598,-10.87434403687876,-9.93383548704382,-200.821552579365,25.60059304519724,35.32893042202055,32.45355976877228,1577310533.999,-27.694028086293944,-51.11744964045818,6.397165
28360,1577310534.46,-0.1938427417289921,-0.712216598734041,8.19900198036752,-1.1415670305949883,-0.9886592977384236,8.757201338158584,2.4506989798196925,5.26169611191168,-0.9640165391875472,2.585620414919969,3.0078422732469514,2.3277096632050305,2.838134765625,1.480288621855945,2.0513767149390243,-2.853579637480945,27.033363900533537,32.412273127858235,-8.254542675688512,4.61812908316141,-1.3618586917198034,2.622695148215982,-10.893934150725816,-134.51568265176655,25.55267020097643,35.113277623026924,32.88486536675951,1577310533.999,-27.694028086293944,-51.11744964045818,6.397165
28361,1577310534.47,0.7315161999213979,-2.212183938821932,7.134779342428067,-1.821520302079363,-1.504609755502096,6.062527369652724,-3.8592194955221033,-8.871276287990662,6.322736213497999,-1.1222653272675305,2.1533500857469514,2.3887448194550305,2.25830078125,4.867739793730945,2.5549167540015243,-3.189272996855945,47.05289515053354,30.48966570598323,-9.60222311253562,4.269591039149227,-0.453952897239937,-1.9690810693935703,-9.766861806403472,-85.4418467166513,25.504747356755622,35.32893042202055,32.789019678317906,1577310533.999,-27.694028086293944,-51.11744964045818,6.397165
28362,1577310534.48,2.943758533905773,0.9242202359827548,10.220905282369474,0.8001305157917296,0.1138705667635288,8.710514405785537,-2.0061074105611656,-5.466721527248476,6.9069214185761245,1.5632815477324695,3.3435356326219514,2.9990963819550305,-0.732421875,6.393618699980945,4.233383550876525,-0.1375151843559452,46.74771936928354,17.00089617473323,-10.612983440170945,5.663743215197955,-2.6329268039916136,-1.9690810693935703,-9.599888125763124,-91.4355976705585,25.64851588941804,35.13723904513733,32.64525114565549,1577310533.999,-27.694028086293944,-51.11744964045818,6.397165
28363,1577310534.49,1.928617029999523,1.6472691373499424,9.967119906392911,2.011596555830792,-0.8845115255216264,7.264416603051162,-3.715567395912728,0.928191107028868,10.002624165158156,3.119678032107469,7.463408679496951,2.4802975538300305,-0.518798828125,7.003970262480945,4.385971441501525,0.1066254406440547,42.65836390053354,9.524089534108231,-10.612983440170945,5.663743215197955,-2.6329268039916136,5.823024027155972,-9.26594076448243,-104.92153731684974,25.64851588941804,35.28100757779974,32.6931739898763,1577310533.999,-27.694028086293944,-51.11744964045818,6.397165
28364,1577310534.5,0.0012846935737422,-2.292389694437166,8.816706008687833,0.5463451398151677,-2.282725295052877,11.72122299343202,-0.3158010384908534,-5.704944592434021,13.461048463253858,-0.7713131788300305,5.693389148246951,1.7783932569550305,0.1373291015625,3.555483934355945,2.0666355040015243,0.3660248547065547,34.20499475990854,-8.221882145579269,-8.254542675688512,5.315205171185774,-1.7250210095117509,-3.0822389403292183,-11.10265125152625,-152.87154494810744,25.528708778866022,35.32893042202055,32.7650582562075,1577310533.999,-27.694028086293944,-51.11744964045818,6.397165
28365,1577310534.51,-0.1639152209770385,-1.7405262117711504,8.341456979146818,0.3117133771198547,-0.8318390889981889,10.96106396633241,-1.2974237191549158,2.63765109238043,16.100655793576124,5.042285453982469,4.838896960746951,2.0225338819550305,4.669189453125,4.745669481230945,1.3647312071265243,3.1278656750190548,18.396889291158537,-18.24690655964177,-8.591462784900287,6.01228125921014,-1.9066021684077188,-8.64802829500746,-12.271467016008682,-158.86529590201468,25.45682451253482,35.233084733578934,32.789019678317906,1577310533.999,-27.694028086293944,-51.11744964045818,6.397165
28366,1577310534.52,-1.7823955432426632,2.9545032437952545,11.911211654439786,-0.001927040360613,-1.1550563131192826,8.528555079613662,-0.7778819589010096,-4.427638006740662,13.620262873654248,2.875537407107469,6.517363757621951,1.7478756788300305,6.53076171875,0.7783843249809451,0.4797214415015244,2.6090668468940548,0.6356588224085366,-21.11555890339177,-7.0753222934473055,3.746783973130955,-1.3618586917198034,-9.204607230475286,-12.605414377289376,-158.86529590201468,25.45682451253482,35.08931620091653,32.64525114565549,1577310533.999,-27.694028086293944,-51.11744964045818,6.397165
28367,1577310534.53,-0.1232137927543822,-2.169088308939119,10.347797970357757,-0.0617820818645193,-0.6091783346036577,10.082391957055068,-0.1793315438619471,1.0335359800757429,12.39922002697456,-1.5189938428925305,1.5735161013719514,0.2830319288300305,0.640869140625,5.478091356230945,0.8459323790015244,7.583432081269055,-2.294028677591464,-26.33406476276677,-7.0753222934473055,3.746783973130955,-1.3618586917198034,-11.987501907814408,-12.271467016008682,-164.85904685592186,25.504747356755622,35.32893042202055,32.6931739898763,1577310533.999,-27.694028086293944,-51.11744964045818,6.397165
28368,1577310534.54,-0.864219206572742,-2.4192823824254472,8.424056936422208,-1.9927057207805348,-0.1901930440763144,13.01169768825624,2.272330956138052,0.4170290525855089,15.526047395138624,3.028125297732469,5.022002429496951,2.5413327100800305,-0.732421875,1.5718413562309452,3.3178562071265243,4.150204542206555,-17.705405630716463,-9.167927067454269,-8.423002730294407,3.9210529951370456,-1.3618586917198034,1.370392543413377,-12.438440696649028,-188.83405067155064,25.720400155749243,35.28100757779974,32.7171354119867,1577310533.999,-27.694028086293944,-51.11744964045818,6.397165
28369,1577310534.55,-2.7616240222465693,1.0798433438929111,7.948807906881192,-1.5988595476848315,-0.8773289205411576,12.06000252834413,-1.4985366586080406,-1.217013580471131,14.35288858166206,5.957812797732469,3.4961235232469514,2.6328854444550305,5.126953125,-1.2662934093940548,1.5783542540015243,3.1583832531440548,-28.569663443216463,-5.4600413252667686,-9.096842948717953,5.489474193191865,-2.0881833273036983,6.936181898091619,-12.271467016008682,-253.26687342605297,25.504747356755622,35.28100757779974,32.789019678317906,1577310533.999,-27.694028086293944,-51.11744964045818,6.397165
28370,1577310534.56,-1.0449814319145383,-2.959174856790681,11.195345358053068,0.1273598492878234,-4.274701076302877,9.852548597680068,1.4343603750833642,12.722028484958557,3.866285310177686,-3.1669430616425305,-5.964325695503049,0.5882077100800305,7.99560546875,-3.982357862519055,0.2966159727515244,1.6325043468940548,-25.731528677591463,23.68424578410823,-8.759922839506174,5.140936149179684,-1.725021009511747,-6.421712553136165,-12.438440696649028,-257.7621866414834,25.60059304519724,35.13723904513733,32.789019678317906,1577310533.999,-27.694028086293944,-51.11744964045818,6.397165
28371,1577310534.57,-1.1215958850395389,-0.6188427339879478,8.22533819862924,-1.867010133622332,-0.0704829610685014,8.672207179223037,1.3409865103372705,2.3072512632788675,-0.8000137254668439,5.042285453982469,0.3375541873094513,1.8241696241425305,0.823974609375,-2.2123383312690548,1.9750827696265243,-2.334780809355945,0.0558248380335365,34.792644221608235,-8.759922839506174,5.140936149179684,-1.725021009511747,-6.421712553136165,-12.438440696649028,-257.7621866414834,25.672477311528443,35.233084733578934,32.789019678317906,1577310533.999,-27.694028086293944,-51.11744964045818,6.397165
28372,1577310534.58,-3.070476036406726,1.8986603116663487,10.560881918111662,-0.7034281267863942,-0.5888276204923295,7.883317732201552,-2.3987564828267915,-8.646221331935976,10.844186048703078,-0.3593258741425305,-2.6684272580030486,0.6492428663300305,1.861572265625,-2.9447602062690548,0.9985202696265244,-0.2443267077934452,8.493935189596035,16.74149676067073,-10.107603276353284,5.489474193191865,-2.0881833273036983,-8.091449359539638,-9.93383548704382,-257.7621866414834,25.74436157785965,35.40081468835175,32.7650582562075,1577310533.999,-27.694028086293944,-51.11744964045818,6.397165
28373,1577310534.59,-0.015474718047351,-2.9783284700719315,7.017463461080411,-0.7896193865520192,-0.8821173238614701,10.314629518090223,-4.254262769447885,-7.080413446193788,13.895596064572215,-0.2982907178925305,-3.4618842892530486,-0.1747317430449695,2.838134765625,-4.073910596894055,0.5712741758765244,0.8390473156440548,-9.343589224466465,-5.5210764815167686,-8.254542675688512,5.663743215197955,-3.3592514395755155,16.676313268778546,-10.518243369285036,-209.06296014098743,25.60059304519724,35.32893042202055,32.64525114565549,1577310533.999,-27.694028086293944,-51.11744964045818,6.397165
28374,1577310534.6,-0.7504946277153197,-1.0797265535680254,10.996626620260098,-2.9707370989543627,-1.5955894185880335,7.609181642113661,-6.004424183022104,-8.909583514553162,20.115731977658157,4.676074516482469,-1.7528999142530486,2.8770260694550305,1.739501953125,-1.5104340343940548,2.4938815977515243,3.982357862519055,-32.78108922446646,-22.64143780964177,-8.928382894112062,4.269591039149227,-1.1802775328238315,16.11973433331072,-10.351269688644688,-164.10982798668337,25.64851588941804,35.28100757779974,32.64525114565549,1577310533.999,-27.694028086293944,-51.11744964045818,6.397165
28375,1577310534.61,-0.2189818591606327,-2.4312533907262286,11.848962411275725,0.2422815289753234,-2.991408986459127,10.542078675805069,1.8653166739114893,-2.9264735658226937,9.291546272091749,-1.0307125928925305,-6.483124523628049,0.5424313428925305,1.40380859375,-1.7850922375190548,1.7919773008765243,3.3720063000190548,-40.59358922446646,-20.44417218464177,-8.928382894112062,3.9210529951370456,-1.5434398506157752,18.067760607448104,-8.598046041921041,-158.86529590201468,25.55267020097643,35.28100757779974,32.50148261299308,1577310533.999,-27.694028086293944,-51.11744964045818,6.397165
28376,1577310534.62,1.136136280487804,-1.0055063021031816,9.900082259908537,1.549515635420636,-1.4543315206388148,11.260339173851944,-0.7826703622213221,3.83834322494879,4.680313874630812,1.2275881883574695,-3.0346381955030486,1.3206295850800305,-0.8697509765625,-4.455380323456555,0.6475681211890244,2.6395844250190548,-28.600181021341463,-14.111774723704269,-8.928382894112062,4.966667127173593,-2.2697644861996698,-9.204607230475286,-9.26594076448243,-152.12232607886898,25.64851588941804,35.233084733578934,32.789019678317906,1577310533.999,-27.694028086293944,-51.11744964045818,6.397165
28377,1577310534.63,-1.8685868030082884,1.7119125821741612,12.466666439596036,-0.653149891923113,0.8848035013338412,7.240474586449599,1.3625343252786768,9.003833306735899,1.2733649122284676,1.7158694383574695,-1.7834174923780486,1.4426998975800305,1.800537109375,-7.705502393769055,-0.5578762147484756,-2.243228074980945,0.1778951505335365,14.956218440358231,-8.759922839506174,4.095322017143136,-5.356644187431228,-10.87434403687876,-9.26594076448243,-151.37310720963063,25.60059304519724,35.13723904513733,32.789019678317906,1577310533.999,-27.694028086293944,-51.11744964045818,6.397165
28378,1577310534.64,-1.0042800036918822,-0.3040052156774003,10.220905282369474,-0.2006457781535818,-0.4200364034513139,9.222873561058972,4.678503624595082,-3.642339862209412,7.122399567990187,-2.4955563428925305,-6.574677258003049,-0.1442141649199695,-0.885009765625,-5.599789503144055,0.4186862852515244,-2.853579637480945,16.016518197408537,13.399821955983231,-9.770683167141508,3.746783973130955,-2.0881833273036983,-1.9690810693935703,-12.271467016008682,-211.31061674870253,25.60059304519724,35.233084733578934,32.83694252253871,1577310533.999,-27.694028086293944,-51.11744964045818,6.397165
28379,1577310534.65,1.4820984203803822,-1.624407431253572,8.282799038472989,0.004058463789777,-1.5644647970060024,5.577701533471084,-2.216797156654916,-4.330672839504334,9.281969465451123,-0.9696774366425304,-5.445526867378049,0.8628659132050305,1.6632080078125,-2.8684662609565548,0.7848972227515243,-1.0225249499809452,6.586586556783536,5.282146174733232,-9.265303003323838,4.966667127173593,-2.996089121783572,-7.534870424071813,-11.269624932166598,-209.81217901022572,25.45682451253482,35.20912331146853,32.7171354119867,1577310533.999,-27.694028086293944,-51.11744964045818,6.397165
28380,1577310534.66,-0.1734920276176635,-2.2696447786656817,11.920788461080411,0.9270232037800108,-0.9156361471036576,7.736074330101943,4.005732958091176,8.697375494235898,5.479977229123,-1.5800289991425305,-3.3703315548780486,0.6492428663300305,1.373291015625,0.8089019031059451,0.9985202696265244,-1.9685698718559448,15.528236947408535,16.60416765910823,-8.759922839506174,4.792398105167502,-2.4513456450956417,-10.03947563367702,-12.354953856328857,-164.10982798668337,25.504747356755622,35.13723904513733,32.50148261299308,1577310533.999,-27.694028086293944,-51.11744964045818,6.397165
28381,1577310534.67,1.9669242565620229,-1.2233786531774002,9.20097537514291,2.471283274580792,-1.1622389180997514,8.212520460473037,3.1773391836771143,-5.584037408596132,5.30041210461128,-1.2443356397675305,-2.8515327267530486,0.5882077100800305,-3.90625,2.243228074980945,2.6464694883765243,-4.715151903105945,26.758705697408537,26.61393328410823,-7.243782348053194,6.01228125921014,-1.9066021684077188,0.2572346724777273,-12.605414377289376,-164.85904685592186,25.504747356755622,35.13723904513733,32.6931739898763,1577310533.999,-27.694028086293944,-51.11744964045818,6.397165
28382,1577310534.68,0.7925683422553829,-0.2417559725133383,10.320264651265958,1.3460084943073547,0.5184906473299351,9.775934144555066,-3.9597759652486655,-14.253441620021912,13.007347248654249,-0.1304440382050304,-0.4406440548780487,1.5342526319550305,-1.03759765625,-3.0668305187690548,1.1511081602515243,-0.7783843249809452,17.878090463033537,-2.408283512766769,-9.181072976020896,5.7508777262010025,-2.17897390675168,0.2572346724777273,-12.605414377289376,-188.8340506715505,25.74436157785965,35.28100757779974,32.6931739898763,1577310533.999,-27.694028086293944,-51.11744964045818,6.397165
28383,1577310534.69,0.5734988903510855,0.3807364591272861,10.477084860006192,-0.8542628313762387,0.5723601846834506,8.443560920678115,1.6414588186868804,5.887779846042539,14.882007148556593,0.8003420946074695,-1.7834174923780486,0.9544186475800304,3.35693359375,-1.9681977062690548,1.2121433165015243,0.8848236828315548,4.358803353658537,-9.534138004954269,-8.4230027302944,5.489474193191865,-2.4513456450956417,-0.9950679323248774,-12.480184116809117,-192.2055355831233,25.64851588941804,35.28100757779974,32.64525114565549,1577310533.999,-27.694028086293944,-51.11744964045818,6.397165
28384,1577310534.7,1.2247217419135854,-1.4340683992711505,9.354204281392912,2.966883018233136,-3.044081422982565,8.511795667992567,-0.6988733041158535,-14.152885150295347,15.849264619259715,-1.5189938428925305,-3.2482612423780486,0.7713131788300305,-0.6103515625,0.8394194812309451,1.2731784727515243,-2.243228074980945,-12.029136099466465,8.333903987233231,-9.265303003323838,4.618129083161412,-4.08557607515941,-11.987501907814408,-12.605414377289376,-208.3137412717489,25.64851588941804,35.28100757779974,32.83694252253871,1577310533.999,-27.694028086293944,-51.11744964045818,6.397165
28385,1577310534.71,1.3587970348823355,-1.9895231844274004,6.665515817037442,0.3500206036823546,-0.659456569466939,4.726562843285536,-2.9302692513814783,-5.871341607814882,8.8127059400605,0.8308596727324695,0.3222953982469513,1.9309811475800305,-3.143310546875,-2.6701020031440548,0.9374851133765244,4.958920362519055,-15.782798208841465,-27.82942609089177,-9.60222311253562,5.663743215197955,-1.5434398506157752,-11.987501907814408,-12.271467016008682,-208.3137412717489,25.45682451253482,35.424776110462155,32.789019678317906,1577310533.999,-27.694028086293944,-51.11744964045818,6.397165
28386,1577310534.72,-0.7600714343559452,-1.454419113382479,10.54172830483041,-0.6292078753215505,-0.7719840474942826,5.39454510646913,2.1861396963724267,9.025381121677304,3.957264973263624,-1.1375241163300305,-1.8139350705030488,1.6563229444550305,-4.547119140625,-2.0902680187690548,2.8906101133765243,3.1889008312690548,-12.822593130716465,-20.13899640339177,-8.759922839506174,4.966667127173593,-0.998696373927856,-9.76118616594311,-12.605414377289376,-197.8246771024114,25.576631623086836,35.13723904513733,32.789019678317906,1577310533.999,-27.694028086293944,-51.11744964045818,6.397165
28387,1577310534.73,1.7562345104682728,0.6417044400843174,11.420400314107754,0.5726813580768864,0.5065196390291539,11.624257826195691,3.0157305716165674,9.850183593601134,5.5015250440644055,0.2205081102324695,-3.9806831173780486,2.2056393507050305,-3.8299560546875,-1.4951752453315548,2.5701755430640243,-2.212710496855945,7.593666634908536,16.83304949504573,-9.265303003323838,4.618129083161412,-0.453952897239937,-10.317765101410934,-11.937519654727986,-197.8246771024114,25.60059304519724,35.35289184413095,32.789019678317906,1577310533.999,-27.694028086293944,-51.11744964045818,6.397165
28388,1577310534.74,1.4713245129096792,0.9984404874475986,11.113942501607754,-0.5885064470988943,-1.57883000696694,9.701713893090222,-2.678878077065072,-2.251308697658631,7.086486543087843,-1.2138180616425305,-2.7904975705030486,2.4802975538300305,-1.8310546875,-2.4869965343940548,2.1581882383765243,-6.515689012480945,23.035561166158537,37.87491961223324,-9.265303003323838,4.618129083161412,-0.453952897239937,-9.482896698209196,-12.521927536969203,-182.0910808484049,25.79228442208045,35.13723904513733,32.64525114565549,1577310533.999,-27.694028086293944,-51.11744964045818,6.397165
28389,1577310534.75,0.0156499035346792,-1.3047815096227129,9.543346212545254,1.8033010113971983,-1.6554444600919398,9.596369020043348,-0.5959226327291346,-8.794661834865662,7.395338557247999,-0.9391598585175304,0.1391899294969513,2.1140866163300305,1.0986328125,-0.7169770031440549,1.2731784727515243,-2.700991746855945,23.554359994283537,18.25211687785823,-8.4230027302944,5.489474193191865,-2.4513456450956417,-11.709212440080496,-11.186138091846423,-188.08483180231227,25.64851588941804,35.32893042202055,32.6931739898763,1577310533.999,-27.694028086293944,-51.11744964045818,6.397165
28390,1577310534.76,3.198741010712413,-0.8283353792516195,9.860577932515955,3.3667146954792297,-2.412012184701315,3.01949705959413,-4.898303016029916,3.305633355564024,17.477321748165966,-1.9920163038300305,2.2449028201219514,1.2901120069550305,-1.40380859375,2.060122606230945,2.3107761290015243,-1.0225249499809452,9.302651009908535,11.782390315358231,-9.181072976020896,5.402339682188819,-1.4526492711677894,-3.082238940329218,-9.93383548704382,-92.93403540903536,25.696438733638843,35.47269895468296,32.50148261299308,1577310533.999,-27.694028086293944,-51.11744964045818,6.397165
28391,1577310534.77,3.0562860119331168,-2.609621414407869,9.799525790181974,1.884703867842511,-2.188154329476705,8.545314491234755,-2.059976947914681,-11.54081113906488,19.878706013302686,-0.8476071241425305,5.266143054496951,1.5647702100800305,-1.617431640625,2.823062059355945,1.1663669493140243,-1.175112840605945,-25.746787466653963,-7.0469553877667686,-9.433763057929731,5.140936149179684,-2.0881833273036983,-0.5776337307240089,-9.599888125763124,-116.90903922466424,25.504747356755622,35.11327762302693,32.81298110042831,1577310533.999,-27.694028086293944,-51.11744964045818,6.397165
28392,1577310534.78,0.386751160858898,-1.3430887361852129,10.592006539693692,2.255805125166729,0.1330241800447788,9.304276417504283,-1.163348426186166,0.1428929624976178,15.487740168576124,-0.6950192335175305,6.395293445121951,1.3816647413300305,-0.885009765625,5.813784715605945,1.5783542540015243,3.0973480968940548,-59.14827672446646,-27.21907452839177,-9.433763057929731,5.140936149179684,-2.0881833273036983,-2.525660004861394,-9.26594076448243,-134.8902920863858,25.64851588941804,35.233084733578934,32.597328301434686,1577310533.999,-27.694028086293944,-51.11744964045818,6.397165
28393,1577310534.79,1.313307203339367,0.9337970426233798,12.198515853658536,-0.2652892229778005,-0.4320074117520951,12.141405384789442,1.6306849112161768,-0.8554891297875373,10.967487434201123,-0.2982907178925305,4.350615710746951,1.6868405225800305,-1.129150390625,2.731509324980945,1.1205905821265243,3.3109711437690548,-61.16243688071646,-27.06648663776677,-9.265303003323838,6.360819303222321,-1.5434398506157752,-2.8039494725953062,-9.850348646723646,-158.1160770327762,25.45682451253482,35.13723904513733,32.789019678317906,1577310533.999,-27.694028086293944,-51.11744964045818,6.397165
28394,1577310534.8,0.4118902782905391,-1.515471255716463,10.094012594381192,-1.0853032915813163,-1.4495431173185018,13.538422053490612,3.259939140952505,3.489986883396055,0.2390697950409681,-0.4508786085175305,5.845977038871951,1.7478756788300305,-0.3814697265625,2.517886278105945,1.4105075743140243,1.5867279797065548,-33.72713414634146,-8.206623356516769,-8.591462784900287,4.61812908316141,-1.1802775328238315,-5.447699416067472,-10.55998678944512,-142.0078713441506,25.55267020097643,35.20912331146854,32.7171354119867,1577310533.999,-27.694028086293944,-51.11744964045818,6.397165
28395,1577310534.81,-2.644308140898913,-2.5856793978063064,13.51772096840463,-1.103259804032488,-0.8557811055997514,10.281110694848037,3.88841707674352,6.346269463962461,0.3922987012909676,-2.4040036085175305,0.0476371951219513,1.4732174757050305,-1.52587890625,-1.6935395031440548,2.2497409727515243,-1.6023589343559452,7.837807259908536,9.279948909108231,-8.254542675688512,4.618129083161412,-1.9066021684077188,-3.082238940329218,-9.599888125763124,-152.87154494810736,25.60059304519724,35.13723904513733,32.64525114565549,1577310533.999,-27.694028086293944,-51.11744964045818,6.397165
28396,1577310534.82,-0.8342916858207885,-1.8602362947789628,6.854657748189786,-0.9620019060832692,-0.5373522847989701,9.960287672387098,-6.377919642006479,-2.5649491151391,23.85547497082222,1.0750002977324695,2.8247368044969514,2.0835690382050305,5.126953125,2.487368699980945,1.1816257383765243,-1.2361479968559452,-5.345786490091464,2.5965992997332314,-8.254542675688512,4.618129083161412,-1.9066021684077188,5.823024027155972,-9.599888125763124,-164.85904685592186,25.74436157785965,35.13723904513733,32.64525114565549,1577310533.999,-27.694028086293944,-51.11744964045818,6.397165
28397,1577310534.83,0.5854698986518672,-0.7684803377477133,11.814246487203455,2.3874862164753234,-2.2779368917325646,10.415185987816786,1.2739488638528955,-2.222578277736756,16.998481416134716,-1.5037350538300305,-1.0357368283155486,1.4121823194550305,1.373291015625,4.501528856230945,1.3036960508765243,0.9611176281440548,-28.996909536966463,0.2162282059832316,-9.012612921415007,4.530994572158365,-1.4526492711677892,5.823024027155972,-9.766861806403472,-208.3137412717489,25.55267020097643,35.28100757779974,32.789019678317906,1577310533.999,-27.694028086293944,-51.11744964045818,6.397165
28398,1577310534.84,-1.0641350451957885,-0.6607412630406816,13.225628365865568,-0.7836338824016288,-0.1243524984220175,10.083589057885144,0.1786016043314117,3.3032391539038675,6.94762284679878,-3.4110836866425305,-1.1730659298780486,1.3816647413300305,-3.265380859375,2.777285692168445,1.9598239805640243,-2.624697801543445,-31.407798208841463,13.003093440358231,-9.096842948717953,3.746783973130955,-2.814507962887585,8.049339769027267,-9.93383548704382,-245.77468473366903,25.504747356755622,35.304968999910145,32.74109683409711,1577310533.999,-27.694028086293944,-51.11744964045818,6.397165
28399,1577310534.85,0.7650350231635854,-2.2217607454625568,8.389341012349941,-0.4017587176067068,-0.8126854757169389,11.327376820336315,2.564423558677114,-5.416443292385194,-0.3163849901152814,-0.3288082960175305,0.1086723513719513,1.9614987257050305,-1.312255859375,1.4192534656059452,2.6769870665015243,-1.1751128406059452,-2.904380240091464,8.089763362233231,-9.433763057929731,4.095322017143136,-0.9986963739278598,8.049339769027267,-9.599888125763124,-236.78405830280823,25.840207266301256,35.32893042202055,32.789019678317906,1577310533.999,-27.694028086293944,-51.11744964045818,6.397165
28400,1577310534.86,0.674055360077648,-1.608845120462557,8.90170016762338,0.2949539654987609,-0.6810043844083452,7.254839796410536,0.3521812246927393,0.193171197360899,7.225350239376906,-0.0846676710175304,0.3222953982469513,1.9614987257050305,1.15966796875,-0.8085297375190549,2.5549167540015243,-1.7854644031059452,13.605629525533535,14.193278987233231,-9.433763057929731,4.095322017143136,-0.9986963739278598,6.657892430357706,-9.516401285442951,-230.0410884796627,25.64851588941804,35.32893042202055,32.789019678317906,1577310533.999,-27.694028086293944,-51.11744964045818,6.397165
28401,1577310534.87,1.699970771454601,-1.969172470316072,10.247241500631192,0.0148323712604796,-3.434336293588033,10.044084730492568,0.4335840811380518,-8.737200995021913,11.637863899044874,0.3883547899199695,1.5277397341844514,1.7326168897675305,4.7607421875,-1.8766449718940548,1.0290378477515243,0.1066254406440547,8.478676400533537,3.634196955983232,-9.854913194444451,5.4023396821888205,-1.9973927478557083,19.18091847838376,-9.93383548704382,-233.78718282585456,25.55267020097643,35.28100757779974,32.789019678317906,1577310533.999,-27.694028086293944,-51.11744964045818,6.397165
28402,1577310534.88,0.0683223400581167,-1.0342367220250566,9.90965906654916,0.688800138594464,-0.5768566121915493,8.584818818627333,-0.3660792733541351,-4.254058386379334,10.681380335812452,2.204150688357469,5.144072741996951,1.2595944288300305,0.54931640625,5.356021043730945,1.3952487852515243,1.7087982922065548,-0.6613382479039636,-9.824054997141769,-8.591462784900287,3.572514951124864,-2.2697644861996698,2.761839882082936,-10.518243369285036,-173.10045441754414,25.408901668314016,35.20912331146853,32.789019678317906,1577310533.999,-27.694028086293944,-51.11744964045818,6.397165
28403,1577310534.89,-0.1615210193168822,-1.1395815950719317,8.236112106099942,0.6540842145221983,0.824948459829935,7.005842823754287,-1.6302177499166344,2.8698886534155865,10.596386176876903,2.204150688357469,2.9162895388719514,1.3511471632050305,0.640869140625,2.548403856230945,2.3718112852515243,2.6090668468940548,1.5817037442835369,-3.262775700266769,-7.74916251187085,3.746783973130955,-0.6355340561359087,16.954602736512456,-12.605414377289376,-164.85904685592186,25.64851588941804,35.47269895468296,32.64525114565549,1577310533.999,-27.694028086293944,-51.11744964045818,6.397165
28404,1577310534.9,0.9278407360542104,-2.032618814310213,8.59524235512338,-1.0984714007121754,0.5567978738924351,7.475106349144911,0.6897636587747705,-2.8977431459008187,3.047468342404249,2.082080375857469,4.106475085746951,1.3206295850800305,9.307861328125,4.318423387480945,-0.0695949647484756,2.0597504406440548,11.530434213033535,-0.0889475752667683,-7.74916251187085,3.746783973130955,-0.6355340561359087,-10.596054569144847,-12.521927536969203,-140.1348241710545,25.74436157785965,35.32893042202055,32.789019678317906,1577310533.999,-27.694028086293944,-51.11744964045818,6.397165
28405,1577310534.91,-0.5026947558891479,-1.824323269876619,9.434410037008146,-1.6898392107707694,-2.4862324361661585,9.593974818383192,3.550834642661489,2.635256890720274,4.175137324337842,2.478808891482469,2.4890434451219514,2.0072750928925305,0.823974609375,4.318423387480945,1.4562839415015243,2.3038910656440548,21.387611947408537,-5.2159007002667686,-8.928382894112065,4.61812908316141,-1.9066021684077223,-0.5776337307240097,-12.521927536969203,-140.1348241710545,25.55267020097643,35.47269895468296,32.64525114565549,1577310533.999,-27.694028086293944,-51.11744964045818,6.397165
28406,1577310534.92,-1.116807481719226,-0.2106313509313065,12.239217281881192,-1.6359696734172535,-1.6291082418302212,10.890435017357802,-1.986953797279916,1.0526895933569926,15.32373735485542,1.5632815477324695,0.6885063357469513,2.1446041944550305,-0.06103515625,3.418154832793445,3.0431980040015243,1.0831879406440548,12.400185189596035,7.1894948075457314,-9.60222311253562,4.618129083161412,-0.8171152150318806,1.7878267450142444,-12.229723595848595,-210.93600731408335,25.60059304519724,35.233084733578934,32.74109683409711,1577310533.999,-27.694028086293944,-51.11744964045818,6.397165
28407,1577310534.93,-1.0665292468559446,-1.984734781107088,10.845791915670254,1.4321997540729796,-2.864516298470846,14.389560743676162,-0.5264907845846034,-0.9823818177758186,19.10298467541206,2.539844047732469,0.0781547732469513,2.2056393507050305,2.716064453125,4.776187059355945,1.9140476133765243,2.6395844250190548,-0.3103860994664634,-6.3145335127667686,-9.096842948717953,4.792398105167502,-1.3618586917198034,-2.8039494725953062,-12.521927536969203,-233.0379639566163,25.504747356755622,35.233084733578934,32.789019678317906,1577310533.999,-27.694028086293944,-51.11744964045818,6.397165
28408,1577310534.94,-0.628390343047351,-2.04698402427115,8.674251009908536,1.456141770674542,-0.3817291768888138,16.723907362328504,-1.263904895912728,-0.4101676209984748,17.613791242794875,3.211230766482469,-0.0133979611280486,1.7783932569550305,2.227783203125,-0.8695648937690549,2.4633640196265243,2.2428559093940548,-14.989341177591465,4.793864924733232,-9.096842948717953,4.792398105167502,-1.3618586917198034,-11.709212440080496,-12.521927536969203,-188.08483180231227,25.60059304519724,35.28100757779974,32.789019678317906,1577310533.999,-27.694028086293944,-51.11744964045818,6.397165
28409,1577310534.95,-1.3909435718071164,-0.7289760103551347,10.602780447164395,0.4146640485065739,-0.3027205221036582,13.306184492455458,-0.3158010384908538,-4.893310229641053,12.028118769650344,4.203052055544969,-1.6308296017530486,2.0683102491425305,3.2196044921875,-5.294613721894056,1.2426608946265243,4.684262159394055,-34.01705113852896,-8.679645817454269,-8.928382894112064,4.61812908316141,-1.5434398506157754,-10.178620367543978,-11.812289394247728,-157.741467598157,25.48078593464522,35.233084733578934,32.81298110042831,1577310533.999,-27.694028086293944,-51.11744964045818,6.397165
28410,1577310534.96,-1.2173639514457886,-3.174653006204744,12.351744759908536,-0.5310456072551444,-1.4710909322599086,7.805506178246474,4.92989479891149,10.59358320907965,-0.9604252366973126,2.997607719607469,-6.238983898628049,1.9614987257050305,2.471923828125,-4.684262159394055,2.4023288633765243,3.982357862519055,-7.512534536966464,3.3900563309832314,-9.60222311253562,5.315205171185774,-2.6329268039916136,-9.76118616594311,-11.937519654727987,-151.37310720963063,25.60059304519724,35.13723904513733,32.6931739898763,1577310533.999,-27.694028086293944,-51.11744964045818,6.397165
28411,1577310534.97,1.1792319103706166,-2.1475404939977127,8.90170016762338,0.7139392560261045,-2.043305129037252,1.9421063125238172,5.061575890220083,6.918483660739805,-1.0561933031035626,5.957812797732469,-4.072235851753049,1.9614987257050305,6.40869140625,-3.5856293468940548,2.1276706602515243,1.4493988781440548,20.197426400533537,23.10441179973323,-9.265303003323838,5.315205171185774,-2.996089121783572,-8.64802829500746,-11.937519654727987,-164.85904685592186,25.504747356755622,34.993470512474914,32.64525114565549,1577310533.999,-27.694028086293944,-51.11744964045818,6.397165
28412,1577310534.98,1.2833796825874135,-1.420900290140291,8.80593210121713,0.5822581647175109,-2.337791933236471,5.52862039943788,-0.3995980965963221,-5.69417068496332,-4.937194194216844,1.5937991258574693,-1.3256538205030486,1.4579586866425305,0.152587890625,-3.5245941906440548,1.2121433165015243,-0.3816558093559452,41.80387171303354,31.31364031535823,-9.265303003323838,5.315205171185774,-2.996089121783572,-2.247370537127482,-11.019164411206075,-209.06296014098743,25.62455446730764,34.993470512474914,32.83694252253871,1577310533.999,-27.694028086293944,-51.11744964045818,6.397165
28413,1577310534.99,-0.0202631213676635,1.6281155240686924,9.165062350240568,-1.2732481219035818,-0.9754911886075645,8.12752630153749,-1.0184992257467127,-2.266871008449647,11.229652515988231,2.478808891482469,-2.9430854611280486,1.6868405225800305,-1.129150390625,-2.3496674328315548,2.3870700743140243,-0.4274321765434452,45.29813440834604,15.291911799733231,-9.60222311253562,5.315205171185774,-1.5434398506157752,-10.596054569144847,-11.353111772486772,-197.07545823317287,25.504747356755622,35.28100757779974,32.789019678317906,1577310533.999,-27.694028086293944,-51.11744964045818,6.397165
28414,1577310535.0,-0.0011095080864135,1.386301156392911,11.35336266762338,2.432976048018292,-1.8996530294278773,5.607629054223037,-2.927875049721322,-9.010139984279723,19.265790388302683,0.9834475633574696,-5.750702648628049,1.0154538038300305,1.678466796875,0.8089019031059451,0.7848972227515244,-0.2290679187309452,27.521645150533537,0.0941578934832316,-9.265303003323838,5.315205171185774,-1.5434398506157752,-7.534870424071813,-12.605414377289376,-161.86217137896827,25.64851588941804,35.28100757779974,32.64525114565549,1577310534.999,-27.694001977494683,-51.11750858497368,6.489444
28415,1577310535.01,1.1002232555854603,-0.2082371492711503,8.612001766744473,0.8911101788776671,-1.0425288350919388,10.281110694848037,0.790320128501333,-2.6798707948266,21.31522700939644,2.387256157107469,1.2378227419969514,0.6797604444550305,-0.42724609375,-1.9376801281440548,0.1135105040015244,2.1513031750190548,5.365883431783536,-10.220783512766769,-9.60222311253562,6.01228125921014,-1.5434398506157752,-7.534870424071813,-12.605414377289376,-161.86217137896827,25.45682451253482,35.13723904513733,32.64525114565549,1577310534.999,-27.694001977494683,-51.11750858497368,6.489444
28416,1577310535.02,-0.5314251758110229,-1.6878537752477127,10.74044704262338,0.0770816144245421,0.3054066995760288,13.549195960961317,1.336198107016958,-6.244837066799257,16.3975367994355,2.097339164919969,-1.4629829220655486,0.8628659132050305,1.983642578125,-0.9000824718940549,0.3271335508765244,4.470639112519055,-13.493979849466465,-23.55696515339177,-9.60222311253562,5.663743215197955,-1.5434398506157752,-10.87434403687876,-10.267782848324511,-163.36060911744488,25.79228442208045,35.47269895468296,32.789019678317906,1577310534.999,-27.694001977494683,-51.11750858497368,6.489444
28417,1577310535.03,1.1481072887885857,-1.680671170267244,10.788331075826504,0.7678087933796202,-1.5141865621427206,9.61432553249452,-0.2320039803853851,-1.7604973573266005,15.37521269054878,1.1665530321074695,-1.6918647580030486,0.5576901319550305,4.5166015625,-2.9752777843940548,0.8459323790015244,5.554013135956555,-28.233970083841463,-28.500812809641765,-8.759922839506174,5.489474193191865,-0.2723717383439576,4.849010890087278,-11.144394671686335,-126.27427509014422,25.45682451253482,35.25704615568934,32.836942522538706,1577310534.999,-27.694001977494683,-51.11750858497368,6.489444
28418,1577310535.04,0.6261713268745229,-4.405272659525056,10.47229645668588,-1.0003091326457692,-4.133443178353659,10.166189015160535,-3.552761683022103,-1.3295410584984748,17.999257710080027,0.9224124071074696,-1.1120307736280486,1.5952877882050305,0.885009765625,-2.2733734875190548,0.4492038633765244,4.562191846894055,-53.38045445884146,1.6505543778582317,-8.591462784900287,4.966667127173593,-1.9066021684077188,-1.4125021339257453,-9.599888125763124,-100.4262241014194,25.45682451253482,35.13723904513733,32.64525114565549,1577310534.999,-27.694001977494683,-51.11750858497368,6.489444
28419,1577310535.05,-0.0082921130668822,-2.078108645853181,10.359768978658536,-1.5222450945598318,-0.8749347188810014,7.700161305199599,2.4758380972513327,14.227981329196837,-2.868603959841844,3.9741702196074695,0.8716118044969513,2.1446041944550305,-0.518798828125,3.586001512480945,3.958725347751524,5.538754346894055,-38.57942906821646,4.458171565358232,-8.759922839506174,4.443860061155317,-1.725021009511747,0.8138136079455525,-8.598046041921041,-115.41060148618736,25.64851588941804,35.424776110462155,32.6931739898763,1577310534.999,-27.694001977494683,-51.11750858497368,6.489444
28420,1577310535.06,1.2606347668159292,0.5746667935999429,10.098800997701504,3.670778306319073,-0.5732653097013138,6.471935853539443,5.3871873160013335,19.734645147556208,-7.264358207888718,2.875537407107469,2.5653373904344514,0.9696774366425304,2.13623046875,5.356021043730945,2.7380222227515243,0.7169770031440548,-6.963218130716464,26.40031023723323,-7.5807024572649615,4.618129083161412,-1.1802775328238315,0.8138136079455525,-8.598046041921041,-115.41060148618736,25.60059304519724,35.28100757779974,32.789019678317906,1577310534.999,-27.694001977494683,-51.11750858497368,6.489444
28421,1577310535.07,3.37950323605421,-1.8554478914586503,4.47003289467416,1.8272430279987608,-1.3669431600431112,11.560811482201553,3.803422917807974,-6.043724127346131,-3.2768153428984848,4.431933891482469,4.259062976371951,1.9920163038300305,5.4168701171875,4.318423387480945,-0.4968410584984755,-7.843203660918444,49.46378382240854,43.50541277629574,-8.254542675688512,3.572514951124864,-0.8171152150318806,-1.9690810693935703,-9.93383548704382,-110.91528827075692,25.74436157785965,35.304968999910145,32.836942522538706,1577310534.999,-27.694001977494683,-51.11750858497368,6.489444
28422,1577310535.08,-0.0992717761528197,0.7302899015100985,10.77875426918588,1.092223118330792,-0.3553929586270951,14.382378138695692,3.1773391836771143,-11.380399627834413,15.25310840588081,1.0139651414824695,0.8105766482469513,1.1985592725800305,-0.091552734375,-1.0526703625190548,2.4023288633765243,-0.2901030749809452,55.04850061928354,13.277751643483231,-9.433763057929731,7.232164413252778,-0.6355340561359087,0.2572346724777273,-9.599888125763124,-110.91528827075692,25.79228442208045,35.28100757779974,32.64525114565549,1577310534.999,-27.694001977494683,-51.11750858497368,6.489444
28423,1577310535.09,-0.6571207629692261,2.0949848477991613,11.88966383949838,-1.811943495438738,3.40110944615806,11.092745057641006,-1.2279918710103843,-0.2832749330101936,22.59612489758003,2.692431938357469,1.848174304496952,1.2290768507050305,-2.38037109375,1.0835601062309452,1.7004245665015243,0.2286957531440547,31.824623666158537,19.13712664348323,-8.591462784900287,5.315205171185774,-1.5434398506157752,1.370392543413376,-9.93383548704382,-109.41685053228018,25.74436157785965,34.993470512474914,32.83694252253871,1577310534.999,-27.694001977494683,-51.11750858497368,6.489444
28424,1577310535.1,-2.0685026416313352,-2.486320028909822,8.68502491737924,-1.2744452227336602,-1.5285517721036586,12.631019624291396,-2.221585559975228,-8.253572259670351,20.422189790158157,0.9987063524199692,1.2378227419969514,1.7326168897675305,1.617431640625,-1.9529389172065548,2.0361179258765243,4.134945753144055,-10.365928091653965,-24.014728825266765,-10.444523385565056,6.18655028121623,-2.4513456450956417,3.5967082852846737,-10.85219073056573,-147.6270128634387,25.76832299997005,35.16120046724773,32.789019678317906,1577310534.999,-27.694001977494683,-51.11750858497368,6.489444
28425,1577310535.11,-1.6411376452934443,-0.2848516023961503,8.487503280416348,-2.4009171038371755,-0.4176422017911576,10.48940623928163,1.2571894522318017,4.43809074081793,9.05452030773628,1.1360354539824695,-2.3327338986280486,1.1070065382050305,3.662109375,-5.477719190644055,1.5783542540015243,5.111508253144055,-30.309165396341463,-24.28938702839177,-9.770683167141508,6.883626369240596,-0.9986963739278598,6.101313494889882,-11.854032814407812,-200.07233371012663,25.74436157785965,35.13723904513733,32.50148261299308,1577310534.999,-27.694001977494683,-51.11750858497368,6.489444
28426,1577310535.12,-1.2844015979301633,1.055901327291349,10.84818611733041,-2.3530330706340505,0.9709947610994664,9.708896498070692,1.815038439048208,-1.9592160951195683,0.5503160108612801,3.6689944383574695,-2.1496284298780486,2.6023678663300305,0.9765625,0.1069976062309451,1.4868015196265243,4.440121534394055,-18.315757193216463,-25.08284405964177,-9.433763057929731,5.140936149179684,-1.3618586917198034,-0.8559231984579215,-12.605414377289376,-245.77468473366903,25.504747356755622,35.13723904513733,32.789019678317906,1577310534.999,-27.694001977494683,-51.11750858497368,6.489444
28427,1577310535.13,1.3528115307319453,-2.1451462923375573,9.314699954000332,-0.3969703142863943,-4.360892336068503,8.51658407131288,0.0888190420755518,6.061359466403867,-1.8606450609160623,-0.2372555616425304,-4.011200695503049,1.7173581007050305,-1.007080078125,-0.5033539562690549,3.5314792540015243,2.3038910656440548,4.755531869283536,-20.35261945026677,-8.759922839506174,4.7923981051675,-1.3618586917197997,-3.082238940329218,-9.93383548704382,-248.77156021062265,25.528708778866022,35.233084733578934,32.88486536675951,1577310534.999,-27.694001977494683,-51.11750858497368,6.489444
28428,1577310535.14,2.780952821015148,-2.494699734720369,7.606437069478849,-0.2377559038860042,-2.844165584359518,10.299067207299208,-3.117016980873666,3.718633141940977,11.214090205197218,5.591601860232469,1.4209282107469514,3.5789303663300305,-0.4730224609375,-2.5632904797065548,3.455185308689024,1.2052582531440548,12.293373666158535,3.802043635670731,-8.928382894112062,5.663743215197955,-0.0907905794479859,-6.700002020870076,-9.93383548704382,-254.01609229529143,25.504747356755622,35.32893042202055,32.6931739898763,1577310534.999,-27.694001977494683,-51.11750858497368,6.489444
28429,1577310535.15,-0.0849065661918822,2.0279472013147863,11.19295115639291,0.0794758160846984,0.6405949319979037,16.154087367211318,-5.233491248451792,-7.262372772365663,17.822086787228464,3.8215823289824695,0.9631645388719512,3.0601315382050305,4.913330078125,-5.477719190644055,0.9069675352515244,1.2968109875190548,-13.524497427591465,12.758952815358231,-8.4230027302944,4.095322017143136,-0.9986963739278598,16.398023801044634,-9.599888125763124,-200.821552579365,25.74436157785965,35.13723904513733,32.83694252253871,1577310534.999,-27.694001977494683,-51.11750858497368,6.489444
28430,1577310535.16,-1.365804454375476,0.0335772184046299,13.771506344381192,1.4321997540729796,-3.228434950814596,13.187671510277724,3.778283800376333,-6.72846580215082,16.234731086544873,-2.7702145460175305,-2.1801460080030486,0.8323483350800305,2.471923828125,-3.1278656750190548,-0.8630519959984756,-0.4426909656059452,-24.846518911966463,3.664714534108232,-11.118363603988607,4.792398105167502,-2.4513456450956417,-11.430922972346584,-9.599888125763124,-164.85904685592186,25.74436157785965,35.08931620091653,32.64525114565549,1577310534.999,-27.694001977494683,-51.11750858497368,6.489444
28431,1577310535.17,-0.6008570239555545,-1.1036685701695883,9.290757937398771,1.1808085797565733,0.8871977029939976,12.854877479516006,2.6242786001810203,11.05326992782965,17.635339057736278,2.967090141482469,-0.9136665158155486,1.3816647413300305,-3.570556640625,-0.3202484875190549,1.7004245665015243,-0.5647612781059452,-36.07698766196646,16.42106219035823,-9.433763057929728,5.838012237204048,-1.3618586917198034,-11.987501907814408,-10.60173020960521,-164.85904685592186,25.62455446730764,35.28100757779974,32.597328301434686,1577310534.999,-27.694001977494683,-51.11750858497368,6.489444
28432,1577310535.18,-3.85337997927782,1.62332712074838,11.55686980873666,-1.5892827410442072,1.7682639139314975,10.600736616478896,4.433097954429067,-3.3071516297875374,1.73784003429878,0.4951663133574695,-5.323456554878049,1.5647702100800305,-2.5177001953125,-3.7839936047065543,1.8072360899390243,-0.4884673327934452,-16.133750357278963,11.538249690358231,-8.4230027302944,6.18655028121623,-1.725021009511747,-11.987501907814408,-10.60173020960521,-164.85904685592186,25.504747356755622,35.20912331146853,32.7171354119867,1577310534.999,-27.694001977494683,-51.11750858497368,6.489444
28433,1577310535.19,-0.561352696562976,-2.734119900735994,9.06690008217416,-0.739341151688738,0.3197719095369664,6.309130140648818,-0.9598412850728848,-0.0701909852562874,-3.179850175662156,-4.540234077267531,-11.64059522675305,-0.2052493211699695,3.90625,-7.736019971894055,1.0900730040015243,-0.2290679187309452,23.584877572408537,6.106120784108232,-8.4230027302944,6.18655028121623,-1.725021009511747,-11.987501907814408,-9.26594076448243,-164.85904685592186,25.60059304519724,35.32893042202055,32.64525114565549,1577310534.999,-27.694001977494683,-51.11750858497368,6.489444
28434,1577310535.2,1.0044551891792104,-1.556172683939119,8.509051095357755,-1.1750858538371756,-4.29864309290444,7.846207606469131,-2.604657825600228,-3.8578180116234746,5.025078913693312,0.9224124071074696,-5.659149914253049,2.1751217725800305,3.41796875,-4.501156690644055,1.1205905821265243,-1.6023589343559452,31.885658822408537,15.597087580983231,-8.591462784900287,4.966667127173593,-1.9066021684077188,-0.8559231984579215,-12.605414377289376,-212.8090544871794,25.60059304519724,35.424776110462155,32.64525114565549,1577310534.999,-27.694001977494683,-51.11750858497368,6.489444
28435,1577310535.21,0.3053483044135859,-1.578917599710604,9.28477243324838,0.0088468671100895,-0.6415000570157675,5.1658988479242085,2.5799858694681297,-0.1037098084984754,7.7137673780487805,-0.0083737257050304,-5.094574718940549,1.7478756788300305,-3.6163330078125,-2.8226898937690548,2.7685398008765243,-1.1903716296684452,37.72977503334604,0.2620045731707319,-10.107603276353284,5.315205171185774,-1.7250210095117506,-9.4828966982092,-9.599888125763126,-203.8184280563186,25.62455446730764,35.185161889358135,32.7171354119867,1577310534.999,-27.694001977494683,-51.11750858497368,6.489444
28436,1577310535.22,1.133742078827648,1.204341830221036,11.030145443502288,1.233481016280011,-3.376875453744284,9.725655909691785,3.282684056723989,-2.289615924221131,6.791999738888624,-2.6176266553925305,-2.6073921017530486,1.7173581007050305,-4.974365234375,-4.836850050019055,2.5854343321265243,-2.273745653105945,34.72379358803354,-2.072590153391769,-8.759922839506174,4.095322017143136,-1.725021009511747,-11.987501907814408,-12.605414377289376,-161.86217137896827,25.60059304519724,35.13723904513733,32.50148261299308,1577310534.999,-27.694001977494683,-51.11750858497368,6.489444
28437,1577310535.23,1.459353504608898,0.1245568814905674,7.060559090963223,2.3970630231159484,-0.4056711934903764,9.567638600121471,6.332896971763052,-2.921685162502381,9.825453242306592,0.0374026414824695,-2.2411811642530486,2.1446041944550305,-2.86865234375,-3.707699659394055,1.4562839415015243,-3.311343309355945,35.12052210365854,-3.018635075266769,-8.759922839506174,4.095322017143136,-1.725021009511747,-3.082238940329218,-11.937519654727987,-160.3637336404914,25.60059304519724,35.28100757779974,32.64525114565549,1577310534.999,-27.694001977494683,-51.11750858497368,6.489444
28438,1577310535.24,2.7091267712104603,-2.2026071321813063,10.493844271627284,-0.2365588030559255,-1.255612782845846,4.527844105492568,7.941800487388052,2.5107584043921487,3.770517243771436,-5.547314155392531,-7.612274914253049,0.0083737257050304,-0.67138671875,-0.8085297375190549,0.0829929258765244,-2.914614793730945,38.96573694740854,-2.469318669016769,-10.444523385565056,5.489474193191865,-1.725021009511747,-0.0210547952561845,-12.187980175688509,-200.07233371012663,25.45682451253482,35.13723904513733,32.789019678317906,1577310534.999,-27.694001977494683,-51.11750858497368,6.489444
28439,1577310535.25,2.2231038341987417,0.4106639798792397,8.421662734762052,1.0958144208210263,-2.929159743295065,7.465529542504287,-3.032022821938119,-1.7329640382348035,8.78756682262886,-1.5037350538300305,1.924468249809452,0.7255368116425305,-4.852294921875,2.411074754668445,1.1511081602515243,-1.785464403105945,45.38968714272104,-2.072590153391769,-10.69721346747389,5.228070660182729,-0.7263246355838946,-8.926317762741373,-9.850348646723646,-198.57389597164976,25.696438733638843,35.37685326624135,32.81298110042831,1577310534.999,-27.694001977494683,-51.11750858497368,6.489444
28440,1577310535.26,-1.1958161365043822,-1.6232103304234942,6.818744723287442,1.5136026105182925,-0.4966508565763138,10.889237916527724,-1.6972553964010095,-14.890299261623474,20.036723322873,-0.5729489210175305,6.669951648246951,0.8628659132050305,-1.678466796875,-2.3038910656440548,-0.8935695741234756,-3.555483934355945,29.535805306783537,-10.648029606516769,-11.118363603988607,6.535088325228411,0.0907905794479934,-11.709212440080496,-12.354953856328857,-210.5613978794643,25.45682451253482,35.13723904513733,32.789019678317906,1577310534.999,-27.694001977494683,-51.11750858497368,6.489444
28441,1577310535.27,-2.062517137480945,-2.0876854524938064,5.885006075826505,-2.695403908036394,2.4386403787752475,10.09915136867616,3.886022875083364,-5.38771287246332,13.61308026867378,-0.0541500928925304,2.6111137576219514,1.6258053663300305,0.762939453125,0.2595854968559451,0.9985202696265244,-1.8159819812309448,10.798012338033535,-18.15535382526677,-11.118363603988607,6.535088325228411,0.0907905794479934,-10.87434403687876,-9.599888125763124,-164.85904685592186,25.60059304519724,34.993470512474914,32.64525114565549,1577310534.999,-27.694001977494683,-51.11750858497368,6.489444
28442,1577310535.28,1.2474666576850697,0.74226090981088,9.324276760640958,2.519167307783917,0.6573543436189976,9.783116749535536,1.2428242422708642,12.44430109238043,10.476676093869091,-1.3816647413300305,-2.6684272580030486,1.7326168897675305,-3.7841796875,-0.1981781750190548,4.355453863376525,0.1981781750190547,6.922279916158536,-10.098713200266769,-10.360293358262114,5.576608704194912,-0.90790579447987,-10.03947563367702,-12.187980175688509,-158.1160770327762,25.79228442208045,35.233084733578934,32.64525114565549,1577310534.999,-27.694001977494683,-51.11750858497368,6.489444
28443,1577310535.29,1.0116377941596792,-2.434844693216463,7.865010848775723,0.3176988812702458,-1.5309459737638142,9.082812763939833,3.1031189322122708,-1.6060713502465216,6.594478101925733,-0.0846676710175304,2.7942192263719514,1.0764889600800305,-1.220703125,1.2208892077934452,0.5712741758765243,-4.684634324980945,14.566933236471035,-0.6840403487042687,-10.612983440170945,4.966667127173593,-1.1802775328238315,-10.03947563367702,-12.187980175688509,-158.1160770327762,25.64851588941804,35.20912331146853,32.789019678317906,1577310534.999,-27.694001977494683,-51.11750858497368,6.489444
28444,1577310535.3,0.0300151134956167,-3.1315573763219318,10.393287801900724,0.0076497662800109,-3.125484279427877,8.392085584984756,3.814196825278677,4.921719476169493,6.847066377072218,-2.4955563428925305,-0.8678901486280487,0.2830319288300305,-3.23486328125,1.2361479968559452,1.2426608946265243,-1.5108061999809452,19.068276009908537,6.624919612233232,-10.612983440170945,5.315205171185774,-2.2697644861996698,-10.596054569144847,-12.187980175688509,-156.61763929429932,25.64851588941804,35.233084733578934,32.64525114565549,1577310534.999,-27.694001977494683,-51.11750858497368,6.489444
28445,1577310535.31,1.3180956066596792,-2.638351834329744,9.861775033346037,-0.9093294695598316,-1.6267140401700648,5.837472413598037,-1.4985366586080406,-3.642339862209412,9.619551899533157,-1.7020993116425305,0.7800590701219513,0.6492428663300305,-1.220703125,-1.5104340343940548,0.5712741758765244,-4.471011278105945,18.610512338033537,8.822185237233231,-10.612983440170945,5.315205171185774,-2.2697644861996698,-9.76118616594311,-12.271467016008682,-104.92153731684974,25.60059304519724,35.47269895468296,32.6931739898763,1577310534.999,-27.694001977494683,-51.11750858497368,6.489444
28446,1577310535.32,2.5415326549995227,-1.1096540743199783,8.20618458534799,-1.1822684588176442,-2.979437978158346,5.610023255883193,-1.998924805580697,-2.643957769924256,16.95299158459175,-1.9920163038300305,2.3822319216844514,1.5037350538300305,-2.593994140625,2.548403856230945,1.7004245665015243,-1.5108061999809452,2.4667135099085367,9.066325862233231,-9.517993085232671,4.530994572158365,-2.7237173834396,-3.082238940329218,-12.605414377289376,-95.93091088598896,25.792284422080453,35.28100757779974,32.64525114565549,1577310534.999,-27.694001977494683,-51.11750858497368,6.489444
28447,1577310535.33,-1.569311595488757,3.5674188687952544,11.56405241371713,0.9449797162311828,0.9446585428377476,9.863322505150771,-1.0951136788717133,-9.915148211818789,20.658018653683545,-2.0683102491425305,7.615996570121951,0.7102780225800305,-0.6866455078125,4.654116746855945,0.4644626524390244,-2.746768114043445,-27.684653677591463,-3.140705387766769,-10.107603276353284,5.140936149179684,-0.6355340561359087,-0.2993442629900972,-9.850348646723646,-108.66763166304176,25.74436157785965,35.18516188935813,32.789019678317906,1577310534.999,-27.694001977494683,-51.11750858497368,6.489444
28448,1577310535.34,2.244651649140148,-1.0031121004430257,7.754877572408536,2.1744022687214173,-0.9108477437833452,13.49652352443788,0.8262331534036768,-3.290392218166444,18.08544896984565,-6.432323921017531,-3.8586128048780486,-0.1747317430449695,0.732421875,2.487368699980945,-0.0390773866234755,1.4799164562690548,-61.65071813071646,-27.64632062214177,-9.096842948717953,4.443860061155317,-2.4513456450956417,-3.082238940329218,-9.432914445122778,-155.8684204250611,25.64851588941804,35.08931620091653,32.597328301434686,1577310534.999,-27.694001977494683,-51.11750858497368,6.489444
28449,1577310535.35,-0.408123790312976,-2.327105618509432,10.788331075826504,-0.2197993914348318,-2.5724236959317834,12.344912525902725,1.8078558340677395,2.7094771421851176,9.5788504713105,-2.5871090772675305,2.1228325076219514,0.8933834913300305,-4.82177734375,-0.1981781750190548,0.7543796446265244,1.3578461437690548,-72.08772984946647,-16.69051007526677,-9.096842948717953,4.443860061155317,-2.4513456450956417,-10.87434403687876,-11.436598612806945,-161.86217137896827,25.74436157785965,35.47269895468296,32.83694252253871,1577310534.999,-27.694001977494683,-51.11750858497368,6.489444
28450,1577310535.36,-1.1503263049614134,-0.3782254671422446,11.420400314107754,-1.0517844683391286,-1.3154678243497515,13.34329461818788,2.6182930960306297,4.932493383640195,4.925719544796827,-4.616528022580031,-0.5627143673780484,0.5424313428925305,-8.4686279296875,0.808901903105945,1.5173190977515243,1.0679291515815548,-58.99568883384147,-9.732502262766769,-9.349533030626787,4.530994572158365,-1.8158115889597368,-6.56085728700312,-11.561828873287205,-164.48443742130263,25.55267020097643,35.13723904513733,32.57336687932429,1577310534.999,-27.694001977494683,-51.11750858497368,6.489444
28451,1577310535.37,1.0068493908393668,-3.0836733431188064,8.274419332662442,0.6205653912800109,-0.8294448873380327,12.969799159203506,0.1702218985208643,-1.849082818752381,-2.633972197146531,-1.3358883741425305,2.3669731326219514,1.1680416944550305,1.068115234375,-0.4728363781440549,0.8459323790015244,-1.3582183093559452,-19.322837271341463,-7.291096012766768,-9.433763057929731,4.095322017143136,-1.725021009511747,-1.9690810693935703,-11.269624932166597,-164.85904685592186,25.408901668314016,35.13723904513733,32.88486536675951,1577310534.999,-27.694001977494683,-51.11750858497368,6.489444
28452,1577310535.38,0.7267277966010854,-2.714966287454744,10.022186544576504,1.034762278487042,-1.887682021127096,6.989083412133192,3.9315127066263327,12.159391094821837,-7.374491484255906,-1.2748532178925305,0.0781547732469513,1.7173581007050305,3.265380859375,1.5108061999809452,1.3342136290015243,-2.884097215605945,18.702065072408537,10.378581721608231,-9.265303003323838,6.709357347234502,-2.996089121783572,5.823024027155972,-9.93383548704382,-146.87779399420018,25.74436157785965,35.28100757779974,32.789019678317906,1577310534.999,-27.694001977494683,-51.11750858497368,6.489444
28453,1577310535.39,1.382739051483898,-1.2616858797399004,10.374134188619474,1.1520781598346983,-3.1183016744474084,4.515873097191786,6.402328819907583,16.67006702255621,-9.122258696169968,-3.6247067335175305,0.0781547732469513,0.7102780225800305,-1.739501953125,4.043765184355945,0.4492038633765244,-8.804507371855944,57.64249475990854,47.82365008098324,-9.265303003323838,6.709357347234502,-2.996089121783572,6.657892430357706,-12.521927536969203,-189.583269540789,25.64851588941804,35.28100757779974,32.597328301434686,1577310534.999,-27.694001977494683,-51.11750858497368,6.489444
28454,1577310535.4,1.8160895519721791,-0.951636764749666,7.94401950356088,0.8288609357136045,-1.2915258077481893,7.467923744164443,0.9184099173196928,-17.928541168361757,7.225350239376906,-2.373486030392531,5.189849109184451,1.1070065382050305,-5.279541015625,5.569644090605945,0.4797214415015243,-14.358706590605944,77.73831995522103,48.92228289348323,-9.686453139838562,6.099415770213184,-1.997392747855716,6.657892430357706,-12.521927536969203,-189.583269540789,25.55267020097643,35.18516188935813,32.7171354119867,1577310534.999,-27.694001977494683,-51.11750858497368,6.489444
28455,1577310535.41,0.903898719452648,0.4022842740686923,8.59524235512338,3.235033604170636,-1.303496816048971,7.94197567287538,-4.120187476479134,4.39978351425543,28.861750642208936,-5.425243842892531,1.6345512576219514,0.8018307569550305,-8.636474609375,4.654116746855945,1.9445651915015243,-1.6328765124809452,37.65348108803354,-3.323810856516769,-9.265303003323838,4.966667127173593,-1.9066021684077188,6.379602962623795,-10.60173020960521,-197.8246771024114,25.74436157785965,35.13723904513733,32.64525114565549,1577310534.999,-27.694001977494683,-51.11750858497368,6.489444
28456,1577310535.42,1.5335737560737417,0.0024525968225986,8.164286056295255,0.4194524518268859,-0.678610182748189,11.16696530910585,-2.336507239662728,-16.834391009670348,16.967356794552686,-4.997997749142531,4.655791491996951,0.3135495069550305,-3.84521484375,2.731509324980945,0.8764499571265244,-7.736392137480945,-0.9512552400914634,-7.718342106516768,-11.118363603988607,5.489474193191865,-2.4513456450956417,6.379602962623795,-12.605414377289376,-202.31999031784173,25.60059304519724,35.28100757779974,32.64525114565549,1577310534.999,-27.694001977494683,-51.11750858497368,6.489444
28457,1577310535.43,0.4358322948921011,0.3089104093225991,10.960713595357754,3.3978393170612606,-1.2220939596036575,11.497365138207412,-4.117793274818978,-22.13515348525629,10.186977692990189,-6.264477241330031,4.564238757621951,0.6339840772675305,-8.11767578125,7.156558153105945,1.1511081602515243,-2.395815965605945,-8.489097036966463,-55.173176090891765,-9.770683167141508,4.443860061155317,-2.4513456450956417,-11.430922972346584,-9.766861806403472,-211.31061674870253,25.55267020097643,35.28100757779974,32.64525114565549,1577310534.999,-27.694001977494683,-51.11750858497368,6.489444
28458,1577310535.44,-1.4615725207817258,-3.1914124178258376,11.81304938637338,-1.7197667315227223,-0.925212953744283,9.878884815941786,-1.5871221200338226,6.347466564792541,11.30147856579292,-3.3805661085175305,4.930449695121951,1.0764889600800305,-4.180908203125,3.174014207793445,0.3576511290015244,-2.517886278105945,-5.238974966653964,-43.301838200266765,-11.286823658594496,5.315205171185774,-1.1802775328238315,2.483550414349024,-9.26594076448243,-158.11607703277625,25.45682451253482,35.13723904513733,32.57336687932428,1577310534.999,-27.694001977494683,-51.11750858497368,6.489444
28459,1577310535.45,0.6979973766792105,-3.359006534036775,6.0023219571741615,1.8607618512409485,-5.002538380990377,9.778328346215222,-3.0308257211080405,5.2449367002905865,18.83483408947456,-6.157665717892531,3.709746570121952,0.5882077100800305,-1.5869140625,5.081362840605945,0.2660983946265244,-2.426333543730945,-18.987143911966463,-27.00545148151677,-11.286823658594496,5.663743215197955,-1.1802775328238315,-11.987501907814408,-8.598046041921041,-137.8871675633394,25.45682451253482,35.13723904513733,32.789019678317906,1577310534.999,-27.694001977494683,-51.11750858497368,6.489444
28460,1577310535.46,0.8991103161323355,-5.549701053079745,10.850580318990566,2.0355385724323547,-4.10710696009194,9.649041456566785,1.374505333579458,13.63182511581793,17.82448098888862,-4.265575874142531,4.289580554496951,0.3135495069550305,-2.62451171875,2.884097215605945,-1.0461574647484757,0.6254242687690548,-38.60994664634146,3.695232112233232,-10.444523385565056,4.443860061155317,-2.4513456450956417,-10.596054569144847,-7.846664479039479,-134.14107321714732,25.504747356755622,34.993470512474914,32.789019678317906,1577310534.999,-27.694001977494683,-51.11750858497368,6.489444
28461,1577310535.47,1.2917593883979603,-2.3929461641637286,10.29392843300424,-1.218181483719988,-2.874093105111471,6.752057447777724,1.5708298697122705,1.620115386814024,17.96573888683784,-4.387646186642531,3.923369616996952,0.3745846632050304,-5.2490234375,6.332583543730945,1.2426608946265243,1.9987152843940548,-55.39461461509146,24.47770281535823,-10.781443494776832,6.18655028121623,-2.4513456450956417,-1.9690810693935703,-12.605414377289376,-164.85904685592186,25.55267020097643,35.233084733578934,32.83694252253871,1577310534.999,-27.694001977494683,-51.11750858497368,6.489444
28462,1577310535.48,-1.0761060534965696,2.049495016256192,10.967896200338224,-0.3526775835735042,-0.7815608541349086,12.486170423851943,4.225999510825552,-0.0857532960473035,12.876863258175732,-3.8993649366425305,5.723906726371951,0.5576901319550305,-6.8817138671875,2.029605028105945,0.7848972227515243,-3.860659715605945,-69.52425328696647,25.89677019817073,-11.792203822412166,5.838012237204049,-1.3618586917198034,-5.865133617668341,-11.77054597408764,-248.02234134138428,25.504747356755622,35.28100757779974,32.6931739898763,1577310534.999,-27.694001977494683,-51.11750858497368,6.489444
28463,1577310535.49,-1.636349241973132,-2.8131285555211503,10.527363094869472,-2.300360634110613,-1.0952012716153765,16.422237953148816,5.104671520102896,-11.440254669338318,10.850171552853467,-3.8078122022675305,-0.8984077267530487,0.5271725538300305,-2.716064453125,1.0530425281059452,0.0524753477515244,-3.128237840605945,-63.11556188071646,9.737712580983231,-10.107603276353284,4.792398105167502,-1.3618586917198034,-11.987501907814408,-12.438440696649028,-194.82780162545768,25.64851588941804,35.28100757779974,32.789019678317906,1577310534.999,-27.694001977494683,-51.11750858497368,6.489444
28464,1577310535.5,-3.1542730945121944,-1.3909727693883378,8.884940756002287,0.3476264020221984,-2.1869572286466274,15.502864515648817,5.305784459556021,-16.841573614650816,8.341048213009717,-1.7020993116425305,1.5124809451219514,0.4966549757050305,-1.708984375,-0.5643891125190549,0.7848972227515244,0.4728363781440547,-55.27254430259146,-18.18587140339177,-10.444523385565056,5.838012237204049,-1.3618586917198034,-11.709212440080496,-12.521927536969203,-194.07858275621945,25.45682451253482,34.94554766825411,32.83694252253871,1577310534.999,-27.694001977494683,-51.11750858497368,6.489444
28465,1577310535.51,-2.079276549102038,-3.360203634866853,8.990285629049161,-0.1587472491008479,-2.473064327035299,12.816570252953506,2.9738320425638336,0.4493507749976178,7.961567249874952,-3.0753903272675305,-4.362152843940549,0.2830319288300305,-0.1983642578125,-3.616146925019055,-0.1458889100609756,1.2815521984565548,-37.84700719321646,-15.942829411204269,-9.60222311253562,4.618129083161412,-2.2697644861996698,-3.082238940329218,-12.605414377289376,-149.87466947115377,25.62455446730764,35.13723904513733,32.789019678317906,1577310534.999,-27.694001977494683,-51.11750858497368,6.489444
28466,1577310535.52,-1.8135201648246944,-1.7908044466344315,11.341391659322598,-3.1024181902629566,-0.4679204366544389,12.045637318383193,2.5668177603372704,-3.4124965028344123,3.1671784254120614,-0.8781247022675305,-3.0346381955030486,1.1680416944550305,-3.47900390625,-6.393246534394055,1.7309421446265243,0.1066254406440547,-23.045981802591463,-14.065998356516769,-9.939143221747395,4.269591039149227,-2.6329268039916136,-3.082238940329218,-11.102651251526252,-161.86217137896827,25.60059304519724,34.94554766825411,32.789019678317906,1577310534.999,-27.694001977494683,-51.11750858497368,6.489444
28467,1577310535.53,-0.2908079089653198,-0.8235469759313067,10.206540072408536,-1.7903956804973318,-4.674532753548971,11.31301161037538,5.933065294516958,10.1530501036109,7.804747041134718,-3.5331539991425305,-4.652069836128049,0.5576901319550305,-4.669189453125,-6.179623487519055,2.6464694883765243,-1.2971831531059452,-9.191001333841465,1.3758961747332317,-10.27606333095917,4.269591039149227,-1.1802775328238315,-3.082238940329218,-12.438440696649028,-161.86217137896827,25.45682451253482,34.94554766825411,32.64525114565549,1577310534.999,-27.694001977494683,-51.11750858497368,6.489444
28468,1577310535.54,0.220354145478039,-3.288377585062166,10.999020821920254,-0.8901758562785818,-4.463843007455221,15.00247636867616,2.217264317954458,6.607237444919492,15.377606892208936,-1.7478756788300305,-4.148529797065549,1.3664059522675305,-2.62451171875,-4.257016065644055,1.3342136290015243,-2.182192918730945,-13.799155630716465,22.18888445598323,-10.865673522079776,4.705263594164457,-1.9973927478557083,-3.082238940329218,-12.438440696649028,-161.86217137896827,25.76832299997005,35.13723904513733,32.64525114565549,1577310534.999,-27.694001977494683,-51.11750858497368,6.489444
28469,1577310535.55,-2.668250157500476,0.6297334317835361,11.360545272603847,-1.6599116900188162,-1.2280794637540493,14.852838764916395,-0.8233717904439788,-8.807829943996522,16.221562977414013,0.6172366258574695,-4.041718273628049,1.2901120069550305,-1.068115234375,-4.058651807831555,0.9374851133765244,-1.648135301543445,-27.196372427591463,11.233073909108231,-10.781443494776832,4.792398105167502,-1.3618586917198034,-11.987501907814408,-12.605414377289376,-203.8184280563185,25.504747356755622,35.20912331146853,32.7171354119867,1577310534.999,-27.694001977494683,-51.11750858497368,6.489444
28470,1577310535.56,-1.847038988066882,-3.6008209017125563,11.09239468666635,-0.0713588885051443,-2.47904983118569,13.549195960961317,1.5325226431497705,-5.828245977932069,10.658635420040968,-2.8617672803925305,-6.849335461128049,-1.1512942430449695,3.662109375,-3.3109711437690548,-0.8935695741234756,1.6325043468940548,-41.05135289634146,-13.760822575266769,-10.27606333095917,4.618129083161412,-1.5434398506157752,-8.091449359539638,-9.766861806403472,-200.821552579365,25.64851588941804,35.233084733578934,32.64525114565549,1577310534.999,-27.694001977494683,-51.11750858497368,6.489444
28471,1577310535.57,0.1712730114448354,-1.6495465486852128,7.546582027974942,1.025185471846417,0.0516213235994663,13.491735121117568,-4.000477393471322,-0.3910140077172249,5.355478742794874,1.7158694383574695,-5.262421398628049,0.2525143507050305,0.579833984375,-8.102230909394056,-0.8935695741234756,2.8837250500190548,-32.17073766196646,-24.68611554401677,-10.107603276353284,2.35263179708223,0.453952897239937,16.954602736512456,-9.93383548704382,-164.85904685592186,25.74436157785965,35.13723904513733,32.789019678317906,1577310534.999,-27.694001977494683,-51.11750858497368,6.489444
28472,1577310535.58,-1.0569524402153196,-1.0629671419469315,12.279918710103848,-2.623577858231706,-0.3649697652677201,7.736074330101943,-1.5344496835103845,16.753864080661682,0.5335565992401864,-2.3124508741425305,-9.04660108612805,0.4661373975800305,-3.692626953125,-9.994320753144056,-0.1611476991234756,-0.9614897937309452,-10.014975943216465,-5.5515940596417686,-10.612983440170945,5.315205171185774,-1.9066021684077188,16.954602736512456,-9.93383548704382,-164.85904685592186,25.504747356755622,35.13723904513733,32.45355976877228,1577310534.999,-27.694001977494683,-51.11750858497368,6.489444
28473,1577310535.59,0.3999192699897578,-3.440409390482088,10.356177676168302,-1.9627782000285816,-2.093583363900533,8.8493781020746,1.0237547903665674,-11.783822607570745,8.669053840451124,-1.4121823194550305,-5.872772961128049,1.5037350538300305,-3.2501220703125,-4.226498487519055,2.448105230564024,-2.578921434355945,0.2084127286585365,0.9486500809832314,-9.60222311253562,4.966667127173593,-1.3618586917198034,2.483550414349025,-9.93383548704382,-86.94028445512811,25.792284422080453,35.13723904513733,32.81298110042831,1577310534.999,-27.694001977494683,-51.11750858497368,6.489444
28474,1577310535.6,0.4130873791206167,-4.271197366556306,9.569682430806974,1.2789708478229798,-5.567569972787252,9.90761523586366,-3.818518067299447,5.999110223239805,15.966580500607373,0.8613772508574695,-4.529999523628049,2.1751217725800305,0.335693359375,-5.325131300019055,2.0056003477515243,3.2499359875190548,-9.892905630716465,-13.089435856516769,-9.096842948717953,5.838012237204049,-1.725021009511747,-4.1953968112648665,-8.598046041921041,-101.92466183989612,25.504747356755622,35.233084733578934,32.6931739898763,1577310534.999,-27.694001977494683,-51.11750858497368,6.489444
28475,1577310535.61,0.6118061169135854,-2.042195620950838,12.478637447896816,-0.3299326678020193,-3.60911301477944,8.432787013207411,-3.1289879891744468,14.8265317442359,19.385500471310497,0.7698245164824695,-3.6755073361280486,1.5342526319550305,4.486083984375,-5.325131300019055,0.9985202696265244,0.3202484875190547,-21.703208365091463,21.45646258098323,-9.096842948717953,5.838012237204049,-1.725021009511747,9.997366043164652,-12.521927536969203,-134.14107321714732,25.45682451253482,35.28100757779974,32.64525114565549,1577310534.999,-27.694001977494683,-51.11750858497368,6.489444
28476,1577310535.62,2.108182154511242,-2.8131285555211503,10.735658639303066,1.377133115889386,-2.5664381917813928,9.11513448635194,5.468590172446646,-7.268358276516053,5.676301765255812,0.3425784227324695,-0.5627143673780487,0.7102780225800305,1.3427734375,-0.2134369640815548,1.2731784727515243,0.5338715343940548,-27.409995474466463,16.57365008098323,-11.118363603988607,5.838012237204049,-0.9986963739278598,2.761839882082936,-10.518243369285036,-145.37935625572334,25.79228442208045,35.25704615568934,32.98071105520113,1577310534.999,-27.694001977494683,-51.11750858497368,6.489444
28477,1577310535.63,1.1804290112006948,-1.754891421732088,10.22808788734994,-1.5892827410442067,0.7076325784822788,8.906838941918348,11.30804802156774,1.9313616026343363,1.08661718273628,2.906054985232469,0.9326469607469514,1.2748532178925305,6.04248046875,-0.6864594250190549,1.2426608946265243,2.6395844250190548,5.579506478658536,-5.4905589033917686,-10.360293358262114,4.530994572158365,-2.723717383439607,-11.430922972346584,-9.93383548704382,-157.3668581635378,25.504747356755622,35.233084733578934,32.789019678317906,1577310534.999,-27.694001977494683,-51.11750858497368,6.489444
28478,1577310535.64,0.128177381562023,-1.2161960481969316,8.753259664693692,1.6500721051471985,-2.194139833627096,11.576373792992568,5.80377840486852,-5.40686648574457,9.114375349240186,2.112597953982469,-2.6684272580030486,2.1140866163300305,3.265380859375,-7.339291456269055,2.7685398008765243,2.4259613781440548,14.765297494283535,-4.6665842940167686,-11.286823658594496,5.315205171185774,-2.996089121783572,-4.47368627899878,-8.180611840320173,-156.61763929429932,25.60059304519724,34.89762482403331,32.789019678317906,1577310534.999,-27.694001977494683,-51.11750858497368,6.489444
28479,1577310535.65,0.5902583019721792,-3.854606277689119,7.7476949674280675,-1.2109988787395192,-3.422365285287252,9.239632972680068,2.791872716391958,-3.7045891053734743,11.024948274044874,1.9905276414824693,-2.9736030392530486,2.3582272413300305,4.791259765625,-6.637387159394055,2.7685398008765243,4.989437940644055,13.819252572408535,-12.112873356516769,-11.286823658594496,5.315205171185774,-2.996089121783572,6.101313494889882,-8.013638159679827,-146.1285751249618,25.504747356755622,34.89762482403331,32.6931739898763,1577310534.999,-27.694001977494683,-51.11750858497368,6.489444
28480,1577310535.66,-1.0485727344047728,-1.6447581453649005,10.557290615621426,-3.0808703753215503,-1.198151943002095,8.827830287133192,-4.749862513100228,-3.532206585842225,16.548371504025344,3.974170219607469,-4.957245617378049,2.4345211866425305,0.244140625,-4.195980909394055,2.7685398008765243,3.4635590343940548,5.762611947408536,-6.0398753096417686,-11.2868236585945,5.140936149179684,-2.0881833273036943,6.657892430357706,-9.850348646723646,-206.06608466403384,25.672477311528443,35.13723904513733,32.83694252253871,1577310534.999,-27.694001977494683,-51.11750858497368,6.489444
28481,1577310535.67,0.7554582165229604,-2.477940323099275,12.466666439596036,-1.8682072344524097,-3.1949161275724083,10.601933717308974,-1.9402668649068688,2.318025170749571,19.112561482052683,4.523486625857469,-2.9125678830030486,1.9614987257050305,6.4239501953125,-2.4564789562690548,2.860092535251524,5.569271925019055,-14.806235708841465,-0.7145579268292683,-8.928382894112062,6.01228125921014,-2.6329268039916136,6.379602962623796,-9.93383548704382,-232.28874508737775,25.60059304519724,35.13723904513733,32.62128972354509,1577310534.999,-27.694001977494683,-51.11750858497368,6.489444
28482,1577310535.68,1.9453764416206167,-2.032618814310213,10.431595028463224,0.5750755597370422,-3.692910072884908,11.365684046898815,2.265148351157583,8.082065667575742,9.305911482052686,5.225390922732469,-1.9054878048780488,2.8770260694550305,3.143310546875,1.8770171374809448,3.4399265196265243,4.928402784394055,-27.867759146341463,17.58073015910823,-10.612983440170945,4.618129083161412,-2.6329268039916136,-3.082238940329218,-11.269624932166597,-296.7215678418803,25.74436157785965,34.993470512474914,32.789019678317906,1577310534.999,-27.694001977494683,-51.11750858497368,6.489444
28483,1577310535.69,0.3245019176948355,-4.405272659525056,12.68693299233041,2.464100669600324,-1.6817806783536586,13.479764112816786,0.7639839102396143,-2.5410070985375373,5.942058149533155,5.255908500857469,-1.8139350705030488,3.5178952100800305,5.55419921875,-0.5643891125190549,1.4257663633765243,5.294613721894055,-21.581138052591463,13.918620784108231,-10.612983440170945,4.618129083161412,-2.6329268039916136,-11.709212440080496,-9.182453924162257,-306.46141314197945,25.74436157785965,35.28100757779974,32.64525114565549,1577310534.999,-27.694001977494683,-51.11750858497368,6.489444
28484,1577310535.7,1.948967744110851,-1.5418074739781822,9.971908309713225,1.1161651349323545,-0.6810043844083452,12.965010755883192,2.5476641470560204,-4.846623297268006,3.892621528439405,6.629199516482469,1.4972221560594514,3.594189155392531,6.744384765625,-3.4635590343940548,3.0431980040015243,5.660824659394055,-1.958335318216464,8.425456721608231,-10.528753412868,3.485380440121819,-2.5421362245436274,14.72828699464116,-9.93383548704382,-235.2856205643314,25.55267020097643,35.233084733578934,32.789019678317906,1577310534.999,-27.694001977494683,-51.11750858497368,6.489444
28485,1577310535.71,-0.2405296741020385,2.449326693502286,11.145067123189786,3.573813139082745,-2.05767033899819,11.072394343529677,1.1386764700540677,-9.05203851333246,6.587295496945265,5.011767875857469,3.5876762576219514,1.9920163038300305,5.4779052734375,-1.8156098156440548,2.5854343321265247,3.2499359875190548,16.123329720846037,3.741008479420732,-11.455283713200384,5.140936149179684,-1.3618586917198034,14.72828699464116,-11.269624932166598,-223.29811865651695,25.504747356755622,35.304968999910145,32.669212567765896,1577310534.999,-27.694001977494683,-51.11750858497368,6.489444
28486,1577310535.72,0.5184322521674917,-3.8019338411656816,7.400535726705411,-3.2149456682903,-1.533340175423971,10.235620863305067,1.2260648306497706,0.3248522886694928,9.976287946896436,2.967090141482469,-2.4242866330030486,1.0154538038300305,4.425048828125,-3.3109711437690548,2.0056003477515243,5.111508253144055,22.303139291158537,-2.164142887766769,-10.107603276353284,4.095322017143136,-1.3618586917198034,15.84144486557681,-12.438440696649028,-155.8684204250611,25.504747356755622,35.13723904513733,32.64525114565549,1577310534.999,-27.694001977494683,-51.11750858497368,6.489444
28487,1577310535.73,0.0755049450385854,-4.105997452005525,7.333498080221036,-1.1655090471965506,-0.7959260640958452,11.897196815453505,2.743988683188833,-1.054207867580506,6.358649238400343,8.704394828982469,-1.8749702267530488,2.3277096632050305,3.72314453125,-2.6395844250190548,3.5619968321265243,3.5856293468940548,27.704750619283537,-0.9434397627667684,-10.107603276353284,4.095322017143136,-1.3618586917198034,-10.87434403687876,-9.098967083842082,-110.91528827075692,25.2651331356516,35.28100757779974,32.789019678317906,1577310534.999,-27.694001977494683,-51.11750858497368,6.489444
28488,1577310535.74,0.4430148998725703,-0.066979251321932,12.38765778481088,1.838016935469464,-2.1630152120450648,7.42482811428163,-1.205246955238901,-1.0434339601098042,6.037826215939406,2.982348930544969,-3.6297309689405486,1.3664059522675305,2.960205078125,-0.0303314953315547,1.6851657774390243,1.8613861828315548,37.74503382240854,-1.5843089033917688,-10.528753412868,5.053801638176636,-1.8158115889597368,-10.317765101410934,-8.84850656288156,-113.91216374771058,25.62455446730764,35.37685326624135,32.789019678317906,1577310534.999,-27.694001977494683,-51.11750858497368,6.489444
28489,1577310535.75,1.325278211640148,-4.127545266946932,10.776360067525724,-2.896516847489519,-1.619531435189596,12.924309327660536,-5.001253687416635,-2.2201840760766,17.76223174572456,3.9436526414824695,1.2988578982469514,2.2971920850800305,-0.54931640625,1.0835601062309452,3.714584722751524,2.5175141125190548,33.19791468178354,6.716472346608232,-10.94990354938272,5.315205171185774,-2.6329268039916136,-8.091449359539638,-8.931993403201735,-116.90903922466424,25.64851588941804,35.28100757779974,32.6931739898763,1577310534.999,-27.694001977494683,-51.11750858497368,6.489444
28490,1577310535.76,0.3795685558784292,-1.6639117586461505,11.497014767232754,0.4697306866901671,-1.763183534798971,12.88360789943788,-0.3876270882955409,-13.64770860000238,16.854829316525343,7.392138969607469,1.6955864138719514,3.1516842725800305,1.64794921875,6.088442918730945,3.0737155821265243,4.897885206269055,14.277016244283535,-9.457844059641769,-11.623743767806278,4.966667127173593,-1.5434398506157752,-8.091449359539638,-8.931993403201735,-116.90903922466424,25.74436157785965,35.52062179890376,32.64525114565549,1577310534.999,-27.694001977494683,-51.11750858497368,6.489444
28491,1577310535.77,0.4082989758003042,-1.7070073885289627,9.931206881490567,3.943717295576886,-2.6035483175138148,7.518201979027724,0.091213243735708,11.230440850681212,18.03756493664253,4.035205375857469,2.4280082888719514,2.0835690382050305,5.584716796875,7.065005418730945,1.5783542540015243,3.921322706269055,-2.294028677591464,-3.232258122141769,-11.623743767806278,4.966667127173593,-1.5434398506157752,-11.987501907814408,-8.598046041921041,-212.8090544871794,25.74436157785965,35.13723904513733,32.789019678317906,1577310534.999,-27.694001977494683,-51.11750858497368,6.489444
28492,1577310535.78,1.061916029022961,-0.9683961763707604,9.10640440956674,2.6628194073932927,-2.037319624886861,13.913114613305067,2.900808891929068,-2.065758068996523,4.589334211544874,3.668994438357469,2.2754203982469514,1.6258053663300305,3.662109375,-1.7240570812690548,1.2579196836890243,2.1818207531440548,2.207314095846036,9.173137385670731,-11.034133576685669,4.705263594164455,-2.360555065647656,-7.534870424071814,-11.937519654727986,-152.87154494810736,25.60059304519724,35.13723904513733,32.7650582562075,1577310534.999,-27.694001977494683,-51.11750858497368,6.489444
28493,1577310535.79,-0.4129121936332885,-0.7205963045445879,7.903318075338223,0.5870465680378234,-1.77036613977944,5.545379811058974,4.764694884360708,9.339021539157772,6.25809276867378,7.636279594607469,2.8552543826219514,3.3347897413300305,3.90625,2.273745653105945,4.080795660251525,2.5480316906440548,29.566322884908537,5.343181330983232,-10.612983440170945,4.966667127173593,-0.8171152150318806,-2.8039494725953062,-12.521927536969203,-198.5738959716498,25.74436157785965,35.233084733578934,32.789019678317906,1577310534.999,-27.694001977494683,-51.11750858497368,6.489444
28494,1577310535.8,2.6037818981635854,1.4485503995569735,6.25850153481088,2.9716714215534483,-2.953101759896627,10.843748084984757,5.480561180747428,-8.260754864650819,7.335483515744093,5.103320610232469,1.7871391482469514,1.9309811475800305,4.241943359375,-3.4635590343940548,2.3107761290015243,1.5714691906440548,29.383217416158537,1.6200367997332317,-9.265303003323838,5.315205171185774,-1.9066021684077188,-3.082238940329218,-12.104493335368334,-209.81217901022572,25.45682451253482,35.233084733578934,32.98071105520113,1577310534.999,-27.694001977494683,-51.11750858497368,6.489444
28495,1577310535.81,3.052694709442882,-4.3561915254918535,9.392511507955412,0.7330928693073546,-4.14541418665444,6.213362074242568,-2.630994043861947,-18.16317293105707,14.328946565060498,4.492969047732469,2.3517143435594514,2.1903805616425305,9.185791015625,2.243228074980945,0.4492038633765244,3.738217237519055,20.655190072408537,-19.31502179401677,-9.602223112535617,5.140936149179684,-2.451345645095645,-3.082238940329218,-12.438440696649028,-200.821552579365,25.45682451253482,35.28100757779974,32.83694252253871,1577310534.999,-27.694001977494683,-51.11750858497368,6.489444
28496,1577310535.82,0.0898701549995229,-3.5074470369664628,12.471454842916348,1.5387417279499327,-3.127878481088033,10.51454535671327,-1.734365522133431,9.978273382419491,15.87320663586128,4.126758110232469,3.709746570121952,2.7244381788300305,2.8839111328125,7.995791551543444,3.8976901915015247,5.813412550019055,-1.1953958650914638,1.3606373856707314,-10.27606333095917,6.01228125921014,-1.9066021684077188,-11.987501907814408,-9.182453924162257,-203.81842805631857,25.504747356755622,35.233084733578934,32.669212567765896,1577310534.999,-27.694001977494683,-51.11750858497368,6.489444
28497,1577310535.83,-0.187857237578601,-0.1771125276891191,10.26160671059213,2.7825294904011044,-1.3633518575528774,14.573914271508192,2.521327928794302,-6.793109246975038,9.873337275509718,8.033008110232469,9.41653367949695,2.6939206007050305,4.180908203125,7.065005418730945,2.4328464415015243,3.4330414562690548,-1.0733255525914631,21.54801531535823,-10.444523385565056,4.792398105167502,-1.725021009511747,-10.317765101410934,-12.271467016008682,-200.821552579365,25.64851588941804,35.13723904513733,32.88486536675951,1577310534.999,-27.694001977494683,-51.11750858497368,6.489444
28498,1577310535.84,-1.3322856311332882,0.8021159513147861,10.90564695717416,1.7889358014362609,-0.4080653951505326,9.208508351098036,6.2323405020364895,0.7079245542944929,10.488647102169876,6.537646782107469,5.601836413871951,2.6634030225800305,7.8125,0.5952788562309451,0.6933444883765244,5.691342237519055,-0.8902200838414634,1.3148610184832317,-8.759922839506174,5.140936149179684,-2.814507962887585,-8.64802829500746,-9.93383548704382,-212.8090544871794,25.840207266301256,35.28100757779974,32.789019678317906,1577310534.999,-27.694001977494683,-51.11750858497368,6.489444
28499,1577310535.85,0.7458814098823354,-2.5006852388707594,8.92683928505502,1.5327562237995422,-2.2156876485685024,11.104716065941789,0.6993404654153955,-9.354905023342225,13.117480525021437,3.119678032107469,0.1849662966844513,1.5495114210175305,10.894775390625,2.060122606230945,0.3271335508765244,5.203060987519055,-7.359946646341464,-5.7957346846417686,-8.759922839506174,5.140936149179684,-2.814507962887585,-8.64802829500746,-9.93383548704382,-212.8090544871794,25.576631623086836,34.993470512474914,32.789019678317906,1577310534.999,-27.694001977494683,-51.11750858497368,6.489444
28500,1577310535.86,-0.1184253894340697,-0.4811761385289628,10.58003553139291,2.0702544965046203,-1.4627112264493611,6.878950135766004,3.605901280845083,-2.2944043275414434,5.976774073605421,5.439013969607469,7.707549304496951,2.2971920850800305,-0.1220703125,2.136416551543445,2.5243991758765243,3.5551117687690548,-0.0967630525914637,-1.1875803877667686,-10.107603276353284,5.140936149179684,-0.9986963739278598,-8.648028295007462,-9.93383548704382,-211.31061674870256,25.408901668314016,35.08931620091653,32.6931739898763,1577310534.999,-27.694001977494683,-51.11750858497368,6.489444
