,timestamp,acc_x_dashboard,acc_y_dashboard,acc_z_dashboard,acc_x_above_suspension,acc_y_above_suspension,acc_z_above_suspension,acc_x_below_suspension,acc_y_below_suspension,acc_z_below_suspension,gyro_x_dashboard,gyro_y_dashboard,gyro_z_dashboard,gyro_x_above_suspension,gyro_y_above_suspension,gyro_z_above_suspension,gyro_x_below_suspension,gyro_y_below_suspension,gyro_z_below_suspension,mag_x_dashboard,mag_y_dashboard,mag_z_dashboard,mag_x_above_suspension,mag_y_above_suspension,mag_z_above_suspension,temp_dashboard,temp_above_suspension,temp_below_suspension,timestamp_gps,latitude,longitude,speed
29479,1577395725.21,0.4438616297279915,-0.3461081277986851,8.106358055151963,0.8950810499237801,-0.8881320255930829,6.471351901915015,-0.988630100157202,1.0699745614400722,8.261338816275249,4.485897901581555,10.631282155106708,3.614286097084604,-1.0225249499809452,7.649119307355183,2.013787990663109,-0.3319717035060974,17.0077812380907,1.2951362423780486,11.95680938964709,1.2781416933760694,0.7085284754927537,-19.576013685388688,-1.829319818112921,-6.801317272471119,34.370473537604454,35.76023602000779,36.81453859286549,1577395725.0,-27.688877896114136,-51.121562445320485,5.634813
29480,1577395725.22,0.5827253260170541,0.6953695943692827,9.5763978744879,3.2437928785370613,-1.3334535343821454,8.86794776373142,3.675274733827172,-0.838204161704458,14.354582041372904,-0.1527739734184451,2.513606373856707,2.332547815834604,0.0150727062690548,0.8436993854801829,3.6922547875381095,1.8042587652439024,-4.140900402534299,2.9736030392530486,13.276181460228836,2.373691716269844,1.4170569509855149,-19.576013685388688,-1.829319818112921,-6.801317272471119,34.46631922604607,35.76023602000779,36.52700152754066,1577395725.0,-27.688877896114136,-51.121562445320485,5.634813
29481,1577395725.23,-0.3498162206138053,-2.19443180943931,9.172974894751572,0.2294929884003431,-0.1974048466380053,8.748237680723609,-0.321844937803687,-0.2528218557962555,4.855586954702983,-3.433413621855945,2.773005787919208,2.240995081459604,-1.922793504668445,-1.0636492473323171,3.9669129906631095,1.2549423589939028,12.1554863162157,12.76974561737805,12.698956179349324,1.369437528617217,2.568415723661258,-19.46043574481075,-4.26841290893015,-9.521844181459564,34.39443495971486,35.736274597897385,36.69473148231347,1577395725.0,-27.688877896114136,-51.121562445320485,5.634813
29482,1577395725.24,-0.4228393712485709,2.924371339974752,9.329795103491808,1.4026518018769052,0.6872526667897284,8.14729306402439,1.9083539086318595,-12.05503893953649,4.648488511099467,-2.350039598418445,3.795344655106707,3.858426722084604,0.0761078625190548,-3.520314286394817,1.1898133812881098,4.154112280868903,48.3188163943407,4.468964367378049,11.95680938964709,1.6433250343406596,3.188378139717421,-20.09611441798942,17.53098159024883,-12.582436954071568,34.27462784916285,35.66439033156618,36.67077006020308,1577395725.0,-27.688877896114136,-51.121562445320485,5.634813
29483,1577395725.25,1.2076119593178352,1.0042216085294389,8.487036119116807,-0.0386575975371563,1.2905914851491034,6.320517197325171,-0.4259927100204833,-11.609717430747429,10.96678669225181,-1.9227935046684448,-23.578922923018293,0.3183876595846037,-2.945132371855945,2.278025557355183,2.776727443788109,12.454893530868905,56.1618339724657,-11.15603563262195,12.451573916115247,1.4607333638583646,2.6569817830978484,-20.731793091168093,15.24433181760768,-23.1244787264018,34.27462784916285,35.52062179890376,36.57492437176146,1577395725.0,-27.688877896114136,-51.121562445320485,5.634813
29484,1577395725.26,1.138180111173304,-1.695240763296732,7.090019450415634,-0.6635442308379377,0.6561280452076972,7.141728366758765,-0.6414708594345458,-0.8046853384622705,14.033759018911969,4.714779737519057,1.5980790301067076,3.141263636147104,-4.715151903105945,0.2028302448551829,4.5162293969131095,9.769346655868905,37.7597343630907,-17.90042039824695,13.111259951406115,1.2781416933760694,2.4798496642246635,-19.113701923076928,15.549218453959831,-23.1244787264018,34.322550693383654,35.616467487345375,36.67077006020308,1577395725.0,-27.688877896114136,-51.121562445320485,5.634813
29485,1577395725.27,0.7598962488686165,-3.990083054556498,10.684913243140244,1.8934631422089363,-5.276703668659489,10.061457291319313,-3.277486887266577,0.7994297738424163,16.94391113683189,-14.343447801543444,3.215510670731707,3.766873987709604,-5.218691942168445,2.903635908917683,4.1347596703506095,-6.511781273818596,-6.5823066525343,-1.5735161013719514,13.111259951406115,0.0,3.0112460208442324,-20.96294897232397,5.487959454338764,-18.703622499295573,34.27462784916285,35.71231317578698,36.62284721598228,1577395725.0,-27.688877896114136,-51.121562445320485,5.634813
29486,1577395725.28,0.1230386072670531,-1.60066979772056,10.486194505347274,2.578204817013624,1.8771708918873848,15.669874680235328,4.826885732362328,5.982876368080698,9.25493250524009,1.4036225109565548,11.455256764481708,4.102567347084603,-10.482974168730944,1.5150861042301829,3.356561428163109,-11.257264672256095,-16.5615546994093,5.720185070503049,13.111259951406115,0.0,3.0112460208442324,-19.17149089336589,-4.420856227106227,-4.420856227106225,34.27462784916285,35.616467487345375,36.57492437176146,1577395725.0,-27.688877896114136,-51.121562445320485,5.634813
29487,1577395725.29,0.4031602015053353,0.9012709371427202,10.397609043921491,0.9262056715058112,2.253060552531916,10.156028256895484,3.1222141503310783,6.368342835365853,12.906090036978371,-9.155459520293444,0.6825516863567074,2.393582972084604,-5.691714403105945,7.679636885480183,-0.1529600562118902,-5.153749047256097,-15.4324043087843,18.20187452362805,13.111259951406115,0.7303666819291841,3.0112460208442324,-19.17149089336589,-3.81108295440192,-7.141383136094671,34.370473537604454,35.856081708449395,36.71869290442388,1577395725.0,-27.688877896114136,-51.121562445320485,5.634813
29488,1577395725.3,-1.5720561681235707,-1.2798467752596223,8.655827336157822,0.4425769361542488,-0.5457611881907392,7.347629709532202,-0.2967058203720458,-12.033491124595082,10.866230222525248,-2.1058989734184426,4.436213795731708,2.149442347084604,-2.487368699980945,3.102000166730183,0.7625672875381098,-12.600038109756095,-24.2825019650343,11.03024366425305,13.606024477874277,0.7303666819291823,2.47984966422466,-18.88254604192104,-4.26841290893015,-6.801317272471119,34.41839638182526,35.66439033156618,36.86246143708629,1577395725.0,-27.688877896114136,-51.121562445320485,5.634813
29489,1577395725.31,-0.8585840733970084,-3.4920891092439974,10.761527696265244,0.3504001722382338,-1.4687259281809737,8.91942309942478,-0.7671664465927489,2.5064955575338224,7.958472306265483,-12.756533739043444,11.302668873856708,4.377225550209603,-3.128237840605945,-1.5977068645198171,2.395257717225609,-5.642030297256097,-16.9888007931593,2.3785102658155486,12.616495424937966,0.547775011446889,4.605435090702943,-19.027018467643465,5.411737795250727,-8.331613658777123,34.370473537604454,35.56854464312457,36.62284721598228,1577395725.0,-27.688877896114136,-51.121562445320485,5.634813
29490,1577395725.32,1.643356661466273,-1.1002816507479038,10.716037864722274,4.09373446789253,0.107855865031916,7.661270127012671,0.4454966942763906,3.1577184090963217,10.119239304556498,-8.117861864043444,-8.289616282393293,1.7221962533346038,-5.661196824980945,-4.405324052019817,3.478631740663109,6.687071265243903,-7.101105480659299,5.903290539253049,12.616495424937966,0.547775011446889,4.605435090702943,-19.113701923076928,14.024785272199066,-16.323161453930688,34.41839638182526,35.52062179890376,36.910384281307095,1577395725.0,-27.688877896114136,-51.121562445320485,5.634813
29491,1577395725.33,-0.2217264317954459,1.4567257222989711,11.62583449558165,0.5527102125214364,-0.3638018620188642,10.067442795469702,-1.852936899473608,-17.25763914705602,3.757845493521342,8.239560010956556,-9.449284251143292,2.088407190834604,-3.982730028105945,-1.3535662395198171,1.0982606469131098,-10.738465844131095,14.7494804568407,-0.2612602419969513,12.616495424937966,0.547775011446889,4.605435090702943,-19.17149089336589,15.091888499431604,-13.942700408565791,34.562164914487674,35.856081708449395,36.67077006020308,1577395725.0,-27.688877896114136,-51.121562445320485,5.634813
29492,1577395725.34,1.8696087183510384,-3.3304804971834505,9.629070311011338,4.721015302853467,-3.408029272907536,6.076308627989234,4.565917751405297,7.038719300209603,8.892210953726421,-6.591982957793444,0.6520341082317072,0.8066689095846038,-1.205630418730945,8.839304854230184,0.7473084984756098,5.359556616806404,7.9593193240282,-5.4950248904344505,13.441102969051556,-0.1825916704822951,3.8969066152101774,-18.940335012210014,-4.420856227106227,-15.302963863060016,34.32255069338365,35.56854464312457,36.62284721598228,1577395725.0,-27.688877896114136,-51.121562445320485,5.634813
29493,1577395725.35,0.4151312098061165,-5.670812619986185,9.09276913913634,-0.0171097825957501,-1.7883518498118327,13.021887644102517,-3.53127226324314,3.320524121986947,11.697018198599467,-6.408877489043445,17.711360280106707,0.9592568002096036,-6.271548387480945,-3.886525223894817,3.448114162538109,6.198790015243903,2.5424492068407014,12.49508741425305,13.606024477874277,-0.5477750114468853,3.188378139717421,-18.940335012210014,-4.420856227106227,-26.185071499013805,34.370473537604454,35.52062179890376,36.67077006020308,1577395725.0,-27.688877896114136,-51.121562445320485,5.634813
29494,1577395725.36,-0.1977844151938834,-1.1002816507479038,13.557955235327745,0.6819971021698739,-2.4371804997141764,14.688251999571264,0.1079142601943594,-12.409380785239614,16.461479502310404,-6.500430223418445,16.215998951981707,3.766873987709604,-0.4426909656059451,6.184275557355183,1.4644715844131098,-8.174989281631097,-9.1457832150343,6.116913586128049,13.606024477874277,-0.5477750114468853,3.188378139717421,-17.148876933251934,-3.658639636225843,-25.84500563539025,34.27462784916285,35.616467487345375,36.57492437176146,1577395725.0,-27.688877896114136,-51.121562445320485,5.634813
29495,1577395725.37,0.4462558313881478,0.8797231222013139,13.754279771460556,0.1935799634979988,-0.7803929508860517,8.932591208555639,5.45177236566311,3.035614124428353,10.212613169302593,-10.894961473418444,2.086360280106707,1.874784143959604,-1.0530425281059452,13.539011885480184,1.6170594750381098,-5.306336937881097,-11.5871894650343,4.987763195503049,13.606024477874277,-0.5477750114468853,3.188378139717421,-17.264454873829877,14.024785272199066,-20.40395181741336,34.370473537604454,35.76023602000779,36.57492437176146,1577395725.0,-27.688877896114136,-51.121562445320485,5.634813
29496,1577395725.38,-1.7623952001059926,-0.2635081705232949,6.395700968970322,0.156469837765577,0.1581340998951977,10.466077371885715,2.348887014100609,-3.68490993563024,8.090153397574076,6.240658643769056,10.921199147294208,2.424100550209604,-2.945132371855945,-2.177540848894817,1.4339540062881095,0.2936386480564027,-1.0586250119092988,-0.1391899294969516,13.523563723462914,0.2738875057234426,6.288190219998251,-19.17149089336589,13.872341954022987,-64.27244822485208,34.27462784916285,35.47269895468296,36.62284721598228,1577395725.0,-27.688877896114136,-51.121562445320485,5.634813
29497,1577395725.39,-1.5888155797446646,-2.65411852818931,8.441546287573837,1.02915634289253,-3.435562591999333,8.736266672422827,-2.913568234922828,-1.9467195303568017,7.868689744009623,-15.716738817168444,4.649836842606708,-0.6581748404153963,-0.6257964343559451,7.130320479230183,0.4268739281631097,-0.9118056878810974,4.159880847465701,-4.625273913871951,12.616495424937966,-0.9129583524114792,3.8969066152101823,-19.05591295278796,-2.896423045345459,-65.63271167934629,34.46631922604607,35.616467487345375,36.67077006020308,1577395725.0,-27.688877896114136,-51.121562445320485,5.634813
29498,1577395725.4,-2.745214981600133,-0.4801834207674351,8.93235762790587,-0.4863733079863751,-3.461898810261052,6.99807626714939,0.8118095482802969,4.733103101479134,13.19578843785728,-2.075381395293445,5.351741139481708,2.302030237709604,0.1676605968940548,-5.809132645769817,-1.0990049780868902,5.496885718368903,-0.0515449337842987,1.2341010861280486,12.616495424937966,-0.5477750114468853,4.959699328449328,-19.17149089336589,-3.81108295440192,-61.55192131586362,34.27462784916285,35.856081708449395,36.52700152754066,1577395725.0,-27.688877896114136,-51.121562445320485,5.634813
29499,1577395725.41,-0.8430217626059927,-0.480183420767435,13.614218974341416,-1.827126237673875,0.7159830867116035,13.122444113829076,-5.630987119200172,-1.3314097036966457,13.595620115103372,-6.317324754668444,-10.593693430830792,0.2573525033346037,-4.837222215605945,-8.097951005144816,2.288446193788109,-2.834413109756097,-7.986115246284299,6.269501476753049,13.19372070581748,-0.4564791762057377,5.048265387885921,-21.020737942612943,-3.2013096816976128,-66.99297513384053,34.49028064815647,35.856081708449395,36.57492437176146,1577395725.0,-27.688877896114136,-51.121562445320485,5.634813
29500,1577395725.42,-0.2743988683188834,1.6913574849942836,12.4494398666754,0.88909554577339,0.500504937297542,10.916187283995091,2.2543160485244376,2.012092914711557,12.18663243810142,4.424862745331555,-10.181706126143292,-0.1698935904153963,-0.854678270293445,3.849680830792683,0.7930848656631094,-11.257264672256095,-31.2405097775343,5.353974133003049,12.616495424937966,-0.1825916704822951,6.376756279434842,-20.558426180301183,-3.81108295440192,-62.91218477035785,34.370473537604454,35.736274597897385,36.71869290442388,1577395725.0,-27.688877896114136,-51.121562445320485,5.634813
29501,1577395725.43,0.419919613126429,-1.9310696268221224,10.06242081149962,1.0435215528534676,-4.946303839557927,9.732254563047826,0.2252301415420157,-1.5684356680521143,12.082484665884625,-7.568545457793445,-9.540836985518292,0.8677040658346037,-0.0459624499809451,-6.327931473894817,2.898797756288109,-21.3280654535061,-47.4453437619093,9.07711866425305,12.946338442583398,-0.5477750114468853,6.376756279434842,-19.63380265567766,-2.896423045345459,-57.47113095238095,34.562164914487674,35.52062179890376,36.67077006020308,1577395725.0,-27.688877896114136,-51.121562445320485,5.634813
29502,1577395725.44,-0.2887640782798209,-6.666800510611185,12.770262889136337,5.604475715451124,-5.408384759968083,11.93970849371189,0.1294620751357657,-4.819761522544302,10.406543503775248,-15.808291551543444,2.574641530106707,-0.5666221060403963,-2.365298387480945,-2.085988114519817,-1.5872862280868902,-11.287782250381095,-48.3913886837843,9.65695264862805,11.626966372001654,1.2781416933760694,4.959699328449328,-21.020737942612943,18.14075486295314,-63.59231649760496,34.41839638182526,35.616467487345375,36.71869290442388,1577395725.0,-27.688877896114136,-51.121562445320485,5.634813
29503,1577395725.45,-2.110751541658727,-0.8201600565096225,13.103056919898057,-0.9795788499785626,-1.2712042912180828,11.839152023985328,0.2515663598037344,-4.6210427847513325,8.888619651236185,-14.663882371855944,0.3773759051067085,1.6764198861471038,-4.409976121855945,-8.891408036394816,-0.2445127905868902,-18.2152724847561,-40.8840644650343,4.438446789253049,12.451573916115244,0.0,5.84535992281528,-20.905160002035004,-4.420856227106227,-64.27244822485208,34.41839638182526,35.616467487345375,36.86246143708629,1577395725.0,-27.688877896114136,-51.121562445320485,5.634813
29504,1577395725.46,-0.6431059239829459,2.538904872689596,11.173330381812118,-2.151540562625047,1.4007247615162917,12.491571976377903,0.4622561058974848,1.4386816171041352,11.37499807530845,12.115292432831556,-11.127751048018292,-0.7192099966653963,-2.227969285918445,0.2333478229801828,0.1674745141006097,-10.341737328506095,-35.2688300900343,2.7142036251905486,12.946338442583398,-0.9129583524114792,5.313963566195704,-20.905160002035004,-4.420856227106227,-63.93238236122852,34.370473537604454,35.59250606523497,36.790577170755085,1577395725.0,-27.688877896114136,-51.121562445320485,5.634813
29505,1577395725.47,-0.9016797032798208,-1.10267585240806,10.9937652573004,3.8734679151581553,-2.2240965519602702,9.842387839415014,0.977009462831078,1.1058875863424158,11.87418912145103,2.8074311047065548,-11.188786204268292,-0.1698935904153963,-3.250308153105945,-4.496876786394817,0.8541200219131098,-17.6964736566311,-39.0530097775343,5.598114758003049,12.78141693376068,-0.3651833409645902,6.199624160561654,-9.636310795685798,-4.26841290893015,-25.84500563539025,34.41839638182526,35.66439033156618,36.81453859286549,1577395725.0,-27.688877896114136,-51.121562445320485,5.634813
29506,1577395725.48,-0.7149319737876334,-1.7586871072908723,9.480629808081652,-2.7608648851348123,1.3217161067311347,15.45679073248142,-1.362125559141577,-7.127771922934927,9.456045444693215,-7.476992723418445,-2.186100657393293,1.6001259408346038,-3.891177293730945,-10.783497880144816,0.0606629906631097,-15.926454125381095,-34.9941718869093,4.011200695503049,12.616495424937966,0.1825916704822951,6.022492041688465,-20.96294897232397,10.671032272325377,-23.1244787264018,34.370473537604454,35.66439033156618,36.67077006020308,1577395725.0,-27.688877896114136,-51.121562445320485,5.634813
29507,1577395725.49,-0.2648220616782584,-5.1704244730135285,9.241209642066025,-0.4001820482207506,-5.35930362593488,5.38917275152439,0.4287372826552975,-0.7795462210306308,5.594198166861186,-7.324404832793445,1.8117020769817076,1.5848671517721038,0.4880951672065548,-1.7808123332698167,0.6710145531631098,-5.962464867568596,-10.7021796994093,8.97030714081555,12.616495424937966,0.5477750114468871,6.908152636054418,-20.731793091168093,9.451485726916763,-24.484742180896028,34.32255069338365,35.64042890945578,36.76661574864468,1577395725.0,-27.688877896114136,-51.121562445320485,5.634813
29508,1577395725.5,-0.6646537389243521,1.0688650533536577,11.9131386948004,-2.672279423709031,3.2275006282155103,14.69064620123142,4.640138002870141,6.832817957436166,11.29239811803306,2.5327729015815548,-10.547917063643292,2.332547815834604,-6.607241746855945,-17.955128739519818,-0.0308897437118902,6.931211890243903,2.6034843630907014,8.00900342987805,12.286652407292529,0.1825916704822951,5.668227803942081,-21.020737942612943,5.945289408866995,-24.824808044519585,34.22670500494204,35.76023602000779,36.71869290442388,1577395725.0,-27.688877896114136,-51.121562445320485,5.634813
29509,1577395725.51,0.2978153284584603,3.0704176412442834,13.7135783432379,-2.1671028734160624,4.869922967082697,17.285960800840794,-0.1698131323837645,1.261510694252572,9.053819565786966,7.476620557831555,-2.735417063643293,1.3559853158346038,-0.0459624499809451,-2.635304520769817,0.6099793969131098,4.459288062118903,0.8944999880907012,9.68747022675305,12.286652407292529,0.547775011446889,7.439548992673988,-19.17149089336589,15.701661772135914,-24.824808044519585,34.27462784916285,35.616467487345375,36.57492437176146,1577395725.0,-27.688877896114136,-51.121562445320485,5.634813
29510,1577395725.52,0.3026037317787728,1.29152580774819,12.078338609351182,0.7346695386933113,-0.0118542179758954,6.796963327696265,-9.459315573790011,-15.69422546297399,13.964327170767437,3.0210541515815548,-10.761540110518292,0.8066689095846037,4.684262159394055,7.649119307355183,-0.5496885718368902,-12.172792016006095,4.800749988090701,-13.26174852324695,12.121730898469808,-0.7303666819291804,6.908152636054422,-18.42023427960928,7.927052545155993,-25.84500563539025,34.562164914487674,35.80815886422859,36.67077006020308,1577395725.0,-27.688877896114136,-51.121562445320485,5.634813
29511,1577395725.53,1.535617586759242,-3.8488251566072784,10.0360845932379,2.4704657423065925,-3.830605865925114,8.618950791075171,4.1038368309951405,2.8692171090474945,7.885449155630717,-5.935855028105944,-7.236759837080793,0.8677040658346037,-2.044863817168445,-5.732838700457316,2.578363185975609,-5.306336937881096,2.572966784965701,-6.730986804496951,11.379584108767574,-0.4564791762057377,6.642454457744632,-19.055912952787956,7.469722590627764,-20.403951817413358,34.39443495971486,35.71231317578699,36.71869290442388,1577395725.0,-27.688877896114136,-51.121562445320485,5.634813
29512,1577395725.54,0.879606331876429,-5.946145810904153,11.412750547827743,-1.5924944749785626,-0.6247698429758953,8.63810440435642,-5.911108713438453,-3.7567359854349274,10.040230649771342,-6.744570848418445,5.626399342606708,3.217557581459604,1.6325043468940548,2.552683760480183,3.295526271913109,9.189512671493905,4.159880847465701,7.673310070503049,12.121730898469808,-1.0955500228937742,6.199624160561654,-20.905160002035004,7.164835954275611,-12.582436954071568,34.27462784916285,35.80815886422859,36.71869290442388,1577395725.0,-27.688877896114136,-51.121562445320485,5.634813
29513,1577395725.55,0.304997933438929,-0.690873166861185,9.38007333835509,-0.7641007005645001,0.9961046809498848,11.05864228277439,0.9817978661513906,4.201590332924447,8.625257468618997,4.180722120331555,5.962092701981708,3.095487268959604,-2.090640184355945,0.7826642292301829,4.0584657250381095,10.867979468368905,11.9113456912157,8.31417921112805,11.791887880824373,-0.3651833409645902,6.553888398308031,-18.88254604192104,5.792846090690919,-19.72382009016624,34.27462784916285,35.80815886422859,36.71869290442388,1577395725.0,-27.688877896114136,-51.121562445320485,5.634813
29514,1577395725.56,-0.3988973546470084,2.410815083871237,14.143337541235947,0.7681883619354988,0.1294036799733223,10.467274472715795,0.5292937523818594,-5.2004395865091455,12.657093064322122,7.491879346894055,-2.582829173018293,2.347806604897104,0.1981781750190548,-1.1704607707698171,2.532586818788109,7.816221655868903,16.3974296755907,8.64987257050305,10.637437319065342,-0.1825916704822951,8.85660594365951,-18.940335012210014,6.25017604521915,-22.784412862778247,34.298589271273244,35.47269895468296,36.71869290442388,1577395725.0,-27.688877896114136,-51.121562445320485,5.634813
29515,1577395725.57,0.515687679532679,-6.0155776590486845,10.962640635718367,0.496446473507765,-2.366551550739568,10.588181656553688,-1.0903836707138437,0.7575312447896819,8.784471879019389,-8.667178270293444,4.863459889481708,1.3559853158346038,2.9600189953315548,6.474192549542684,2.959832912538109,-1.7662978753810954,6.448699206840701,-6.257964343559451,10.637437319065342,-0.1825916704822951,8.85660594365951,-14.895107091982094,6.70750599974738,-17.343359044801353,34.370473537604454,35.64042890945578,36.69473148231347,1577395725.0,-27.688877896114136,-51.121562445320485,5.634813
29516,1577395725.58,2.4454142176186164,-3.3388602029939976,8.783917124976181,4.565392194943311,-1.568085297077458,6.272633164122047,-2.7555509253525154,-0.0169929922708643,4.756227585806498,-2.746768114043445,5.016047780106708,2.790311487709604,3.0057953625190548,6.825144697980183,3.203973537538109,13.828184546493905,17.9843437380907,3.2482612423780486,10.80235882788806,-0.7303666819291804,8.325209587039938,-9.92525564713065,8.384382499684225,-11.902305226824456,34.27462784916285,35.76023602000779,36.33531015065744,1577395725.0,-27.688877896114136,-51.121562445320485,5.634813
29517,1577395725.59,1.7056059046303351,-2.6756663431307164,7.972282762183212,-0.4839791063262189,-3.5480900700266766,6.820905344297827,-0.1769957373642333,-10.896245336020865,8.797639988150248,0.6406830578315549,4.893977467606708,2.576688440834604,-0.1680327624809451,-1.9028826457698167,4.3941590844131095,6.320860327743903,26.5903007693407,1.1120307736280486,10.80235882788806,-0.3651833409645902,7.616681111547183,-21.020737942612943,8.07949586333207,-1.7003293181177797,34.370473537604454,35.616467487345375,36.71869290442388,1577395725.0,-27.688877896114136,-51.121562445320485,5.634813
29518,1577395725.6,1.8133449793373664,-1.8161479471346225,6.198179332007431,-1.405746745486375,-0.6175872379954266,7.857594663145484,1.7072409691787342,4.924639234291635,11.12001559850181,10.955624464081556,7.579524342606708,4.377225550209603,0.7780121593940549,3.193552901105183,4.8519227562881095,13.553526343368905,25.0644218630907,2.1496284298780486,9.153143739660877,-0.3651833409645902,8.325209587039938,-20.789582061457065,5.335516136162689,-11.902305226824456,34.370473537604454,35.80815886422859,36.52700152754066,1577395725.0,-27.688877896114136,-51.121562445320485,5.634813
29519,1577395725.61,0.0727603724037728,0.1614626241544399,13.162911961401962,-0.0171097825957504,1.0834930415455888,12.541850211241186,-0.1734044348739995,-6.615412767661489,16.36810563756431,3.127865675019055,4.314143483231708,2.805570276772104,2.7006195812690548,6.733591963605183,4.4704530297256095,7.251646460556404,13.9712822146532,-0.4901420779344514,11.462044863178935,-0.7303666819291804,6.553888398308031,-21.020737942612943,6.555062681571303,-13.602634544942235,34.370473537604454,35.59250606523497,36.64680863809267,1577395725.0,-27.688877896114136,-51.121562445320485,5.634813
29520,1577395725.62,-0.5497320592368521,-5.388296824087747,8.872502586401964,0.4545479444550301,-3.0453077213938644,12.052235971739233,3.502892214295922,3.272640088783822,12.317116428579936,-1.5260649890434452,12.736995045731708,4.957059534584603,2.3954438000190548,5.909617354230183,3.326043850038109,1.3770126714939026,-0.3262031369092988,-5.845977038871951,11.462044863178935,-0.7303666819291804,6.553888398308031,-21.020737942612943,10.213702317797145,-14.622832135812905,34.370473537604454,35.80815886422859,36.86246143708629,1577395725.0,-27.688877896114136,-51.121562445320485,5.634813
29521,1577395725.63,-2.4483339757407583,-2.170489792837748,10.24677433933165,-1.5063032152129376,-4.965457452839177,13.33792226324314,0.6513980370498281,5.046743518959604,13.444785410513528,-0.3053618640434451,12.462336842606708,4.194120081459603,6.149105909394055,-3.794972489519817,5.9810731469131095,6.809141577743903,-2.4624336056592986,5.994843273628049,9.64790826612903,-2.37369171626984,7.793813230420372,-20.96294897232397,10.366145635973224,-21.764215271907577,34.370473537604454,35.52062179890376,36.57492437176146,1577395725.0,-27.688877896114136,-51.121562445320485,5.634813
29522,1577395725.64,-1.3182707921470085,-1.0308498026033726,9.933133921851182,-0.5031327196074689,-1.7464533207590984,12.133638828184546,0.377261946961938,-0.0433292105325836,10.929676566519388,2.1970795422065548,3.032405201981707,2.912381800209604,2.8532074718940548,1.0573224323551829,3.142938381288109,2.750303687118903,-8.0776679806593,7.963227062690549,8.163614686724566,-1.4607333638583646,7.97094534929356,-20.61621515059015,12.652795408614374,-19.38375422654269,34.46631922604607,35.68835175367658,36.67077006020308,1577395725.0,-27.688877896114136,-51.121562445320485,5.634813
29523,1577395725.65,1.290211916593226,-0.94346144200767,8.949117039526962,1.0411273511933112,0.6321860286061347,9.904637082579075,9.629654262635766,6.555090564858041,8.306828647818216,9.963803175019056,-4.902165110518292,2.591947229897104,2.1207855968940548,4.658396651105183,1.7391297875381098,6.229307593368903,-2.8896796994092986,5.994843273628049,9.565447511717672,-1.004254187652623,7.882379289856963,-20.50063721001221,15.24433181760768,-25.84500563539025,34.27462784916285,35.66439033156618,36.57492437176146,1577395725.0,-27.688877896114136,-51.121562445320485,5.634813
29524,1577395725.66,-0.7388739903891959,-2.6517243265291537,5.714550596655869,1.2182982740448738,-0.7325089176829266,5.14017577886814,0.7567429100967031,-8.621753758872426,2.0962695413729047,6.652645948456555,4.436213795731708,5.262235315834603,4.440121534394055,3.773386885480183,3.265008693788109,4.794981421493903,12.9794609255907,10.75558546112805,10.142672792597187,-1.825916704822951,8.325209587039938,-20.789582061457065,15.091888499431604,-24.824808044519585,34.27462784916285,35.80815886422859,36.71869290442388,1577395725.0,-27.688877896114136,-51.121562445320485,5.634813
29525,1577395725.67,0.5492065027748666,-1.7562929056307162,7.285146885718369,1.8575501173065927,-2.0325604191477704,4.208831333067359,-1.275934299375952,-6.103053612388052,-0.4751030416349067,2.7158783703315548,-1.0264326886432926,4.102567347084603,1.4493988781440548,0.2638654011051829,3.9363954125381095,11.814024390243905,32.7243339724657,5.231903820503049,9.48298675730631,-1.0955500228937742,7.262416873800799,-20.731793091168093,15.24433181760768,-5.441053817976894,34.17878216072124,35.616467487345375,36.479078683319855,1577395725.0,-27.688877896114136,-51.121562445320485,5.634813
29526,1577395725.68,-0.5664914708579459,1.6698096700528773,11.4917592026129,-0.4875704088164537,-1.1742391239817551,9.03434477911228,-0.1039725867294682,-4.998129546225942,8.27929532872642,5.065731885956555,-8.625309641768293,3.431180628334604,3.7229584484565543,-2.726857255144817,3.8143251000381095,16.6205429449314,44.9618828005907,-11.41543504668445,7.8337716690791295,-2.191100045787545,6.908152636054422,-20.847371031746032,12.957682044966528,-42.16816708932093,34.562164914487674,35.64042890945578,36.62284721598228,1577395725.0,-27.688877896114136,-51.121562445320485,5.634813
29527,1577395725.69,1.051988851407679,-2.4972983194490754,10.315009086646103,1.9197993604706551,-2.276768988483708,5.511277036192359,6.979273024842796,6.052308216225229,6.106557322134623,-1.815981981230945,-3.0711104230182924,3.064969690834604,2.0597504406440548,3.712351729230183,2.593621975038109,23.1360458746189,49.0512382693407,-10.39309617949695,9.482986757306312,-0.1825916704822951,6.908152636054423,-20.3272702991453,13.872341954022987,-64.27244822485208,34.46631922604607,35.616467487345375,36.67077006020308,1577395725.0,-27.688877896114136,-51.121562445320485,5.634813
29528,1577395725.7,-0.0038540807212271,0.3673639669278764,8.367326036108993,1.02915634289253,-0.957563873737614,7.230313828184546,0.5819661889052969,12.890148157631478,11.187053244986185,9.429745557831556,4.375178639481708,3.003934534584604,0.5033539562690549,-0.4990740520198171,5.5538270531631095,22.3731064214939,42.9477226443407,9.13815382050305,9.977751283774465,-0.1825916704822951,7.085284754927611,-20.558426180301183,13.26256868131868,-62.23205304311074,34.46631922604607,35.616467487345375,36.67077006020308,1577395725.0,-27.688877896114136,-51.121562445320485,5.634813
29529,1577395725.71,1.061565658048304,0.1518858175138139,9.897220896948838,0.5814406324433113,-1.541749078815739,6.112221652891577,-0.4858477515243896,-10.666401976645863,6.858336643423685,-1.8617583484184448,-1.6978194073932926,2.454618128334604,4.348568800019055,-2.147023270769817,3.112420803163109,6.473448218368903,29.8251640505907,12.22042921112805,9.64790826612903,-1.643325034340656,7.793813230420372,-20.558426180301183,13.26256868131868,-62.23205304311074,34.370473537604454,35.76023602000779,36.81453859286549,1577395725.0,-27.688877896114136,-51.121562445320485,5.634813
29530,1577395725.72,0.266690706876429,0.8031086690763143,6.854190586890244,0.3611740797089368,1.0344119075123857,8.75302608404392,-0.1710102332138431,-1.100369243491568,10.792009971060404,5.737118604706555,-1.8809248761432928,2.332547815834604,2.3496674328315548,-0.8195086223323171,2.685174709413109,4.749205054306404,13.0252372927782,-0.4443657107469513,8.410996949958644,-1.1868458581349215,7.173850814364201,-21.020737942612943,14.482115226727297,-47.60922090729783,34.41839638182526,35.80815886422859,36.694731482313486,1577395725.0,-27.688877896114136,-51.121562445320485,5.634813
29531,1577395725.73,-0.2265148351157584,-1.9214928201814971,6.598011009253526,0.6389014722870613,-3.4427451969798017,3.081162351133765,-1.3597313574814207,-3.2970492666849265,8.613286460318218,3.7229584484565534,2.330500905106707,1.996854456459604,0.5643891125190549,3.407175947980183,1.6780946312881098,1.2244247808689026,12.9184257693407,-5.388213366996951,7.50392865143369,-1.825916704822951,6.199624160561654,-21.020737942612943,17.53098159024883,-24.824808044519585,34.370473537604454,35.616467487345375,36.67077006020308,1577395725.0,-27.688877896114136,-51.121562445320485,5.634813
29532,1577395725.74,-0.3390423131431021,-3.702778855337747,5.9443939560308685,-0.3642690233184064,-0.0645266544993329,11.152016147520484,0.2515663598037344,0.5480385995260096,11.115227195181498,-3.082461473418445,5.382258717606708,2.729276331459604,-2.487368699980945,-0.041310380144817,5.1265809594131095,2.841856421493903,-1.0281074337842988,-3.5266411013719514,7.50392865143369,-1.825916704822951,6.199624160561654,-20.905160002035004,17.53098159024883,-69.71350204282896,34.370473537604454,35.616467487345375,36.67077006020308,1577395725.0,-27.688877896114136,-51.121562445320485,5.634813
29533,1577395725.75,-0.5042422276938834,-3.61179919225181,7.696949571265244,0.4330001295136239,-3.351765533893864,11.113708920957984,-1.5560558936142332,9.016329871498666,7.983611423697123,1.2205170422065548,-0.0803877667682926,1.996854456459604,1.5104340343940548,5.909617354230183,2.929315334413109,8.945372046493903,-1.6079414181592988,6.452606945503049,9.64790826612903,-0.9129583524114792,6.731020517181234,-20.558426180301183,-4.420856227106227,-66.31284340659342,34.70593344715009,35.76023602000779,36.81453859286549,1577395725.0,-27.688877896114136,-51.121562445320485,5.634813
29534,1577395725.76,-0.2660191625083365,2.7819163411954557,10.183327995337509,0.0427452589081556,0.5088846431080888,7.558319455625952,2.006516176698266,-3.482599895347036,11.189447446646342,7.583432081269056,-1.0569502667682928,2.103665979897104,1.7698334484565548,0.7368878620426829,3.005609279725609,-0.0420547113185973,-3.789948254096799,8.20736768769055,8.82330072201544,-1.2781416933760676,6.376756279434842,-9.92525564713065,5.640402772514842,-62.23205304311074,34.34651211549405,35.71231317578699,36.64680863809267,1577395725.0,-27.688877896114136,-51.121562445320485,5.634813
29535,1577395725.77,-3.2288437169516957,-3.1928139017244663,10.057632408179304,-1.6020712816191875,2.265031560832697,10.230248508360328,-1.5273254736923585,1.8433016976705408,8.359501084341655,-11.383242723418444,9.349543873856708,3.736356409584604,-0.9614897937309452,8.015330244855184,-0.7327940405868902,-4.787538109756097,-11.5871894650343,6.269501476753049,7.8337716690791295,-1.825916704822951,6.199624160561654,-9.809677706552709,-4.420856227106227,-66.31284340659342,34.27462784916285,35.76023602000779,36.57492437176146,1577395725.0,-27.688877896114136,-51.121562445320485,5.634813
29536,1577395725.78,-1.382914236971227,-6.396255723013528,10.39282064060118,-1.355468510623094,-6.497746515339177,8.01321777105564,-4.690065866758765,0.4211459115377283,16.5548533670565,-33.29486381716845,9.105403248856708,4.072049768959603,4.684262159394055,4.170115401105183,2.715692287538109,0.1257919683689026,-25.6863105587843,-2.1838676638719514,7.8337716690791295,-1.825916704822951,6.199624160561654,-21.020737942612943,12.652795408614375,6.46125140884756,34.27462784916285,35.80815886422859,36.57492437176146,1577395725.0,-27.688877896114136,-51.121562445320485,5.634813
29537,1577395725.79,1.2411307825600228,-0.863255686392435,11.072773912085555,-0.1667473863555162,-2.6239282292063644,12.0869518958115,2.0029248742080314,-1.1590271841653954,6.802072904410014,1.3731049328315548,-5.237858469893292,2.637723597084604,2.3344086437690548,1.7134503620426829,3.402337795350609,-2.285096703506097,-17.9653632931593,2.2716987423780486,7.8337716690791295,0.0,6.553888398308031,-20.50063721001221,12.957682044966528,5.441053817976894,34.08293647227963,35.664390331566175,36.83850001497589,1577395725.0,-27.688877896114136,-51.121562445320485,5.634813
29538,1577395725.8,0.237960286954554,-2.23273903600181,9.65181522678282,4.172743122677686,-2.920809235065739,7.24707323980564,4.209181704042016,0.7467573373189784,12.25726138707603,10.635189893769056,0.8046219988567073,2.271512659584604,0.9306000500190548,5.207713057355183,2.776727443788109,5.710508765243903,-4.720734386909299,7.185028820503049,7.66885016025641,-0.1825916704822951,5.491095685068893,-20.905160002035004,15.701661772135914,-26.185071499013805,34.41839638182526,35.32893042202055,36.57492437176146,1577395725.0,-27.688877896114136,-51.121562445320485,5.634813
29539,1577395725.81,-0.2289090367759146,1.966690675912252,12.581120957983993,-0.2230111253691876,2.099831646281916,12.617267563536108,1.1565745873427968,1.1968672494283534,7.356330588736186,6.133847120331555,3.429133717606707,3.003934534584604,-3.708071824980945,-1.8418474895198167,3.295526271913109,4.184629858993903,2.5729667849657014,4.804657726753049,8.65837921319272,0.9129583524114792,7.085284754927611,-19.51822471509972,15.091888499431604,3.740724499859114,34.41839638182526,35.616467487345375,36.81453859286549,1577395725.0,-27.688877896114136,-51.121562445320485,5.634813
29540,1577395725.82,0.0536067591225218,-0.7698818216463413,9.672165940894152,-1.1735091844512189,-0.1387469059641767,9.18158818121189,0.7902617333388907,-7.64252527986852,6.314852866568217,-1.6786528796684452,2.116877858231707,1.0202919564596038,2.1818207531440548,6.672556807355183,1.4949891625381098,6.687071265243903,14.4748222537157,5.811737804878049,8.65837921319272,0.9129583524114792,7.085284754927611,-19.63380265567766,11.433248863205758,-4.420856227106225,34.46631922604607,35.66439033156618,36.71869290442388,1577395725.0,-27.688877896114136,-51.121562445320485,5.634813
29541,1577395725.83,0.2008501612221322,-1.4306814798494667,9.636252915991806,0.3120929456757337,-1.370563660114568,7.262635550596656,0.7866704308486567,0.288267719399057,11.731734122671732,-0.0154448718559451,0.1942704363567071,2.317289026772104,-0.7326079577934452,-1.4146013957698171,3.219232326600609,3.909971655868903,1.0776054568407014,-3.2367241091844514,8.410996949958644,0.0912958352411475,5.225397506759107,-19.402646774521777,10.5185889541493,-5.441053817976894,34.41839638182526,35.66439033156618,36.62284721598228,1577395725.0,-27.688877896114136,-51.121562445320485,5.634813
29542,1577395725.84,-0.4731176061118521,-3.298158774771341,12.439863060034774,3.052256745724561,-0.600827826374333,12.286867734434546,1.1493919823623282,0.8784384286275722,6.975652524771342,-9.399600145293444,-2.002995188643293,0.6540810189596037,-0.5952788562309451,11.677439619855184,-0.7633116187118902,11.081602515243905,0.0705253787157012,1.2951362423780486,7.8337716690791295,-0.7303666819291804,6.553888398308031,-19.63380265567766,12.043022135910068,-9.861910045083125,34.17878216072124,35.616467487345375,36.67077006020308,1577395725.0,-27.688877896114136,-51.121562445320485,5.634813
29543,1577395725.85,0.4582268396889291,-1.8760029886385288,8.819830149878525,-0.0937242357207501,0.0384240168873848,7.563107858946265,-0.0070074194931395,-11.01356121736852,9.64518737584556,10.894589307831556,8.037288014481707,2.973416956459604,-6.027407762480945,-0.7126970988948171,5.2791688500381095,0.9497665777439026,21.8295585818407,1.5392768673780486,8.493457704370002,-1.4607333638583646,5.845359922815277,-20.385059269434272,10.366145635973224,-17.0032931811778,34.41839638182526,35.52062179890376,36.81453859286549,1577395725.0,-27.688877896114136,-51.121562445320485,5.634813
29544,1577395725.86,-0.5569146642173208,1.9164124410489711,12.60985137790587,-0.6419964158965313,-0.0908628727610517,12.78246747808689,4.484514894959984,-4.053616991294302,9.07776158238853,4.974179151581555,7.304866139481708,2.027372034584604,-1.9685698718559448,-1.1399431926448171,-0.2139952124618902,6.595518530868903,26.7734062380907,-3.618193835746952,8.493457704370002,-1.4607333638583646,5.845359922815277,-20.905160002035004,8.689269136036378,-20.74401768103691,34.370473537604454,35.66439033156618,36.67077006020308,1577395725.0,-27.688877896114136,-51.121562445320485,5.634813
29545,1577395725.87,-0.3833350438559932,-2.281820170035013,9.190931407202743,-0.5773529710723126,-1.9391865544016769,5.118627963926734,-2.384449668028296,0.7635167489400722,9.88221334020103,-5.279727098418444,-0.8433272198932924,1.5085732064596038,2.0292328625190548,8.076365401105184,1.983270412538109,11.966612280868905,23.2028495974657,-0.9021293826219512,7.503928651433689,-1.0955500228937725,5.491095685068896,-20.96294897232397,8.841712454212455,-25.84500563539025,34.39443495971486,35.66439033156618,36.71869290442388,1577395725.0,-27.688877896114136,-51.121562445320485,5.634813
29546,1577395725.88,1.119026497892054,-1.9981072733064973,11.477393992651962,0.7191072279022962,-2.331835626667301,8.417837851622046,1.0165137902236567,-3.1162870413431296,14.750822416128765,-0.9767485827934452,3.581721608231707,0.1047646127096036,-2.258486864043445,5.116160322980183,1.8612001000381095,2.674009741806403,1.3064872927782003,-3.6334526248094514,7.174085633788254,-2.191100045787545,5.136831447322516,-20.991843457468452,9.5277073860048,-26.015038567202023,34.370473537604454,35.64042890945578,36.86246143708629,1577395725.0,-27.688877896114136,-51.121562445320485,5.634813
29547,1577395725.89,1.2985916224037728,-2.383573740591653,10.3042351791754,1.6420719678925302,0.2012297297780098,8.269397348692358,0.0791838402724844,5.331653516518197,6.164018161978373,-3.112979051543445,3.062922780106707,0.8371864877096037,-7.156558153105945,8.045847822980184,2.837762600038109,0.1868271246189026,-8.0166328244093,-0.3528129763719513,7.8337716690791295,-0.7303666819291804,5.136831447322516,-20.789582061457065,11.433248863205758,-1.7003293181177797,34.27462784916285,35.66439033156618,36.86246143708629,1577395725.0,-27.688877896114136,-51.121562445320485,5.634813
29548,1577395725.9,1.339293050626429,2.081612355599752,8.1973377182379,-1.9827493455840317,0.6297918269459785,9.20074179449314,4.319314980409203,8.673959034096322,9.81756989537681,10.284237745331556,11.516291920731708,1.5085732064596038,-1.3582183093559452,0.5385236042301829,3.112420803163109,2.048399390243903,-5.147980480659299,5.994843273628049,7.8337716690791295,-0.7303666819291804,5.136831447322516,-20.96294897232397,11.585692181381836,-12.242371090448014,34.17878216072124,35.52062179890376,36.57492437176146,1577395725.0,-27.688877896114136,-51.121562445320485,5.634813
29549,1577395725.91,0.3504877649818978,-1.7598842081209511,7.3545787338629,0.6915739088104988,-1.4818940373118328,6.023636191465796,0.4143720726943594,4.457769910561166,8.577373435415874,-1.6481353015434452,1.7354081316692076,0.5472694955221038,0.7474945812690549,7.160838057355183,1.1287782250381098,3.238584937118903,-0.6313789181592988,13.56320264862805,7.503928651433691,-0.9129583524114772,4.959699328449327,-20.674004120879125,15.091888499431604,-12.582436954071568,34.298589271273244,35.80815886422859,36.81453859286549,1577395725.0,-27.688877896114136,-51.121562445320485,5.634813
29550,1577395725.92,-2.4387571691001333,-2.488918613638529,6.811094957007431,-2.598059172244187,-3.2356467533762863,7.383542734434546,-3.897585117247047,-20.19412748323766,8.39421700841392,0.5186127453315549,24.150569264481707,3.248075159584604,-4.974551317168445,-3.047291825457317,1.1898133812881098,-14.415834008193595,6.5860283084032005,-3.7707817263719514,7.668850160256408,-1.643325034340656,4.605435090702943,-21.020737942612943,15.39677513578376,-12.242371090448014,34.370473537604454,35.78419744211819,36.71869290442388,1577395725.0,-27.688877896114136,-51.121562445320485,5.634813
29551,1577395725.93,1.3608408655678352,-2.3021708841463413,8.539708555640244,-2.401734636111375,-1.896090924518864,10.36911220464939,4.731117665956078,16.103166785561164,12.855811802115092,-12.024111864043444,-2.643864329268293,-0.6581748404153963,-2.487368699980945,4.994090010480183,0.9151551781631098,7.297422827743903,-5.453156261909299,-9.17239305449695,6.514399598497378,-0.7303666819291804,5.491095685068893,-20.905160002035004,15.091888499431604,-12.582436954071568,34.22670500494204,35.616467487345375,36.81453859286549,1577395725.0,-27.688877896114136,-51.121562445320485,5.634813
29552,1577395725.94,0.477380452970179,-1.8520609720369663,10.088757029761338,3.353926154904249,-1.2735984928782391,10.998787241270485,-1.2783285010361085,11.843882032143195,17.692099155630718,13.305477979706556,0.5909989519817074,0.8066689095846037,-1.4497710437309452,5.482371260480183,1.891717678163109,-0.8202529535060974,-15.6765449337843,8.31417921112805,7.174085633788254,0.0,4.782567209576139,-21.020737942612943,-4.420856227106227,-6.461251408847564,34.41839638182526,35.616467487345375,36.86246143708629,1577395725.0,-27.688877896114136,-51.121562445320485,5.634813
29553,1577395725.95,0.490548562101038,1.103580977425923,11.771880796851182,2.0861963758515145,0.6824642634694165,13.811974191954077,1.4797918114638904,-0.9411548330911776,14.922007834829936,0.8695648937690557,3.749568287919208,1.5696083627096038,-5.981631395293445,2.567942549542683,-0.0461485327743902,-16.7809463128811,-40.0448310665968,7.413910656440549,7.091624879376894,-0.2738875057234426,5.22539750675911,-20.70289860602361,6.631284340659342,-12.41240402225979,34.41839638182526,35.56854464312457,36.862461437086296,1577395725.0,-27.688877896114136,-51.121562445320485,5.634813
29554,1577395725.96,0.0009343225990853,-1.0763396341463414,7.917216123999618,0.8783216383026863,-2.3605660465891765,7.508041220762671,-4.192071921446265,-2.5476641470560204,14.416831284536968,-1.0988188952934452,10.020930592606708,1.6001259408346038,-2.395815965605945,1.7897443073551829,1.0982606469131098,-22.5792861566311,-52.9995429806593,11.57956007050305,6.514399598497378,-1.4607333638583646,5.491095685068893,-20.905160002035004,-4.115969590754073,-12.582436954071568,34.41839638182526,35.616467487345375,36.71869290442388,1577395725.0,-27.688877896114136,-51.121562445320485,5.634813
29555,1577395725.97,-0.2097554234946646,-2.44342878209556,7.735256797827744,0.9190230665253426,-2.374931256550114,11.83675782232517,3.1700981835342037,-4.350497997153677,11.285215513052592,-2.777285692168445,1.933772389481708,0.3489052377096037,-3.647036668730945,-5.137745927019817,0.1216981469131097,-18.6120010003811,-54.4033515744093,5.079315929878049,6.679321107320097,-1.643325034340656,3.188378139717421,-21.020737942612943,-4.420856227106227,-15.302963863060016,34.27462784916285,35.80815886422859,36.57492437176146,1577395725.0,-27.688877896114136,-51.121562445320485,5.634813
29556,1577395725.98,-0.6945812596763052,-0.920716526236185,8.891656199683213,1.4601126417206551,0.6872526667897284,14.841480905821264,4.204393300721703,-3.5939302725443016,6.891855466665874,-1.4345122546684452,1.5370438738567074,1.4933144173971038,-4.928774949980945,1.1488751667301829,1.0677430687881098,-16.6283584222561,-37.6797187619093,3.5229194455030486,7.009164124965536,-1.2781416933760694,5.313963566195704,-20.558426180301183,-4.115969590754073,-26.185071499013805,34.46631922604607,35.616467487345375,36.86246143708629,1577395725.0,-27.688877896114136,-51.121562445320485,5.634813
29557,1577395725.99,-1.5529025548423208,-3.049161802115091,9.293882078589464,-2.068940605349656,-2.170227014606755,9.387489523985328,-1.2112908545517342,-7.545560112632192,4.958537626089701,-1.5871001452934452,1.6591141863567074,1.7832314095846038,-0.0917388171684451,-3.306691239519817,1.1440370141006098,-6.130311547256097,-3.545807629096799,8.78720167206555,6.514399598497378,-2.556283386752136,4.782567209576139,-20.616215150590158,6.859949317923457,-24.484742180896028,34.46631922604607,35.64042890945578,36.83850001497589,1577395725.0,-27.688877896114136,-51.121562445320485,5.634813
29558,1577395726.0,0.467803646329554,-0.5855282938143102,12.80617591403868,-0.3810284349395001,-1.2568390812571453,8.034765585997047,0.2970561913467032,8.089773829018197,11.36901257115806,-3.601260301543445,-5.695622141768292,0.5625282845846037,0.3202484875190549,-7.029835770769817,0.5489442406631098,-1.5526748285060974,-1.4553535275342988,-0.4443657107469513,8.493457704370002,-0.3651833409645902,4.428302971829755,-21.020737942612943,16.616321681192368,-68.35323858833475,34.46631922604607,35.66439033156618,36.81453859286549,1577395726.0,-27.688888070547577,-51.12162005371577,5.845547
29559,1577395726.01,-3.2072959020102894,-2.7379155862947786,12.226779112280868,1.2135098707245613,-3.753991412800114,12.440096640684546,-1.4267690039657956,-3.8309562368997705,9.805598887076028,-4.913516160918445,-0.8433272198932926,1.7832314095846038,0.7169770031440549,-0.7126970988948171,-1.0379698218368902,-2.132508812881097,0.3146660037157012,0.1659858517530487,8.163614686724566,-1.4607333638583646,4.428302971829755,-20.96294897232397,19.20785809018568,-69.37343617920541,34.41839638182526,35.424776110462155,36.71869290442388,1577395726.0,-27.688888070547577,-51.12162005371577,5.845547
29560,1577395726.02,0.3289399500404916,-1.2918177835604037,11.181710087622664,1.2015388624237802,0.0001167903248857,10.689935227110327,-2.1522121069931397,-5.856450841391959,9.398584604849466,-7.339663621855944,-5.359928782393292,1.5696083627096038,-2.670474168730945,-3.154103348894817,1.4034364281631098,-8.937928734756097,6.540251941215701,-2.2449028201219514,7.174085633788254,-1.4607333638583646,4.428302971829755,-10.329778439153442,19.20785809018568,-68.0131727247112,34.41839638182526,35.76023602000779,36.71869290442388,1577395726.0,-27.688888070547577,-51.12162005371577,5.845547
29561,1577395726.03,-0.3677727330649771,0.4990450582364701,14.120592625464464,0.7478376478241707,-1.0461493351633953,13.023084744932593,1.2439629479385006,0.4151604073873382,12.154310715689313,5.309872510956555,-8.594792063643293,0.5625282845846037,-2.182192918730945,-0.7126970988948171,1.0982606469131095,-4.558656273818596,-5.041168957221799,-0.6732475466844514,8.98822223083816,-0.9129583524114792,4.251170852956559,-21.020737942612943,-4.420856227106227,-69.03337031558186,34.370473537604454,35.64042890945578,36.742654326534286,1577395726.0,-27.688888070547577,-51.12162005371577,5.845547
29562,1577395726.04,-2.1155399449790395,-2.3548433206697785,10.356907615698836,0.4138465162323738,-4.132275275104802,8.80569852056736,-1.591968918516577,2.52086076749476,9.398584604849466,-3.448672410918445,4.832942311356708,1.4475380502096038,2.0597504406440548,1.6371564167301829,-1.7398741187118902,-0.7897353753810974,-6.216095715034299,6.544159679878049,6.019635072029224,-1.2781416933760694,3.8969066152101823,-21.020737942612943,-4.420856227106227,-67.67310686108763,34.27462784916285,35.66439033156618,36.71869290442388,1577395726.0,-27.688888070547577,-51.12162005371577,5.845547
29563,1577395726.05,0.7191948206459603,-2.8887502908846225,10.20846711276915,-2.164708671755906,0.8285105647389472,7.639722312071265,1.312197695252953,0.6150762460103847,7.4568870584627485,-10.864443895293444,3.154475514481707,2.515653284584604,-2.060122606230945,-6.266896317644817,2.349481350038109,4.154112280868903,2.6340019412157014,5.323456554878049,7.009164124965536,-1.643325034340656,5.313963566195704,-12.23681445868946,18.14075486295314,-68.35323858833475,34.46631922604607,35.616467487345375,36.81453859286549,1577395726.0,-27.688888070547577,-51.12162005371577,5.845547
29564,1577395726.06,-0.093636642977087,-0.5891195963045449,10.869266770972274,-0.693471751589891,-1.343030341022771,5.832100058653296,-3.166156510069312,-5.645761095298209,9.72180182897056,-0.0154448718559452,-5.100529368330792,0.7456337533346038,3.4483002453315548,1.6066388386051829,1.3729188500381098,-0.0878310785060971,1.947356433403201,3.629730968940549,6.844242616142818,-1.0955500228937742,3.7197744963369854,-11.630030270655272,13.643676976758872,-24.31470924908425,34.41839638182526,35.59250606523497,36.81453859286549,1577395726.0,-27.688888070547577,-51.12162005371577,5.845547
29565,1577395726.07,0.3744297815834603,-3.03719079381431,9.080798130835555,0.7107275220917488,-0.0501614445383954,10.237431113340795,-4.223196543028297,-7.630554271567739,9.661946787466654,3.2957123547065548,4.893977467606708,2.332547815834604,0.4423188000190549,-3.520314286394817,1.7696473656631098,-3.414247094131097,4.739714831840701,-10.11843797637195,6.844242616142818,0.3651833409645902,3.7197744963369854,-11.658924755799758,13.872341954022987,-4.420856227106225,34.27462784916285,35.616467487345375,36.81453859286549,1577395726.0,-27.688888070547577,-51.12162005371577,5.845547
29566,1577395726.08,0.1445864222084593,-3.1497182718416536,8.736033091773056,-1.7217813646270002,-2.736455707233708,10.646839597227515,0.5077459374404532,3.0308257211080405,13.626744736685405,-5.096621629668445,5.138118092606708,2.485135706459604,3.3109711437690548,-2.269093583269817,4.3026063500381095,-8.663270531631097,1.4438163943407012,-2.9468071169969514,6.679321107320097,-0.9129583524114792,2.8341139019710444,-11.312190934065937,13.872341954022987,-3.740724499859112,34.46631922604607,35.80815886422859,36.67077006020308,1577395726.0,-27.688888070547577,-51.12162005371577,5.845547
29567,1577395726.09,-2.479458597322789,-2.21358542272056,10.54126114353087,-2.516656315798875,-3.962286957233708,13.75211915045017,-1.2591748877548583,0.1434185189596034,14.735260105337748,3.1431244640815548,2.330500905106707,2.271512659584604,2.5175141125190548,1.8812970417301829,2.685174709413109,0.2783798589939026,-8.1387031369093,-2.4890434451219514,6.514399598497378,0.0,3.7197744963369854,-11.312190934065937,13.872341954022987,-3.740724499859112,34.41839638182526,35.66439033156618,36.81453859286549,1577395726.0,-27.688888070547577,-51.12162005371577,5.845547
29568,1577395726.1,-1.0728651219809928,-2.341675211538919,13.281424943579696,-1.2189990159941877,-2.1223429814036296,11.621279672911108,-0.3876854834579833,11.544606824623663,8.785668979849467,3.0057953625190548,-3.269474680830793,1.859525354897104,5.554013135956555,3.987009932355183,1.876458889100609,15.888121069931405,4.8312675662157005,7.3376167111280495,6.514399598497378,-1.0955500228937742,4.074038734083371,-19.80716956654457,6.09773272704307,-3.4006586362355584,34.17878216072124,35.66439033156618,36.76661574864468,1577395726.0,-27.688888070547577,-51.12162005371577,5.845547
29569,1577395726.11,-0.6790189488852896,-1.7802349222322786,8.532525950659775,0.4569421461151863,-3.129104779499333,3.258333273985328,1.273890468690453,-14.590498497641958,12.40330768834556,1.8919037609565548,-1.1179854230182926,1.7832314095846038,4.531674268769055,-1.5366717082698171,3.509149318788109,8.090879858993903,22.3483574099657,17.13375928925305,6.514399598497378,-1.0955500228937742,4.074038734083371,-20.09611441798942,15.701661772135914,-3.0605927726120044,34.370473537604454,35.66439033156618,36.81453859286549,1577395726.0,-27.688888070547577,-51.12162005371577,5.845547
29570,1577395726.12,1.032835238126429,-0.6884789652010288,8.441546287573837,1.3763155836151864,-0.4595699284251142,7.184823996641578,-1.9989832007431396,-15.313547399009146,15.19973522740806,10.131649854706556,-4.291813548018292,0.0132118783346036,4.012875440644055,-3.550831864519817,2.593621975038109,-1.2169814691310974,2.1457206912157014,-4.533721179496951,6.679321107320097,-1.643325034340656,2.47984966422466,-20.09611441798942,15.701661772135914,-11.222173499577346,34.22670500494204,35.616467487345375,36.81453859286549,1577395726.0,-27.688888070547577,-51.12162005371577,5.845547
29571,1577395726.13,-1.0201926854575551,-0.3042095987459512,7.9674943588629,-0.4337008714629376,2.7486602961842603,10.582196152403297,-2.288681601622045,-14.475576817954458,12.116003489126811,16.57085883908156,1.3081620379192072,2.652982386147104,4.043393018769055,-2.452199052019817,2.471551662538109,-4.329774437881097,-6.155060558784299,-17.38162157012195,7.009164124965534,-0.9129583524114756,3.8969066152101774,-19.98053647741148,16.311435044840216,-15.302963863060016,34.370473537604454,35.52062179890376,36.71869290442388,1577395726.0,-27.688888070547577,-51.12162005371577,5.845547
29572,1577395726.14,-0.8729492833579459,-3.659683225454935,13.883566661108992,-1.1411874620391094,-4.284307080524724,11.503963791563452,-0.925183756163062,6.640084723793588,7.778907181753764,-13.916201707793444,-2.949040110518293,2.118924768959604,3.4635590343940548,-1.0789080363948171,4.4399354516006095,-2.5444961175685963,-10.2596748165968,-3.602935046684451,7.50392865143369,-1.825916704822951,4.074038734083371,-20.298375814000817,14.25345024946318,-25.67497270357847,34.17878216072124,35.83212028633899,36.69473148231347,1577395726.0,-27.688888070547577,-51.12162005371577,5.845547
29573,1577395726.15,-2.321441287752477,-2.606234494986185,11.42711575778868,-2.6842504320098124,-2.7795513371165206,10.428967246153295,2.777449111268578,14.35061117032679,13.50224625035728,-5.279727098418445,0.9877274676067074,1.935819300209604,2.5175141125190548,-12.004201005144816,2.868280178163109,8.273985327743903,-1.4248359494092988,16.88961866425305,7.50392865143369,-1.825916704822951,4.074038734083371,-9.694099765974768,12.652795408614375,-83.3161365877712,34.370473537604454,35.80815886422859,36.81453859286549,1577395726.0,-27.688888070547577,-51.12162005371577,5.845547
29574,1577395726.16,-3.961469424959508,-0.7315745950838413,12.1046748276129,-1.89416388415825,0.2275659480397285,15.68663409185642,4.5371873314834215,-6.490914281333365,5.723485056509623,-9.979434129668444,2.788264576981707,2.118924768959604,2.0597504406440548,-3.428761552019817,0.4879090844131097,12.790586890243905,18.9914238162157,18.53756788300305,6.514399598497378,0.0,3.7197744963369854,-9.809677706552709,11.433248863205758,-83.3161365877712,34.46631922604607,35.856081708449395,36.71869290442388,1577395726.0,-27.688888070547577,-51.12162005371577,5.845547
29575,1577395726.17,-0.2480626500571651,-0.9650092569490762,8.57442447971251,1.91022255383003,-1.0772739567454266,7.402696347715796,-0.3182536353134521,-15.4691705069193,7.028324961294779,1.9681977062690548,-17.368595774580793,0.8829628548971038,1.6935395031440548,0.7216290729801829,-0.5191709937118902,4.672911108993903,28.9096367068407,15.15011671112805,7.256546388199613,-1.3694375286172171,2.9226799614076384,-9.92525564713065,11.433248863205758,-15.983095590307128,34.34651211549405,35.66439033156618,36.57492437176146,1577395726.0,-27.688888070547577,-51.12162005371577,5.845547
29576,1577395726.18,1.4302727137123663,0.2715959005216264,6.880526805151963,-0.6072804918242662,1.649721734172541,7.060325510313453,-1.8565282019638425,-11.34635524813024,13.210153647818217,16.753964307831556,-11.432926829268292,2.240995081459604,1.4799164562690548,-10.295216630144816,2.120599514100609,3.330137671493903,31.1526786990282,-17.77835008574695,6.019635072029224,-0.1825916704822951,2.47984966422466,-20.760687576312577,8.765490795124416,-16.493194385742463,34.370473537604454,35.64042890945578,36.64680863809267,1577395726.0,-27.688888070547577,-51.12162005371577,5.845547
29577,1577395726.19,0.2355660852943978,-0.2934356912752476,9.655406529273057,1.0315505445526862,-0.5864626164133955,8.879918772032202,-2.2312207617782955,10.103297425209604,10.023471238150249,5.676083448456555,-8.472721751143293,1.935819300209604,4.928402784394055,-0.132863114519817,-2.7164366187118905,2.200987280868903,14.1391288943407,-21.19631883574695,6.019635072029224,-0.1825916704822951,2.47984966422466,-20.96294897232397,11.585692181381836,-14.282766272189347,34.17878216072124,35.76023602000779,36.86246143708629,1577395726.0,-27.688888070547577,-51.12162005371577,5.845547
29578,1577395726.2,1.4613973352943976,-2.0555681131502475,8.81743594821837,3.298859516720655,-5.906378705280583,4.397973264219703,4.862798757264672,9.62685129483851,6.697925132193217,3.2346771984565548,-15.369694407393292,0.9287392220846036,2.3954438000190548,-4.374806473894817,3.9974305687881095,10.684873999618905,10.5075370974657,6.208466320503049,7.8337716690791295,-1.4607333638583646,3.0112460208442324,-20.96294897232397,11.585692181381836,-14.282766272189347,34.27462784916285,35.47269895468296,36.71869290442388,1577395726.0,-27.688888070547577,-51.12162005371577,5.845547
29579,1577395726.21,1.0843105738197885,-2.2435129434725134,7.638291630591416,0.0116206373261238,-4.405214264362614,7.66845273199314,-1.9702527808212644,-2.140649864829458,9.46562225133384,0.4880951672065547,6.221492116044208,2.378324183022104,2.0292328625190548,-11.210743973894816,1.1287782250381098,2.200987280868903,8.6459648318407,21.19259717987805,6.926703370554176,-0.6390708466880347,2.7455478425344464,-20.674004120879125,13.872341954022987,-14.622832135812905,34.39443495971486,35.616467487345375,36.57492437176146,1577395726.0,-27.688888070547577,-51.12162005371577,5.845547
29580,1577395726.22,3.5275933680092417,1.925989247689596,5.819895469702744,0.5850319349335462,2.14891278031512,7.32368769293064,3.3173415856338124,-10.514370171225943,4.598210276236186,-0.0001860827934451,-3.010075266768293,0.3183876595846037,-3.189272996855945,2.995188643292683,1.876458889100609,-6.282899437881097,12.1554863162157,-0.0018608279344514,7.009164124965536,-0.1825916704822951,2.125585426478283,-21.020737942612943,16.00654840848806,-18.023490772048465,34.370473537604454,35.56854464312457,36.694731482313486,1577395726.0,-27.688888070547577,-51.12162005371577,5.845547
29581,1577395726.23,2.840457491544398,0.6762159810880327,8.582804185523056,2.096970283322217,-4.139457880085271,3.299034702207984,-0.2440333838486083,-4.592312364829458,8.129657724966654,7.537655714081555,-25.074284251143293,-0.0173056997903963,3.0363129406440548,-13.865773270769816,-0.0003721655868902,2.262022437118903,20.6698906130907,-10.72878953887195,7.009164124965536,-0.1825916704822951,2.125585426478283,-20.905160002035004,16.921208317544526,-12.582436954071568,34.370473537604454,35.66439033156618,36.81453859286549,1577395726.0,-27.688888070547577,-51.12162005371577,5.845547
29582,1577395726.24,-0.0924395421470083,-2.5846866800447788,11.97778213962462,-3.036198076052781,0.452620904094416,7.666058530332983,-3.023701511290015,3.820912268959603,6.693136728872904,-3.479189989043445,4.588801686356708,-0.4140342154153963,-4.379458543730945,-7.396046708269817,0.5794618187881098,3.238584937118903,8.2797538943407,-10.02688524199695,6.679321107320097,-1.643325034340656,4.251170852956559,-20.09611441798942,-3.81108295440192,-7.141383136094671,34.22670500494204,35.616467487345375,36.71869290442388,1577395726.0,-27.688888070547577,-51.12162005371577,5.845547
29583,1577395726.25,0.7682759546791634,-4.612575486197122,11.941869114722277,3.1587987196015144,-3.579214691608708,7.603809287168922,0.5292937523818598,8.207089710365853,10.9619982889315,-12.252993699980944,4.176814381669208,0.3794228158346037,0.8390473156440548,5.329783369855183,0.4573915062881094,5.222227515243903,-3.5763252072217986,5.7354438595655495,7.009164124965536,-0.5477750114468853,2.4798496642246635,-20.50063721001221,-4.420856227106227,-13.602634544942235,34.442357803935664,35.496660376793365,36.76661574864468,1577395726.0,-27.688888070547577,-51.12162005371577,5.845547
29584,1577395726.26,-1.0596970128501333,0.1877988424161576,15.353606480444933,-0.7712833055449688,3.1532803767506667,15.174274936582984,1.0392587059951406,-15.825906554282582,10.26528560582603,-10.009951707793444,4.497248951981708,0.8982216439596037,-1.9380522937309448,-7.975880692644817,2.257928615663109,-7.625672875381097,-1.1806953244092988,7.032440929878049,6.514399598497378,-2.191100045787545,4.074038734083371,-21.020737942612943,-4.420856227106227,-69.71350204282896,34.27462784916285,35.66439033156618,36.86246143708629,1577395726.0,-27.688888070547577,-51.12162005371577,5.845547
29585,1577395726.27,0.7934150721108041,1.7224821065763147,12.210019700659776,3.183937837033155,0.040818218547541,12.286867734434546,8.722251833436546,1.7858408578267908,6.954104709829935,-4.120059129668445,-3.925602610518293,0.3183876595846037,-2.670474168730945,13.447459151105184,-0.8548643530868902,-1.3695693597560974,-8.2607734494093,2.8820503048780486,6.514399598497378,-2.191100045787545,4.074038734083371,-20.44284823972324,-3.81108295440192,-69.71350204282896,34.27462784916285,35.616467487345375,36.67077006020308,1577395726.0,-27.688888070547577,-51.12162005371577,5.845547
29586,1577395726.28,0.8556643152748665,0.0082337179044389,8.123117466773056,3.5981347242401864,-1.1969840397532392,9.667611118223608,-3.658164951231421,-7.850820824302114,7.349147983755717,4.607968214081555,-4.749577219893292,1.5696083627096038,0.3812836437690549,0.1112775104801829,1.3118836937881098,-4.512879906631097,-0.9670722775342988,0.7153022580030487,7.009164124965536,-0.5477750114468853,3.542642377463798,-20.44284823972324,-2.591536408993305,-85.35653176951254,34.370473537604454,35.52062179890376,36.67077006020308,1577395726.0,-27.688888070547577,-51.12162005371577,5.845547
29587,1577395726.29,-2.4399542699302117,-1.5755306802889193,8.71448527683165,0.2522379041718274,-3.40563507124738,14.011890030577124,2.1106639489150627,1.9318871590963225,10.75011144200767,-8.423037645293444,2.910334889481708,0.6845985970846037,-1.892275926543445,-1.4451189738948167,-1.2668516577743902,3.009703101181404,-3.6831367306592986,-6.364775866996951,7.009164124965534,-1.0955500228937742,2.8341139019710444,-20.44284823972324,-2.4390930908172286,-87.39692695125387,34.27462784916285,35.616467487345375,36.694731482313486,1577395726.0,-27.688888070547577,-51.12162005371577,5.845547
29588,1577395726.3,1.6625102747475229,-4.722708762564309,6.708144285620713,0.4784899610565926,-0.6870190861399579,6.057155014707984,-0.7276621192001708,8.748179285561166,6.384284714712749,-12.481875535918444,-21.595280344893293,0.1047646127096036,2.6701020031440548,-0.4380388957698171,0.6404969750381098,2.780821265243903,-3.8967597775342986,8.74142530487805,5.689792054383787,-2.0085083753052464,4.605435090702943,-20.789582061457065,-0.7622165908803841,-69.71350204282896,34.370473537604454,35.47269895468296,36.71869290442388,1577395726.0,-27.688888070547577,-51.12162005371577,5.845547
29589,1577395726.31,-0.1020163487876334,-0.1018995584627476,11.003342063941025,0.3731450880097176,-1.120369586628239,11.005969846250952,-2.520919162657203,-8.16685544344274,11.462386435904154,9.856991651581556,-9.388249094893292,-1.7262900747903962,-3.830142137480945,-10.478322098894816,1.891717678163109,-4.055116234756097,-0.1736152462842987,9.19918897675305,5.689792054383787,-2.0085083753052464,4.605435090702943,-8.711687271062273,-0.6097732727043068,-63.93238236122851,34.41839638182526,35.80815886422859,36.71869290442388,1577395726.0,-27.688888070547577,-51.12162005371577,5.845547
29590,1577395726.32,1.6110349390541634,-1.4809597147127476,10.753147990454696,3.1432364088104987,-0.2345149723704266,10.531917917540015,2.478173903749047,-3.713640355552114,10.95481568395103,0.6406830578315552,-5.802433665205792,1.0660683236471038,-1.3277007312309452,3.773386885480183,-1.5567686499618902,-4.604432641006097,-3.0117500119092986,5.323456554878049,6.102095826440583,-1.3694375286172134,2.391283604788062,-8.711687271062273,-0.6097732727043068,-63.93238236122851,34.514242070266874,35.424776110462155,36.81453859286549,1577395726.0,-27.688888070547577,-51.12162005371577,5.845547
29591,1577395726.33,-0.8490072667563834,0.9108477437833452,8.683360655249619,-0.7042456590605939,-1.214940552204411,8.490861002256812,-2.951875461485327,-12.487192339194692,8.822779105581889,2.5938080578315548,5.382258717606708,1.6306435189596038,1.5714691906440548,-6.678883622332316,1.815423732850609,-6.633851586318597,1.4590751834032014,-7.4023735232469505,6.019635072029224,-0.5477750114468853,4.605435090702943,-15.415207824582826,-2.591536408993305,-69.03337031558186,34.562164914487674,35.59250606523497,36.64680863809267,1577395726.0,-27.688888070547577,-51.12162005371577,5.845547
29592,1577395726.34,-0.4611465978110708,-2.493707016958841,12.166924070776965,-0.0242923875762188,-4.359724432819646,6.892731394102515,4.240306325624047,20.738341199623665,9.061002170767434,-18.524356004668444,-3.193180735518293,-0.0173056997903963,0.6559418468940549,3.407175947980183,-2.5638487280868905,11.081602515243905,-0.5093086056592988,-3.5571586794969514,6.184556580851942,-1.0955500228937742,2.3027175453514714,-9.92525564713065,-4.420856227106227,-66.99297513384053,34.27462784916285,35.76023602000779,36.86246143708629,1577395726.0,-27.688888070547577,-51.12162005371577,5.845547
29593,1577395726.35,2.7949676600014293,-2.8336836527010285,8.012984190405868,4.196685139279249,-2.374931256550114,7.057931308653297,2.1980523095107656,7.012383081947885,12.053754245962748,1.1289643078315548,-3.742497141768293,0.2573525033346037,-2.151675340605945,-4.313771317644817,0.7015321312881098,10.349180640243905,4.312468738090701,10.23678663300305,6.184556580851942,-1.0955500228937742,2.3027175453514714,-9.809677706552709,-3.81108295440192,-24.824808044519585,34.08293647227963,35.52062179890376,36.86246143708629,1577395726.0,-27.688888070547577,-51.12162005371577,5.845547
29594,1577395726.36,-2.285528262850133,-0.8309339639803262,10.322191691626571,-2.5836939622832498,-1.4519665165598803,12.642406680967747,-2.4957800452255614,-13.323965819419302,13.407675284781106,1.403622510956555,1.0182450457317072,-0.6276572622903964,0.1829193859565547,-5.946461747332316,-1.4804747046493902,-9.334657250381095,-4.0951240353468,-1.6040336794969514,6.6793211073200975,-0.5477750114468871,2.47984966422466,-10.503145350020352,6.555062681571303,-14.622832135812905,34.32255069338365,35.64042890945578,36.62284721598228,1577395726.0,-27.688888070547577,-51.12162005371577,5.845547
29595,1577395726.37,0.994528011563929,-2.3596317239900912,7.601181504858994,-0.3858168382598126,-1.2712042912180828,7.05553710699314,0.572389382264672,7.869507276283822,12.187829538931496,-12.664981004668444,-11.951725657393292,0.3489052377096037,0.0761078625190548,6.794627119855183,0.9151551781631098,1.4075302496189026,-22.5124824337843,-4.838896960746951,7.50392865143369,-1.4607333638583646,2.6569817830978484,-10.618723290598291,15.701661772135914,-4.420856227106225,34.370473537604454,35.76023602000779,36.57492437176146,1577395726.0,-27.688888070547577,-51.12162005371577,5.845547
29596,1577395726.38,-0.4563581944907584,0.1949814473966264,12.530842723120712,2.7960771680878427,-1.8793315128977703,10.91259598150486,0.2898735863662344,4.62057562345179,17.35691092320884,6.164364698456555,-8.930485423018293,-3.008028356040396,-2.639956590605945,-6.633107255144817,0.2742860375381097,-8.419129906631097,-52.9385078244093,4.682587414253049,7.8337716690791295,-1.4607333638583646,3.0112460208442324,-20.789582061457065,16.311435044840216,-3.0605927726120044,34.370473537604454,35.66439033156618,37.0062299697487,1577395726.0,-27.688888070547577,-51.12162005371577,5.845547
29597,1577395726.39,0.0703661707436156,-1.5551799661775911,13.919479686011336,1.766570454220655,-3.859336285846989,10.479245481016576,0.2922677880263907,-2.6434322134622703,15.707305979361186,-12.726016160918444,-10.486881907393292,-1.909395543540396,-1.3277007312309452,-3.520314286394817,-2.8995420874618905,-15.438172875381095,-74.6975410275343,4.987763195503049,7.8337716690791295,-1.4607333638583646,3.0112460208442324,-20.558426180301183,17.53098159024883,-4.420856227106225,34.370473537604454,35.52062179890376,36.57492437176146,1577395726.0,-27.688888070547577,-51.12162005371577,5.845547
29598,1577395726.4,0.3121805384193978,-3.9996598611971215,10.9554580307379,-2.0210565721465312,-2.9136266300852705,10.96287421636814,-1.4363458106064215,-0.6299086172708649,3.311326883902201,-3.433413621855945,1.2623856707317072,-0.2004111685403963,0.4728363781440549,-4.298512528582317,-0.3971006812118902,-18.7340713128811,-48.6813056759718,16.01986768769055,6.926703370554177,-1.3694375286172171,2.391283604788062,-20.70289860602361,16.387656703928258,-2.890559840800223,34.41839638182526,35.83212028633899,36.81453859286549,1577395726.0,-27.688888070547577,-51.12162005371577,5.845547
29599,1577395726.41,-1.0166013829673208,-1.4450466898104035,10.428733665503524,-1.4105351488066875,-0.3374656437571454,7.22791962652439,3.6249964989638905,-4.211634300864614,-0.2811727071622504,0.3965424328315549,5.138118092606708,0.9592568002096036,-5.020327684355945,2.918894697980183,-1.8924620093368905,4.337217749618903,15.5734550662157,8.07003858612805,7.50392865143369,-1.4607333638583646,2.6569817830978484,-20.385059269434272,15.24433181760768,-1.3602634544942211,34.17878216072124,35.76023602000779,36.81453859286549,1577395726.0,-27.688888070547577,-51.12162005371577,5.845547
29600,1577395726.42,0.8676353235756478,0.9994332052091264,13.325717674292587,3.047468342404249,-0.916862445514958,5.1856656104111085,-2.456275717832984,-10.13967761141149,7.64124058629478,1.2815521984565548,-8.991520579268293,-1.0549033560403962,0.7474945812690549,0.6300763386051829,-2.3807432593368905,12.973692358993905,36.1423027224657,-2.0312797732469514,7.174085633788254,0.0,2.3027175453514714,-21.020737942612943,15.396775135783756,-23.46454459002536,34.370473537604454,35.52062179890376,36.71869290442388,1577395726.0,-27.688888070547577,-51.12162005371577,5.845547
29601,1577395726.43,1.9641796839272103,-0.9446585428377476,6.5118197494879,-1.910923295779344,-1.292752106159489,7.251861643125952,1.9227191185927968,-15.442834288657584,8.325982261099467,6.591610792206556,-8.793156321455792,-0.7802451529153963,-1.6939116687309452,-5.900685380144817,0.3353211937881097,0.1868271246189026,33.9145195193407,-22.66116258574695,6.679321107320097,-0.5477750114468853,1.062792713239138,-20.385059269434272,15.549218453959831,-21.764215271907577,34.32255069338365,35.424776110462155,36.86246143708629,1577395726.0,-27.688888070547577,-51.12162005371577,5.845547
29602,1577395726.44,1.0950844812904916,-2.0316260965486848,12.80617591403868,0.7346695386933119,-1.5573113896067554,8.359179910948217,-0.8952562354111091,16.064859558998666,9.023892045035014,-8.819766160918444,7.396418873856708,-2.428194371665396,2.2733734875190548,7.099802901105182,-0.8396055640243905,13.568785132431405,20.8529960818407,-9.24868699980945,6.679321107320097,-2.37369171626984,1.4170569509855149,-20.645109635734634,15.320553476695718,-55.26070283882784,34.41839638182526,35.64042890945578,36.83850001497589,1577395726.0,-27.688888070547577,-51.12162005371577,5.845547
29603,1577395726.45,0.2259892786537728,-2.939028525747904,10.7639218979254,-0.3235675950957501,-4.371695441120426,3.624646127989234,4.266642543885766,-5.569146642173208,7.729826047720561,-5.920596239043445,7.396418873856708,0.4099403939596037,-4.501528856230945,-4.618947098894817,1.0982606469131098,2.841856421493903,16.8551933474657,10.26730421112805,7.998693177901848,-0.9129583524114792,1.062792713239138,-10.849879171754177,12.043022135910068,-26.185071499013805,34.17878216072124,35.616467487345375,36.67077006020308,1577395726.0,-27.688888070547577,-51.12162005371577,5.845547
29604,1577395726.46,0.6665223841225228,-2.3356897073885285,14.324099766577744,-4.362585795779343,1.2738320735280098,11.357917490293922,-2.0732034522079834,-15.902521007407582,4.2103496072908735,-18.280215379668444,3.490168873856707,-1.4211142935403962,-1.2056304187309452,-2.848927567644817,0.3353211937881097,-4.604432641006097,27.4447929568407,5.994843273628049,6.844242616142818,-0.3651833409645902,2.3027175453514714,-10.849879171754177,7.7746092269799165,-25.504939771766697,34.27462784916285,35.616467487345375,36.67077006020308,1577395726.0,-27.688888070547577,-51.12162005371577,5.845547
29605,1577395726.47,1.3620379663979134,-1.0727483316561075,8.672586747778915,0.7825535718964364,-0.2464859806712079,5.056378720762671,1.6258381127334218,2.3125652230611657,6.731443955435404,-4.135317918730944,4.695613209794208,-0.0478232779153963,-1.0530425281059452,19.550974776105186,-2.0755674780868905,20.9998154058689,40.2011406130907,-0.4138481326219513,7.8337716690791295,-1.4607333638583646,2.6569817830978484,-20.09611441798942,7.7746092269799165,-22.784412862778247,34.250666427052444,35.80815886422859,36.57492437176146,1577395726.0,-27.688888070547577,-51.12162005371577,5.845547
29606,1577395726.48,0.2116240686928353,-0.5520094705721226,13.014471458472276,1.3978633985565931,-1.0389667301829266,9.216304105284156,-1.9906034949325928,-11.523526170981802,13.411266587271342,-0.1222563952934451,0.6520341082317074,-1.2074912466653962,-4.425234910918445,-1.3840838176448167,0.9761903344131098,4.962828101181404,38.4158622927782,-14.77236864043445,7.8337716690791295,-0.3651833409645902,0.8856605943659495,-20.731793091168093,16.311435044840216,-26.185071499013805,34.370473537604454,35.736274597897385,36.81453859286549,1577395726.0,-27.688888070547577,-51.12162005371577,5.845547
29607,1577395726.49,2.210782454923304,-1.3780090433260288,10.48380030368712,0.4234233228729988,3.332845501262385,8.571066757872046,1.0201050927138906,10.419332044350227,12.49189314977134,-17.517275926543444,6.572444264481708,-1.4516318716653962,-5.386538621855945,14.088328291730184,-1.1600401343368902,4.306700171493903,9.0121757693407,-12.86502000762195,7.009164124965536,-0.9129583524114792,1.062792713239138,-20.09611441798942,16.311435044840216,-26.185071499013805,34.41839638182526,35.76023602000779,36.86246143708629,1577395726.0,-27.688888070547577,-51.12162005371577,5.845547
29608,1577395726.5,1.186064144376429,-0.0468329202791538,7.816659654273057,3.444905817990186,-6.078761224811833,6.820905344297827,0.7998385399795157,5.760215613686166,16.250789756216655,0.4575775890815549,17.619807545731707,-0.5055869497903963,-5.478091356230945,8.900340010480184,2.257928615663109,-2.559754906631097,-5.819367199409299,4.133271008003049,7.998693177901848,-1.643325034340656,0.7085284754927537,-20.09611441798942,16.311435044840216,-26.185071499013805,34.61008775870848,35.80815886422859,36.910384281307095,1577395726.0,-27.688888070547577,-51.12162005371577,5.845547
29609,1577395726.51,-0.9351985265220084,-3.089863230337748,11.112278239478137,1.2159040723847176,-1.2089550480540203,16.500662656309547,-0.864131613829077,1.6206409432760094,16.75117790318931,-9.308047410918444,6.236750905106708,-0.3529990591653963,-7.614321824980945,-0.071827958269817,-0.8853819312118902,-9.945008812881095,-32.0644843869093,10.05368116425305,8.328536195547285,-2.0085083753052464,1.7713211887318916,-20.09611441798942,16.311435044840216,-26.185071499013805,34.370473537604454,35.52062179890376,36.81453859286549,1577395726.0,-27.688888070547577,-51.12162005371577,5.845547
29610,1577395726.52,1.0472004480873665,-4.902273887076029,6.880526805151963,1.1189389051483896,-4.1993129215891765,12.236589499571265,0.6956907677627193,-5.735543657554068,12.22493966466392,-2.472109910918445,7.060725514481708,1.0508095345846038,-6.759829637480945,6.703074385480184,0.3505799828506093,-16.4605117425686,-29.9129951290968,12.81552198456555,7.339007142610972,-1.2781416933760694,1.4170569509855149,-20.731793091168093,17.378538272072756,-25.16487390814314,34.46631922604607,35.856081708449395,36.76661574864468,1577395726.0,-27.688888070547577,-51.12162005371577,5.845547
29611,1577395726.53,-2.6614179234946644,3.18773352259194,12.111857432593368,-1.4967264085723126,3.900271294719417,17.798319956114234,4.726329262635765,-4.314584972251333,13.152692807974466,-0.6105376452934451,-0.3245283917682927,-0.1698935904153963,-3.647036668730945,-8.281056473894816,-0.6717588843368902,-7.442567406631097,-31.9424140744093,-0.1086723513719513,7.174085633788254,-3.6518334096459095,2.3027175453514714,-21.020737942612943,16.311435044840216,-15.302963863060016,34.41839638182526,35.76023602000779,36.71869290442388,1577395726.0,-27.688888070547577,-51.12162005371577,5.845547
29612,1577395726.54,-3.2120843053306016,3.601930409798971,11.024889878882432,-0.1224546556426251,0.7782323298756659,16.033793332579076,0.4742271141982657,0.7611225472799159,6.678771518911967,13.702206495331556,-0.1414229230182926,-1.3905967154153962,-3.494448778105945,4.749949385480183,-3.1131651343368905,-8.968446312881097,-21.1391914181593,-4.503203601371951,6.844242616142818,-1.825916704822951,1.9484533076050947,-21.020737942612943,20.274961317418214,-24.824808044519585,34.370473537604454,35.66439033156618,36.67077006020308,1577395726.0,-27.688888070547577,-51.12162005371577,5.845547
29613,1577395726.55,-0.5233958409751334,-5.037546280874857,8.543299858130478,-0.2732893602324693,-2.262403778522771,7.458960086729468,-1.1131285864853275,1.02687893155726,3.5770832681795453,-12.359805223418444,-4.596989329268292,-0.1546348013528961,-2.960391160918445,-2.574269364519817,0.0759217797256097,3.589537085556403,17.4655449099657,-0.7800590701219514,7.339007142610972,-1.643325034340656,1.4170569509855149,-20.78958206145706,16.463878363016292,-86.03666349675964,34.370473537604454,35.64042890945578,36.694731482313486,1577395726.0,-27.688888070547577,-51.12162005371577,5.845547
29614,1577395726.56,2.186840438321741,0.5684769063810013,10.845324754370711,2.21668036633003,-6.167346686237615,5.6932363623642335,0.8692703881240469,-8.085452586997427,7.657999997915873,2.5632904797065548,-8.198063548018293,-1.0549033560403962,2.1207855968940548,0.4469708698551829,-1.5262510718368902,10.532286108993905,41.6354667849657,4.133271008003049,7.174085633788254,-0.3651833409645902,1.5941890698587031,-20.50063721001221,-4.26841290893015,-91.137651451113,34.370473537604454,35.616467487345375,36.67077006020308,1577395726.0,-27.688888070547577,-51.12162005371577,5.845547
29615,1577395726.57,2.9314371546303355,-4.612575486197122,4.802359764136337,0.8304376050995613,-0.2919758122141767,1.850542697813452,-1.687736984922827,-9.493243163169302,7.708278232779154,1.0374115734565548,-4.444401438643292,-0.8412803091653963,-3.036685106230945,0.1723126667301829,0.3963563500381097,9.494688452743905,44.8398124880907,-0.7495414919969513,7.339007142610972,-3.1040583981990206,2.8341139019710444,-20.96294897232397,17.988311544777062,-101.33962735981966,34.370473537604454,35.52062179890376,36.81453859286549,1577395726.0,-27.688888070547577,-51.12162005371577,5.845547
29616,1577395726.58,2.087481069425257,1.0975954732755335,10.57956837009337,-1.345891703982469,1.0439887141530098,10.187152878477514,-2.61189882574314,-5.212410594809927,12.664275669302592,10.772518995331556,-1.4079024152057928,-0.1393760122903963,-2.182192918730945,-3.856007645769817,1.5560243187881098,5.985166968368903,33.2126152224657,-11.03396532012195,8.246075441135925,-2.2823958810286924,0.4428302971829673,-20.731793091168093,19.20785809018568,-91.137651451113,34.15482073861084,35.856081708449395,36.71869290442388,1577395726.0,-27.688888070547577,-51.12162005371577,5.845547
29617,1577395726.59,-0.8681608800376334,-2.7067909647127477,9.332189305151964,0.4976435743378426,-3.7899044377024578,7.236299332334937,-0.8533577063583745,1.8157683785787448,15.290714890493998,-11.993594285918444,2.147395436356707,-1.5431846060403962,1.8919037609565548,-1.0331316692073171,-0.1224424780868902,-0.2861953363185974,3.778411120903201,-8.62307664824695,7.998693177901848,-2.37369171626984,-0.7085284754927684,-21.020737942612943,7.164835954275612,-86.03666349675964,34.41839638182526,35.71231317578698,36.93434570341749,1577395726.0,-27.688888070547577,-51.12162005371577,5.845547
29618,1577395726.6,-1.172224490877477,-4.116975742544779,12.190866087378526,-3.910081682009812,0.0910964534108223,17.42961290045017,0.0073577904677969,7.515165430580697,13.274797092642435,-17.090029832793444,6.236750905106708,-1.5126670279153962,-1.7244292468559452,-2.726857255144817,-0.5802061499618902,-16.9640517816311,-18.3620918087843,3.3092963986280486,8.493457704370002,-0.3651833409645902,1.5941890698587031,-20.44284823972324,-4.115969590754073,-80.59560967878276,34.370473537604454,35.80815886422859,36.57492437176146,1577395726.0,-27.688888070547577,-51.12162005371577,5.845547
29619,1577395726.61,0.6832817957436166,-2.955787937368997,11.520489622534775,2.1520369215058115,-2.3892964665110514,9.849570444395484,-0.289523215391577,4.74267990811976,15.597172702993998,-5.737490770293445,11.180598561356708,0.8371864877096037,0.0761078625190548,7.710154463605183,-0.0003721655868902,1.0413193121189026,-28.2497871212843,14.57028272675305,8.493457704370002,-1.825916704822951,1.5941890698587031,-20.96294897232397,-4.26841290893015,-84.33633417864186,34.41839638182526,35.80815886422859,36.71869290442388,1577395726.0,-27.688888070547577,-51.12162005371577,5.845547
29620,1577395726.62,-0.6981725621665397,-1.1828816080232945,11.28705496066954,-1.0657701097441876,-2.429997894733708,8.087438022520484,-6.210383920957984,-13.094122460044302,10.92129686070884,-3.402896043730945,6.999690358231708,-0.6276572622903963,-1.9380522937309448,3.407175947980183,1.952752834413109,-22.5487685785061,-38.4426582150343,4.865692883003049,8.163614686724566,-1.8259167048229543,1.594189069858711,-20.96294897232397,-4.26841290893015,-84.33633417864186,34.370473537604454,35.616467487345375,36.71869290442388,1577395726.0,-27.688888070547577,-51.12162005371577,5.845547
29621,1577395726.63,1.7965855677162728,-1.8544551736971224,9.770328208960557,-1.699036448855516,-1.2125463505442546,8.277777054502906,2.2411479393935787,-1.854542766440786,4.759818888296733,-2.258486864043445,-6.855290110518292,-0.4750693716653963,-0.976748582793445,0.9810284870426828,0.5031678734756098,-9.227845726943595,-21.1086738400343,0.8526313595655487,7.998693177901848,-1.2781416933760694,0.3542642377463768,-16.484303774928776,9.070377431476572,-49.13951729360383,34.46631922604607,35.808158864228595,36.862461437086296,1577395726.0,-27.688888070547577,-51.12162005371577,5.845547
29622,1577395726.64,-1.8569661656821643,0.7959260640958452,7.333030918921493,-4.063310588259812,-2.896867218464177,8.398684238340795,-0.5433085913681396,-3.1390319571146144,5.472093882193217,14.495663526581556,6.694514576981708,-0.5361045279153963,0.4423188000190549,-1.4451189738948171,1.1898133812881098,-4.757020531631097,9.5004570193407,-3.5571586794969514,7.998693177901848,-1.2781416933760694,0.3542642377463768,-12.00565857753358,-3.2013096816976128,-15.302963863060016,34.08293647227963,35.66439033156618,36.81453859286549,1577395726.0,-27.688888070547577,-51.12162005371577,5.845547
29623,1577395726.65,-1.9335806188071645,-0.9326875345369664,10.641817613257432,-2.8015663133574686,0.912307622844416,13.902953855040014,-0.739633127500952,-0.3449986197122706,14.481474729361183,-0.2748442859184451,1.811702076981708,-0.4445517935403963,-0.3816558093559451,3.498728682355183,-2.8079893530868905,5.374815405868903,4.800749988090701,-8.92825242949695,6.844242616142818,-1.4607333638583646,1.2399248321123264,-9.867466676841678,15.24433181760768,-9.521844181459564,34.370473537604454,35.66439033156618,36.910384281307095,1577395726.0,-27.688888070547577,-51.12162005371577,5.845547
29624,1577395726.66,0.094308187345179,-3.945790323843607,8.526540446509385,1.0219737379120617,-5.686112152546208,9.855555948545874,1.1434064782119373,3.379182062660776,15.337401822867044,-2.914614793730945,-3.1474043683307924,-0.7497275747903962,1.5562104015815548,2.3695782917301838,0.0454042016006097,2.139952124618903,-9.6188056759718,3.263520031440549,8.163614686724564,-0.5477750114468871,1.594189069858711,-20.991843457468452,15.168110158519642,-9.351811249647788,34.41839638182526,35.59250606523497,36.86246143708629,1577395726.0,-27.688888070547577,-51.12162005371577,5.845547
29625,1577395726.67,-2.6374759068931017,-1.6509480325838413,12.84448314060118,-3.289983452029344,-1.6901895817454269,19.151043894102514,0.2156533349013907,-11.580987010825552,15.00819909459556,-2.319522020293445,9.410579030106708,0.4099403939596037,0.6559418468940549,-15.483204911394816,2.166375881288109,-22.3046279535061,-34.1396796994093,5.750702648628049,8.65837921319272,-0.1825916704822951,2.8341139019710444,-20.09611441798942,16.311435044840216,-15.302963863060016,34.370473537604454,35.616467487345375,36.81453859286549,1577395726.0,-27.688888070547577,-51.12162005371577,5.845547
29626,1577395726.68,-1.3230591954673208,-2.3309013040682163,12.377613816870712,-1.1232309495879376,-0.2488801823313642,14.063365366270483,-0.481059348204077,1.309394727455697,13.94277935582603,-10.772891160918444,-2.979557688643293,0.0132118783346036,3.707699659394055,7.313425947980183,-1.9229795874618905,-6.588075219131097,-38.1374824337843,-2.1838676638719514,8.65837921319272,-0.1825916704822951,2.8341139019710444,-21.020737942612943,15.701661772135914,-16.663227317554238,34.370473537604454,35.80815886422859,36.71869290442388,1577395726.0,-27.688888070547577,-51.12162005371577,5.845547
29627,1577395726.69,-1.0573028111899772,0.6139667379239702,13.792586998023056,0.8136781934784676,-2.2983168034251142,9.667611118223608,4.580282961366234,9.037877686440073,6.76017437535728,9.155087354706556,-3.620426829268293,-0.9023154654153964,2.3649262218940548,4.719431807355183,0.3658387719131097,-4.177186547256097,-35.2688300900343,3.7060249142530486,7.668850160256408,-1.643325034340656,1.062792713239138,-20.905160002035004,17.53098159024883,-23.46454459002536,34.370473537604454,35.80815886422859,36.52700152754066,1577395726.0,-27.688888070547577,-51.12162005371577,5.845547
29628,1577395726.7,0.439073226407679,-1.206823624624857,9.198114012183211,-0.8622629686309063,-0.8462334965403485,9.399460532286108,-2.1222845862411868,-8.77977106844274,5.290134556021342,1.1594818859565543,-6.138127024580792,-0.0173056997903963,-0.3816558093559451,-5.091969559832316,-0.4581358374618902,-5.596253930068597,-6.3839423947218,3.995941906440549,8.163614686724564,-1.4607333638583646,1.23992483211233,-20.298375814000813,15.625440113047873,-19.893853021978018,34.41839638182526,35.616467487345375,36.81453859286549,1577395726.0,-27.688888070547577,-51.12162005371577,5.845547
29629,1577395726.71,-0.1786308019126334,-3.693202048697122,7.433587388648056,1.0530983594940926,-4.472251910846989,7.115392148497047,2.0184871849990467,-2.480626500571645,4.418645151724467,-4.120059129668445,-1.2095381573932926,-1.0854209341653962,5.080990675019055,3.407175947980183,-1.4957334937118902,-2.437684594131097,9.3173515505907,-7.768584460746951,8.163614686724566,-1.0955500228937742,1.5941890698587031,-21.020737942612943,13.26256868131868,-26.185071499013805,34.27462784916285,35.66439033156618,36.52700152754066,1577395726.0,-27.688888070547577,-51.12162005371577,5.845547
29630,1577395726.72,-0.3893205480063834,-4.85678405553306,5.235710264624619,0.1863973585175301,-2.441968903034489,10.141663046934546,-1.1753778296493895,12.705794629799447,10.62202165318931,3.6008881359565548,-1.8504072980182928,0.7761513314596037,1.6630219250190548,-6.816212723894817,0.2132508812881097,11.722471655868905,7.028533191215701,-0.6579887576219513,8.163614686724566,-1.0955500228937742,1.5941890698587031,-21.020737942612943,13.26256868131868,-26.185071499013805,34.27462784916285,35.616467487345375,36.81453859286549,1577395726.0,-27.688888070547577,-51.12162005371577,5.845547
29631,1577395726.73,-0.4419929845298214,1.460317024789205,11.47978819431212,-1.3027960740996565,2.018428789836604,10.393054221250951,-2.250374375059545,-1.1231141592630518,8.905379062857278,9.307675245331556,-8.335392649580792,-0.9633506216653962,-1.4192534656059452,-4.649464677019817,-0.5496885718368902,10.562803687118905,7.608367175590701,4.865692883003049,8.246075441135925,-1.1868458581349215,0.7970945349293517,-21.020737942612943,13.26256868131868,-26.185071499013805,34.39443495971486,35.66439033156618,36.67077006020308,1577395726.0,-27.688888070547577,-51.12162005371577,5.845547
29632,1577395726.74,0.2882385218178353,-1.0045135843416535,10.596327781714464,-0.9544397325469224,-1.6267432377512865,12.43770243902439,0.9650384545302974,-4.656955809653677,14.40246607457603,0.8543061047065549,-9.083073313643292,-0.8412803091653963,4.714779737519055,0.9962872761051828,-0.0766661108993902,-2.437684594131097,0.0400078005907005,-5.647612781059451,7.50392865143369,-1.0955500228937742,0.5313963566195653,-15.415207824582826,10.975918908677528,-22.784412862778247,34.370473537604454,35.64042890945578,36.83850001497589,1577395726.0,-27.688888070547577,-51.12162005371577,5.845547
29633,1577395726.75,-0.6502885289634146,-5.685177829947122,10.174948289526965,3.528702876095655,-5.990175763386052,11.772114377500952,0.7351950951552969,3.679654371010384,11.98192819615806,-9.735293504668444,2.299983326981707,-0.4445517935403963,4.562191846894055,2.186472822980183,-1.5262510718368902,10.013487280868905,-10.2138984494093,2.3632514767530486,7.50392865143369,-2.191100045787545,2.3027175453514714,-20.905160002035004,10.823475590501452,-26.185071499013805,34.370473537604454,35.80815886422859,36.67077006020308,1577395726.0,-27.688888070547577,-51.12162005371577,5.845547
29634,1577395726.76,-1.1554650792563834,-6.118528330435404,10.17015988620665,1.0243679395722176,-4.182553509968083,10.290103549864234,-0.8521606055282958,-3.031292882407583,14.201353135122904,-4.730410692168445,4.558284108231708,1.0813271127096038,2.3954438000190548,-3.550831864519817,-0.7633116187118902,-0.9423232660060974,-10.5190742306593,3.0956733517530486,7.50392865143369,-2.191100045787545,2.3027175453514714,-20.789582061457065,10.823475590501452,-26.185071499013805,34.17878216072124,35.616467487345375,36.67077006020308,1577395726.0,-27.688888070547577,-51.12162005371577,5.845547
29635,1577395726.77,-1.0884274327720085,0.6403029561856889,7.117552769507431,-4.139925041384812,-1.0078421086008953,11.66437530279392,-4.8863904028915774,-4.340921190513051,8.704266123404155,4.119686964081555,-1.7283369855182926,-0.3224814810403963,1.9376801281440548,-16.856495927019818,2.532586818788109,-0.2404189691310974,-13.1130683712843,6.727265148628049,8.65837921319272,-2.0085083753052464,2.125585426478283,-20.789582061457065,12.043022135910068,-19.38375422654269,34.46631922604607,35.616467487345375,36.57492437176146,1577395726.0,-27.688888070547577,-51.12162005371577,5.845547
29636,1577395726.78,-0.0110366857016959,0.1279438009122513,8.67617805026915,-1.2513207384062972,-1.8051112614329268,10.34995859136814,1.834133657167016,-2.635052507651724,9.180712253775248,10.711483839081556,-2.170841868330793,0.4099403939596037,3.0515717297065548,-0.6364031535823171,-0.8396055640243902,-2.422425805068597,-12.3501289181593,-1.0547172732469514,8.328536195547283,-0.365183340964592,0.8856605943659459,-20.298375814000813,15.777883431223948,-25.33490683995492,34.39443495971486,35.52062179890376,36.62284721598228,1577395726.0,-27.688888070547577,-51.12162005371577,5.845547
29637,1577395726.79,-0.6095871007407584,-1.8903681985994665,6.547732774390244,-1.6331959032012189,0.481351324016291,10.424178842832983,-3.45465781011814,1.3884033822408532,5.838406736197124,3.6619232922065534,-1.4536787823932926,0.0742470345846036,0.0761078625190548,-6.785695145769817,1.0982606469131098,-2.956483422256097,-6.246613293159299,0.8678901486280487,7.668850160256408,-2.7388750572344303,1.062792713239138,-21.020737942612943,15.701661772135914,-83.3161365877712,34.41839638182526,35.66439033156618,36.71869290442388,1577395726.0,-27.688888070547577,-51.12162005371577,5.845547
29638,1577395726.8,0.4534384363686166,-3.288581968130716,10.234803331030868,1.3691329786347175,-3.301487299030583,6.138557871153297,-4.520077548887671,-6.471760668052115,10.978757700552592,-7.080264207793445,-6.061833079268292,-0.6581748404153963,4.836850050019055,3.224070479230183,0.5794618187881098,-6.282899437881097,-8.5659492306593,-0.1697075076219513,7.339007142610972,-1.643325034340656,1.062792713239138,-20.905160002035004,17.53098159024883,-20.74401768103691,34.22670500494204,35.616467487345375,36.57492437176146,1577395726.0,-27.688888070547577,-51.12162005371577,5.845547
29639,1577395726.81,0.4271022181068978,-4.1768307840486845,11.915532896460556,0.9022636549042488,-2.7005426823313643,7.120180551817358,-0.184178342344702,3.3923501717916342,12.331481638540874,-5.615420457793445,-3.071110423018293,0.4404579720846037,1.6630219250190548,-3.398243973894817,1.0982606469131098,6.473448218368903,-18.7588203244093,-0.0476371951219513,7.339007142610972,-1.643325034340656,1.062792713239138,-19.922747507122512,17.68342490842491,-20.40395181741336,34.562164914487674,35.66439033156618,36.57492437176146,1577395726.0,-27.688888070547577,-51.12162005371577,5.845547
29640,1577395726.82,-1.181801297518102,-0.6238355203768106,11.10748983615782,-0.322370494265672,-1.025798621052067,13.173919449522437,0.5316879540420159,-5.308178661216177,7.458084159292826,5.172543409394056,0.0111649676067075,1.2339150033346038,3.4330414562690548,-7.533375809832316,0.4726502953506097,-0.9575820550685972,0.5588066287157014,3.0956733517530486,8.988222230838158,-2.556283386752133,0.531396356619569,-20.471742724867728,6.936170977011495,-19.21372129473091,34.41839638182526,35.66439033156618,36.76661574864468,1577395726.0,-27.688888070547577,-51.12162005371577,5.845547
29641,1577395726.83,-1.957522635408727,0.0058395162442826,8.570833177222275,-1.415323552127,-0.5768858097727705,11.39622471685642,6.196369081971703,6.887884595619759,5.112963633169779,9.033017042206556,-0.0193526105182926,1.4780556283346038,1.4799164562690548,-1.1094256145198171,-1.5872862280868902,-0.7592177972560974,11.1789238162157,-1.6345512576219514,8.65837921319272,-2.7388750572344303,1.4170569509855149,-21.020737942612943,18.14075486295314,-23.46454459002536,34.27462784916285,35.856081708449395,37.0062299697487,1577395726.0,-27.688888070547577,-51.12162005371577,5.845547
29642,1577395726.84,1.5380117884193978,-3.978112046255716,8.103963853491805,3.535885481076124,-1.5465374821360516,6.804145932676734,0.6442154320693594,-2.052064403403677,7.265350925650249,-3.235049364043445,-14.942448313643292,-0.1393760122903963,4.012875440644055,-3.856007645769817,0.0911805687881097,12.576963843368905,19.6017753787157,1.7528999142530486,8.328536195547285,-0.9129583524114792,1.4170569509855149,-19.80716956654457,18.293198181129217,-25.84500563539025,34.27462784916285,35.616467487345375,36.910384281307095,1577395726.0,-27.688888070547577,-51.12162005371577,5.845547
29643,1577395726.85,1.952208675626429,-3.446599277701029,9.001789476050401,4.067398249630811,-0.8043349674876141,6.2175665259384525,-1.773928244688452,-7.467748558677115,12.001081809439311,3.8755463390815534,-9.998600657393292,0.1963173470846037,0.9916352062690548,-3.062550614519817,1.983270412538109,12.973692358993905,20.9140312380907,-8.16531297637195,8.328536195547285,-0.9129583524114792,1.4170569509855149,-19.80716956654457,18.293198181129217,-25.84500563539025,34.46631922604607,35.76023602000779,36.71869290442388,1577395726.0,-27.688888070547577,-51.12162005371577,5.845547
29644,1577395726.86,1.800176870206507,-1.9143102152010287,10.6873074448004,1.7210806226776865,-2.0529111332590984,8.256229239561499,0.9494761437392812,0.3158010384908538,7.696307224478373,7.522396925019056,-3.0863692120807924,0.4862343392721038,2.9600189953315548,-3.474537919207317,1.5712831078506098,11.493589819931405,5.4568779177782005,2.0122993283155486,8.575918458781361,-1.7346208695818035,1.1513587726757355,-20.52953169515669,-4.039747931666035,-102.1897920188786,34.27462784916285,35.80815886422859,36.694731482313486,1577395726.0,-27.688888070547577,-51.12162005371577,5.845547
29645,1577395726.87,0.6234267542397103,-0.83452526647056,10.816594334448835,0.0164090406464363,2.02082299149676,12.588537143614234,-7.014835678770484,-2.923553807700552,14.62512682897056,-0.4579497546684451,2.299983326981707,1.966336878334604,1.2968109875190548,-1.5671892863948171,0.6404969750381098,-2.132508812881097,-15.4324043087843,-4.198027820121951,8.328536195547285,-0.9129583524114792,1.4170569509855149,-20.84737103174604,-2.7439797271693824,-88.41712454212454,34.27462784916285,35.76023602000779,36.71869290442388,1577395726.0,-27.688888070547577,-51.12162005371577,5.845547
29646,1577395726.88,-0.5928276891196647,-3.379561631216653,9.46865879978087,5.963605964474562,-4.022141998737614,9.629303891661108,4.089471621034203,12.612420765053352,11.172688035025248,-3.631777879668445,-0.0803877667682926,-0.1088584341653963,6.698422315644055,8.961375166730184,-2.1976377905868905,12.790586890243905,-16.5920722775343,3.4313667111280486,7.8337716690791295,-2.921466727716725,1.9484533076050947,-20.84737103174604,-2.4390930908172286,-88.41712454212454,34.562164914487674,35.616467487345375,36.71869290442388,1577395726.0,-27.688888070547577,-51.12162005371577,5.845547
29647,1577395726.89,0.0260734400307259,-0.8464962747713413,8.060868223608994,1.3260373487519053,-3.971863763874333,8.324463986875953,-1.3836733740829832,-11.255375585044302,7.277321933951029,9.567074659394056,5.733210866044208,2.317289026772104,5.813412550019055,-9.990040848894816,1.0372254906631098,-7.137391625381097,-5.788849621284299,3.5229194455030486,7.8337716690791295,-2.921466727716725,1.9484533076050947,-20.84737103174604,-3.353752999873689,-80.2555438151592,34.370473537604454,35.616467487345375,36.67077006020308,1577395726.0,-27.688888070547577,-51.12162005371577,5.845547
29648,1577395726.9,-0.5664914708579459,0.1231553975919388,7.953129148901962,-2.910502488894578,-0.5900539189036305,12.689093613340797,0.2767054772353755,-0.3270421072610986,10.127619010367043,5.462460401581555,-9.937565501143292,1.3254677377096038,4.287533643769055,-2.3606463176448167,0.7015321312881097,1.0413193121189028,-7.787750988471799,-0.0934135623094513,7.339007142610972,0.1825916704822951,1.7713211887318916,-20.645109635734634,9.222820749652648,-85.86663056494787,34.562164914487674,35.784197442118185,36.790577170755085,1577395726.0,-27.688888070547577,-51.12162005371577,5.845547
29649,1577395726.91,-1.2153201207602895,-2.1800665994783723,7.6323061264410255,0.1433017286347176,-4.520135944050114,3.7060489844345454,1.3744469384170157,-5.300996056235708,11.108044590201027,12.389950635956556,-0.2634932355182927,1.3865028939596038,6.362728956269055,-0.5295916301448171,2.013787990663109,1.4380478277439026,-8.4743964962843,2.1801460080030486,7.668850160256408,-0.1825916704822951,0.3542642377463768,-9.694099765974768,16.921208317544526,-80.59560967878276,34.370473537604454,35.616467487345375,36.81453859286549,1577395726.0,-27.688888070547577,-51.12162005371577,5.845547
29650,1577395726.92,1.5188581751381478,-3.2023907083650918,8.678572251929307,-3.1966095872832496,0.328122417766291,13.936472678282202,2.0903132348037343,3.8975267220846033,9.02508914586509,-0.6105376452934451,-1.6673018292682926,1.6306435189596038,1.9071625500190548,-14.964406083269816,2.990350490663109,0.6445907964939026,-2.5845039181592986,0.2575385861280487,8.328536195547285,-0.9129583524114792,0.7085284754927537,-9.92525564713065,15.701661772135914,-13.942700408565791,34.46631922604607,35.616467487345375,36.86246143708629,1577395726.0,-27.688888070547577,-51.12162005371577,5.845547
29651,1577395726.93,-0.6873986546958365,-0.2335806497713413,8.336201414526963,-0.5725645677520002,0.7782323298756659,11.171169760801734,2.75111289300686,4.093851258217415,9.28126872350181,8.636288526581556,-6.244938548018292,1.6916786752096038,7.156185987519055,1.7897443073551829,-1.6178038062118902,13.950254858993905,6.662322253715701,6.055878429878049,8.328536195547285,-0.9129583524114792,0.7085284754927537,-9.75188873626374,15.24433181760768,-9.521844181459564,34.32255069338365,35.616467487345375,36.81453859286549,1577395726.0,-27.688888070547577,-51.12162005371577,5.845547
29652,1577395726.94,1.0735366663490853,-2.242315842642435,11.723996763648056,0.7011507154511244,-2.6730093632395677,8.025188779356421,-1.372899466612281,-11.206294451011098,10.484355057730326,-4.028506395293445,-15.217106516768292,0.7761513314596037,9.033017042206556,-4.893605302019816,2.273187404725609,-1.6289687738185972,-2.0962226681592986,-5.540801257621951,8.823300722015436,0.0,2.3027175453514714,-10.185306013431015,5.411737795250727,-13.772667476754012,34.46631922604607,35.64042890945578,36.742654326534286,1577395726.0,-27.688888070547577,-51.12162005371577,5.845547
29653,1577395726.95,1.2938032190834603,-1.7778407205721225,12.530842723120712,3.36589716320503,-3.5456958683665203,10.249402121641577,-0.5576738013290771,12.578901941811166,9.906155356802593,9.948544385956556,4.008967701981708,0.7151161752096037,3.799252393769055,-0.5906267863948171,0.1216981469131097,12.119200171493905,-9.2678535275343,-2.2449028201219514,8.823300722015436,-1.0955500228937742,1.9484533076050947,-10.445356379731384,-4.26841290893015,-13.602634544942235,34.46631922604607,35.616467487345375,36.81453859286549,1577395726.0,-27.688888070547577,-51.12162005371577,5.845547
29654,1577395726.96,0.4701978479897103,-8.72581393834556,10.6873074448004,2.6787612867401864,-6.856876764362614,8.63810440435642,-0.9335634619736084,6.377919642006479,10.85186501256431,-12.878604051543444,0.5299637957317074,0.1657997689596037,5.874447706269055,7.893259932355183,0.7625672875381098,17.0935654058689,-0.1736152462842987,14.02096632050305,9.153143739660877,-2.556283386752136,0.5313963566195653,-10.445356379731384,-4.26841290893015,-13.602634544942235,34.22670500494204,35.616467487345375,36.81453859286549,1577395726.0,-27.688888070547577,-51.12162005371577,5.845547
29655,1577395726.97,1.3632350672279916,0.0441467428067836,10.784272612036728,-0.0422489000273912,2.6708487422291824,11.069416190245091,1.215232528016625,-10.613729540122426,9.496746872915873,8.437924268769056,1.5065262957317072,3.248075159584604,0.9306000500190548,2.7663068073551838,2.807245021913109,2.902891577743903,3.2596122927782014,4.6673286251905495,8.328536195547285,-2.0085083753052464,2.125585426478283,-19.63380265567766,15.70166177213591,-20.403951817413358,34.514242070266874,35.83212028633899,36.93434570341749,1577395726.0,-27.688888070547577,-51.12162005371577,5.845547
29656,1577395726.98,1.8875652308022104,2.404829579720846,9.325006700171494,2.4465237257050303,-2.3892964665110514,5.75309140386814,1.4869744164443592,-3.7447649771341456,7.454492856802592,22.27764594845656,-9.784977610518292,-0.2919639029153963,5.935482862519055,3.346140791730183,3.020868068788109,-2.712342797256097,-2.4013984494092986,-12.16311571074695,8.328536195547285,-2.0085083753052464,1.7713211887318916,-19.05591295278796,16.921208317544526,-20.74401768103691,34.41839638182526,35.66439033156618,36.86246143708629,1577395726.0,-27.688888070547577,-51.12162005371577,5.845547
29657,1577395726.99,0.8389049036537728,-3.1018342386385287,6.533367564429306,1.4553242384003426,-0.9455928654368329,9.344393894102511,-0.0477088477157958,8.329193995033823,3.5591267557283737,14.892392042206556,1.1708329363567074,1.1118446908346038,0.4423188000190549,-1.5366717082698171,1.1592958031631098,16.3306259527439,11.2704765505907,-2.6721489138719514,8.163614686724566,-1.4607333638583646,1.2399248321123264,-19.17149089336589,15.091888499431604,-24.824808044519585,34.27462784916285,35.616467487345375,36.67077006020308,1577395726.0,-27.688888070547577,-51.12162005371577,5.845547
29658,1577395727.0,0.3026037317787728,-2.1896434061189973,6.424431388892197,0.2079451734589363,-3.5911856999094893,6.7993575293564215,-0.7539983374618895,-1.558858861411489,7.851930332388529,-3.540225145293445,8.357722584794208,1.874784143959604,3.829769971894055,1.6371564167301829,0.5794618187881098,12.515928687118905,23.4469902224657,2.9736030392530486,8.988222230838158,-1.095550022893771,1.594189069858711,-19.51822471509972,15.091888499431604,-26.185071499013805,34.39443495971486,35.616467487345375,36.81453859286549,1577395727.0,-27.688899780175664,-51.12168185900284,6.249717
29659,1577395727.01,-0.2169380284751334,-0.0324677103182163,12.482958689917588,0.0343655530976087,-1.0162218144114423,9.790912503721655,-0.8377953955673593,-5.248323619712271,8.483999570669779,-3.265566942168445,-4.810612376143292,-0.9023154654153964,2.9905365734565548,-2.101246903582317,1.2050721703506095,13.263609351181405,29.8709404177782,-0.4901420779344514,8.65837921319272,-1.643325034340656,2.8341139019710444,-20.731793091168093,15.39677513578376,-83.31613658777121,34.370473537604454,35.56854464312457,36.76661574864468,1577395727.0,-27.688899780175664,-51.12168185900284,6.249717
29660,1577395727.02,-0.1642655919516959,-0.8034006448885288,10.634635008276964,1.668408186154249,0.414313677531916,10.419390439512672,4.111019435975609,5.618957715736947,8.302040244497904,5.920224073456555,-0.0803877667682926,0.9287392220846036,4.409603956269055,5.879099776105183,-1.0379698218368902,16.9104599371189,31.7477714724657,-3.1604301638719514,9.977751283774465,-2.0085083753052464,1.062792713239138,-9.694099765974768,15.091888499431604,-26.185071499013805,34.27462784916285,35.66439033156618,36.86246143708629,1577395727.0,-27.688899780175664,-51.12168185900284,6.249717
29661,1577395727.03,2.452596822599085,-1.208020725454935,9.830183250464463,4.41934589367378,-1.8601778996165204,8.978081040098608,-2.678936472227515,-10.520355675376331,8.371472092642435,1.8003510265815548,-2.399723704268293,0.7151161752096037,2.0902680187690548,-0.102345536394817,2.135858303163109,8.945372046493903,39.7128593630907,2.1191108517530486,7.998693177901848,-0.1825916704822951,1.7713211887318916,-20.385059269434272,10.366145635973224,-26.185071499013805,34.41839638182526,35.66439033156618,36.71869290442388,1577395727.0,-27.688899780175664,-51.12168185900284,6.249717
29662,1577395727.04,0.4247080164467415,-1.6820726541658724,6.9942513840093845,-0.9891556566191876,-2.374931256550114,10.677964218809546,-1.3693081641220457,-9.701538707602896,10.77525055943931,1.8308686047065548,2.635676686356707,1.1576210580221038,2.8837250500190548,-3.337208817644817,0.9151551781631098,6.839659155868903,32.7548515505907,-7.738066882621951,7.58638940584505,-1.5520291990995103,0.9742266538025436,-20.84737103174604,10.366145635973224,-25.84500563539025,34.27462784916285,35.47269895468296,36.81453859286549,1577395727.0,-27.688899780175664,-51.12168185900284,6.249717
29663,1577395727.05,3.3264804285561165,-3.5303963358064974,8.089598643530868,1.032747645382765,-2.26240377852277,2.2862873999618905,1.7850525231338126,-0.2240914358743805,9.336335361685403,4.882626417206555,-5.176823313643292,0.3489052377096037,5.737118604706555,7.343943526105184,0.0148866234756097,14.682676733993905,20.6546318240282,-7.3108207888719505,8.163614686724566,-1.4607333638583646,2.3027175453514714,-20.298375814000813,12.119243794998104,-18.5335895674838,34.370473537604454,35.736274597897385,36.790577170755085,1577395727.0,-27.688899780175664,-51.12168185900284,6.249717
29664,1577395727.06,2.4621736292397105,-0.8321310648104038,3.8877747299566496,4.086551862912061,0.184470318156916,8.901466586973607,1.7192119774795154,2.441852112709604,12.259655588736186,13.824276807831556,7.487971608231708,0.1352821908346037,-6.485171434355945,-5.748097489519817,2.318963771913109,8.853819312118903,0.0705253787157012,-0.9021293826219512,9.48298675730631,-1.825916704822951,1.5941890698587031,-19.7493805962556,13.26256868131868,-22.10428113553113,34.22670500494204,35.52062179890376,36.81453859286549,1577395727.0,-27.688899780175664,-51.12168185900284,6.249717
29665,1577395727.07,0.6234267542397103,3.1206958761075647,8.077627635230087,-2.605241777224656,5.537905230266292,16.160686020567358,-1.917580344297827,0.7850645638814784,8.682718308462748,9.399227979706556,7.304866139481708,-0.8412803091653963,1.5714691906440548,1.6371564167301829,-0.6717588843368902,-1.7357802972560974,-7.253693371284299,6.635712414253049,8.823300722015436,-2.191100045787545,1.9484533076050947,-19.7493805962556,13.26256868131868,-22.10428113553113,34.41839638182526,35.856081708449395,36.67077006020308,1577395727.0,-27.688899780175664,-51.12168185900284,6.249717
29666,1577395727.08,-1.065682517000524,-2.893538694204935,7.610758311499619,-0.1416082689238751,-4.929544427936833,6.234325937559547,-0.8401895972275145,-4.712022447837271,12.017841221060404,0.0455902843940547,2.422053639481708,-0.9633506216653962,6.210141065644055,12.104685713605184,-1.4652159155868902,-5.489442406631097,-12.1670234494093,5.109833508003049,9.73036902054039,-0.8216625171703298,1.5056230104221129,-20.09611441798942,17.53098159024883,-23.46454459002536,34.27462784916285,35.424776110462155,36.71869290442388,1577395727.0,-27.688899780175664,-51.12168185900284,6.249717
29667,1577395727.09,0.1852878504311165,-4.581450864615091,10.933910215796494,0.8088897901581557,-1.3681694584544113,7.533180338194311,1.895185799501,-2.0508673025735997,4.598210276236186,-16.967959520293444,12.950618092606708,0.4404579720846037,-5.966372606230945,3.5597638386051838,0.1979920922256097,-0.8965468988185972,6.7691337771532005,-1.0852348513719514,9.318065248483594,-0.9129583524114792,2.47984966422466,-20.760687576312577,18.82674979474549,-13.772667476754016,34.17878216072124,35.736274597897385,36.76661574864468,1577395727.0,-27.688899780175664,-51.12168185900284,6.249717
29668,1577395727.1,-0.0996221471274771,2.052881935677877,15.080667491187118,4.002754804806592,0.6082440120045722,8.827246335508764,2.3321276024795154,5.154482593666635,1.2487221536775923,0.1829193859565548,4.710871998856708,-0.5971396841653963,0.3812836437690549,6.092722822980183,-3.8455870093368905,17.5208114996189,42.9477226443407,3.0956733517530486,8.328536195547285,-2.0085083753052464,1.062792713239138,-20.674004120879125,17.53098159024883,-15.302963863060016,34.370473537604454,35.856081708449395,36.71869290442388,1577395727.0,-27.688899780175664,-51.12168185900284,6.249717
29669,1577395727.11,2.0264289270912728,0.2979321187833451,11.455846177710557,0.8639564283417488,-2.26240377852277,5.104262753965797,0.2204417382217032,-7.862791832602896,8.129657724966654,-6.195254442168445,4.710871998856708,-0.8107627310403963,2.6701020031440548,2.094920088605183,3.6312196312881095,18.3142685308689,65.8664238162157,-3.4045707888719514,7.174085633788254,0.0,1.9484533076050947,-20.558426180301183,18.75052813565745,-22.10428113553113,34.41839638182526,35.66439033156618,36.81453859286549,1577395727.0,-27.688899780175664,-51.12168185900284,6.249717
29670,1577395727.12,1.6242030481850227,-0.3760356485506387,14.259456321753524,1.2961098279999526,-0.0465701420481613,7.949771427061499,-1.1322821997665775,-6.069534789145864,14.85377308751548,-4.196353074980944,2.376277272294208,-1.6499961294778962,-1.815981981230945,7.191355635480184,-1.8924620093368905,11.066343726181405,49.6768486209032,-17.42739793730945,7.421467897022334,-2.099804210546396,1.5056230104221162,-20.731793091168093,17.68342490842491,-74.47442413355876,34.442357803935664,35.71231317578699,36.71869290442388,1577395727.0,-27.688899780175664,-51.12168185900284,6.249717
29671,1577395727.13,1.224371370938929,-9.137616623892434,11.431904161108994,6.078527644162062,-9.215165399616522,5.65732333746189,-3.425927390196265,9.061819703041635,20.36642241002525,-25.360293504668444,14.171321217606708,-1.878877965415396,-0.8699370593559451,11.006052901105184,-1.1905577124618902,-1.3390517816310974,-32.0644843869093,2.3632514767530486,7.998693177901848,-1.643325034340656,2.125585426478283,-21.020737942612943,-1.981763136288998,-86.03666349675964,34.46631922604607,35.76023602000779,36.81453859286549,1577395727.0,-27.688899780175664,-51.12168185900284,6.249717
29672,1577395727.14,1.099872884610804,-5.134511448111184,8.585198387183212,-1.116048344607469,0.1341920832936348,17.714522898008763,-1.0221489233993897,0.8066123788228846,15.166216404165873,-17.364688035918444,12.187678639481708,-1.0243857779153962,-2.578921434355945,-1.9334002238948167,1.830682521913109,-28.3165908441311,-76.6811836056593,10.81662061737805,7.998693177901848,-1.643325034340656,2.125585426478283,-21.020737942612943,-1.981763136288998,-86.03666349675964,34.46631922604607,35.76023602000779,36.910384281307095,1577395727.0,-27.688899780175664,-51.12168185900284,6.249717
29673,1577395727.15,-1.868937173982946,3.384058058724752,13.613021873511338,1.7426284376190926,-0.3231004337962079,17.04175223150486,0.4574677025771719,2.621417237221322,16.404018662466655,-0.5800200671684451,10.112483326981708,-0.6581748404153963,-3.463931199980945,14.973338057355184,-4.7611143530868905,-54.5617080316311,-94.4729316525343,14.66183546112805,8.163614686724566,-2.556283386752136,1.9484533076050947,-21.020737942612943,-1.981763136288998,-87.39692695125387,34.27462784916285,35.856081708449395,36.81453859286549,1577395727.0,-27.688899780175664,-51.12168185900284,6.249717
29674,1577395727.16,-1.172224490877477,-1.1002816507479038,10.237197532691026,0.0116206373261245,0.4777600215260574,12.702261722471656,-0.101578385069312,-4.388805223716177,9.460833848013529,-2.334780809355945,10.341365162919208,-0.6581748404153962,-3.723330614043445,4.215891768292684,-1.3736631812118902,-40.5388808831936,-98.1655586056593,18.94955518769055,8.493457704370002,-0.9129583524114774,0.8856605943659459,-21.020737942612943,-2.591536408993305,-84.67640004226544,34.27462784916285,35.736274597897385,36.57492437176146,1577395727.0,-27.688899780175664,-51.12168185900284,6.249717
29675,1577395727.17,-2.129905154939977,0.4798914449552201,11.113475340308211,-0.0027445726348126,-1.0676971501048016,14.642762168028296,5.985679335877953,-10.58021071688024,-3.9802142721036575,-2.502627489043445,7.854182545731708,-0.6276572622903963,-3.677554246855945,6.977732588605183,0.2437684594131097,-26.8517470941311,-62.8872382931593,0.4711616330030487,9.48298675730631,-0.7303666819291804,0.1771321188731884,-21.020737942612943,-3.2013096816976128,-84.67640004226544,34.370473537604454,35.616467487345375,36.81453859286549,1577395727.0,-27.688899780175664,-51.12168185900284,6.249717
29676,1577395727.18,-1.2488389440024772,-3.80333532506431,10.847718956030867,3.1336596021698737,-6.797021722858708,8.140110459043921,3.2969908715224845,14.264419910561166,6.326823874868999,-15.442080614043444,-2.125065501143293,-1.5431846060403962,-3.189272996855945,12.837107588605184,-3.0826475562118905,-11.013124047256095,-39.1140449337843,-4.350615710746951,9.48298675730631,-0.7303666819291804,0.1771321188731884,-21.020737942612943,-3.2013096816976128,-84.67640004226544,34.370473537604454,35.616467487345375,36.81453859286549,1577395727.0,-27.688899780175664,-51.12168185900284,6.249717
29677,1577395727.19,-1.4128417577231802,-2.834880753531107,9.515345732153916,-4.041762773318406,-2.647870245807926,11.40340732183689,6.342415383241234,6.823241150795541,8.211060581411967,-4.425234910918444,2.605159108231708,0.5777870736471037,-1.6939116687309452,-11.790577958269816,1.4339540062881098,-0.1793838128810974,-18.9419257931593,0.8068549923780487,7.916232423490489,-1.3694375286172151,2.214151485914877,-21.020737942612943,-4.115969590754073,-94.87837595097211,34.32255069338365,35.616467487345375,36.71869290442388,1577395727.0,-27.688899780175664,-51.12168185900284,6.249717
29678,1577395727.2,-1.7540154942954458,-2.457793992056497,10.038478794898056,0.2737857191132337,-1.4711201298411305,9.84597914190525,1.3445194176650623,-5.535627818931021,11.488722654165873,-0.4884673327934451,-2.918522532393293,-1.3295615591653962,-0.3206206531059452,3.3003644245426838,-2.5028135718368905,-15.7280898675686,-17.2176826290968,6.376313000190549,8.328536195547285,-2.37369171626984,-0.3542642377463842,-9.694099765974768,-4.420856227106227,-44.54862813468583,34.370473537604454,35.688351753676585,36.910384281307095,1577395727.0,-27.688899780175664,-51.12168185900284,6.249717
29679,1577395727.21,-3.0564611974204454,-2.4290635721346225,8.700120066870712,1.7306574293183117,-0.6678654728587079,13.20384697027439,1.6713279442763904,-4.915529588950552,5.76418648473228,0.6406830578315549,5.229670826981708,2.637723597084604,-4.196353074980945,-11.424367020769816,0.9761903344131098,-7.747743187881097,-17.5075996212843,4.255341320503049,7.50392865143369,-1.4607333638583646,2.6569817830978484,-9.347365944240948,-3.81108295440192,-4.420856227106225,34.41839638182526,35.856081708449395,36.71869290442388,1577395727.0,-27.688899780175664,-51.12168185900284,6.249717
29680,1577395727.22,-2.4004499425376333,-2.23273903600181,15.2841746323004,-1.9635957323027813,-2.078050250690739,14.683463596250952,-2.0875686621689207,-4.510909508384145,4.895091282095561,-6.439395067168445,-8.838932688643293,-0.5055869497903963,-4.379458543730945,-8.036915848894816,-0.4581358374618902,-8.846376000381097,-2.9812324337842986,2.2411811642530486,7.50392865143369,-1.4607333638583646,2.6569817830978484,-9.347365944240948,-3.81108295440192,-4.420856227106225,34.562164914487674,35.52062179890376,36.71869290442388,1577395727.0,-27.688899780175664,-51.12168185900284,6.249717
29681,1577395727.23,-0.711340671297399,-0.5627833780428256,13.709987040747665,0.5694696241425301,-2.6095630192454267,8.764997092344702,-0.2583985938095458,-2.6242786001810203,7.3443595804354045,-5.615420457793444,-8.930485423018292,0.8219276986471037,-1.3887358874809452,-0.4685564738948171,1.0677430687881098,-6.008241234756097,13.0710136599657,0.9289253048780488,8.740839967604082,-1.004254187652625,1.5056230104221129,-20.789582061457065,15.091888499431604,-4.420856227106225,34.370473537604454,35.66439033156618,36.57492437176146,1577395727.0,-27.688899780175664,-51.12168185900284,6.249717
