,timestamp,acc_x_dashboard,acc_y_dashboard,acc_z_dashboard,acc_x_above_suspension,acc_y_above_suspension,acc_z_above_suspension,acc_x_below_suspension,acc_y_below_suspension,acc_z_below_suspension,gyro_x_dashboard,gyro_y_dashboard,gyro_z_dashboard,gyro_x_above_suspension,gyro_y_above_suspension,gyro_z_above_suspension,gyro_x_below_suspension,gyro_y_below_suspension,gyro_z_below_suspension,mag_x_dashboard,mag_y_dashboard,mag_z_dashboard,mag_x_above_suspension,mag_y_above_suspension,mag_z_above_suspension,temp_dashboard,temp_above_suspension,temp_below_suspension,timestamp_gps,latitude,longitude,speed
116462,1577398222.35,2.210782454923304,0.7768308459770384,9.240392109791824,1.880908182283727,1.060222569312119,10.95172074034156,1.0620912145102896,-2.994620720393483,11.399378055628333,6.479216784965701,-8.417641244283537,-0.8498401176638719,-3.972867640053354,0.5947206078506098,0.17547607421875,2.039095250571646,-21.096578458460368,0.9814006526295732,-28.687180229107312,-16.068067002442003,-1.7048966441544575,2.738617070759928,-41.272570207570205,-17.026270604395606,27.373738281367,32.64525114565549,34.22670500494204,1577398221.999,-27.711694808069613,-51.1060583180313,24.98795
116463,1577398222.36,1.6146262415443975,0.005897911406726,10.217226387135574,2.517765823885289,0.6125068588628992,9.321269409775152,1.940763223787633,-2.307484843928639,7.9086320351205215,-1.1196601681592986,0.5240091463414634,-0.1479358207888719,-3.759244593178354,13.99193740472561,-0.92315673828125,4.572054234946647,3.4395543540396343,0.0353557307545732,-27.929762929328906,-16.068067002442003,-0.7749530200702122,2.738617070759928,-41.272570207570205,-17.026270604395606,27.229969748704587,32.6931739898763,34.27462784916285,1577398221.999,-27.711694808069613,-51.1060583180313,24.98795
116464,1577398222.37,2.1940230433022103,0.226164464141101,8.24679842082698,0.9854767613852896,-1.6356485000238183,8.47372202207984,-1.4326669153725229,-2.0225748463700457,9.711465885218177,0.0094902224657013,6.810630240091464,0.5234508979611281,6.952425328696647,-4.104986423399391,0.72479248046875,-0.7685219369283537,21.322855135289632,0.4626018245045732,-28.49782590416271,-14.424741968101342,-0.929943624084252,8.215851212279782,-38.2278724053724,-4.882533482142857,27.517506814029414,32.6931739898763,34.27462784916285,1577398221.999,-27.711694808069613,-51.1060583180313,24.98795
116465,1577398222.38,0.2235950769936165,-0.1712730114448354,11.203637471119947,-1.6529334681068977,2.944459275855088,10.283738477157966,-0.2738733118568978,1.4178929392744857,8.878283707483803,-1.6384589962842986,-1.8563619474085369,-0.4836291801638719,4.419466344321647,-11.82593368902439,0.66375732421875,-6.902555140053353,13.998636385289634,-0.9717243473704268,-28.49782590416271,-14.424741968101342,-0.929943624084252,7.249280481423338,-38.2278724053724,-4.882533482142857,27.517506814029414,32.64525114565549,34.370473537604454,1577398221.999,-27.711694808069613,-51.1060583180313,24.98795
116466,1577398222.39,1.731942122892054,0.3434803454887573,11.620228559987137,-0.5468123011147104,1.816790293921494,8.81848706114234,0.8849202916587271,-2.0153922413895766,8.866312699183021,0.9860527224657012,-3.1381002286585367,-0.7888049614138719,-0.9211098275533536,13.90038467035061,0.84686279296875,-9.649137171303352,24.008402010289632,-1.307417706745427,-28.49782590416271,-14.424741968101342,-0.929943624084252,17.398273155416014,-37.720422771672766,-13.585545086423991,27.517506814029414,32.88486536675951,34.27462784916285,1577398221.999,-27.711694808069613,-51.1060583180313,24.98795
116467,1577398222.4,1.3045771265541637,0.5230454700004765,8.37488820964534,1.888090787264196,-1.5015732070550685,5.595891626572028,-1.1788815393959602,1.7028029368330793,7.9277856484017715,2.3288261599657014,4.903281607278964,0.065687226086128,-0.6769692025533537,1.5102479516006098,1.36566162109375,0.6047690786966463,14.059671541539634,-2.4365680973704267,-28.119117254273505,-14.60733363858364,-0.1549906040140398,17.720463399034827,-34.33742521367521,-67.01798842433608,27.517506814029414,32.789019678317906,34.17878216072124,1577398221.999,-27.711694808069613,-51.1060583180313,24.98795
116468,1577398222.41,1.2794380091225228,0.0418109363090697,9.381650007741042,-0.1685284388100228,0.5382866073980554,10.288526880478278,0.2743988683188834,0.263887739079173,8.387472367151771,-2.5539863400342986,1.5921243807164631,0.096204804211128,-4.155973108803353,-2.6706602515243905,0.26702880859375,2.466341344321646,-14.565816739710366,-2.2839802067454267,-28.687180229107312,-15.702883661477411,-1.084934228098292,17.237178033606607,-33.829975579975574,-17.026270604395606,27.61335250247102,32.64525114565549,34.41839638182526,1577398221.999,-27.711694808069613,-51.1060583180313,24.98795
116469,1577398222.42,1.3249278406654914,0.580506309844226,10.324965461842606,1.988647256990758,-0.569031660424209,10.949326538681404,2.315455783602086,1.0132728587080793,10.59732049947599,1.4438163943407014,-1.1239400724085369,-0.3615588676638719,1.2303794302591464,-2.8995420874618905,-0.34332275390625,-8.931974085365852,16.195902010289632,-1.032759503620427,-27.929762929328906,-15.337700320512822,-1.3949154361263716,4.349568288854003,-35.85977411477411,-15.407105654761905,27.373738281367,32.6931739898763,34.370473537604454,1577398221.999,-27.711694808069613,-51.1060583180313,24.98795
116470,1577398222.43,1.444637923673304,-0.4418177990424917,9.738386055104325,1.1937723058188834,0.638843077124619,10.302892090439215,1.660641629549352,2.840048725407298,11.270091165979895,0.4367363162157013,1.0428079744664631,-0.4225940239138719,-1.9281899056783536,-6.119146579649391,-0.61798095703125,1.5813315786966462,-31.960836270960368,2.7209026057545733,-29.06588887899652,-14.60733363858364,-0.1549906040140398,5.638329263329263,-35.1831746031746,-15.407105654761905,27.75712103513344,32.64525114565549,34.370473537604454,1577398221.999,-27.711694808069613,-51.1060583180313,24.98795
116471,1577398222.44,0.8365107019936165,-0.0778991466987417,8.526920015065262,0.4826944127524771,-0.4002404433831935,9.72588949034156,1.679795242830602,0.6349889964033918,9.44092109762052,-2.0962226681592986,3.148520865091464,-0.3920764457888719,-1.7450844369283538,4.2568299828506095,0.35858154296875,-1.4704262338033538,-8.645406583460366,2.7514201838795733,-29.255243203941124,-14.789925309065936,-2.169868456196577,6.121614628757486,-41.103420329670335,-16.014292510874544,27.517506814029414,32.64525114565549,34.370473537604454,1577398221.999,-27.711694808069613,-51.1060583180313,24.98795
116472,1577398222.45,0.6066673426186165,-0.568710487030773,10.856478230397292,0.2696104649985709,0.8758690414800877,8.370771350693122,-0.1685284388100228,0.9582062205244856,9.931732437952553,-3.3474433712842986,1.1343607088414631,-0.1784533989138719,-1.2262856088033538,-10.39160751714939,0.20599365234375,-5.040982874428353,2.6155797446646343,1.286576433879573,-28.687180229107312,-14.972516979548232,-2.014877852182537,17.237178033606607,-39.91937118437118,-16.216688129578753,27.373738281367,32.597328301434686,34.27462784916285,1577398221.999,-27.711694808069613,-51.1060583180313,24.98795
116473,1577398222.46,0.7096180140053353,1.2652479846489133,11.634593769948074,-0.9179135584389292,1.8431265121832128,10.872712085556405,2.1442703649009145,-2.501415178401296,9.189529923304114,-0.5703437619092987,-3.7484517911585367,-0.5141467582888719,1.7339194693216462,-9.65918564214939,1.39617919921875,1.4592612661966462,-11.849752286585366,-0.6970661442454268,-28.49782590416271,-15.155108650030527,-0.6199624160561659,17.237178033606607,-39.91937118437118,-16.216688129578753,27.373738281367,32.64525114565549,34.27462784916285,1577398221.999,-27.711694808069613,-51.1060583180313,24.98795
116474,1577398222.47,1.8540464075600227,0.072935557891101,11.038437556569168,0.6311349156821646,-0.2254637221917872,6.67328237364234,-2.050370943692835,1.1521365549971418,10.281285880335364,-0.0210273556592986,-2.5887838224085367,-0.0869006645388719,-3.759244593178354,7.9494569359756095,-0.34332275390625,-2.569059046303354,0.8150426352896342,-2.5281208317454267,-28.119117254273505,-14.424741968101342,-0.929943624084252,18.525939008081867,-34.506575091575094,-12.978358230311354,27.517506814029414,32.6931739898763,34.27462784916285,1577398221.999,-27.711694808069613,-51.1060583180313,24.98795
116475,1577398222.48,0.9885425074135384,0.087300767852039,9.744371559254716,1.0285723912681022,-2.389822022973037,8.638921936630622,-1.1908525476967415,2.4713416697432358,10.740972599085366,-2.6302802853467986,6.566489615091464,0.4166393745236281,7.318636266196647,-10.17798447027439,0.66375732421875,0.4216636099466463,-7.577291349085366,-1.704146222370427,-28.59250306663501,-13.785671121413309,-0.697457718063189,17.55936827722542,-34.506575091575094,-12.978358230311354,27.445622547698207,32.789019678317906,34.370473537604454,1577398221.999,-27.711694808069613,-51.1060583180313,24.98795
116476,1577398222.49,1.0064990198647104,0.5924773181450073,10.856478230397292,1.3062997838462271,0.4018171127691498,11.80764783384742,0.5162132359946646,0.5679513499190167,8.079817453821693,-1.3638007931592986,-3.9010396817835367,-0.8803576957888719,-0.8753334603658538,1.937494045350609,-0.60272216796875,-2.7063881478658534,-17.846456388147868,1.088212176067073,-28.49782590416271,-14.789925309065936,-0.929943624084252,5.316139019710448,-37.04382326007325,-5.287324719551281,27.517506814029414,32.64525114565549,34.322550693383654,1577398221.999,-27.711694808069613,-51.1060583180313,24.98795
116477,1577398222.5,1.6696928797279915,-0.9254465343940542,9.285881941334791,2.862530862947789,-1.075405311547256,9.225501343368904,3.3724958165610706,1.2718466380049542,9.642034037073646,2.1762382693407014,0.7376321932164634,-0.1479358207888719,-2.813199671303354,12.00829482660061,0.48065185546875,-3.606656702553354,-0.6803186928353658,1.774857683879573,-27.551054279439697,-13.511783615689868,-1.7048966441544575,7.08818535961393,-39.07362179487179,-10.347215187156593,27.565429658250217,32.64525114565549,34.17878216072124,1577398221.999,-27.711694808069613,-51.1060583180313,24.98795
116478,1577398222.51,1.1597279261147102,-0.779400233124523,11.46460545207698,-0.4582268396889291,0.964454502905869,10.513581836532966,1.9527342320884145,0.4626064768721418,6.682800785120521,-1.9436347775342984,0.3103860994664634,-0.2394885551638719,0.1164878286966463,3.158197170350609,0.41961669921875,8.600374547446647,-10.934224942835366,3.0565959651295733,-29.633951853830325,-14.059558627136752,0.0,3.22190243618815,-46.51621642246642,-3.870555388621797,27.517506814029414,32.6931739898763,34.27462784916285,1577398221.999,-27.711694808069613,-51.1060583180313,24.98795
116479,1577398222.52,0.611455745938929,0.4033353869926635,10.631423274342604,-0.1397980188881468,0.2318287948980554,9.10579126036109,0.6742305455649771,0.7283628611494856,9.948491849573646,2.2067558474657014,5.498374380716464,0.2487926948361281,3.320833531821646,4.8976991234756095,0.26702880859375,-2.843717249428354,2.3104039634146343,-1.246382550495427,-27.7404086043843,-15.520291990995116,-0.929943624084252,17.237178033606607,-39.91937118437118,-16.62147936698718,27.61335250247102,32.64525114565549,34.27462784916285,1577398221.999,-27.711694808069613,-51.1060583180313,24.98795
116480,1577398222.53,0.8436933069740853,-0.597440906952648,10.547626216237136,-0.4749862513100228,0.4760373642339929,9.45773890440406,2.467487589022008,3.022008051579173,10.64759873433927,-3.7746894650342986,-2.8024068692835367,-0.4836291801638719,3.931185094321646,-16.55615829839939,1.45721435546875,11.377474156821648,4.629739900914634,-1.002241925495427,-28.87653455405192,-16.2506586729243,-0.6199624160561659,17.237178033606607,-2.706398046398046,-17.026270604395606,27.421661125587804,32.64525114565549,34.27462784916285,1577398221.999,-27.711694808069613,-51.1060583180313,24.98795
116481,1577398222.54,1.2674670008217417,0.7361294177543822,10.933092683522291,2.292710867830602,0.3778750961675867,12.807227026962654,-2.182052035001429,-0.4735263722489519,16.120743729456457,4.159880847465701,-1.0934224942835369,-1.002428008288872,-1.0736977181783538,3.554925685975609,0.51116943359375,1.1235679068216462,-14.687887052210366,-0.4224079411204268,-27.929762929328906,-14.242150297619048,-0.1549906040140398,17.881558520844237,-37.88957264957265,-68.43475775526557,27.517506814029414,32.64525114565549,34.562164914487674,1577398221.999,-27.711694808069613,-51.1060583180313,24.98795
116482,1577398222.55,0.8149628870522103,-0.2502816662299922,10.281869831959792,0.5832508824790397,-2.7968363051996,9.089031848739998,3.1689886754477894,6.172777436344798,12.278050064905678,0.4672538943407012,4.247153677591464,0.6150036323361281,1.8865073599466464,7.2780702172256095,-0.22125244140625,2.100130406821646,-13.924947599085366,-0.5444782536204268,-27.4563771169674,-15.79417949671856,-0.5424671140491492,2.4164268271411125,-34.16827533577533,-17.026270604395606,27.373738281367,32.64525114565549,34.27462784916285,1577398221.999,-27.711694808069613,-51.1060583180313,24.98795
116483,1577398222.56,0.984951204923304,0.4392484118950072,12.233144184987136,0.3222829015220084,-0.8611242629632716,11.26416405699195,-1.6792696863686165,3.150097840397532,15.401286130579503,3.763152331840701,-0.6966939786585366,-0.2394885551638719,-0.3412758431783538,3.097162014100609,0.32806396484375,-20.055631311928355,-39.71230111471037,9.160111590129572,-27.551054279439697,-16.068067002442003,-0.7749530200702122,4.6717585324728175,-35.85977411477411,-17.026270604395606,27.373738281367,32.57336687932429,34.442357803935664,1577398221.999,-27.711694808069613,-51.1060583180313,24.98795
116484,1577398222.57,1.856440609220179,-0.8655914928901479,12.458199141041824,-0.4318906214272103,-0.4984027114495997,10.554283264755622,1.2679925572837272,1.470565375797923,8.284521695765052,-0.2651679806592987,-2.6803365567835367,-0.1784533989138719,5.396028844321647,-3.0063536108993905,2.25067138671875,-11.602262171303352,-50.91225228658536,9.038041277629572,-28.49782590416271,-15.155108650030527,-0.6199624160561659,7.249280481423338,-39.24277167277167,-7.311280906593407,27.3258154371462,32.6931739898763,34.27462784916285,1577398221.999,-27.711694808069613,-51.1060583180313,24.98795
116485,1577398222.58,0.6090615442787728,0.6523323596489135,11.917109565846513,-0.5324470911537728,-0.9293590102777248,11.203111914657963,2.955904727693883,-1.7041460255692644,3.273457621058021,5.563689441215701,2.904380240091464,0.3098278510861281,6.250521031821647,-8.62158798589939,-0.43487548828125,-9.588102015053352,-2.2061975990853657,2.2936565120045733,-27.17234562955049,-14.242150297619048,-1.084934228098292,7.249280481423338,-39.24277167277167,-7.311280906593407,27.61335250247102,32.64525114565549,34.17878216072124,1577398221.999,-27.711694808069613,-51.1060583180313,24.98795
116486,1577398222.59,0.5396296961342415,-1.3228840099799917,11.17730125285823,-1.080719271329554,-0.4816432998285059,8.174446814560309,3.475446487947789,-2.633096269709889,4.346059964808021,-5.270050793159299,6.871665396341464,0.6455212104611281,1.5508140005716462,1.3881776391006098,1.51824951171875,9.302278844321648,7.650980135289634,-3.1384723942454267,-27.17234562955049,-15.337700320512822,-0.1549906040140398,8.538041455898599,-39.24277167277167,-5.692115956959706,27.61335250247102,32.789019678317906,34.370473537604454,1577398221.999,-27.711694808069613,-51.1060583180313,24.98795
116487,1577398222.6,1.5643480066811164,0.992308995391101,9.424745637623856,2.223279019686071,-0.5702287612542872,6.515265064072028,2.498612210604039,1.882368061344798,10.638021927698643,6.692839831840701,4.064048208841464,-0.1174182426638719,2.039095250571646,8.07152724847561,0.08392333984375,21.356722203696645,26.541360994664632,-1.978804425495427,-26.604282654716684,-15.520291990995116,-0.3099812080280861,17.237178033606607,-37.88957264957265,-16.62147936698718,27.61335250247102,32.50148261299308,34.46631922604607,1577398221.999,-27.711694808069613,-51.1060583180313,24.98795
116488,1577398222.61,2.1413506067787726,-0.4035105724799917,9.786270088307448,-0.611455745938929,0.734611143530869,9.579843189072028,0.1858134068931021,-1.9100473683427015,8.646046146448645,-3.8662421994092986,-8.844887338033537,-0.941392852038872,0.9709800161966464,1.3576600609756098,0.26702880859375,8.722444859946647,17.569193025914632,-4.847456769245427,-26.793636979661287,-14.972516979548232,-0.7749530200702122,17.237178033606607,-35.85977411477411,-64.79163661858975,27.373738281367,32.64525114565549,34.562164914487674,1577398221.999,-27.711694808069613,-51.1060583180313,24.98795
116489,1577398222.62,1.8205275843178352,0.3626339587700077,10.23877420207698,1.6917662511313831,0.4520953476324305,8.801727649521245,-0.6138499475990853,2.9789124216963603,13.882165177210364,3.427458972465701,5.773032583841463,-0.1174182426638719,-3.240445765053354,6.8813417016006095,2.18963623046875,18.274446813071645,-1.443258145960366,-3.1079548161204267,-28.876534554051915,-15.520291990995116,-0.3099812080280829,17.237178033606607,-2.706398046398046,-64.79163661858975,27.373738281367,32.64525114565549,34.41839638182526,1577398221.999,-27.711694808069613,-51.1060583180313,24.98795
116490,1577398222.63,1.0974786829506478,-0.3053483044135854,10.33454226848323,1.6450793187583364,-0.8874604812249909,11.450911786484138,1.2308824315513052,0.0005255564619855,10.87145658956388,7.211638659965701,9.343589224466465,0.4318981635861281,0.0859702505716463,4.4246766625381095,0.32806396484375,2.542635289634146,2.8749791587271343,-1.124312237995427,-27.929762929328906,-14.972516979548232,-1.3949154361263716,4.188473167044595,-41.10342032967033,-15.204710036057692,27.517506814029414,32.7171354119867,34.442357803935664,1577398221.999,-27.711694808069613,-51.1060583180313,24.98795
116491,1577398222.64,1.042412044767054,0.9683669787895384,12.69043670207698,1.677401041170446,0.265347618140243,11.30845678770484,2.5776208653891954,-0.7392827565262956,9.251779166468175,1.6574394412157014,-0.3610006192835365,-1.246568633288872,3.503939000571646,8.80394912347561,-1.07574462890625,4.633089391196647,12.014993807164634,1.378129168254573,-27.929762929328906,-14.972516979548232,-1.3949154361263716,7.73256584685156,-3.21384768009768,-16.823874985691393,27.517506814029414,32.64525114565549,34.27462784916285,1577398221.999,-27.711694808069613,-51.1060583180313,24.98795
116492,1577398222.65,1.7271537195717417,-0.6716611584174917,8.960270515553542,0.2432742467368521,0.4161823227300867,6.874395313095465,0.1115931554282584,-2.728864336116139,7.202342545374427,3.641082019340701,7.420981802591464,-0.1479358207888719,1.1540854849466462,0.8388612328506098,1.91497802734375,17.297884313071645,7.132181307164634,1.256058855754573,-28.49782590416271,-15.155108650030527,-0.6199624160561659,7.73256584685156,-35.690624236874235,-16.014292510874544,27.3258154371462,32.64525114565549,34.22670500494204,1577398221.999,-27.711694808069613,-51.1060583180313,24.98795
116493,1577398222.66,0.659339779142054,0.1734920276176635,7.84457254192073,1.5217779332602897,0.725034336890244,7.528012366318121,0.913650711580602,-0.1072135182450446,8.270156485804115,-2.6150214962842986,7.420981802591464,0.096204804211128,-1.7450844369283538,6.8203065453506095,-0.00762939453125,6.982942906821647,16.348489900914632,-0.8191364567454268,-27.551054279439697,-15.337700320512822,0.464971812042126,5.960519506948078,-40.934270451770445,-6.501698431776557,27.565429658250217,32.789019678317906,34.370473537604454,1577398221.999,-27.711694808069613,-51.1060583180313,24.98795
116494,1577398222.67,0.4989282679115853,1.9308360461723508,8.277923042409011,-0.0943081873451781,1.261335508765244,7.525618164657965,-0.4318906214272103,-0.1359439381669197,7.695548087366615,3.3969413943407014,3.7283548494664633,-0.2700061332888719,0.3606284536966463,4.8061463891006095,0.48065185546875,3.717562047446646,20.712503572789632,-2.0703571598704267,-28.119117254273505,-15.885475331959707,-0.6199624160561659,6.604899994185707,-38.56617216117216,-16.216688129578753,27.565429658250217,32.789019678317906,34.17878216072124,1577398221.999,-27.711694808069613,-51.1060583180313,24.98795
116495,1577398222.68,2.201205648282679,2.323485118437976,9.566003535573074,2.2400384313071644,1.069799375952744,10.602167297958747,-0.1948646570717415,-3.3322031544755144,6.9150383461556775,-0.4787910275342987,-2.1310201505335367,-1.673814727038872,-5.071500452553353,19.94286513910061,1.36566162109375,-1.1347328744283538,22.665628572789632,-5.854536847370427,-27.17234562955049,-16.433250343406595,-1.084934228098292,17.881558520844237,-35.1831746031746,-65.6012190934066,27.373738281367,32.64525114565549,34.17878216072124,1577398221.999,-27.711694808069613,-51.1060583180313,24.98795
116496,1577398222.69,1.4793538477455697,0.3506629504692265,8.809435810963699,2.996606155916539,-0.6396606093988184,9.553506970810307,0.1427177770102896,0.0077081614424543,12.55817165914396,-1.3027656369092988,8.458579458841465,-0.1937121879763719,-2.752164515053354,19.33251357660061,-1.13677978515625,7.349153844321647,16.348489900914632,-5.610396222370427,-28.687180229107312,-15.337700320512822,-1.5499060401404114,8.538041455898599,-34.506575091575094,-64.79163661858975,27.373738281367,32.64525114565549,34.22670500494204,1577398221.999,-27.711694808069613,-51.1060583180313,24.98795
116497,1577398222.7,0.9418555750404916,-0.836861072968273,10.241168403737136,1.0142071813071647,-0.1368782607660065,10.538720953964608,1.4056591527427111,0.8983511790205798,9.0590459328256,-2.0657050900342986,7.420981802591464,-1.032945586413872,-0.0208412728658536,3.081903225038109,-0.35858154296875,5.151888219321647,-2.8318079506478657,0.2489787776295732,-28.119117254273505,-14.789925309065936,0.0,12.082134135705566,-36.53637362637362,-66.81559280563187,27.565429658250217,32.64525114565549,34.32255069338365,1577398221.999,-27.711694808069613,-51.1060583180313,24.98795
116498,1577398222.71,0.8221454920326791,0.360239757109851,9.783875886647293,1.409250455232946,1.6037063461675876,10.90144250547828,2.4052383458579456,-0.8398392262528581,9.179953116663487,0.9555351443407012,0.5240091463414634,-0.8803576957888719,0.3911460318216463,8.07152724847561,-0.40435791015625,-1.2568031869283538,15.677103182164634,0.2489787776295732,-27.551054279439697,-14.60733363858364,-0.7749530200702122,5.15504389790104,-41.103420329670335,-67.82757089915293,27.517506814029414,32.6931739898763,34.27462784916285,1577398221.999,-27.711694808069613,-51.1060583180313,24.98795
116499,1577398222.72,1.530829183438929,1.0952596667778198,10.779863777272292,1.0261781896079458,0.6603908920660252,6.077126160263433,1.8737255773032584,-1.816673503596608,11.361070829065833,0.1010429568407013,-6.708656869283536,-1.490709258288872,-3.576139124428354,9.50585342035061,-0.25177001953125,1.0625327505716462,3.2869664634146343,-1.460005597370427,-27.551054279439697,-14.60733363858364,-0.7749530200702122,5.15504389790104,-41.103420329670335,-16.014292510874544,27.565429658250217,32.6931739898763,34.27462784916285,1577398221.999,-27.711694808069613,-51.1060583180313,24.98795
116500,1577398222.73,0.257113900235804,-0.0755049450385854,9.295458747975417,0.0565265172446646,1.510332481421494,9.503228735947028,0.7532392003501334,0.4123282420088605,7.726672708948646,-5.117462902534299,3.545249380716464,-1.216051055163872,0.7268393911966463,-5.691900485899391,0.35858154296875,-3.118375452553354,10.641702791539634,-2.4670856754954267,-27.551054279439697,-14.60733363858364,-0.7749530200702122,4.510663410663409,-45.16301739926739,-16.014292510874544,27.373738281367,32.64525114565549,34.22670500494204,1577398221.999,-27.711694808069613,-51.1060583180313,24.98795
116501,1577398222.74,1.0064990198647104,-0.0659281383979604,7.811053718678543,1.172224490877477,-1.056251698266006,8.059525134872809,0.2887640782798209,1.2095973948408918,5.799340372522865,-3.8052070431592986,11.693442740091465,-0.3005237114138719,-1.8976723275533536,8.95653701410061,-0.64849853515625,-1.6840492806783538,16.562112947789632,-1.215864972370427,-27.929762929328906,-15.337700320512822,-0.464971812042126,17.237178033606607,-40.25767094017094,-12.978358230311354,27.61335250247102,32.6931739898763,34.27462784916285,1577398221.999,-27.711694808069613,-51.1060583180313,24.98795
116502,1577398222.75,1.9976985071693976,1.246094371367663,8.610717073170731,2.041319693514196,-1.664378919945693,7.927844043564215,-0.3121805384193978,-0.6028132618973894,10.262132267054117,-0.8755195431592987,-0.5135885099085366,-0.8498401176638719,-4.155973108803353,6.0573670922256095,-0.16021728515625,-4.888394983803353,24.984964510289632,-2.6501911442454267,-27.929762929328906,-14.60733363858364,0.1549906040140463,17.237178033606607,-3.382997557997557,-13.787940705128204,27.517506814029414,32.6931739898763,34.370473537604454,1577398221.999,-27.711694808069613,-51.1060583180313,24.98795
116503,1577398222.76,0.5013224695717411,-0.2790120861518672,7.357352504078933,0.5353668492759146,-0.4744606948480372,9.491257727646246,0.5329726476157584,0.0077081614424543,9.934126639612709,-2.6607978634717986,5.284751333841464,-0.0716418754763719,-5.590299280678353,-2.9148008765243905,0.23651123046875,4.358431188071647,2.7071324790396343,-2.1619098942454267,-28.40314874169041,-15.42899615575397,-1.317420134119355,17.237178033606607,-35.85977411477411,-63.98205414377289,27.46958396980861,32.789019678317906,34.370473537604454,1577398221.999,-27.711694808069613,-51.1060583180313,24.98795
116504,1577398222.77,0.4247080164467415,0.6427555530082885,9.597128157155105,0.5221987401450553,0.5131474899664158,10.101779150986092,2.416012253328649,-0.3191003651688733,9.918564328821692,-3.0727851681592986,0.4019388338414634,-1.093980742663872,-2.2486244759908534,2.059564357850609,-1.04522705078125,1.2914145865091464,1.089700838414634,-1.093794659870427,-25.46815670504907,-14.424741968101342,0.9299436240842456,3.705187801616373,-34.84487484737484,-13.990336323832418,27.229969748704587,32.7171354119867,34.322550693383654,1577398221.999,-27.711694808069613,-51.1060583180313,24.98795
116505,1577398222.78,1.0088932215248665,0.4895266467582885,11.378414192311356,1.124340457674352,-0.2565883437738185,11.339581409286872,0.6311349156821646,-3.585988530452077,10.173546805628334,-2.4319160275342986,-7.349526009908536,-1.643297148913872,-1.2568031869283538,-4.745855564024391,-1.19781494140625,-0.0666176400533536,2.2188512290396343,-0.5444782536204268,-27.36169995449509,-16.2506586729243,-0.3099812080280861,6.927090237804523,-38.56617216117216,-17.026270604395606,27.517506814029414,32.64525114565549,34.562164914487674,1577398221.999,-27.711694808069613,-51.1060583180313,24.98795
116506,1577398222.79,0.8389049036537728,-1.2534521618354604,11.826129902760574,-0.7479252405678353,0.4113939194097742,12.22783022520484,6.022877054354039,2.0044723460127667,12.000322672327552,-7.925080090034299,-3.1381002286585367,-0.5141467582888719,-0.2802406869283537,0.0759217797256097,-0.28228759765625,7.196565953696647,-5.166402677210366,1.378129168254573,-26.98299130460589,-14.059558627136752,-0.929943624084252,1.9331414617128904,-45.16301739926739,-16.823874985691393,27.517506814029414,32.789019678317906,34.370473537604454,1577398221.999,-27.711694808069613,-51.1060583180313,24.98795
116507,1577398222.8,0.0129053308998656,0.0082921130668822,11.155753437916824,0.4563581944907584,1.079376182593369,8.57667269346656,-0.7790498621498665,-0.1024251149247321,13.472756693323646,-1.8215644650342984,3.240073599466464,-0.5141467582888719,-1.4704262338033538,-8.80469345464939,-0.67901611328125,-6.414273890053353,-11.269918302210366,1.347611590129573,-28.308471579218107,-14.242150297619048,-1.084934228098292,17.55936827722542,-44.99386752136752,-17.026270604395606,27.373738281367,32.357714080330666,34.27462784916285,1577398221.999,-27.711694808069613,-51.1060583180313,24.98795
116508,1577398222.81,0.439073226407679,-0.0276209118354604,9.111105220143386,0.2576394566977896,0.6986981186285252,8.820881262802496,0.3773495397056021,3.002854438297923,7.638087247522865,-3.5915839962842986,0.9207376619664634,-0.910875273913872,-8.397916468178353,4.2263124047256095,-0.67901611328125,-4.033902796303353,-11.941305020960366,1.072953387004573,-28.308471579218107,-14.242150297619048,-1.084934228098292,17.55936827722542,-44.99386752136752,-17.026270604395606,27.3258154371462,32.64525114565549,34.41839638182526,1577398221.999,-27.711694808069613,-51.1060583180313,24.98795
116509,1577398222.82,2.454991024259242,0.1830688342582885,8.072021699635574,2.184971793123571,-0.8527445571527247,11.140862671493904,0.3534075231040396,-2.1853805592606705,12.44803838277677,4.312468738090701,-1.6732564786585369,-0.971910430163872,-5.040982874428353,-1.3278868140243902,-0.55694580078125,-4.491666468178353,-5.441060880335366,1.164506121379573,-28.308471579218107,-14.242150297619048,-1.084934228098292,18.042653642653644,-45.16301739926739,-16.823874985691393,27.517506814029414,32.6931739898763,34.27462784916285,1577398221.999,-27.711694808069613,-51.1060583180313,24.98795
116510,1577398222.83,0.5575862085854134,0.1782804309379765,8.341369386403152,1.2248969274009145,-0.5845939712152247,9.378730249618904,1.0980042394126333,-2.3553688771317645,6.05791415181974,-2.3861396603467986,4.384482779153964,-0.3157825004763719,-1.7145668588033538,-6.088629001524391,-2.11334228515625,-8.581021936928353,-3.2132776772103657,-1.093794659870427,-27.17234562955049,-16.433250343406595,0.0,2.5775219489505203,-33.99912545787546,-16.823874985691393,27.3976997034774,32.789019678317906,34.370473537604454,1577398221.999,-27.711694808069613,-51.1060583180313,24.98795
116511,1577398222.84,0.5611775110756478,-0.0252267101753042,8.694514131276199,1.9742820470298208,0.6029300522222742,11.037912000107184,1.3972794469321643,-1.316285356623952,6.74744422994474,-1.0891425900342986,-4.725014291158536,-0.4836291801638719,-4.064420374428353,1.6018006859756098,-0.03814697265625,-6.322721155678353,-15.054097989710366,-1.643111066120427,-27.929762929328906,-15.337700320512822,-0.464971812042126,3.705187801616373,-2.0297985347985343,-63.98205414377289,27.421661125587804,32.789019678317906,34.41839638182526,1577398221.999,-27.711694808069613,-51.1060583180313,24.98795
116512,1577398222.85,0.6952528040443978,-0.1473309948432729,11.06237957317073,1.5421286473716178,-0.2494057387933497,10.04431831114234,2.123919650789586,0.0962936228682355,9.865891892298256,-3.7746894650342986,-9.821449838033535,-1.277086211413872,4.770418492759148,-15.503301853086889,-1.51824951171875,0.1317466177591462,2.0357457602896343,-0.2545612614329268,-28.308471579218107,-16.068067002442003,-1.3949154361263716,5.316139019710448,-36.36722374847375,-15.407105654761905,27.517506814029414,32.7171354119867,34.32255069338365,1577398221.999,-27.711694808069613,-51.1060583180313,24.98795
116513,1577398222.86,0.659339779142054,-0.5088554455268667,12.647341072194168,0.0062482823813834,1.9245293686285248,13.384229627060307,3.2408147252524766,2.957364606754954,12.65872812887052,-3.2558906369092986,-3.8400045255335367,-0.8803576957888719,-2.904752405678354,-3.4335997046493905,0.14495849609375,-5.773404749428353,4.690775057164634,-0.2393024723704268,-26.793636979661287,-14.972516979548232,0.464971812042126,5.638329263329263,-42.62576923076923,-17.026270604395606,27.421661125587804,32.789019678317906,34.17878216072124,1577398221.999,-27.711694808069613,-51.1060583180313,24.98795
116514,1577398222.87,0.1421922205483031,0.3482687488090698,11.543614106862137,0.0780743321860708,0.6532082870855564,12.74018938047828,-0.5946963343178353,0.436270258610423,12.37142392965177,-2.7676093869092986,0.4324564119664634,-0.7888049614138719,1.0320151724466462,-0.5649473608993902,-1.07574462890625,2.008577672446646,-13.253560880335366,2.6598674495045733,-26.793636979661287,-14.60733363858364,-0.1549906040140398,7.410375603232745,-39.07362179487179,-16.823874985691393,27.517506814029414,32.6931739898763,34.27462784916285,1577398221.999,-27.711694808069613,-51.1060583180313,24.98795
116515,1577398222.88,-0.4539639928306021,-1.0044551891792104,9.340948579518386,0.1882076085532584,-1.2118748061761622,8.775391431259527,1.900061795564977,-0.3969119191239519,10.001164286097085,-2.6455390744092986,3.270591177591464,0.5539684760861281,-1.2568031869283538,-7.095709079649391,-0.34332275390625,-1.1347328744283538,-13.162008145960366,2.3241740901295733,-27.551054279439697,-13.511783615689868,-0.7749530200702122,17.237178033606607,-38.56617216117216,-16.62147936698718,27.3258154371462,32.789019678317906,34.08293647227963,1577398221.999,-27.711694808069613,-51.1060583180313,24.98795
116516,1577398222.89,1.3440814539467416,0.321932530547351,9.592339753834793,-0.5779369226967416,0.6508140854254002,11.562242163681404,-0.4342848230873665,-0.3897293141434831,11.830334354456458,1.9015800662157007,-8.631264291158537,-0.941392852038872,3.046175328696646,-14.75562118902439,0.48065185546875,-7.818082483803353,-26.681295255335368,2.5377971370045733,-27.7404086043843,-15.885475331959707,-0.6199624160561659,17.881558520844237,-35.85977411477411,-13.38314946771978,27.18204690448378,32.64525114565549,34.22670500494204,1577398221.999,-27.711694808069613,-51.1060583180313,24.98795
116517,1577398222.9,0.3792181849037728,0.5457903857719604,9.514528199879717,0.3653785314048209,-1.0634343032464746,10.609349902939217,0.1235641637290396,-3.650631975276296,7.176006327112709,1.0318290896532014,-2.573525033346036,0.1724987495236281,1.0625327505716462,-4.806890720274391,-0.77056884765625,-1.9892250619283536,-17.953267911585368,-1.063277081745427,-27.7404086043843,-15.885475331959707,-0.6199624160561659,17.237178033606607,-35.1831746031746,-68.43475775526557,27.565429658250217,32.64525114565549,34.27462784916285,1577398221.999,-27.711694808069613,-51.1060583180313,24.98795
116518,1577398222.91,1.3752060755287727,-0.6237771252143667,8.692119929616043,0.9232275182212272,-0.2541941421136622,9.354788233017342,1.9431574254477892,1.4969015940596415,7.525559769495521,-1.9741523556592984,-6.128822884908536,-0.4836291801638719,3.015657750571646,-6.668462985899391,-0.34332275390625,-4.644254358803353,-5.166402677210366,-0.9717243473704268,-27.551054279439697,-15.337700320512822,-0.464971812042126,4.510663410663409,-1.8606486568986569,-63.77965852506868,27.565429658250217,32.64525114565549,34.370473537604454,1577398221.999,-27.711694808069613,-51.1060583180313,24.98795
116519,1577398222.92,1.2004293543373663,1.049769835234851,11.364048982350418,2.291513767000524,0.9357240829839936,10.93735553038062,4.208072195955602,1.4190900401045636,9.081790848597084,-1.0281074337842986,-12.293373666158535,-1.338121367663872,1.1388266958841462,-2.472295993711891,-2.00653076171875,-1.5619789681783536,-18.533101895960368,0.5999309260670732,-26.604282654716684,-16.61584201388889,-0.6199624160561659,0.4832853654282225,-38.90447191697192,-7.311280906593405,27.421661125587804,32.669212567765896,34.32255069338365,1577398221.999,-27.711694808069613,-51.1060583180313,24.98795
116520,1577398222.93,1.2770438074623665,-1.344431824921398,11.632199568287918,1.612757596346227,0.2701360214605555,10.774549817489998,3.853730350252477,-1.2564303151200455,11.466415702112709,-2.9201972775342986,-3.7484517911585367,-0.1479358207888719,-5.132535608803353,6.5151307641006095,-0.83160400390625,2.435823766196646,-15.328756192835366,1.988480730754573,-28.308471579218107,-15.337700320512822,0.464971812042126,0.4832853654282225,-43.640668498168495,-0.8346211080586067,27.3258154371462,32.789019678317906,34.17878216072124,1577398221.999,-27.711694808069613,-51.1060583180313,24.98795
116521,1577398222.94,0.889183138517054,-0.3077425060737417,10.588327644459792,0.5856450841391959,0.4209707260503992,11.157622083114996,1.6917662511313831,0.9007453806807356,11.916525614222085,2.1762382693407014,-0.4220357755335365,-0.3615588676638719,-2.080777796303354,2.364740139100609,-0.43487548828125,-3.209928186928354,-4.403463224085366,1.133988543254573,-28.119117254273505,-14.789925309065936,0.3099812080280861,0.4832853654282225,-46.6853663003663,-0.8346211080586067,27.565429658250217,32.64525114565549,34.562164914487674,1577398221.999,-27.711694808069613,-51.1060583180313,24.98795
116522,1577398222.95,0.4749862513100228,-0.4274525890815542,11.191666462819168,0.7316913854087271,-0.1201188491449122,10.480063013290778,-1.2195829676186165,2.842442927067454,9.239808158167396,1.2607109255907014,-2.3141256192835367,-0.0258655082888719,3.107210484946646,-11.06299423589939,-1.31988525390625,-2.080777796303354,-0.7718714272103658,0.7067424495045732,-27.929762929328906,-15.702883661477411,-1.3949154361263716,5.638329263329263,-40.59597069597069,-5.692115956959706,27.61335250247102,32.50148261299308,34.370473537604454,1577398221.999,-27.711694808069613,-51.1060583180313,24.98795
116523,1577398222.96,0.9897396082436164,0.1926456408989135,11.481364863698074,1.160253482576696,0.3874519028082117,10.781732422470466,1.871331375643102,-0.7488595631669206,11.246149149378333,2.0236503787157014,-5.854164681783536,-1.093980742663872,-0.3717934213033537,2.822503810975609,0.57220458984375,0.8489097036966463,-1.565328458460366,-0.1477497379954268,-27.551054279439697,-14.972516979548232,-0.1549906040140398,17.55936827722542,-3.382997557997557,-65.6012190934066,27.517506814029414,32.6931739898763,34.27462784916285,1577398221.999,-27.711694808069613,-51.1060583180313,24.98795
116524,1577398222.97,0.8963657434975227,0.5661410998832885,9.16617185832698,1.0309665929282583,-0.4361534682855372,10.065866126083748,0.5521262608970083,-0.9308188893387956,8.03073631978849,3.610564441215701,-0.1473775724085368,-0.1174182426638719,1.7949546255716462,-4.349127048399391,0.17547607421875,-4.491666468178353,16.256937166539632,-4.816939191120427,-28.40314874169041,-15.06381281478938,-0.2324859060210631,9.504612186755043,-2.706398046398046,-65.6012190934066,27.3976997034774,32.789019678317906,34.27462784916285,1577398221.999,-27.711694808069613,-51.1060583180313,24.98795
116525,1577398222.98,1.2076119593178352,-1.0595218273628042,7.744016072194167,1.0309665929282583,0.9500892929449316,10.93735553038062,3.5448783360923204,-0.8565986378739519,9.728225296839272,-0.7534492306592987,-2.7108541349085367,-0.3920764457888719,-2.233365686928354,7.4001405297256095,-2.14385986328125,4.694124547446647,-0.8329065834603658,-2.5281208317454267,-29.255243203941124,-16.2506586729243,0.6199624160561659,3.382997557997558,-35.85977411477411,-63.98205414377289,27.565429658250217,32.64525114565549,34.27462784916285,1577398221.999,-27.711694808069613,-51.1060583180313,24.98795
116526,1577398222.99,1.626597249845179,-0.4992786388862417,10.834930415455888,1.0716680211509146,-0.577411366234756,9.460133106064216,2.226870322176305,-0.624361076838795,9.983207773645912,2.9391777224657014,-9.729897103658535,-0.7582873832888719,6.555696813071647,-9.90332626714939,-1.62506103515625,-0.7532631478658534,-2.8165491615853657,-0.5139606754954269,-27.7404086043843,-15.520291990995116,0.6199624160561659,2.255331705331705,-35.1831746031746,-13.585545086423991,27.373738281367,32.64525114565549,34.41839638182526,1577398221.999,-27.711694808069613,-51.1060583180313,24.98795
116527,1577398223.0,1.1525453211342416,0.139973204375476,13.786981062428543,1.859360367342321,0.6029300522222742,11.468868298935307,1.2799635655845083,-0.3993061207841081,8.878283707483803,2.9086601443407014,-6.250893197408536,-0.910875273913872,4.175325719321647,0.3200624047256097,-0.19073486328125,3.168245641196646,-3.4269007240853657,2.8429729182545733,-26.604282654716684,-14.059558627136752,0.3099812080280861,6.927090237804523,-34.84487484737485,-16.62147936698718,27.517506814029414,32.597328301434686,34.370473537604454,1577398222.999,-27.7118330427392,-51.10585353427469,25.278273
116528,1577398223.01,1.643356661466273,0.0394167346489135,10.731979744069168,-0.314574740079554,1.4289296249761814,9.87911839659156,-0.4941398645912728,0.3692326121260481,11.147986881311928,3.3969413943407014,-1.2154928067835369,-0.2700061332888719,1.4592612661966462,-1.0227110327743902,0.08392333984375,9.760042516196648,9.329446932164634,0.4320842463795732,-27.929762929328906,-14.60733363858364,0.7749530200702057,1.9331414617128904,-46.51621642246642,-7.108885287889194,27.3258154371462,32.64525114565549,34.41839638182526,1577398222.999,-27.7118330427392,-51.10585353427469,25.278273
116529,1577398223.02,1.4183017054115852,-0.4274525890815542,8.989000935475417,2.2783456578696644,-1.1424429580316309,9.134521680282964,0.5138190343345084,2.0044723460127667,9.112915470179114,-1.1501777462842986,-2.6498189786585367,-0.4225940239138719,0.6047690786966463,1.7849061547256098,-1.35040283203125,2.954622594321646,-10.781637052210366,-1.521040753620427,-28.308471579218107,-14.60733363858364,-0.1549906040140398,17.398273155416014,-40.42682081807081,-16.823874985691393,27.517506814029414,32.789019678317906,34.27462784916285,1577398222.999,-27.7118330427392,-51.10585353427469,25.278273
116530,1577398223.03,1.8037681726967412,0.2094050525200072,11.493335871998855,0.7676044103110709,0.3204142563238367,7.9709396734470275,1.2536273473227897,-0.6028132618973894,8.416202787073646,4.709197253715701,3.056968130716464,-0.3615588676638719,4.266878453696647,-15.70166611089939,1.15203857421875,-0.1581703744283537,3.5311070884146343,-2.5586384098704267,-26.604282654716684,-15.520291990995116,-0.3099812080280861,18.525939008081867,-2.706398046398046,-17.026270604395606,27.517506814029414,32.50148261299308,34.562164914487674,1577398222.999,-27.7118330427392,-51.10585353427469,25.278273
116531,1577398223.04,1.9462231714760383,0.3518600512993041,10.1884959672137,1.6821894444907584,0.6867271103277439,10.774549817489998,0.2384858434165396,-1.471908464534108,10.91096091695646,5.472136706840701,0.2951273104039635,-0.0258655082888719,3.595491734946646,-2.3654844702743905,-0.80108642578125,-4.461148890053353,8.688577791539634,-5.000044659870427,-27.551054279439697,-15.520291990995116,-0.7749530200702122,17.237178033606607,-2.706398046398046,-13.787940705128204,27.373738281367,32.6931739898763,34.22670500494204,1577398222.999,-27.7118330427392,-51.10585353427469,25.278273
116532,1577398223.05,1.5428001917397105,-0.396327967499523,11.050408564869947,1.0046303746665397,-0.6348722060785059,8.854400086044684,1.8018995274985707,1.5591508372237042,9.531900760706458,-4.995392590034299,-0.6661764005335366,-0.1784533989138719,6.281038609946647,-16.12891220464939,-0.40435791015625,1.5813315786966462,10.458597322789634,-4.084517316120427,-27.7404086043843,-14.789925309065936,-0.3099812080280861,17.237178033606607,-2.706398046398046,-13.787940705128204,27.61335250247102,32.50148261299308,34.27462784916285,1577398222.999,-27.7118330427392,-51.10585353427469,25.278273
116533,1577398223.06,1.3153510340248664,0.3171441272270385,12.060761665455884,0.7999261327231802,0.600535850562119,10.380703644394297,2.342989102693883,1.5579537363936262,10.797236338099037,3.5495292849657014,-1.8258443692835369,-0.910875273913872,3.3971274771341475,1.6475770531631095,-1.04522705078125,3.839632359946647,0.5709020102896342,1.011918230754573,-27.7404086043843,-14.789925309065936,-0.3099812080280861,7.571470725042154,-20.80543498168498,-15.002314417353478,27.373738281367,32.597328301434686,34.27462784916285,1577398222.999,-27.7118330427392,-51.10585353427469,25.278273
116534,1577398223.07,1.7151827112709603,-0.310136707733898,11.337712764088698,1.1937723058188834,1.6204657577886814,11.969256445907966,2.9223859044516955,1.844060834782298,10.14481638570646,0.2231132693407013,-2.4056783536585367,-0.6362170707888719,3.839632359946646,1.7238709984756098,1.06048583984375,-6.048062952553353,8.688577791539634,1.225541277629573,-27.7404086043843,-14.789925309065936,-0.3099812080280861,9.504612186755043,-38.56617216117216,-15.81189689217033,27.565429658250217,32.64525114565549,34.562164914487674,1577398222.999,-27.7118330427392,-51.10585353427469,25.278273
116535,1577398223.08,1.942631868985804,-0.3316845226753042,10.040055464284013,0.9735057530845084,1.0458573593511815,10.843981665634528,-0.1493748255287718,-0.5477466237137957,8.43296219869474,7.089568347465701,4.003013052591464,-0.2700061332888719,6.372591344321647,-8.22485947027439,0.63323974609375,4.633089391196647,0.7540074790396342,2.3241740901295733,-27.7404086043843,-14.789925309065936,-1.2399248321123315,17.237178033606607,-45.33216727716727,-4.072951007326006,27.517506814029414,32.45355976877228,34.562164914487674,1577398222.999,-27.7118330427392,-51.10585353427469,25.278273
116536,1577398223.09,0.9131251551186166,-0.4585772106635855,10.923515876881668,1.440375076814977,-1.381863124047256,6.860030103134528,1.1770128941977895,0.1417834544112043,8.45211581197599,0.7113945193407013,2.965415396341464,0.096204804211128,-1.9587074838033536,11.52001357660061,-1.10626220703125,11.804720250571648,-12.948385099085366,0.4015666682545732,-26.03621967988288,-14.972516979548232,-1.3949154361263716,17.237178033606607,-38.56617216117216,-8.525654618818681,27.421661125587804,32.789019678317906,34.27462784916285,1577398222.999,-27.7118330427392,-51.10585353427469,25.278273
116537,1577398223.1,1.2746496058022103,0.1447616076957885,10.50692478801448,-0.6377919642006478,0.7417937485113377,11.363523425888436,0.9351985265220084,-0.7009755299637956,9.83117596822599,3.915740222465701,0.8291849275914634,-0.2394885551638719,-2.355435999428354,6.3015077172256095,1.12152099609375,1.1540854849466462,10.611185213414634,-2.6196735661204267,-28.308471579218107,-14.972516979548232,-1.084934228098292,17.237178033606607,-3.382997557997557,-17.026270604395606,27.373738281367,32.45355976877228,34.17878216072124,1577398222.999,-27.7118330427392,-51.10585353427469,25.278273
116538,1577398223.11,2.191628841642054,1.8805578113090693,11.864437129323074,0.2241206334556021,0.3635098862066492,12.390635938095466,2.4291803624595083,0.2567051340987042,10.28368008199552,7.699919909965701,-0.9103170255335366,-1.032945586413872,5.457064000571647,3.188714748475609,0.90789794921875,-5.376676233803353,11.526712557164634,-4.023482159870427,-26.98299130460589,-15.885475331959707,-0.3099812080280861,17.237178033606607,-35.85977411477411,-68.839548992674,27.61335250247102,32.789019678317906,34.08293647227963,1577398222.999,-27.7118330427392,-51.10585353427469,25.278273
116539,1577398223.12,1.366826369718226,0.3554513537895385,10.505727687184402,1.603180789705602,-0.788101112328506,8.60779731504859,2.386084732576696,0.139389252751048,8.198330435999427,1.4132988162157012,5.055869497903964,0.4166393745236281,2.832552281821646,8.83446670160061,-0.28228759765625,9.515901891196648,6.186136385289634,-3.1689899723704267,-28.497825904162717,-15.885475331959707,-0.309981208028083,5.316139019710446,-2.706398046398046,-17.026270604395606,27.541468236139814,32.45355976877228,34.370473537604454,1577398222.999,-27.7118330427392,-51.10585353427469,25.278273
116540,1577398223.13,1.9833332972084603,-0.3245019176948355,9.826971516530104,1.4846678075278674,0.3730866928472742,10.308877594589609,2.152650070711461,1.5028870982100324,9.82399336324552,0.1925956912157013,-1.8563619474085369,-0.5141467582888719,1.1540854849466464,1.525506740663109,-0.08392333984375,0.5742515005716464,-1.138082364710366,0.8288127620045731,-27.17234562955049,-15.337700320512822,0.464971812042126,4.752306093377522,-35.77519917582417,-15.710699082818223,27.517506814029414,32.7171354119867,34.27462784916285,1577398222.999,-27.7118330427392,-51.10585353427469,25.278273
116541,1577398223.14,2.0360057337318977,0.398546983672351,12.61382224895198,2.3741137242759147,0.8710806381597752,11.681952246689216,3.741202872225133,-0.6913987233231706,5.928627262171302,2.4203788943407014,-2.7718892911585367,-0.5446643364138719,9.241243688071648,-6.698980564024391,2.64739990234375,6.006380406821647,2.9207555259146343,1.988480730754573,-27.36169995449509,-16.981025354853482,-0.3099812080280861,7.249280481423338,-35.85977411477411,-15.00231441735348,27.565429658250217,32.64525114565549,34.370473537604454,1577398222.999,-27.7118330427392,-51.10585353427469,25.278273
116542,1577398223.15,1.9665738855873665,0.4631904284965698,11.9889356156512,1.4978359166587272,1.0554341659918065,7.487310938095465,1.4331924718345084,-1.4862736744950455,7.451339518030677,1.4132988162157014,3.7893900057164633,0.4624157417111281,1.4287436880716462,7.5527284203506095,-0.77056884765625,5.151888219321647,14.090189119664634,0.5541545588795732,-27.551054279439697,-14.972516979548232,-0.464971812042126,7.249280481423338,-38.56617216117216,-2.0489948202838826,27.373738281367,32.64525114565549,34.17878216072124,1577398222.999,-27.7118330427392,-51.10585353427469,25.278273
116543,1577398223.16,1.004104818204554,0.264471690703601,8.833377827565261,-1.1908525476967415,-0.0530812026605372,6.773838843368902,1.6678242345298209,0.2782529490401105,9.117703873499428,2.8781425662157014,7.054770865091464,0.3403454292111281,-1.0736977181783538,-12.43628525152439,3.80706787109375,8.325716344321647,3.2869664634146343,-1.368452862995427,-27.551054279439697,-14.972516979548232,-0.464971812042126,7.249280481423338,-38.56617216117216,-2.0489948202838826,27.565429658250217,32.6931739898763,34.27462784916285,1577398222.999,-27.7118330427392,-51.10585353427469,25.278273
116544,1577398223.17,1.0639598597084603,0.3171441272270385,9.017731355397292,0.3988973546470084,0.6029300522222742,10.27416167051734,0.0661033238852896,0.1250240427901105,11.040247806604896,0.6198417849657013,5.650962271341464,-0.2700061332888719,-2.782682093178354,9.84154677972561,0.72479248046875,5.670687047446647,1.547464510289634,-1.307417706745427,-29.06588887899652,-15.337700320512822,-0.7749530200702122,7.249280481423338,-37.88957264957265,-17.026270604395606,27.517506814029414,32.789019678317906,34.17878216072124,1577398222.999,-27.7118330427392,-51.10585353427469,25.278273
116545,1577398223.18,1.5619538050209605,1.011462608672351,9.747962861744949,1.3182707921470085,-1.0323096816644437,9.440979492782963,-0.0248763392006468,-0.2915670460770759,9.098550260218175,4.373503894340701,3.240073599466464,0.3708630073361281,-0.8905922494283537,13.71727920160061,-0.19073486328125,-6.994107874428353,26.144632479039632,-2.7112263004954267,-27.551054279439697,-15.702883661477411,-0.7749530200702122,7.08818535961393,-34.33742521367521,-68.63715337396978,27.517506814029414,32.789019678317906,34.17878216072124,1577398222.999,-27.7118330427392,-51.10585353427469,25.278273
116546,1577398223.19,1.035229439786585,0.6331787463676639,8.991395137135575,1.5050185216391958,-0.9269648086175684,9.347605628036872,0.5449436559165396,-1.998632829768483,11.813574942835364,1.9320976443407012,5.498374380716464,0.080946015148628,-2.202848108803354,-1.5415098608993902,0.81634521484375,-1.8366371713033536,10.885843416539634,-3.657271222370426,-28.687180229107312,-14.97251697954823,-0.9299436240842488,4.993948776091632,-2.0297985347985343,-64.79163661858975,27.421661125587804,32.597328301434686,34.22670500494204,1577398222.999,-27.7118330427392,-51.10585353427469,25.278273
116547,1577398223.2,0.7335600306068978,0.0202631213676635,9.692896223561355,0.5784624791587272,1.644407774390244,11.555059558700934,0.5066364293540396,1.279029242985423,7.43697430806974,-1.9131171994092984,0.4324564119664634,-0.1784533989138719,1.0930503286966462,6.5151307641006095,-1.25885009765625,4.144808141196647,6.186136385289634,-0.9106891911204268,-28.308471579218107,-13.146600274725277,0.7749530200702057,0.3221902436188151,-34.33742521367521,-16.823874985691393,27.517506814029414,32.789019678317906,34.27462784916285,1577398222.999,-27.7118330427392,-51.10585353427469,25.278273
116548,1577398223.21,1.463791536954554,0.666697569609851,10.51410739299495,1.698948856111852,1.202677568091416,8.35880034239234,3.30904947256693,-1.5030330861161394,8.750193918665444,-3.0117500119092986,-0.8797994474085366,-0.5141467582888719,-1.9892250619283536,5.7979676781631095,0.14495849609375,-0.9821449838033538,8.429178377477132,-0.2850788395579268,-27.551054279439697,-15.702883661477411,-0.464971812042126,7.007637798709227,-40.51139575702076,-3.566961960565476,27.373738281367,32.669212567765896,34.39443495971486,1577398222.999,-27.7118330427392,-51.10585353427469,25.278273
116549,1577398223.22,1.7630667444740853,0.0705413562309447,9.750357063405104,2.149058768221227,2.003538023413681,11.001998975204842,1.8354183507407584,-2.072853081233327,7.101786075647865,0.5893242068407013,-0.1778951505335365,-0.3310412895388719,-2.050260218178354,9.93309951410061,1.36566162109375,3.198763219321646,-5.898824552210366,0.8288127620045732,-27.36169995449509,-15.885475331959707,-0.6199624160561659,7.08818535961393,-42.45661935286935,-7.918467762706044,27.61335250247102,32.789019678317906,34.41839638182526,1577398222.999,-27.7118330427392,-51.10585353427469,25.278273
116550,1577398223.23,0.9346729700600228,0.2812311023246948,10.724797139088698,-0.4654094446693978,1.175144248999619,7.652510852646246,1.9072444005454456,1.623794282047923,8.301281107386146,-2.9201972775342986,1.988852896341464,-0.3615588676638719,-3.942350061928354,13.13744521722561,-0.25177001953125,-1.3788734994283538,0.3267613852896341,-1.704146222370427,-27.7404086043843,-15.520291990995116,-0.6199624160561659,5.638329263329263,-41.272570207570205,-17.026270604395606,27.517506814029414,32.789019678317906,34.562164914487674,1577398222.999,-27.7118330427392,-51.10585353427469,25.278273
116551,1577398223.24,1.013681624845179,1.4783319324028197,10.274687226979324,1.9240038121665397,-0.7186692641839747,7.686029675888434,1.373337430330602,-0.3514220875809831,7.865536405237709,-2.4929511837842986,3.8199075838414633,-0.3310412895388719,-2.202848108803354,-0.8396055640243902,1.27410888671875,-0.7074867806783537,5.423196932164634,0.0963908870045732,-28.119117254273505,-14.424741968101342,-0.6199624160561659,17.398273155416014,-39.41192155067155,-13.585545086423991,27.61335250247102,32.357714080330666,34.370473537604454,1577398222.999,-27.7118330427392,-51.10585353427469,25.278273
116552,1577398223.25,1.770249349454554,0.6164193347465697,8.62268808147151,1.5481141515220085,-0.0291391860589747,8.399501770614997,1.3422128087485707,-1.1367202321122332,11.741748893030676,-3.4084785275342986,-0.4525533536585365,-0.910875273913872,-1.8366371713033536,5.1723573266006095,-0.92315673828125,-9.069303186928352,16.806253572789632,-2.8943317692454267,-28.119117254273505,-14.424741968101342,-0.6199624160561659,17.237178033606607,-37.55127289377289,-65.6012190934066,27.517506814029414,32.50148261299308,34.17878216072124,1577398222.999,-27.7118330427392,-51.10585353427469,25.278273
116553,1577398223.26,0.5444180994545541,0.3291151355278202,8.076810102955886,-0.2116240686928353,-0.596564979516006,8.679623364853278,1.9910414586509144,-0.1287613331864509,9.917367227991615,-4.079865246284299,6.307090201028964,0.218275116711128,4.022737828696647,-23.54468368902439,1.21307373046875,-7.970670374428353,8.322366854039634,-4.084517316120427,-27.267022792022797,-15.246404485271674,0.232485906021063,3.382997557997558,-33.15337606837607,-62.36288919413919,27.565429658250217,32.45355976877228,34.370473537604454,1577398222.999,-27.7118330427392,-51.10585353427469,25.278273
116554,1577398223.27,0.1014907923256468,0.4631904284965698,9.209267488209791,1.124340457674352,-0.5007969131097559,8.957350757431403,0.7173261754477896,1.8703970530440168,6.639705155237709,-1.4248359494092986,2.141440786966464,-0.3920764457888719,-8.001187952553353,1.4797303734756098,-0.43487548828125,2.191683141196646,11.282571932164634,-1.398970441120427,-28.49782590416271,-14.424741968101342,-0.3099812080280861,3.705187801616373,-34.506575091575094,-64.79163661858975,27.61335250247102,32.64525114565549,34.41839638182526,1577398222.999,-27.7118330427392,-51.10585353427469,25.278273
116555,1577398223.28,1.0376236414467417,-1.210356531952648,9.93231638957698,-0.2822530176674442,-0.3343998977288966,10.246628351425544,2.60036578116068,0.6529455088545637,10.766111716517006,-6.765412121284299,-8.814369759908537,-0.8803576957888719,-2.279142054115854,-6.4700987280868905,-0.78582763671875,2.145906774009146,0.9523717368521344,0.4778606135670731,-28.49782590416271,-14.424741968101342,-0.929943624084252,17.237178033606607,-37.21297313797314,-68.02996651785715,27.373738281367,32.669212567765896,34.17878216072124,1577398222.999,-27.7118330427392,-51.10585353427469,25.278273
116556,1577398223.29,1.1333917078529916,0.1615210193168822,10.274687226979324,0.2983408849204459,0.2629534164800867,10.116144360947027,1.658247427889196,0.6062585764815168,14.59324307027677,-0.3567207150342987,0.2798685213414634,-0.6362170707888719,-5.315641077553353,-5.264654392149391,0.26702880859375,-7.512906702553353,-2.0230921303353657,1.378129168254573,-27.929762929328906,-15.337700320512822,-0.1549906040140398,4.349568288854003,-41.272570207570205,-17.026270604395606,27.421661125587804,32.789019678317906,34.27462784916285,1577398222.999,-27.7118330427392,-51.10585353427469,25.278273
116557,1577398223.3,0.1493748255287718,-0.2861946911323355,11.73275603801448,0.9806883580649772,-0.156031874047256,9.596602600693124,-0.6784933924233041,2.140941840641673,10.542253861292396,-5.056427746284299,2.232993521341464,-0.5751819145388719,-2.355435999428354,1.6628358422256098,-1.28936767578125,-7.818082483803353,-7.851949552210366,1.347611590129573,-28.119117254273505,-16.61584201388889,-0.6199624160561659,7.249280481423338,-38.2278724053724,-17.026270604395606,27.373738281367,32.64525114565549,34.17878216072124,1577398222.999,-27.7118330427392,-51.10585353427469,25.278273
116558,1577398223.31,1.1070554895912728,-0.2622526745307729,8.416786738698073,-0.4438616297279915,-0.3236259902581935,7.0707198492282775,2.031742886873571,-0.3705757008622331,6.596609525354896,-1.0281074337842986,3.6368021150914633,-0.2700061332888719,-2.141812952553354,-4.318609470274391,0.51116943359375,-7.970670374428353,-5.532613614710366,1.561234637004573,-27.551054279439697,-16.433250343406595,-1.3949154361263716,17.237178033606607,-38.56617216117216,-15.407105654761905,27.517506814029414,32.45355976877228,34.370473537604454,1577398222.999,-27.7118330427392,-51.10585353427469,25.278273
116559,1577398223.32,2.277820101407679,0.2094050525200072,9.039279170338698,0.6287407140220084,-0.6348722060785059,6.333305737900153,0.4898770177329459,-1.8334329152177016,9.749773111780677,-1.8520820431592984,-8.783852181783537,-1.734849883288872,-0.4633461556783537,-1.9382383765243905,-1.38092041015625,-11.327603968178352,-7.180562833460366,-0.0256794254954267,-27.7404086043843,-15.885475331959707,-0.6199624160561659,17.237178033606607,-3.382997557997557,-17.026270604395606,27.61335250247102,32.6931739898763,34.46631922604607,1577398222.999,-27.7118330427392,-51.10585353427469,25.278273
116560,1577398223.33,0.0943081873451781,0.5757179065239135,9.044067573659012,-0.3456993616615853,-1.020338673363662,8.579066895126715,0.951957938143102,3.8623728342940167,7.3076874184213025,-4.446076183784299,4.857505240091464,-0.4225940239138719,-3.850797327553354,0.0454042016006097,-1.01470947265625,-5.010465296303353,2.3409215415396343,-1.032759503620427,-27.7404086043843,-15.885475331959707,-0.6199624160561659,18.525939008081867,-35.85977411477411,-64.79163661858975,27.373738281367,32.789019678317906,34.46631922604607,1577398222.999,-27.7118330427392,-51.10585353427469,25.278273
116561,1577398223.34,0.5683601160561166,0.2716542956840698,9.290670344655105,-0.2427486902748665,0.9141762680425876,10.872712085556405,-0.4318906214272103,-0.7129465382645769,7.997217496546303,-3.850983410346799,-1.5359273770960362,-0.4683703911013719,2.466341344321646,-6.424322360899391,-0.98419189453125,-5.407193811928353,4.355081697789634,-1.368452862995427,-27.8350857668566,-15.246404485271674,-1.0074389260912686,0.4832853654282225,-35.52147435897436,-16.216688129578753,27.517506814029414,32.6931739898763,34.27462784916285,1577398222.999,-27.7118330427392,-51.10585353427469,25.278273
116562,1577398223.35,0.726377425626429,-0.4322409924018667,8.962664717213698,1.9551284337485704,-0.151243470726944,11.019955487656013,1.8402067540610707,0.7750497935225324,10.81399574972013,-3.7136543087842986,-2.4056783536585367,-0.971910430163872,-2.950528772865854,-1.2515928687118905,-1.47247314453125,-1.8518959603658536,6.384500643102134,-0.5139606754954268,-28.87653455405192,-15.520291990995116,-1.2399248321123315,4.993948776091633,-38.73532203907203,-16.014292510874544,27.565429658250217,32.62128972354509,34.41839638182526,1577398222.999,-27.7118330427392,-51.10585353427469,25.278273
116563,1577398223.36,-0.1690539952720084,-1.9310112316596797,10.301023445241045,0.0924395421470083,0.0331100571050867,11.48083930723609,1.3661548253501334,-1.7041460255692644,5.887925833948646,-9.1457832150343,-1.3680806974085369,-0.2700061332888719,0.2080405630716463,-3.8913633765243913,-1.56402587890625,-6.994107874428353,-3.4879358803353657,1.439164324504573,-27.7404086043843,-15.520291990995116,-1.2399248321123315,3.060807314378742,-44.31726800976801,-2.4537860576923087,27.517506814029414,32.50148261299308,34.08293647227963,1577398222.999,-27.7118330427392,-51.10585353427469,25.278273
116564,1577398223.37,-0.7149319737876334,0.6020541247856322,11.256309907643386,0.0421613072837271,1.6898976059332127,10.70272376768531,3.001394559236852,0.7379396677901106,9.879060001429115,-3.3169257931592986,-6.098305306783536,-0.8498401176638719,-2.202848108803354,-10.36108993902439,0.05340576171875,-11.815885218178352,21.475443025914632,0.3405315120045732,-27.17234562955049,-14.972516979548232,1.084934228098292,7.08818535961393,-38.397022283272285,-16.823874985691393,27.373738281367,32.64525114565549,34.370473537604454,1577398222.999,-27.7118330427392,-51.10585353427469,25.278273
116565,1577398223.38,1.061565658048304,0.408123790312976,9.328977571217605,2.2520094396079458,-0.5845939712152247,9.414643274521246,1.1554650792563834,-0.8278682179520769,10.740972599085366,-1.4858711056592986,-10.889565072408535,-1.216051055163872,-1.8061195931783536,7.0949647484756095,-1.89971923828125,-3.576139124428354,5.301126619664634,0.2794963557545732,-27.7404086043843,-14.424741968101342,-1.2399248321123315,17.398273155416014,-38.397022283272285,-16.823874985691393,27.373738281367,32.45355976877228,34.46631922604607,1577398222.999,-27.7118330427392,-51.10585353427469,25.278273
116566,1577398223.39,1.5236465784584603,0.4117150928032108,9.327780470387529,-0.9873454065834604,-0.3930578384027247,6.61582153379859,-0.8341165003334603,-1.950748796565358,6.682800785120521,2.7560722537157014,-2.512489877096036,-0.3463000786013719,-5.010465296303353,0.7778260766006098,-1.44195556640625,-14.226773890053352,2.2493688071646343,-2.9248493473704267,-27.7404086043843,-14.424741968101342,-1.2399248321123315,17.237178033606607,-35.85977411477411,-13.787940705128204,27.421661125587804,32.6931739898763,34.370473537604454,1577398222.999,-27.7118330427392,-51.10585353427469,25.278273
116567,1577398223.4,0.0703661707436156,0.1926456408989135,8.443122956959792,2.3166528844321643,-0.0291391860589747,7.911084631943122,0.0900453404868521,2.234315705387767,7.537530777796302,-7.986115246284299,0.9817728182164634,0.3098278510861281,-2.538541468178354,-5.417242282774391,-0.34332275390625,1.9780600943216464,-6.570211270960366,-2.2839802067454267,-28.119117254273505,-15.155108650030527,-0.3099812080280861,7.08818535961393,-34.33742521367521,-10.347215187156593,27.421661125587804,32.50148261299308,34.17878216072124,1577398222.999,-27.7118330427392,-51.10585353427469,25.278273
116568,1577398223.41,1.712788509610804,-0.2215512463081167,7.219685908619949,-0.7024354090248666,1.6539845810308689,10.468092004989996,3.1402582555259144,0.005313959782298,7.937362455042396,-2.4319160275342986,-7.532631478658536,-0.7582873832888719,4.877230016196647,-20.30982040777439,-2.35748291015625,7.501741734946647,-8.675924161585366,-3.4131305973704267,-27.7404086043843,-14.789925309065936,0.3099812080280861,3.060807314378742,-35.85977411477411,-17.026270604395606,27.517506814029414,32.50148261299308,34.41839638182526,1577398222.999,-27.7118330427392,-51.10585353427469,25.278273
116569,1577398223.42,1.3536582605873666,0.475161436797351,8.440728755299636,1.8952733922446643,0.247391105689071,8.350420636581795,1.5205808324302112,0.263887739079173,5.258250797327553,2.0846855349657014,-7.990395150533536,-1.734849883288872,-1.3483559213033538,-9.79651474371189,-1.96075439453125,-2.9047524056783534,-16.198507169397868,0.5694133479420732,-29.633951853830325,-14.789925309065936,-0.3099812080280861,5.0744963369963365,-39.15819673382173,-16.31788593893086,27.565429658250217,32.74109683409711,34.27462784916285,1577398222.999,-27.7118330427392,-51.10585353427469,25.278273
116570,1577398223.43,1.7498986353432258,0.068147154570789,9.713246937672682,0.4156567662681021,0.3778750961675867,6.493717249130621,0.2097554234946646,-1.9842676198075453,7.80089296041349,-2.9659736447217986,-3.595863900533536,-1.216051055163872,-4.278043421303353,-6.546392673399391,-0.03814697265625,-10.900357874428352,7.437357088414634,-1.185347394245427,-28.49782590416271,-16.2506586729243,-1.2399248321123315,3.22190243618815,-45.50131715506714,-16.823874985691393,27.3976997034774,32.6931739898763,34.370473537604454,1577398222.999,-27.7118330427392,-51.10585353427469,25.278273
116571,1577398223.44,0.841299105313929,-0.4705482189643667,9.558820930592605,0.3198886998618521,-0.7809185073480372,10.88707729551734,-0.8173570887123666,1.4178929392744857,9.28290378805021,-5.086945324409299,-7.166420541158536,-1.704332305163872,-4.125455530678353,7.7053163109756095,-1.99127197265625,0.0554526724466463,11.404642244664634,-2.6807087223704267,-27.17234562955049,-14.242150297619048,-0.1549906040140398,6.927090237804523,-38.2278724053724,-16.62147936698718,27.517506814029414,32.789019678317906,34.27462784916285,1577398222.999,-27.7118330427392,-51.10585353427469,25.278273
116572,1577398223.45,1.7630667444740853,0.0011095080864135,10.822959407155103,0.6335291173423209,0.0905708969488367,8.931014539169684,4.540866226717321,-0.3490278859208269,9.929338236292397,-4.140900402534299,-4.755531869283536,-1.368638945788872,4.022737828696647,-5.264654392149391,-3.05938720703125,8.112093297446647,0.1131383384146341,-3.5352009098704267,-27.929762929328906,-14.972516979548232,-0.464971812042126,7.571470725042153,-38.56617216117216,-12.573566992902933,27.373738281367,32.597328301434686,34.370473537604454,1577398222.999,-27.7118330427392,-51.10585353427469,25.278273
116573,1577398223.46,0.8113715845619759,0.0717384570610229,9.916754078785964,0.4120654637778678,0.6783474045171966,11.255784351181404,0.5820537816489615,-1.050528972346608,11.370647635706458,-0.4330146603467986,0.3866800447789633,-0.8345813286013719,-1.2415443978658538,-5.340948337461891,-0.81634521484375,-6.002286585365853,-9.133687833460366,-3.0316608708079267,-27.551054279439697,-14.60733363858364,-0.464971812042126,18.042653642653644,-19.62138583638584,-40.09937113667583,27.49354539191901,32.54940545721389,34.370473537604454,1577398222.999,-27.7118330427392,-51.10585353427469,25.278273
116574,1577398223.47,-0.1091989537681021,-0.3268961193549917,9.726415046803542,1.191378104158727,-0.0387159926995997,10.72187738096656,5.259126724764196,4.9373693797041724,8.686747574671303,-1.1501777462842986,-3.7179342130335367,-0.5141467582888719,0.4521811880716463,0.4116151391006097,-1.93023681640625,3.137728063071646,-11.300435880335366,0.7677776057545732,-27.929762929328906,-14.60733363858364,-0.1549906040140398,4.349568288854003,-3.382997557997557,-17.026270604395606,27.565429658250217,32.6931739898763,34.27462784916285,1577398222.999,-27.7118330427392,-51.10585353427469,25.278273
116575,1577398223.48,1.961785482267054,0.072935557891101,9.5755803422137,2.556073050447789,-0.8383793471917872,7.923055640243902,0.8705550816977896,-0.5908422535966081,9.598938407190834,1.8405449099657007,-9.089027963033535,-1.795885039538872,-4.583219202553353,7.0339295922256095,-2.38800048828125,-11.937955530678352,-12.032857755335366,0.3405315120045732,-27.551054279439697,-15.337700320512822,-0.1549906040140398,1.9331414617128904,-32.984226190476186,-12.775962611607142,27.373738281367,32.64525114565549,34.17878216072124,1577398222.999,-27.7118330427392,-51.10585353427469,25.278273
116576,1577398223.49,2.1557158167397104,-0.6764495617378042,8.28510564738948,2.591986075350133,0.7082749252691503,10.64526292784156,2.161029776522008,-3.887657939631764,6.385919779261147,1.4132988162157014,-9.333168588033535,-2.223131133288872,3.412386266196646,-17.04443954839939,-1.53350830078125,0.3301108755716463,0.5403844321646342,-0.2087848942454268,-28.687180229107312,-16.068067002442003,-0.7749530200702122,1.9331414617128904,-32.984226190476186,-12.775962611607142,27.61335250247102,32.789019678317906,34.08293647227963,1577398222.999,-27.7118330427392,-51.10585353427469,25.278273
116577,1577398223.5,1.9150985498940072,-0.1066295666206172,9.571989039723464,2.116737045809117,0.7238372360601653,8.776588532089606,2.406435446688024,-0.3909264149735613,6.467322635706458,-2.3708808712842986,-1.7953267911585369,-0.987169219226372,0.3758872427591463,-8.11804794683689,-1.25885009765625,-2.4622475228658534,-11.498800138147866,-0.5902546208079269,-27.929762929328906,-14.789925309065936,-0.7749530200702089,1.8525939008081864,-38.48159722222222,-14.901116608001374,27.517506814029414,32.64525114565549,34.34651211549405,1577398222.999,-27.7118330427392,-51.10585353427469,25.278273
116578,1577398223.51,0.7239832239662728,-0.8895335094917105,10.451858149830889,1.0429376012290397,0.4904025741949304,9.651669238876716,1.0453318028891958,1.7530811716963606,11.021094193323648,-5.697296886909299,-5.365883431783536,-0.3005237114138719,0.8489097036966463,-11.82593368902439,-1.68609619140625,-1.1042152963033538,-4.891744474085366,-2.2534626286204267,-27.7404086043843,-15.155108650030527,-0.6199624160561659,1.9331414617128904,-43.80981837606838,-16.823874985691393,27.565429658250217,32.789019678317906,34.370473537604454,1577398222.999,-27.7118330427392,-51.10585353427469,25.278273
116579,1577398223.52,1.2554959925209603,0.159126817656726,12.39116149455745,2.611139688631383,0.2509824081793054,11.734624683212653,2.407632547518102,0.2686761423994855,9.395431266077551,-0.9670722775342988,-8.509193978658537,-0.6362170707888719,-3.728727015053354,7.7358338891006095,-1.77764892578125,-2.660611780678354,13.418802400914634,-0.6970661442454268,-28.49782590416271,-15.885475331959707,-0.3099812080280861,6.604899994185707,-41.272570207570205,-17.026270604395606,27.373738281367,32.50148261299308,34.370473537604454,1577398222.999,-27.7118330427392,-51.10585353427469,25.278273
116580,1577398223.53,1.511675570157679,0.187857237578601,11.65614158488948,-0.2235950769936165,0.5957474472418054,11.92137241270484,1.7731691075766958,-3.4854320607255143,13.630774002893958,1.2607109255907014,-7.074867806783536,-1.887437773913872,9.729524938071648,-22.04932236089939,-0.55694580078125,-10.228971155678352,-13.955465177210366,-0.3308552067454268,-28.87653455405192,-16.61584201388889,-0.3099812080280861,18.20374876446305,-34.506575091575094,-17.026270604395606,27.373738281367,32.88486536675951,34.370473537604454,1577398222.999,-27.7118330427392,-51.10585353427469,25.278273
116581,1577398223.54,1.617020443204554,0.0142776172172733,10.848098524586746,0.098425046297399,-0.4720664931878809,10.640474524521249,1.890484988924352,2.09186070660847,9.876665799768958,2.4508964724657014,0.8139261385289637,0.004652069836128,4.709383336509147,-11.09351181402439,-0.32806396484375,0.3148520865091462,1.4864293540396345,-1.078535870807927,-28.687180229107312,-14.424741968101344,-0.309981208028083,18.12320120355835,-18.521911630036627,-66.30960375887133,27.46958396980861,32.50148261299308,34.130859316500434,1577398222.999,-27.7118330427392,-51.10585353427469,25.278273
116582,1577398223.55,2.016852120450648,-0.4561830090034292,9.53009051067073,3.609521780916539,-0.299683973656631,9.555901172470469,0.987870963045446,0.5248557200362043,11.511905533655677,1.5048515505907014,-5.213295541158536,-0.910875273913872,1.5202964224466462,5.1113221703506095,-1.44195556640625,-2.508023890053354,-7.150045255335366,-2.7112263004954267,-29.444597528885723,-14.60733363858364,0.464971812042126,-0.8054756090470375,-35.52147435897436,-14.597523179945052,27.517506814029414,32.6931739898763,34.22670500494204,1577398222.999,-27.7118330427392,-51.10585353427469,25.278273
116583,1577398223.56,0.8436933069740853,0.2764426990043823,8.107934724537918,2.6901483434165394,-0.5750171645745997,8.622162525009527,-0.0943081873451781,-3.4495190358231707,4.877572733362709,3.915740222465701,2.080405630716464,0.1877575385861281,0.7573569693216463,2.364740139100609,-1.89971923828125,11.865755406821648,-2.3893030678353657,-0.2087848942454268,-26.604282654716684,-15.520291990995116,0.0,7.893660968660968,-37.21297313797314,-17.026270604395606,27.517506814029414,32.64525114565549,34.22670500494204,1577398222.999,-27.7118330427392,-51.10585353427469,25.278273
116584,1577398223.57,2.74947782845846,-0.3556265392768667,7.387280024830886,0.1714481969321646,1.3774542892828214,8.057130933212653,2.793099014803258,-0.311917760188405,10.185517813929115,-5.453156261909299,-6.464516244283536,-0.7582873832888719,2.008577672446646,-1.9687559546493905,0.00762939453125,3.961702672446648,3.5158482993521343,0.5694133479420731,-28.87653455405192,-16.2506586729243,-0.6199624160561659,7.007637798709227,-39.834796245421245,-16.925072795043498,27.3258154371462,32.64525114565549,34.17878216072124,1577398222.999,-27.7118330427392,-51.10585353427469,25.278273
116585,1577398223.58,0.7826411646401009,0.250106480742664,10.105896009938308,-0.3768239832436165,0.3706924911871179,10.68357015440406,0.9016797032798208,0.5296441233565168,12.438461576136143,1.077605456840701,-1.2765279630335362,-0.5294055473513719,4.327913609946647,-11.39868759527439,0.54168701171875,2.832552281821646,-8.309713224085366,0.0353557307545732,-28.40314874169041,-14.881221144307084,-0.8524483220772321,5.960519506948078,-41.272570207570205,-4.882533482142857,27.46958396980861,32.597328301434686,34.27462784916285,1577398222.999,-27.7118330427392,-51.10585353427469,25.278273
116586,1577398223.59,0.6808875940834603,-0.3268961193549917,12.915491658131668,-1.1788815393959602,-0.213492713891006,10.180787805771248,1.0884274327720085,2.7394922556807355,11.085737638147863,1.5964042849657014,-3.4127584317835367,-0.0869006645388719,-3.545621546303354,9.29223037347561,0.57220458984375,2.802034703696646,-3.2132776772103657,1.957963152629573,-28.87653455405192,-14.789925309065936,-0.929943624084252,17.237178033606607,-41.272570207570205,-14.19273194253663,27.373738281367,32.6931739898763,34.22670500494204,1577398222.999,-27.7118330427392,-51.10585353427469,25.278273
116587,1577398223.6,1.291409017423304,0.6523323596489135,12.292999226491045,1.813870535799352,0.9093878647222752,13.975597437118903,1.0764564244712271,-2.9060352589677017,12.352270316370522,3.976775378715701,-1.6427389005335369,0.1267223823361281,-0.3107582650533537,4.8366639672256095,-1.04522705078125,2.893587438071646,-8.736959317835366,1.072953387004573,-26.98299130460589,-15.520291990995116,-0.929943624084252,17.237178033606607,-38.56617216117216,-16.62147936698718,27.517506814029414,32.6931739898763,34.17878216072124,1577398222.999,-27.7118330427392,-51.10585353427469,25.278273
116588,1577398223.61,1.3907683863197884,-0.4549859081733511,9.132653035084791,2.503400613924352,0.4425185409918054,9.07466663877906,-0.1565574305092415,0.1082646311690168,11.337128812464272,4.465056628715701,3.194297232278964,1.103284882336128,-0.0666176400533536,10.54345107660061,-0.43487548828125,2.924105016196646,5.423196932164634,-1.582075909870427,-28.308471579218107,-14.424741968101344,-1.084934228098292,9.504612186755043,-35.1831746031746,-17.026270604395606,27.517506814029414,32.6931739898763,34.41839638182526,1577398222.999,-27.7118330427392,-51.10585353427469,25.278273
116589,1577398223.62,2.1389564051186163,-0.2598584728706167,12.206807966725416,1.3062997838462271,1.195494963110947,9.69955327207984,2.5692411595786484,1.2730437388350324,9.201500931604896,0.4672538943407013,-4.328285775533536,0.2487926948361281,1.9933188833841464,-2.7622129858993905,0.80108642578125,3.427645055259146,-7.027974942835366,-0.3766315739329268,-27.7404086043843,-14.059558627136752,0.0,9.504612186755043,-34.84487484737485,-16.823874985691393,27.565429658250217,32.64525114565549,34.22670500494205,1577398222.999,-27.7118330427392,-51.10585353427469,25.278273
116590,1577398223.63,2.584277913907679,0.446431016875476,9.803029499928543,2.589591873689977,0.7681299667730564,7.559136987900152,4.203283792635289,-4.0911650807450455,9.974828067835364,4.678679675590701,-4.450356088033536,-0.1784533989138719,2.527376500571646,-1.4499571265243902,1.79290771484375,0.4826987661966463,4.171976229039634,1.317094012004573,-27.7404086043843,-14.059558627136752,0.0,7.73256584685156,-33.99912545787546,-11.966380136790292,27.373738281367,32.64525114565549,34.17878216072124,1577398222.999,-27.7118330427392,-51.10585353427469,25.278273
116591,1577398223.64,3.2690195887123665,0.3961527820121948,10.535655207936356,2.0197718785727896,1.0434631576910252,9.311692603134528,0.8202768468345084,-0.9882797291825456,4.25747450338224,3.702117175590701,-3.6874166349085367,0.035169647961128,-2.141812952553354,5.7216737328506095,2.52532958984375,-1.1652504525533538,5.331644197789634,2.5683147151295733,-27.7404086043843,-14.059558627136752,0.0,6.927090237804523,-39.91937118437118,-17.026270604395606,27.517506814029414,32.64525114565549,34.08293647227963,1577398222.999,-27.7118330427392,-51.10585353427469,25.278273
116592,1577398223.65,1.6505392664467418,-0.0587455334174922,9.47861517497737,3.705289847322789,-0.452912879906631,8.574278491806403,-1.8492580042397104,-1.6802040089677015,10.235796048792396,0.3909599490282014,6.429160513528964,0.8744030463986281,5.426546422446647,-4.501714939024391,0.48065185546875,-2.263883265053354,10.367044588414634,1.927445574504573,-27.4563771169674,-14.881221144307084,-0.542467114049146,17.881558520844237,-41.272570207570205,-6.096907194368132,27.3976997034774,32.6931739898763,34.08293647227963,1577398222.999,-27.7118330427392,-51.10585353427469,25.278273
116593,1577398223.66,0.2355660852943978,0.2022224475395385,12.513265779225415,-0.5647688135658822,-0.5438925429925685,11.541891449570077,1.946748727938024,0.2219892100264387,10.71224217916349,-2.6455390744092986,7.817710318216464,0.5844860542111281,0.5895102896341463,2.364740139100609,0.89263916015625,1.1235679068216462,-2.5724085365853657,0.1269084651295732,-26.414928329772085,-14.972516979548232,-0.464971812042126,18.445391447177165,-40.34224587912088,-9.841226140396062,27.517506814029414,32.6931739898763,34.298589271273244,1577398222.999,-27.7118330427392,-51.10585353427469,25.278273
116594,1577398223.67,0.5611775110756478,-0.2287338512885854,12.43425712444026,0.5449436559165396,0.4377301376714929,11.593366785263434,1.2703867589438833,-0.5357756154130144,15.467126676233802,0.5282890505907013,1.5921243807164631,0.7370739448361281,3.717562047446646,-4.440679782774391,1.48773193359375,-1.1652504525533538,0.9676305259146342,0.6762248713795732,-28.687180229107312,-15.702883661477411,-1.3949154361263716,11.759943892086747,-2.706398046398046,-15.00231441735348,27.18204690448378,32.64525114565549,34.17878216072124,1577398222.999,-27.7118330427392,-51.10585353427469,25.278273
116595,1577398223.68,1.3512640589272102,-0.9469943493354605,9.812606306569169,3.054066995760289,-0.0075913711175685,10.348381921982185,-3.608996224454554,0.4961253001143293,13.408113248499427,6.936980456840701,-1.7648092130335369,0.4318981635861281,-2.508023890053354,5.9047792016006095,2.70843505859375,0.5437339224466463,8.535989900914634,-1.795698956745427,-28.687180229107312,-15.702883661477411,-1.3949154361263716,4.993948776091632,-35.1831746031746,-65.19642785599817,27.373738281367,32.64525114565549,34.370473537604454,1577398222.999,-27.7118330427392,-51.10585353427469,25.278273
116596,1577398223.69,1.4937190577065071,0.0633587512504765,11.223988185231278,0.3773495397056021,0.1193013168707117,11.655616028427495,0.7448594945395866,0.9318700022627668,13.575707364710365,5.121184558403201,1.958335318216464,1.210096405773628,5.624910680259147,-10.13220810308689,1.33514404296875,-5.498746546303353,8.627542635289634,0.0811320979420732,-27.929762929328906,-15.155108650030527,-0.774953020070209,-0.4832853654282228,-34.84487484737485,-16.62147936698718,27.3976997034774,32.64525114565549,34.22670500494205,1577398222.999,-27.7118330427392,-51.10585353427469,25.278273
116597,1577398223.7,1.3249278406654914,1.4855145373832883,12.417497712819168,0.0613149205649771,-0.2110985122308497,8.796939246200933,3.137864053865758,1.9087042796065168,9.570207987268958,5.319548816215701,2.812827505716464,0.8591442573361281,4.572054234946647,-0.8396055640243902,2.00653076171875,5.243440953696647,-7.424703458460366,1.347611590129573,-28.119117254273505,-15.155108650030527,-0.929943624084252,5.477234141519855,-39.07362179487179,-16.419083748282965,27.373738281367,32.45355976877228,34.17878216072124,1577398222.999,-27.7118330427392,-51.10585353427469,25.278273
116598,1577398223.71,2.8189096766029915,-0.6716611584174917,10.399185713307448,1.9168212071860709,1.2158456772222752,7.353235645126715,0.4491755895102896,1.7626579783369856,8.574220096643959,-2.3098457150342986,-1.9173971036585369,0.2487926948361281,-1.0126625619283538,7.0339295922256095,1.45721435546875,1.1235679068216462,-4.525533536585366,6.199906512004573,-28.308471579218107,-13.876966956654458,-0.464971812042126,7.249280481423338,-38.2278724053724,-17.026270604395606,27.373738281367,32.789019678317906,34.17878216072124,1577398222.999,-27.7118330427392,-51.10585353427469,25.278273
116599,1577398223.72,3.1995877405678352,-0.2742236828315542,8.165395564381667,3.063643802400914,-1.0634343032464746,7.820104968857183,-2.4214722010170537,-3.4997972706864515,8.935744547327552,9.8361503787157,9.404624380716465,1.652601288586128,-4.888394983803353,25.95482802972561,2.43377685546875,-7.634977015053353,-3.2132776772103657,4.368851824504573,-28.308471579218107,-13.876966956654458,-0.464971812042126,8.215851212279782,-38.2278724053724,-7.311280906593407,27.373738281367,32.357714080330666,34.370473537604454,1577398222.999,-27.7118330427392,-51.10585353427469,25.278273
116600,1577398223.73,0.6832817957436166,1.0653321460258665,10.236380000416824,0.5461407567466178,0.8986139572515716,10.417813770126717,0.7544363011802115,0.7295599619795636,11.023488394983804,2.5119316287157014,7.832969107278965,0.6760387885861281,3.397127477134146,5.9658143578506095,1.21307373046875,-4.506925257240853,-2.5113733803353657,0.8288127620045733,-27.267022792022797,-15.79417949671856,-1.0074389260912715,17.237178033606607,-38.56617216117216,-17.026270604395606,27.229969748704587,32.62128972354509,34.17878216072124,1577398222.999,-27.7118330427392,-51.10585353427469,25.278273
116601,1577398223.74,-0.2025728185141959,0.0106863147270385,12.630581660573071,-1.329716243985804,1.2230282822027438,12.167975183700934,1.3374244054282582,-1.1630564503739518,10.99236377340177,-2.4013984494092986,3.392661490091464,0.8591442573361281,2.679964391196646,2.273187404725609,2.46429443359375,-7.085660608803353,-17.312398770960368,1.439164324504573,-27.17234562955049,-14.242150297619048,-0.1549906040140398,17.55936827722542,-38.2278724053724,-13.787940705128204,27.373738281367,32.6931739898763,34.370473537604454,1577398222.999,-27.7118330427392,-51.10585353427469,25.278273
116602,1577398223.75,0.1948646570717415,0.590083116484851,11.795005281178543,1.564873563143102,0.9524834946050876,11.25099594786109,-0.7790498621498665,-1.3689577931473893,12.424096366175208,1.4132988162157014,4.460776724466464,0.920179413586128,-0.4633461556783537,12.83226943597561,2.46429443359375,1.3982261099466462,-24.850240567835368,0.3405315120045732,-28.308471579218107,-16.068067002442003,0.1549906040140463,4.6717585324728175,-35.85977411477411,-62.36288919413919,27.373738281367,32.789019678317906,34.46631922604607,1577398222.999,-27.7118330427392,-51.10585353427469,25.278273
116603,1577398223.76,0.3385167566811166,-0.3017570019233511,10.958231800953934,1.390096841951696,-0.1991275039300685,13.53027592832984,0.5305784459556021,0.9270815989424542,12.756890396936926,2.0999443240282014,1.9125589510289636,1.454237030773628,1.5813315786966462,-0.3818418921493902,2.43377685546875,-6.139615686928353,-18.868795255335368,2.6598674495045733,-28.024440091801203,-15.79417949671856,-0.0774953020070199,3.705187801616373,-33.491675824175815,-15.407105654761905,27.445622547698207,32.50148261299308,34.22670500494204,1577398222.999,-27.7118330427392,-51.10585353427469,25.278273
116604,1577398223.77,0.0583951624428343,1.605224620391101,12.513265779225415,0.3498162206138053,-0.1500463698968653,10.61294120542945,0.356998825594274,0.9330671030928448,10.433317685755286,2.1762382693407014,1.2564310213414631,1.255872772961128,8.722444859946648,-15.396490329649389,1.91497802734375,-4.232267054115853,-9.179464200647866,4.262040301067073,-26.793636979661287,-14.242150297619048,-0.1549906040140398,5.960519506948078,-34.3374252136752,-15.204710036057692,27.517506814029414,32.57336687932428,34.27462784916285,1577398222.999,-27.7118330427392,-51.10585353427469,25.278273
116605,1577398223.78,1.7391247278725228,0.3195383288871948,10.48777117473323,0.7819696202720083,0.6316604721441502,8.926226135849372,4.454674966951695,1.8033594065596417,10.774491422327552,1.1691581912157014,-0.9713521817835366,0.7370739448361281,-1.4704262338033538,3.493890529725609,2.18963623046875,-2.324918421303354,-18.258443692835368,3.4838420588795733,-28.687180229107312,-14.242150297619048,-1.084934228098292,7.571470725042153,-39.91937118437118,-5.692115956959706,27.565429658250217,32.597328301434686,34.370473537604454,1577398222.999,-27.7118330427392,-51.10585353427469,25.278273
116606,1577398223.79,1.880382625821741,-0.8344668713081167,9.915556977955886,2.2879224645102894,-0.0674464126214747,8.60779731504859,-1.559559603360804,-1.1869984669755145,6.101009781702553,5.014373034965701,4.704917349466464,1.652601288586128,-4.064420374428353,20.91942763910061,0.63323974609375,-2.508023890053354,-9.011617520960366,3.2702190120045733,-28.49782590416271,-15.155108650030527,-0.6199624160561659,1.772046339903483,-43.97896825396825,-5.692115956959706,27.373738281367,32.789019678317906,34.27462784916285,1577398222.999,-27.7118330427392,-51.10585353427469,25.278273
116607,1577398223.8,1.2483133875404917,0.8941467273246947,9.060826985280103,1.7037372594321645,-0.8407735488519434,6.819328674911871,-0.1230386072670531,-2.463107951838796,4.580691727503334,0.5282890505907014,5.116904654153963,0.996473358898628,-2.813199671303354,8.52929092035061,3.04412841796875,0.6352866568216463,-12.307515958460366,2.9040080745045733,-27.36169995449509,-14.789925309065936,-1.2399248321123315,18.525939008081867,-37.88957264957265,-15.407105654761905,27.517506814029414,32.50148261299308,34.370473537604454,1577398222.999,-27.7118330427392,-51.10585353427469,25.278273
116608,1577398223.81,0.8652411219154915,1.222152354766101,10.969005708424636,0.8346420567954459,1.7282048324957124,11.288106073593513,3.1270901463950547,1.778220289128001,8.729843204554115,1.6574394412157014,-4.053627572408536,0.065687226086128,0.2080405630716462,-1.0684873999618905,1.53350830078125,6.631990758384147,-12.673726895960368,-0.7428425114329269,-29.06588887899652,-15.702883661477411,-1.3949154361263716,17.398273155416014,-37.38212301587301,-40.30176675538004,27.565429658250217,32.597328301434686,34.27462784916285,1577398222.999,-27.7118330427392,-51.10585353427469,25.278273
116609,1577398223.82,-0.1953902135337271,1.0545582385551635,12.56833241740901,1.8402067540610707,0.0666288803472742,11.772931909775153,-0.9179135584389292,-1.3833230031083268,13.669081229456458,0.3757011599657013,1.1038431307164631,0.8896618354611281,0.8183921255716463,3.432855373475609,0.20599365234375,6.921907750571647,-1.717916349085366,0.2489787776295732,-28.119117254273505,-16.61584201388889,-1.2399248321123315,17.55936827722542,-36.87467338217338,-65.19642785599817,27.61335250247102,32.64525114565549,34.370473537604454,1577398222.999,-27.7118330427392,-51.10585353427469,25.278273
116610,1577398223.83,-0.3581959264243521,-0.8344668713081167,10.82535360881526,-0.5611775110756478,-0.194339100609756,11.72504787657203,0.5257900426352896,0.809765717594798,11.282062174280677,-2.6455390744092986,10.198081411966465,2.354505585461128,-3.667691858803354,-5.417242282774391,3.41033935546875,-1.6230141244283538,6.277689119664634,0.8593303401295732,-27.929762929328906,-14.972516979548232,-2.014877852182537,4.349568288854003,-3.382997557997557,-65.6012190934066,27.373738281367,32.50148261299308,34.22670500494204,1577398222.999,-27.7118330427392,-51.10585353427469,25.278273
116611,1577398223.84,0.5288557886635384,0.4248832019340697,10.220817689625807,1.1111723485434928,-1.2920805617913966,12.000381067489997,1.5241721349204458,0.1513602610518293,14.314318576868567,2.069426745903201,-0.9103170255335366,0.6607799995236281,2.359529820884146,-2.0450498999618905,0.96893310546875,-4.171231897865853,-3.5031946693978657,3.911088152629573,-27.929762929328906,-14.972516979548232,-2.014877852182537,4.349568288854003,-3.382997557997557,-68.02996651785715,27.445622547698207,32.669212567765896,34.34651211549405,1577398222.999,-27.7118330427392,-51.10585353427469,25.278273
116612,1577398223.85,1.1094496912514291,0.0849065661918822,12.462987544362136,0.9543521398032584,1.9652307968511813,11.801662329697027,2.1107515416587272,-0.1167903248856696,4.566326517542397,3.763152331840701,-1.9173971036585369,0.5234508979611281,-1.8671547494283536,4.6535584984756095,0.90789794921875,0.8489097036966463,-8.187642911585366,3.5143596370045733,-29.06588887899652,-15.337700320512822,-2.63484026823871,4.349568288854003,-46.6853663003663,-8.120863381410256,27.517506814029414,32.64525114565549,34.370473537604454,1577398222.999,-27.7118330427392,-51.10585353427469,25.278273
116613,1577398223.86,0.9921338099037728,1.109624876738757,10.82535360881526,0.1522945836509146,1.7473584457769626,11.452108887314216,-0.0344531458412718,-2.3170616505692645,5.763427347620521,1.8100273318407007,2.812827505716464,0.5844860542111281,0.0859702505716463,3.432855373475609,1.27410888671875,3.320833531821646,-0.4056604897103658,2.6903850276295733,-27.17234562955049,-14.60733363858364,-1.7048966441544575,5.638329263329263,-44.65556776556777,-9.740028331043955,27.61335250247102,32.64525114565549,34.46631922604607,1577398222.999,-27.7118330427392,-51.10585353427469,25.278273
116614,1577398223.87,0.4342848230873665,0.379393370391101,6.815065828053543,1.3493954137290396,-1.2549704360589746,6.802569263290778,-0.3576703699623665,-2.0680646779130143,6.014818521936928,2.3593437380907014,7.665122427591464,1.866224335461128,-2.569059046303354,8.59032607660061,0.78582763671875,4.205843297446647,5.575784822789634,-2.2839802067454267,-26.414928329772085,-14.972516979548232,-1.084934228098292,7.249280481423338,-40.25767094017094,-10.549610805860803,27.3258154371462,32.597328301434686,34.08293647227963,1577398222.999,-27.7118330427392,-51.10585353427469,25.278273
116615,1577398223.88,1.9498144739662728,0.0166718188774296,8.975832826344558,2.6087454869712268,-0.6947272475824122,8.151701898788826,2.1143428441489616,-1.817870604426686,9.88743970723966,0.3909599490282013,-3.6111226895960367,-0.3768176567263719,-1.0736977181783534,-3.372564548399391,0.05340576171875,1.5050376333841462,13.556131502477132,-1.887251691120427,-28.87653455405192,-15.885475331959707,0.0,6.363257311471596,-39.32734661172161,-37.9742171402816,27.565429658250217,32.64525114565549,34.32255069338365,1577398222.999,-27.7118330427392,-51.10585353427469,25.278273
116616,1577398223.89,0.879606331876429,1.3562276477348507,11.280251924244949,-0.9250961634193978,4.38576867526915,11.420984265732184,2.982240945955602,1.7554753733565167,8.760967826136145,0.8334648318407013,2.385581411966464,-0.3615588676638719,-1.6840492806783538,5.4775331078506095,0.72479248046875,-0.2192055306783537,9.787210604039634,-3.2300251286204267,-27.7404086043843,-14.789925309065936,-0.6199624160561659,17.398273155416014,-3.21384768009768,-68.23236213656136,27.517506814029414,32.6931739898763,34.370473537604454,1577398222.999,-27.7118330427392,-51.10585353427469,25.278273
116617,1577398223.9,0.2810559168373666,0.5182570666801635,11.342501167409011,2.7093019566977894,0.2007041733160242,9.99404007627906,0.9663231481040396,2.586263349430735,11.385012845667395,-4.873322277534299,-0.2694478849085365,-0.3005237114138719,-0.4633461556783537,-7.2482969702743905,0.66375732421875,4.175325719321647,9.420999666539634,-1.063277081745427,-30.202014828664137,-16.068067002442003,-0.7749530200702122,17.398273155416014,-3.21384768009768,-68.23236213656136,27.517506814029414,32.789019678317906,34.41839638182526,1577398222.999,-27.7118330427392,-51.10585353427469,25.278273
116618,1577398223.91,0.194864657071741,0.3339035388481323,10.833733314625809,0.9998419713462272,-2.1839206801996,9.012417395614998,0.9591405431235708,1.1808669749190168,10.855894278772864,1.1691581912157014,6.490195669778963,0.386121796398628,-4.979947718178353,7.2170350609756095,-0.58746337890625,-1.8061195931783536,23.520120760289632,0.4015666682545732,-27.7404086043843,-14.24215029761905,-0.1549906040140398,-2.094236583522298,-42.62576923076923,-17.026270604395606,27.373738281367,32.6931739898763,34.41839638182526,1577398222.999,-27.7118330427392,-51.10585353427469,25.278273
116619,1577398223.92,0.6138499475990853,0.1136369861137572,9.077586396901198,-0.190076253751429,0.2892896347418064,12.634844507431405,0.5365639501059927,-0.6782306141923112,10.878639194544348,2.4508964724657014,2.263511099466464,-0.2089709770388719,-0.1123940072408535,0.5489442406631091,0.12969970703125,2.740999547446646,-10.827413419397868,1.515458269817073,-27.551054279439697,-14.972516979548232,-0.1549906040140398,6.443804872376299,-40.765120573870576,-16.014292510874544,27.373738281367,32.597328301434686,33.98709078383802,1577398222.999,-27.7118330427392,-51.10585353427469,25.278273
116620,1577398223.93,0.5468123011147104,0.1806746325981323,7.49980750285823,1.1865897008384143,-0.8527445571527247,6.553572290634528,3.2408147252524766,-1.1582680470536393,7.961304471643959,0.3146660037157013,0.4934915682164634,-0.1479358207888719,0.0554526724466463,2.944574123475609,0.57220458984375,-3.270963343178354,-4.311910489710366,0.8288127620045732,-26.793636979661287,-15.337700320512822,-0.7749530200702122,17.398273155416014,-39.7502213064713,-5.084929100847068,27.3258154371462,32.45355976877228,34.46631922604607,1577398222.999,-27.7118330427392,-51.10585353427469,25.278273
116621,1577398223.94,-0.0445555089438834,0.3003847156059447,8.99378933879573,0.8609782750571646,0.1552143417730554,7.968545471786872,-0.7311658289467415,-0.5573234303544207,7.288533805140053,-0.9060371212842988,1.3479837557164631,-0.1479358207888719,-1.7450844369283538,-13.47388290777439,-0.95367431640625,-3.087857874428354,6.308206697789634,-1.734663800495427,-26.98299130460589,-15.520291990995116,-1.2399248321123315,6.282709750566893,-39.91937118437118,-17.026270604395606,27.565429658250217,32.6931739898763,34.27462784916285,1577398222.999,-27.7118330427392,-51.10585353427469,25.278273
116622,1577398223.95,0.9502352808510384,0.925271348906726,8.003786952321121,0.4324161778891959,0.0774027878179783,9.806095245956794,1.4224185643638052,-0.5285930104325456,8.5993592140756,-0.2956855587842987,-1.0934224942835369,-0.4836291801638719,-4.110196741615853,6.5609071312881095,-0.05340576171875,-1.8366371713033536,16.150125643102132,-2.6196735661204267,-27.4563771169674,-15.246404485271674,-1.1624295301053114,6.282709750566893,-39.91937118437118,-17.026270604395606,27.541468236139814,32.57336687932428,34.250666427052444,1577398222.999,-27.7118330427392,-51.10585353427469,25.278273
116623,1577398223.96,0.1972588587318978,0.408123790312976,8.136665144459792,2.517765823885289,-0.529527333031631,7.475339929794684,2.232855826326696,0.5033079050947981,7.774556742151771,-0.9365546994092988,1.1953958650914631,-0.4225940239138719,-3.545621546303354,-3.4335997046493905,-1.22833251953125,1.6423667349466462,7.742532869664634,-5.488325909870427,-27.36169995449509,-14.059558627136752,-0.3099812080280861,3.22190243618815,-3.21384768009768,-68.63715337396978,27.3258154371462,32.789019678317906,34.27462784916285,1577398222.999,-27.7118330427392,-51.10585353427469,25.278273
116624,1577398223.97,0.3744297815834603,-0.7602466198432729,8.919569087330887,-2.0336115320717414,2.652366673316025,10.12811536924781,1.0740622228110708,0.943841010563548,10.288468485315834,-6.307648449409299,-0.0863424161585365,-0.2700061332888719,-7.238248499428353,-0.9616758765243902,0.35858154296875,-0.3107582650533537,22.848734041539632,-2.2534626286204267,-28.87653455405192,-16.2506586729243,-0.3099812080280861,-0.8054756090470375,-34.506575091575094,-16.216688129578753,27.517506814029414,32.6931739898763,34.27462784916285,1577398222.999,-27.7118330427392,-51.10585353427469,25.278273
116625,1577398223.98,0.6138499475990853,0.4488252185356323,10.57635663615901,0.1546887853110709,0.5646228256597742,10.228671838974371,1.2368679357016958,2.1169998240401107,10.628445121058022,-3.9272773556592986,-2.1615377286585367,-1.032945586413872,-6.170133265053353,7.2780702172256095,-1.47247314453125,-6.841519983803353,19.766458650914632,0.0963908870045732,-27.7404086043843,-14.789925309065936,0.0,-0.8054756090470375,-34.506575091575094,-16.216688129578753,27.517506814029414,32.64525114565549,34.22670500494204,1577398222.999,-27.7118330427392,-51.10585353427469,25.278273
116626,1577398223.99,1.0208642298256478,0.1459587085258671,9.42833694011409,1.7671836034263049,-0.7138808608636628,8.522803156113044,0.1056076512778677,-0.4878915822098889,8.563446189173256,-0.1888740353467987,-0.6814351895960368,-0.4378528129763719,-5.056241663490853,3.539666896913109,-1.10626220703125,-3.652433069740853,22.65036978372713,0.2489787776295732,-27.8350857668566,-15.79417949671856,-0.3874765100351061,5.316139019710448,-38.2278724053724,-13.180753849015566,27.373738281367,32.64525114565549,34.32255069338365,1577398222.999,-27.7118330427392,-51.10585353427469,25.278273
116627,1577398224.0,1.5284349817787728,0.5469874866020386,8.62268808147151,0.4707234044516959,1.4911788681402438,9.378730249618904,-0.621032552579554,-5.841326494319264,9.740196305140053,-1.7605293087842986,2.538169302591464,-0.4836291801638719,-3.637174280678354,5.8132264672256095,-0.49591064453125,-4.400113733803353,10.672220369664634,-2.1924274723704267,-27.929762929328906,-15.702883661477411,-0.7749530200702122,5.960519506948078,-41.272570207570205,-6.096907194368132,27.565429658250217,32.45355976877228,34.41839638182526,1577398223.999,-27.71197353381577,-51.10564595842658,25.557728
116628,1577398224.01,0.8628469202553353,0.4129121936332885,8.309047663991043,1.4858649083579458,0.4688547592535242,7.1449401006931215,1.629517007967321,0.4913368967940168,6.91982674947599,-5.849884777534299,-3.4432760099085367,-0.7277698051638719,-1.6535317025533538,-5.630865329649391,-0.70953369140625,3.198763219321646,-0.6498011147103658,-2.9858845036204267,-26.414928329772085,-15.337700320512822,-0.7749530200702122,5.638329263329263,-39.58107142857143,-4.072951007326006,27.61335250247102,32.45355976877228,34.27462784916285,1577398223.999,-27.71197353381577,-51.10564595842658,25.557728
116629,1577398224.02,0.9119280542885384,0.5410019824516479,8.797464802662917,0.9758999547446646,0.4784315658941492,9.536747559189216,0.2001786168540396,0.2016384959151105,10.281285880335364,-4.186676769721799,-0.6051412442835362,-0.8650989067263719,-5.315641077553353,-6.119146579649391,-0.80108642578125,1.2761557974466462,10.428079744664634,-2.4976032536204267,-26.982991304605893,-15.520291990995116,-0.774953020070209,17.881558520844237,-35.85977411477411,-17.026270604395606,27.445622547698207,32.64525114565549,34.27462784916285,1577398223.999,-27.71197353381577,-51.10564595842658,25.557728
116630,1577398224.03,-0.1499003819907584,0.2309528674614135,5.407275251881668,1.2751751622641958,-0.1739883864984278,9.41224907286109,-0.1014907923256478,-1.7699865712235612,8.155234806116615,-0.7839668087842987,5.162681021341464,0.2182751167111281,-2.599576624428354,-6.180181735899391,-0.41961669921875,0.8794272818216462,7.147440096227133,-3.4283893864329267,-27.17234562955049,-14.242150297619048,-0.7749530200702122,11.840491452991454,-34.92944978632478,-64.69043880923763,27.421661125587804,32.62128972354509,34.32255069338365,1577398223.999,-27.71197353381577,-51.10564595842658,25.557728
116631,1577398224.04,-0.0110366857016959,-0.2359164562690542,8.378479512135574,-0.4271022181068978,0.6244778671636815,9.48407512266578,-1.0376236414467417,-1.443178044612233,11.897372000940834,-8.7795722775343,-5.426918588033536,-0.7582873832888719,7.410189000571647,-18.05151962652439,-0.77056884765625,-12.517789515053352,8.200296541539634,-2.4365680973704267,-27.17234562955049,-14.242150297619048,-0.7749530200702122,0.8054756090470372,-33.15337606837607,-14.19273194253663,27.517506814029414,32.597328301434686,34.46631922604607,1577398223.999,-27.71197353381577,-51.10564595842658,25.557728
116632,1577398224.05,1.119026497892054,-0.2287338512885854,10.013719246022292,0.930410123201696,0.4497011459722742,8.310916309189215,2.7595801915610703,0.3428963938643293,7.712307498987709,-7.680939465034299,-10.157143197408535,-1.795885039538872,-3.576139124428354,-5.783453220274391,-0.95367431640625,2.008577672446646,19.583353182164632,0.2794963557545732,-27.17234562955049,-14.242150297619048,-0.7749530200702122,0.4832853654282225,-34.506575091575094,-15.00231441735348,27.18204690448378,32.597328301434686,34.27462784916285,1577398223.999,-27.71197353381577,-51.10564595842658,25.557728
116633,1577398224.06,1.387177083829554,-0.1832440197456167,10.420733528248856,1.0596970128501333,-0.6492374160394434,8.464145215439215,-0.5444180994545541,-0.0641178883622322,8.631680936487708,-3.0270088009717986,-3.702675423971036,-0.5141467582888719,-3.240445765053354,-7.8586485327743905,-1.38092041015625,-3.698209436928354,-6.570211270960366,-0.2698200504954268,-28.024440091801203,-15.06381281478938,-0.697457718063189,0.4832853654282225,-34.506575091575094,-15.00231441735348,27.373738281367,32.45355976877228,34.41839638182526,1577398223.999,-27.71197353381577,-51.10564595842658,25.557728
116634,1577398224.07,1.3225336390053353,0.139973204375476,9.348131184498856,0.8585840733970084,0.2318287948980559,9.62413591978492,-0.5492065027748666,-0.2197409962723894,8.389866568811927,0.8334648318407013,2.843345083841464,-0.4225940239138719,-7.848600061928352,8.05626845941311,-1.04522705078125,-5.1935707650533525,2.8597203696646343,-1.841475323932927,-28.49782590416271,-15.520291990995116,-0.929943624084252,8.860231699517415,-38.90447191697192,-9.13284147493132,27.565429658250217,32.57336687932428,34.15482073861084,1577398223.999,-27.71197353381577,-51.10564595842658,25.557728
116635,1577398224.08,0.7598962488686165,-0.7674292248237418,9.965835212819169,1.6750068395102895,0.3587214828863367,7.834470178818121,0.949563736482946,-0.3586046925614519,9.912578824671302,-6.124542980659299,-1.7648092130335369,-0.4225940239138719,-0.1886879525533537,0.1064393578506097,-1.35040283203125,3.473421422446646,2.8292027915396343,-2.1008747379954267,-28.49782590416271,-15.520291990995116,-0.929943624084252,19.00922437351009,-41.103420329670335,-16.823874985691393,27.565429658250217,32.64525114565549,34.27462784916285,1577398223.999,-27.71197353381577,-51.10564595842658,25.557728
116636,1577398224.09,1.6792696863686165,-0.1736672131049917,10.753527559010571,0.8178826451743522,1.0554341659918065,7.130574890732184,-0.0823371790443968,-1.067288383967702,9.893425211390053,-5.483673840034299,-4.389320931783536,-1.002428008288872,-3.759244593178354,-1.4499571265243902,-1.13677978515625,-1.8976723275533536,-1.809469083460366,-0.1172321598704267,-28.49782590416271,-15.520291990995116,-0.929943624084252,17.237178033606607,-3.382997557997557,-16.62147936698718,27.517506814029414,32.50148261299308,34.17878216072124,1577398223.999,-27.71197353381577,-51.10564595842658,25.557728
116637,1577398224.1,1.290211916593226,0.3746049670707885,9.011745851246902,1.391293942781774,0.0426868637457122,9.29253898985328,1.180604196688024,0.1992442942549543,10.966027555140052,-2.5234687619092986,0.7834085604039636,-1.078721953601372,-2.508023890053354,4.9739930687881095,-0.31280517578125,-7.314542444740852,8.230814119664634,-2.5891559879954267,-28.119117254273505,-15.702883661477411,-0.7749530200702056,10.793373161230305,-18.26818681318681,-40.30176675538004,27.301854015035797,32.669212567765896,34.370473537604454,1577398223.999,-27.71197353381577,-51.10564595842658,25.557728
116638,1577398224.11,0.3480935633217416,-0.290983094452648,8.347354890553543,0.5377610509360709,-0.4146056533441309,10.017982092880622,0.2528510533774771,0.2902239573408918,10.772097220667396,-3.6526191525342986,6.780112661966464,0.4929333198361281,-9.099820765053352,6.8508241234756095,-2.47955322265625,-2.660611780678354,-30.770650724085368,0.3405315120045732,-28.87653455405192,-14.059558627136752,-0.3099812080280861,1.772046339903483,-35.85977411477411,-16.62147936698718,27.229969748704587,32.597328301434686,34.27462784916285,1577398223.999,-27.71197353381577,-51.10564595842658,25.557728
116639,1577398224.12,0.1302212122475218,-0.597440906952648,8.53410262004573,1.2081375157798209,-1.027521278344131,10.420207971786873,4.861689249178258,1.0755221018721417,8.430567997034583,-6.032990246284299,-3.2601705411585367,-0.6056994926638719,5.243440953696647,-11.91748642339939,-0.40435791015625,-3.454068811928354,-15.054097989710366,2.3852092463795733,-26.03621967988288,-14.972516979548232,-0.464971812042126,5.638329263329263,-35.52147435897436,-13.787940705128204,27.517506814029414,32.83694252253871,34.46631922604607,1577398223.999,-27.71197353381577,-51.10564595842658,25.557728
116640,1577398224.13,-0.1259583653891959,-0.128177381562023,10.092727900807448,-0.3576703699623665,2.065787266577744,14.138403150009529,-1.080719271329554,-1.4407838429520767,14.109614334925208,-3.0422675900342986,-6.098305306783536,-0.3005237114138719,-2.843717249428354,-4.074468845274391,-0.58746337890625,3.656526891196646,-24.361959317835368,3.941605730754573,-26.03621967988288,-14.972516979548232,-0.464971812042126,8.215851212279782,-41.272570207570205,-16.62147936698718,27.373738281367,32.45355976877228,34.70593344715009,1577398223.999,-27.71197353381577,-51.10564595842658,25.557728
116641,1577398224.14,0.2726762110268197,-0.0778991466987422,11.232367891041823,0.0613149205649771,0.0187448471441502,11.856728967880622,0.9232275182212272,0.2698732432295637,10.360294535120522,0.6351005740282014,-4.267250619283536,-0.2547473442263719,-2.874234827553354,2.547845607850609,-0.52642822265625,3.366609899009146,-11.926046231897866,1.561234637004573,-26.509605492244383,-15.611587826236264,-1.0074389260912686,4.510663410663409,-43.13321886446885,-16.823874985691393,27.517506814029414,32.7171354119867,34.370473537604454,1577398223.999,-27.71197353381577,-51.10564595842658,25.557728
116642,1577398224.15,-0.2504568517173209,-0.932629139374523,10.102304707448074,1.3254533971274771,-0.7066982558831935,8.28218588926734,0.3558017247641959,-0.2532598195145759,10.958844950159584,0.0400078005907013,-2.8024068692835367,0.6150036323361281,3.717562047446646,-6.851568454649391,-0.83160400390625,-5.315641077553353,3.8057652915396334,-0.5444782536204268,-27.36169995449509,-14.789925309065936,-0.6199624160561659,17.237178033606607,-36.87467338217338,-15.407105654761905,27.517506814029414,32.64525114565549,34.370473537604454,1577398223.999,-27.71197353381577,-51.10564595842658,25.557728
116643,1577398224.16,1.406330697110804,-0.2742236828315542,10.011325044362136,1.4643170934165397,0.9764255112066502,9.129733276962654,3.1330756505454453,-0.3633930958817644,8.365924552210364,-1.1196601681592986,-5.152260384908536,-0.2394885551638719,4.144808141196647,-13.13818954839939,-0.74005126953125,0.1470054068216463,13.510355135289634,-1.093794659870427,-26.793636979661287,-14.972516979548232,0.464971812042126,17.398273155416014,-33.99912545787546,-16.014292510874544,27.373738281367,32.789019678317906,34.370473537604454,1577398223.999,-27.71197353381577,-51.10564595842658,25.557728
116644,1577398224.17,1.9342521631752567,0.355451353789539,9.53607601482112,0.0756801305259146,1.845520713843369,8.49287563536109,-2.8284864832436165,-1.9004705617020767,6.529571878870521,-0.0362861447217985,-4.023109994283536,0.141981171398628,-1.7450844369283538,8.19359756097561,-0.03814697265625,-4.186490686928353,13.266214510289634,-1.795698956745427,-26.98299130460589,-14.972516979548232,0.0,17.398273155416014,-33.99912545787546,-16.014292510874544,27.421661125587804,32.64525114565549,34.22670500494204,1577398223.999,-27.71197353381577,-51.10564595842658,25.557728
116645,1577398224.18,1.358446663907679,0.7744366443168822,7.820630525319167,1.3601693211997428,0.179156358374619,6.942630060409918,1.25961285147318,2.102634614079173,8.76455912862638,1.2301933474657014,0.3714212557164634,0.5539684760861281,-1.1652504525533534,-1.9382383765243905,0.20599365234375,-3.0115639291158534,2.5392857993521343,-2.3602741520579267,-28.119117254273505,-14.789925309065936,-1.5499060401404114,17.398273155416014,-34.50657509157509,-14.901116608001374,27.373738281367,32.669212567765896,34.32255069338365,1577398223.999,-27.71197353381577,-51.10564595842658,25.557728
116646,1577398224.19,1.004104818204554,-0.2263396496284292,8.649024299733231,2.216096414705602,-0.069840614281631,10.793703430771249,2.455516580721227,1.7602637766768292,9.302057401331458,-1.7605293087842986,-1.1239400724085369,0.4624157417111281,2.008577672446646,-3.8913633765243913,-0.46539306640625,3.320833531821646,28.708109041539632,-0.3918903629954268,-28.49782590416271,-15.885475331959707,0.9299436240842456,4.6717585324728175,-39.91937118437118,-13.38314946771978,27.517506814029414,32.64525114565549,34.08293647227963,1577398223.999,-27.71197353381577,-51.10564595842658,25.557728
116647,1577398224.2,0.6689165857826791,-0.5615278820503042,11.165330244557447,0.971111551424352,-0.7426112807855372,11.368311829208746,2.972664139314977,1.975741926090892,7.106574478968177,-4.446076183784299,-5.060707650533536,0.035169647961128,2.283235875571646,-7.4619200171493905,-0.55694580078125,1.7644370474466462,-15.694967130335366,3.0260783870045733,-27.17234562955049,-13.511783615689868,-0.464971812042126,7.249280481423338,-37.55127289377289,-17.026270604395606,27.373738281367,32.6931739898763,34.22670500494204,1577398223.999,-27.71197353381577,-51.10564595842658,25.557728
116648,1577398224.21,0.3780210840736942,-0.5543452770698355,11.184483857838698,0.3366481114829459,0.5741996323003992,10.86313527891578,-1.2794380091225228,-0.9020884694169206,12.201435611780678,-2.1572578244092986,-0.4525533536585367,0.4624157417111281,3.870149938071646,-6.393804782774391,0.45013427734375,-2.294400843178354,0.8760777915396342,1.591752215129573,-27.4563771169674,-14.516037803342492,0.0774953020070199,17.237178033606607,-46.6853663003663,-4.882533482142857,27.421661125587804,32.45355976877228,34.17878216072124,1577398223.999,-27.71197353381577,-51.10564595842658,25.557728
116649,1577398224.22,0.1134618006264281,-0.0755049450385854,9.973017817799636,-0.0548038599526009,-0.045898597680069,10.591393390488044,-0.4043573023354134,1.068339496891673,11.792027127893958,0.8334648318407013,-1.0323873380335369,0.8896618354611281,1.2914145865091462,-0.5496885718368903,0.31280517578125,0.5132163443216462,-0.649801114710366,1.683304949504573,-27.551054279439697,-15.337700320512822,-1.084934228098292,17.237178033606607,-38.56617216117216,-11.76398451808608,27.421661125587804,32.669212567765896,34.370473537604454,1577398223.999,-27.71197353381577,-51.10564595842658,25.557728
116650,1577398224.23,1.1166322962318975,-0.0587455334174917,10.846901423756668,1.428404068514196,-0.6755736343011622,9.938973438095466,-2.076707161954554,-3.420788615901296,6.515206668909584,4.495574206840701,-4.023109994283536,0.004652069836128,-0.2802406869283537,1.2966249047256098,0.17547607421875,-0.5243813119283537,-1.901021817835366,-0.8496540348704268,-26.793636979661287,-15.337700320512822,0.464971812042126,18.20374876446305,-35.85977411477411,-13.787940705128204,27.565429658250217,32.50148261299308,34.27462784916285,1577398223.999,-27.71197353381577,-51.10564595842658,25.557728
116651,1577398224.24,1.779826156095179,0.4105179919731322,10.198072773854324,0.5090306310141959,0.1719737533941492,8.497664038681403,0.2576394566977896,-2.439165935237233,9.13446328512052,3.976775378715701,-2.2530904630335367,0.5234508979611281,4.236360875571647,-1.7856504858993902,1.15203857421875,-2.324918421303354,2.5545445884146343,-1.978804425495427,-27.36169995449509,-15.520291990995116,0.3099812080280861,17.398273155416014,-35.690624236874235,-67.4227796617445,27.565429658250217,32.64525114565549,34.27462784916285,1577398223.999,-27.71197353381577,-51.10564595842658,25.557728
116652,1577398224.25,1.9534057764565071,-0.0898701549995234,8.051670985524245,1.5337489415610708,0.629266270483994,7.743490515732184,0.1953902135337276,1.2359336131026104,10.116085965784585,-0.4635322384717986,0.0204691072789631,0.6455212104611281,3.091951695884146,-2.2891905249618905,0.52642822265625,-0.1886879525533537,10.443338533727132,-1.810957745807927,-27.645731441912,-15.246404485271674,0.0774953020070231,17.720463399034827,-18.09903693528693,-14.799918798649268,27.301854015035797,32.7171354119867,34.32255069338365,1577398223.999,-27.71197353381577,-51.10564595842658,25.557728
116653,1577398224.26,1.894747835782679,0.2884137073051635,8.811830012623854,1.7228908727134145,-1.966048329125381,10.906230908798593,1.3182707921470085,-1.1439028370927018,10.702665372522866,3.5800468630907014,0.2188333650914634,0.8286266792111281,5.457064000571647,-20.40137314214939,2.09808349609375,-2.538541468178354,3.6226598227896334,-0.1477497379954268,-28.119117254273505,-14.789925309065936,0.3099812080280861,2.5775219489505203,-35.01402472527472,-13.585545086423991,27.373738281367,32.64525114565549,34.41839638182526,1577398223.999,-27.71197353381577,-51.10564595842658,25.557728
116654,1577398224.27,1.3895712854897102,-0.2263396496284292,10.937881086842603,0.7580276036704459,-0.146455067406631,12.577383667587654,2.656629520174352,0.445847065251048,9.931732437952553,0.1315605349657013,1.5310892244664631,0.5844860542111281,7.562776891196647,-18.05151962652439,-0.03814697265625,-4.888394983803353,3.7447301352896334,2.3241740901295733,-27.36169995449509,-16.61584201388889,-0.3099812080280861,1.772046339903483,-42.28746947496948,-17.026270604395606,27.517506814029414,32.64525114565549,34.27462784916285,1577398223.999,-27.71197353381577,-51.10564595842658,25.557728
116655,1577398224.28,0.9011541468178352,-0.607017713593273,11.737544441334792,1.153070877596227,-0.2685593520745997,11.547876953720468,0.3366481114829459,0.3069833689619856,10.76970301900724,1.4438163943407014,-0.8492818692835366,0.6150036323361281,0.1470054068216463,-6.668462985899391,1.18255615234375,-0.2497231088033537,5.423196932164634,2.8734904963795733,-28.687180229107312,-14.972516979548232,1.084934228098292,1.772046339903483,-42.28746947496948,-17.026270604395606,27.517506814029414,32.597328301434686,34.08293647227963,1577398223.999,-27.71197353381577,-51.10564595842658,25.557728
116656,1577398224.29,0.1050820948158822,-0.405904774140148,10.37883499919612,0.4288248753989615,0.5873677414312591,11.448517584823982,-0.260705202726038,2.1181969248701886,11.99433716817716,-0.4177558712842987,0.3714212557164633,0.8896618354611281,-0.0971352181783538,-3.1894590796493905,0.67901611328125,1.0777915396341462,5.591043611852134,2.6140910823170733,-28.687180229107312,-14.972516979548232,1.084934228098292,11.437753648467936,-38.56617216117216,-16.216688129578756,27.3976997034774,32.62128972354509,34.17878216072124,1577398223.999,-27.71197353381577,-51.10564595842658,25.557728
116657,1577398224.3,1.7774319544350228,0.2884137073051635,10.50692478801448,0.8298536534751334,-0.4289708633050684,11.720259473251716,-1.8396811975990848,-2.120737114436452,12.100879142054117,6.204558581840701,-2.8939596036585367,0.5234508979611281,3.626009313071646,-4.318609470274391,0.66375732421875,-6.963590296303353,-9.194722989710366,-0.3613727848704268,-26.22557400482748,-14.789925309065936,0.0,17.398273155416014,-35.35232448107448,-13.585545086423991,27.70919819091263,32.64525114565549,34.370473537604454,1577398223.999,-27.71197353381577,-51.10564595842658,25.557728
116658,1577398224.31,0.7814440638100227,0.5374106799614136,11.268280915944167,1.9120328038657584,-0.4600954848870997,10.094596546005622,-0.3409109583412728,-2.776748369319264,11.528664945276772,6.357146472465701,0.5850443025914634,1.286390351086128,2.527376500571646,3.6159608422256095,1.06048583984375,0.6963218130716463,-4.830709317835366,-3.779341534870426,-28.119117254273505,-15.520291990995116,0.0,5.7994243851386695,-32.984226190476186,-66.61319718692765,27.517506814029414,32.45355976877228,34.08293647227963,1577398223.999,-27.71197353381577,-51.10564595842658,25.557728
116659,1577398224.32,1.6206117456947884,-0.3017570019233511,9.749159962575026,1.2392621373618522,1.510332481421494,10.882288892197028,3.549666739412633,1.7435043650557356,6.960528177698646,1.5353691287157014,1.3479837557164636,0.996473358898628,8.325716344321647,-1.2973692358993902,0.32806396484375,16.595980016196645,-16.274801114710368,-0.4834430973704268,-27.7404086043843,-14.789925309065936,-0.6199624160561659,17.398273155416014,-3.21384768009768,-62.16049357543498,27.541468236139814,32.83694252253871,34.370473537604454,1577398223.999,-27.71197353381577,-51.10564595842658,25.557728
116660,1577398224.33,1.7175769129311165,1.1287784900200073,9.987383027760574,2.1741978856528674,0.2294345932379002,8.452174207138434,-1.6888464930092415,0.1812877818037824,7.1400933022103645,5.136443347465701,1.4090189119664631,0.4013805854611281,2.084871617759146,3.9363954125381095,1.53350830078125,1.2914145865091462,-12.750020841272868,2.3546916682545733,-27.7404086043843,-14.789925309065936,-0.6199624160561659,17.398273155416014,-34.50657509157509,-17.026270604395606,27.3258154371462,32.57336687932428,34.32255069338365,1577398223.999,-27.71197353381577,-51.10564595842658,25.557728
116661,1577398224.34,2.478933040860804,-0.7003915783393667,9.589945552174637,2.697330948397008,0.1863389633550867,11.370706030868904,0.4060799596274771,-1.4958504811356703,12.196647208460364,0.9860527224657012,-0.7577291349085366,0.7675915229611281,-2.660611780678354,14.99901748285061,1.54876708984375,5.914827672446647,-9.744039395960366,3.911088152629573,-27.551054279439697,-15.702883661477411,0.464971812042126,6.927090237804523,-38.56617216117216,-16.216688129578753,27.565429658250217,32.64525114565549,34.22670500494204,1577398223.999,-27.71197353381577,-51.10564595842658,25.557728
116662,1577398224.35,1.425484310392054,0.015474718047351,11.385596797291823,2.046108096834508,0.5909590439214929,12.46485618956031,0.2528510533774771,1.1712901682783918,11.095314444788489,4.922820300590701,4.033530630716464,1.164320038586128,3.442903844321646,-2.7622129858993905,0.96893310546875,6.616731969321647,-12.673726895960366,4.185746355754573,-27.551054279439697,-15.702883661477411,0.7749530200702057,4.832853654282226,-41.103420329670335,-8.728050237522895,27.517506814029414,32.45355976877228,34.46631922604607,1577398223.999,-27.71197353381577,-51.10564595842658,25.557728
