,timestamp,acc_x_dashboard,acc_y_dashboard,acc_z_dashboard,acc_x_above_suspension,acc_y_above_suspension,acc_z_above_suspension,acc_x_below_suspension,acc_y_below_suspension,acc_z_below_suspension,gyro_x_dashboard,gyro_y_dashboard,gyro_z_dashboard,gyro_x_above_suspension,gyro_y_above_suspension,gyro_z_above_suspension,gyro_x_below_suspension,gyro_y_below_suspension,gyro_z_below_suspension,mag_x_dashboard,mag_y_dashboard,mag_z_dashboard,mag_x_above_suspension,mag_y_above_suspension,mag_z_above_suspension,temp_dashboard,temp_above_suspension,temp_below_suspension,timestamp_gps,latitude,longitude,speed
86718,1577399872.58,0.346984055235327,0.2026896088390807,8.195819444014386,1.7110950498999613,0.9939148623582794,8.656615670850801,2.047743161382907,-2.139511159161823,5.734112976074218,3.0389180997522867,-0.4544141815929878,-1.5176912633384143,1.4869876024199693,-4.841502119855183,-1.0744420493521345,-1.7363385456364329,0.6806908584222562,0.2538169302591462,-30.76354834401709,-15.848956997863246,-0.0751469595219649,-8.819613579529443,-42.15834946303696,-3.737548209002536,26.990355527600563,31.15964297481056,33.24428669841555,1577399872.0,-27.71435779243584,-51.10239318216187,22.80508
86719,1577399872.59,0.1123522925400145,0.1739591889172057,9.838241782881571,0.7725679991187115,0.8083642336961695,9.920754147413303,0.2161788913633762,-1.2907666706364327,8.8872765625,-0.7452615877477134,-1.369941525342988,-1.0904451695884143,0.0526614305449695,4.298512528582317,-2.0357457602896343,0.5677386028010671,17.175441834984756,-4.644254358803353,-30.76354834401709,-15.848956997863246,-0.0751469595219649,-8.203277992040011,-37.02602865884116,-4.032537774725275,26.89450983915896,30.92002875370653,33.22032527630515,1577399872.0,-27.71435779243584,-51.10239318216187,22.80508
86720,1577399872.6,0.988630100157202,-0.110950808641387,9.268421787764389,0.8300288389624616,-1.6887880978467982,7.272767111280487,0.75008586157822,-0.5533525593083077,11.221623181152344,-0.6231912752477134,1.285087771532012,-1.3345857945884143,2.524585258669969,-3.117258955792683,-1.4864293540396345,4.199330399676067,11.468654725609756,-4.583219202553353,-28.824298878205127,-15.235448985042735,-1.1272043928293995,-9.8468395586785,-1.832971715784216,-38.25132739856297,26.89450983915896,30.872105909485725,33.17240243208434,1577399872.0,-27.71435779243584,-51.10239318216187,22.80508
86721,1577399872.61,1.4566965247177488,-0.7765388701648245,11.1993454266804,1.27774454941168,0.324735498344607,11.27587228706174,1.6167868625547823,2.202373551531535,12.74194123535156,0.2770772794397862,-1.812446408155488,-1.5634676305259143,-0.0083737257050304,2.101246903582317,-0.1741734946646341,4.962269852801067,8.996730897484756,-3.789762171303354,-29.265037393162395,-15.74670566239316,-0.7514695952195997,-13.133962691955478,-38.492406031468526,-1.6726212489433638,26.822625572827747,31.063797286368946,33.36409380896756,1577399872.0,-27.71435779243584,-51.10239318216187,22.80508
86722,1577399872.62,1.4722588355087645,0.3223996918468932,12.134281174971417,0.9964258543433208,-0.4593655453565643,11.002933297803928,0.971549515142673,0.6581134807307537,10.82179150390625,0.8416524747522866,0.4916307402820121,-1.0904451695884143,0.9071536180449692,2.497975419207317,-0.6471959556021342,-0.5919293659489329,2.008205506859756,-2.721646936928354,-29.70577590811965,-15.439951655982904,-0.3757347976097998,-6.354271229571711,-38.67570320304695,-2.7050847289729503,26.798664150717343,31.01587444214814,33.29220954263636,1577399872.0,-27.71435779243584,-51.10239318216187,22.80508
86723,1577399872.63,0.8880736304306396,-0.6879534087390432,10.55410807926829,1.7517964781226176,-1.4397911251905482,9.937513559034397,0.9942944309141576,0.7921887736995037,13.148955517578123,2.4285665372522867,5.893242068407012,-0.6021639195884145,6.705493461794969,-6.352122237042683,-1.2117711509146345,1.2696428996760671,20.50185785060976,-0.1886879525533537,-29.70577590811965,-15.439951655982904,-0.3757347976097998,-5.327045250422654,-42.15834946303696,-3.737548209002536,26.89450983915896,30.92002875370653,33.17240243208434,1577399872.0,-27.71435779243584,-51.10239318216187,22.80508
86724,1577399872.64,0.691749094297827,-0.8196345000476369,9.51502455876048,-0.9488629945336312,1.042995996391482,10.514516159132052,0.6231931735899388,-0.4336424763004952,8.386888415527343,1.7876973966272869,5.099785037157012,-1.0599275914634143,-0.9239010694550304,-1.2862042682926829,-0.3877965415396341,-1.4159039753239329,-4.369968321265244,-0.2497231088033537,-27.9428218482906,-13.803930288461538,0.2254408785658761,10.69768002430262,-44.724509865134856,-3.737548209002536,27.18204690448378,31.01587444214814,33.31617096474676,1577399872.0,-27.71435779243584,-51.10239318216187,22.80508
86725,1577399872.65,0.8413866980575927,0.4169706574230651,8.098854276778058,1.9600920225562115,0.0170805850145294,6.628726864698455,2.1363286228086884,0.0009051250178636,7.390900524902343,2.0470968106897867,2.0022508574695124,-0.9378572789634144,2.234668266482469,-5.589182783917683,-1.1507359946646345,-0.8513287800114329,-15.630954649390244,2.557894078696646,-28.383560363247863,-14.724192307692308,-0.1502939190439206,9.875899240983376,-22.72884927572428,-4.032537774725275,27.014316949710967,31.15964297481056,33.17240243208435,1577399872.0,-27.71435779243584,-51.10239318216187,22.80508
86726,1577399872.66,0.979053293516577,-0.1133450103015432,5.6052932477253234,2.0654368956030864,1.660700024711795,10.916742038038302,1.0134480441954077,-3.625113289288776,5.796362219238281,2.2149434903772867,-4.116523556592988,-1.7313143102134143,0.1747317430449695,-7.603342940167683,-1.4559117759146345,5.633656571551067,-16.515964415015244,0.1470054068216463,-28.1191172542735,-15.235448985042735,-1.1272043928293995,0.0145298411524369,-2.5661604020979016,0.6872952768385466,26.990355527600563,30.92002875370653,33.17240243208434,1577399872.0,-27.71435779243584,-51.10239318216187,22.80508
86727,1577399872.67,0.1674189307236083,0.4995706146984557,10.266803880049542,0.6265216978491803,0.506694824516482,11.948642953565646,-0.2889976589295915,-1.4128709553044014,6.5768719604492185,-1.3861307283727131,-5.245673947217988,-2.1890779820884143,-3.5789303663300305,6.038014481707317,-1.3033238852896345,1.2086077434260671,5.273586366234756,-3.057340296303354,-28.1191172542735,-15.235448985042735,-1.1272043928293995,-7.381497208720765,-36.65943431568432,-40.61124392434488,26.798664150717343,31.063797286368946,33.12447958786354,1577399872.0,-27.71435779243584,-51.10239318216187,22.80508
86728,1577399872.68,-0.5340821557021719,0.5163300263195495,11.578826389815166,-0.0701909852562874,-1.2434665890577357,9.4993746552258,-0.7295307643983414,0.7251511272151288,10.96783780517578,-0.5316385408727134,3.4518358184070124,-0.9683748570884144,1.4259524461699695,-5.284007002667683,-1.0591832602896345,-0.5614117878239329,16.046291444359756,-4.094937952553353,-29.00059428418804,-14.62194097222222,-0.6763226356976347,-8.203277992040011,-3.299349088411588,-38.25132739856297,26.798664150717343,31.01587444214814,33.17240243208434,1577399872.0,-27.71435779243584,-51.10239318216187,22.80508
86729,1577399872.69,0.1147464942001708,-0.5730317290515438,10.29912560246165,0.6779970335425397,0.090103735649295,11.85646618964963,1.766424466314548,0.1780760478694261,12.36006607055664,-2.8662332674352133,-1.659858517530488,-1.4261385289634143,-2.0530514600800305,1.4146013957698167,-1.8678990806021345,-2.072031905011433,8.661037538109756,-4.033902796303353,-29.000594284188036,-14.826443643162392,-0.3757347976097999,-8.92233617744435,-3.5742948457792205,-39.35753827002324,26.870548417048557,30.99191302003773,33.19636385419474,1577399872.0,-27.71435779243584,-51.10239318216187,22.80508
86730,1577399872.7,0.2272739722275145,-0.4796578643054495,10.556502280928449,-0.1372286317406624,-1.1333333126905485,10.028493222120334,0.9966886325743136,0.8496496135432537,12.275071911621094,1.5740743497522869,0.8273240996570121,-0.9073397008384144,-1.9004635694550305,3.505055497332317,-1.0286656821646345,2.215687821551067,-5.499118711890244,0.1470054068216463,-29.00059428418804,-15.848956997863246,-3.0810253404003385,-8.203277992040011,-0.3665943431568428,-41.79120218723584,27.038278371821367,31.01587444214814,33.22032527630515,1577399872.0,-27.71435779243584,-51.10239318216187,22.80508
86731,1577399872.71,1.1083401831650146,-0.5275418975085745,11.700930674483136,1.4213966490210552,-0.9657391964796108,10.883223214796114,0.5346077121641575,-0.8215031452458077,11.851298217773437,-2.3321756502477133,-7.992255978467988,-2.0059725133384143,1.4259524461699695,1.0026140910823171,-0.7234899009146342,-7.031138350323933,10.308986756859756,-2.324918421303354,-29.00059428418804,-15.848956997863246,-3.0810253404003385,-6.55971642540152,-41.79175511988012,1.867253539729502,26.84658699493815,30.872105909485725,33.12447958786354,1577399872.0,-27.71435779243584,-51.10239318216187,22.80508
86732,1577399872.72,1.193334342100561,-0.3623419829577933,9.504250651289777,0.5810318663062116,0.4947238162157008,10.162568515089085,1.6000274509336885,0.4546063396174725,8.769960681152343,3.099953256002286,0.3390428496570121,-0.9988924352134144,2.463550102419969,-5.772288252667683,-2.1272984946646343,-1.5379742878239329,-3.393405821265244,0.0554526724466463,-29.17688969017094,-15.235448985042732,-2.028967907092907,-9.8468395586785,-44.724509865134856,5.407128328402368,26.96639410549016,31.111720130589752,33.12447958786354,1577399872.0,-27.71435779243584,-51.10239318216187,22.80508
86733,1577399872.73,1.5943631201767332,0.7988458222179868,7.736132725264386,1.6751820249976177,-0.7023770138624232,6.097214096143769,2.2919517307188446,-1.0992305378239329,7.26520493774414,0.7806173185022866,-0.0576856659679878,-1.4871736852134143,0.0679202196074695,-2.1101788776676838,-1.0286656821646345,-5.367930342511433,-0.4637183212652438,0.2995932974466463,-27.9428218482906,-15.030946314102565,-0.3757347976097998,10.492234828472808,-22.912146447302696,2.899717019759088,26.798664150717343,31.063797286368946,33.24428669841555,1577399872.0,-27.71435779243584,-51.10239318216187,22.80508
86734,1577399872.74,1.5009892554306394,-0.2617855132312308,7.374608274580792,0.1165567442358991,1.1339756594774195,9.264742892530489,-0.5595424465272477,-1.072894319562214,8.441955053710936,3.4051290372522867,-5.825507931592988,-2.0975252477134143,-3.792553413205032,1.3993426067073171,-2.1578160727896343,2.215687821551067,-4.034274961890244,-1.1042152963033538,-27.9428218482906,-14.21293563034188,-0.0751469595219649,-3.067148096294731,-3.849240603146853,-1.525126466081995,26.89450983915896,31.01587444214814,33.17240243208434,1577399872.0,-27.71435779243584,-51.10239318216187,22.80508
86735,1577399872.75,0.7539983374618895,0.5354836396007995,9.392920274092512,1.323234380954649,0.6647121340867945,10.41395968940549,2.528977695074314,-1.7600301960270577,12.849680310058591,1.8792501310022869,-3.048408322217988,-2.1890779820884143,-4.616528022580031,6.343190262957317,-2.4629918540396343,-6.237681319073933,-8.978122618140244,-3.820279749428354,-29.353185096153844,-15.030946314102565,-1.578086149961158,-6.148826033741899,-3.665943431568431,-40.90623349006763,26.84658699493815,31.063797286368946,33.17240243208434,1577399872.0,-27.71435779243584,-51.10239318216187,22.80508
86736,1577399872.76,-0.2084707299209219,-0.4688839568347464,11.214907737471416,-1.2984164369164437,-1.8851126339796107,9.836957089307834,-1.318504372796779,-0.4288540729801827,12.828132495117186,-7.504905142435213,2.8567430449695124,-0.9988924352134144,-2.1140866163300305,2.101246903582317,-1.2728063071646345,-5.810435225323933,8.386379334984756,-4.308560999428353,-29.26503739316239,-15.54220299145299,-1.2023513523513585,-8.203277992040011,-2.9327547452547447,-37.95633783284024,26.94243268337976,31.063797286368946,33.17240243208434,1577399872.0,-27.71435779243584,-51.10239318216187,22.80508
86737,1577399872.77,0.3062826270126708,-0.752596853563262,12.548478062178448,0.5822289671362897,-0.1720613461378143,13.901114407423067,0.7836046848204073,2.166460526629191,13.158532324218749,-2.3016580721227133,0.5526658965320121,-1.4566561070884143,-2.4650387647675305,3.886525223894817,-2.1272984946646343,-3.5368756550114324,-19.827121641577744,-1.1957680306783538,-29.353185096153844,-15.848956997863246,-1.277498311873317,-10.257729950338122,-37.20932583041958,-1.5251264660819948,26.990355527600563,30.99191302003774,33.10051816575314,1577399872.0,-27.71435779243584,-51.10239318216187,22.80508
86738,1577399872.78,1.1634068213486082,-0.5562723174304496,11.099986057783916,1.5027995054663676,-0.4342264279249231,11.627819931104709,1.774804172125095,1.7043796062190348,11.355698474121091,3.801857552877287,-2.987373165967988,-1.7923494664634143,-1.9614987257050305,8.845631669207316,-1.2422887290396345,-0.4088238971989328,-2.142185118140244,1.2151206411966462,-28.1191172542735,-14.41743830128205,-1.7283800690050757,-6.148826033741899,-41.42516077672328,8.947003117075232,26.65489561805493,31.20756581903136,33.22032527630515,1577399872.0,-27.71435779243584,-51.10239318216187,22.80508
86739,1577399872.79,1.228050266172827,0.0925563324718932,12.526930247237042,1.361541607517149,-1.0136232296827357,9.3078385224133,-0.178864382562404,-0.8358683552067453,10.484209069824216,2.1233907560022867,-5.306709103467988,-1.5176912633384143,1.2733645555449695,0.5753679973323171,-2.0357457602896343,4.046742509051067,15.558010194359756,0.4521811880716463,-28.824298878205127,-17.280475694444444,-0.8266165547415584,-5.7379356420822765,-41.42516077672328,1.867253539729502,27.08620121604217,31.063797286368946,33.12447958786354,1577399872.0,-27.71435779243584,-51.10239318216187,22.80508
86740,1577399872.8,1.857725302793921,-0.8567446257800588,8.608819230391338,1.840381939548399,-1.4421853268507043,6.755619552686737,-2.695170327386623,-0.7736191120426827,9.904812268066406,4.244362435689787,3.2382127715320124,-1.1362215367759143,-0.5576901319550305,-1.0725812214176829,-1.6695348227896345,-6.695444990948933,17.144924256859756,-1.5924965463033538,-28.55985576923077,-15.951208333333332,-0.9017635142635172,-9.025058775359255,-47.29067026723276,6.587086591293322,26.990355527600563,31.111720130589752,33.17240243208434,1577399872.0,-27.71435779243584,-51.10239318216187,22.80508
86741,1577399872.81,1.400432785704077,-0.072643582078887,7.570932810713605,0.6181419920386335,0.1774920962449981,7.427193118360565,1.6778390048887666,1.3165189372737225,9.05367357788086,1.5130391935022869,-4.269111447217988,-2.6773592320884143,1.8074221727324693,0.4380388957698171,-1.6695348227896345,-0.9733990925114328,-0.0059546493902438,-2.599576624428354,-29.70577590811965,-15.030946314102565,-1.277498311873317,-8.819613579529443,-47.84056178196803,-3.8850429918639056,27.08620121604217,31.01587444214814,33.00467247731153,1577399872.0,-27.71435779243584,-51.10239318216187,22.80508
86742,1577399872.82,1.1346764014267332,0.9664399384289244,8.523825071455791,2.968050921481993,0.2553036502000758,10.131443893507052,1.528201401129001,-2.954736824445026,11.168950744628903,6.731545052877286,-1.125800900342988,-2.2501131383384143,3.257007133669969,7.136647294207317,-3.2564488852896343,-5.383189131573933,-21.703952696265244,-2.721646936928354,-30.058366720085463,-15.439951655982904,-0.6763226356976347,-9.025058775359255,-37.759217345154845,-4.032537774725275,26.89450983915896,30.92002875370653,33.22032527630515,1577399872.0,-27.71435779243584,-51.10239318216187,22.80508
86743,1577399872.83,0.0046132178329833,-0.9393445830554494,9.414468089033916,1.8260167295874612,-1.1740347409132044,11.148979599073458,1.0900624973204074,0.3420788615901287,8.717288244628906,-3.613913931497713,-1.339423947217988,-2.4027010289634143,-2.0835690382050305,1.5214129192073171,-2.0662633384146343,-2.972300459698933,-11.053317930640244,-1.5619789681783538,-29.52948050213675,-16.053459668803416,-0.8266165547415584,-8.819613579529443,-37.57592017357642,-3.8850429918639056,26.702818462275737,30.77626022104412,33.36409380896756,1577399872.0,-27.71435779243584,-51.10239318216187,22.80508
86744,1577399872.84,-0.1282649743056876,-0.029547952196075,12.148646384932354,-0.4700226625023811,-0.1062208004835174,13.334885714796116,0.936833591070408,1.273423307390911,10.972626208496091,-3.720725454935213,3.4518358184070124,-1.2125154820884143,2.677173149294969,-1.5761212604801829,-1.4711705649771345,-4.070933272198933,-5.209201719702744,-0.3412758431783537,-29.6176282051282,-15.74670566239316,-0.9017635142635172,-12.312181908636234,-20.712580388361637,-2.5575899461115807,26.822625572827747,31.111720130589752,33.19636385419474,1577399872.0,-27.71435779243584,-51.10239318216187,22.80508
86745,1577399872.85,0.6606244727157958,-0.5706375273913871,11.4567221051472,2.266549835056211,-1.121362304389767,10.902376828077363,0.912891574468845,-0.7137640705387766,9.909600671386718,2.3370138028772867,0.5526658965320121,-1.5482088414634143,-0.8628659132050305,7.991139481707317,-2.2798863852896343,-1.6600446003239329,13.360744569359756,-1.4399086556783538,-29.00059428418804,-16.66696768162393,-0.9769104737854758,-5.532490446252464,-38.3091088598901,-3.5900534261411665,27.18204690448378,30.872105909485725,33.17240243208434,1577399872.0,-27.71435779243584,-51.10239318216187,22.80508
86746,1577399872.86,0.2727638037704833,0.0734027191906432,10.221314048506573,-0.3120053529320686,1.4739522952196071,10.655774057081272,3.479475754156345,1.4386232219416912,6.9336080078125,4.534279427877286,-3.902900509717988,-1.0904451695884143,-2.5718502882050305,-4.307444502667683,-1.5779820884146345,6.366078446551067,4.419094178734756,-1.0736977181783538,-29.88207131410256,-15.235448985042735,-1.4277922309172344,-9.8468395586785,-40.69197209040959,-3.737548209002536,26.990355527600563,31.111720130589752,33.02863389942193,1577399872.0,-27.71435779243584,-51.10239318216187,22.80508
86747,1577399872.87,1.3764907691025146,-0.144469631883575,8.527416373946027,0.5977912779273054,0.4947238162157008,7.102778793409393,-1.1149972316834975,-1.1279609577458076,10.177751257324218,2.9321065763147867,-3.078925900342988,-1.2430330602134143,-1.3511471632050305,4.695241044207317,-1.6390172446646345,3.711049149676067,-0.5857886337652439,-1.1957680306783538,-28.824298878205127,-14.826443643162394,-0.5260287166537173,-9.8468395586785,-40.69197209040959,-3.737548209002536,26.89450983915896,31.111720130589752,33.17240243208434,1577399872.0,-27.71435779243584,-51.10239318216187,22.80508
86748,1577399872.88,1.3669139624618896,0.1931128021984557,8.818311875655011,0.652857916110899,-0.6221712582471894,8.023349331739471,1.185830563726658,-1.2177435200016669,7.793126403808594,2.3675313810022867,-1.888740353467988,-1.9449373570884143,2.951831352419969,-2.506907393292683,-0.9523717368521344,0.7355852824885671,4.098659608422256,-2.446988733803354,-28.824298878205127,-14.41743830128205,-1.1272043928293995,-7.895110198295294,-41.88340370566932,0.7610426682692311,26.89450983915896,31.039835864258546,33.19636385419474,1577399872.0,-27.71435779243584,-51.10239318216187,22.80508
86749,1577399872.89,1.3453661475204832,0.0901621308117369,8.763245237471416,-0.3311589662133186,0.094892138969607,7.406842404249237,1.623969467535251,-0.7233408771794015,8.851363537597656,0.4754415372522865,2.5363084746570124,-0.9683748570884144,0.8766360399199695,-4.673655440167683,-1.8526402915396345,-0.8665875690739329,6.250148866234756,-2.263883265053354,-28.64800347222222,-16.25796233974359,-1.8786739880489929,-2.450812508805297,-4.032537774725275,-4.032537774725275,26.89450983915896,31.01587444214814,33.31617096474676,1577399872.0,-27.71435779243584,-51.10239318216187,22.80508
86750,1577399872.9,1.0484851416611085,0.8395472504406432,7.606845835615948,1.045506988376524,-0.5395713009717982,8.532117184522674,-0.5643308498475602,1.0148495280940348,9.849745629882811,-0.5316385408727134,-1.766670040967988,-1.6092439977134143,-2.2971920850800305,2.620045731707317,-0.0215856040396341,0.4761858684260671,2.771144959984756,-1.8061195931783536,-30.058366720085463,-14.62194097222222,-0.9769104737854758,-5.7379356420822765,-3.665943431568431,-39.431285661453934,27.08620121604217,30.872105909485725,33.36409380896756,1577399872.0,-27.71435779243584,-51.10239318216187,22.80508
86751,1577399872.91,0.1147464942001713,-0.5095853850574026,10.738461607100325,0.8372114439429303,-0.5419655026319544,10.095530868604708,0.6830482150938451,-0.1176078571598702,11.329362255859374,-1.6302713533727131,1.819145388719512,-1.5176912633384143,1.9447512742949693,-8.305247237042684,-2.3409215415396343,-5.078013350323933,14.367824647484756,-1.7145668588033538,-31.116139155982903,-13.803930288461538,-0.9769104737854758,-5.7379356420822765,-3.665943431568431,-39.431285661453934,26.91847126126936,31.01587444214814,33.17240243208434,1577399872.0,-27.71435779243584,-51.10239318216187,22.80508
86752,1577399872.92,-0.1438272850967031,-0.2498145049304495,12.256385459639386,-0.5526226197777717,0.0434168032762481,12.326926815870332,0.1826600681211892,-0.18823680613448,12.241553088378906,-5.902732290872714,-2.285468869092988,-1.8533846227134143,0.7545657274199695,1.0941668254573171,-1.1507359946646345,-0.0120953815739328,-6.582492735327744,-0.9974037728658536,-31.116139155982903,-13.803930288461538,-0.9769104737854758,-9.641394362848688,-3.48264625999001,-39.28379087859256,27.18204690448378,31.01587444214814,33.17240243208434,1577399872.0,-27.71435779243584,-51.10239318216187,22.80508
86753,1577399872.93,-0.0193287987685781,-0.1037682036609183,9.71853169987376,1.332811187595274,-0.0607309689405482,11.383611361768772,-0.2578730373475602,0.3708092815120037,9.765948571777344,-0.8978494783727134,-1.339423947217988,-0.3580232945884145,-3.3958248975800305,2.803151200457317,-1.8221227134146345,-3.552134444073933,6.494289491234756,-0.6464516244283537,-28.64800347222222,-15.030946314102565,-1.578086149961158,-9.641394362848688,-2.749457573676323,-43.4136447987109,27.18204690448378,31.063797286368946,33.22032527630515,1577399872.0,-27.71435779243584,-51.10239318216187,22.80508
86754,1577399872.94,0.212908762266577,0.0374896942882994,9.711349094893292,0.4182261534155866,0.0972863406297633,9.262348690870333,1.4467985446836886,-1.1519029743473703,7.773972790527344,-0.7757791658727134,-3.963935665967988,-0.9073397008384144,1.2733645555449695,1.7350359660823171,-2.3104039634146343,-1.1717633503239329,10.461574647484756,-1.5924965463033538,-29.00059428418804,-15.030946314102565,-0.6763226356976347,-9.641394362848688,-3.1160519168331664,-43.4136447987109,26.990355527600563,31.01587444214814,33.22032527630515,1577399872.0,-27.71435779243584,-51.10239318216187,22.80508
86755,1577399872.95,1.1155227881454832,0.3882402375011901,8.782398850752667,1.7302486631812113,0.7916048220750758,8.539299789503144,0.7333264499571263,-1.8773460773747137,7.951143713378905,1.7419210294397869,-3.185737423780488,-1.0904451695884143,-6.844311225705031,7.106129716082317,-1.0286656821646345,1.3611956340510671,-9.069675352515244,-2.019742640053354,-29.70577590811965,-14.826443643162392,-1.4277922309172344,-9.641394362848688,-3.1160519168331664,-43.4136447987109,26.822625572827747,30.92002875370653,33.36409380896756,1577399872.0,-27.71435779243584,-51.10239318216187,22.80508
86756,1577399872.96,1.0245431250595458,0.0135476776867369,8.399326585127667,0.7761593016089459,-0.2726178158643768,8.175381137159393,0.6339670810606419,-1.4212506611149482,9.063250384521483,-0.8978494783727134,-2.315986447217988,-0.7852693883384145,-5.196362006955031,-0.7826642292301829,-1.0591832602896345,-1.5379742878239329,8.111721131859756,-1.5162026009908538,-30.23466212606837,-14.008432959401707,-0.8266165547415584,-6.970606817061142,-42.52494380619381,0.5398004939771768,26.84658699493815,31.08775870847935,33.10051816575314,1577399872.0,-27.71435779243584,-51.10239318216187,22.80508
86757,1577399872.97,0.6390766577743896,-0.2115072783679495,8.605227927901105,0.1524697691382428,-0.0870671872022669,7.289526522901581,1.8705722385313448,0.92865826832841,7.577648254394531,-2.5457986971227133,-1.064765744092988,-0.9073397008384144,-0.3440670850800305,0.5143328410823171,-1.8221227134146345,-4.254038740948933,4.052883241234756,0.0554526724466463,-29.353185096153844,-15.439951655982904,-1.277498311873317,-2.450812508805297,-3.299349088411588,-1.3776316832206257,26.84658699493815,31.063797286368946,33.22032527630515,1577399872.0,-27.71435779243584,-51.10239318216187,22.80508
86758,1577399872.98,0.5193665747665771,-0.2186898833484183,8.9667523785847,2.333587481540586,-0.5706959225538294,8.421983908155488,0.9966886325743136,-0.1343672687809639,7.213729602050781,-4.315818228372714,-3.872382931592988,-1.7313143102134143,-7.790356147580031,4.695241044207317,-1.0591832602896345,1.6358538371760671,-2.691501524390244,0.5132163443216463,-29.52948050213675,-15.644454326923077,-1.7283800690050757,-5.327045250422654,-4.032537774725275,-38.25132739856297,26.84658699493815,31.111720130589752,33.41201665318837,1577399872.0,-27.71435779243584,-51.10239318216187,22.80508
86759,1577399872.99,0.3062826270126708,-0.1959449675769339,9.230114561201887,0.7031361509741804,0.6635150332567163,9.534090579298066,0.9990828342344704,-0.9172712116520582,9.83777462158203,-2.4084695955602133,-1.064765744092988,-1.2582918492759143,-1.9767575147675305,-1.9881085651676829,-2.3104039634146343,-0.7597760456364329,11.758571717797258,-2.477506311928354,-29.000594284188036,-15.235448985042732,-1.277498311873317,-7.586942404550577,-2.932754745254745,-38.98880131286983,26.94243268337976,30.99191302003773,33.24428669841555,1577399872.0,-27.71435779243584,-51.10239318216187,22.80508
86760,1577399873.0,0.7444215308212645,-0.3383999663562308,10.290745896651105,-0.0869503968773811,-0.3193047482374231,10.550429184034396,1.8586012302305637,0.2798296184260662,11.413159313964844,-3.4613260408727133,-7.015693478467988,-1.2735506383384143,-1.0764889600800305,-5.375559737042683,-0.9371129477896342,-0.0426129596989328,5.853420350609756,-3.362516077553354,-28.29541266025641,-15.439951655982904,-1.578086149961158,-16.010195433572836,-37.759217345154845,-1.6726212489433638,26.84658699493815,30.92002875370653,33.17240243208434,1577399873.0,-27.714517627212743,-51.1022455226765,22.944338
86761,1577399873.01,0.030949436094702,-0.0965855986804495,10.697760178877669,1.9122079893530863,-0.2881801266553919,10.004551205518773,-0.8564234523866227,0.6772670940120037,9.720458740234374,-1.1419901033727131,-2.285468869092988,-0.5716463414634145,-2.3582272413300305,-0.3706769245426829,-0.8760777915396342,-5.291636397198933,-2.844089415015244,-2.904752405678354,-29.52948050213675,-14.41743830128205,-1.4277922309172344,-9.8468395586785,-38.85900037462537,-4.032537774725275,27.038278371821367,31.01587444214814,33.17240243208434,1577399873.0,-27.714517627212743,-51.1022455226765,22.944338
86762,1577399873.02,0.988630100157202,-0.0127885405749812,9.741276615645244,0.9329795103491804,-0.6305509640577357,8.263966598585174,1.97591711157822,0.06674567067216,6.89530078125,-2.286399283060214,-2.666938595655488,-1.1362215367759143,-5.532055366330031,1.3383074504573171,-2.9817906821646343,-4.467661787823933,9.668117616234756,-1.6535317025533538,-29.353185096153844,-13.599427617521368,-1.4277922309172375,-9.435949167018876,-38.85900037462537,-3.4425586432797965,26.94243268337976,30.92002875370653,33.41201665318837,1577399873.0,-27.714517627212743,-51.1022455226765,22.944338
86763,1577399873.03,1.266357492735327,-0.3934666045398245,8.387355576826886,1.4836458921851177,-0.2833917233350799,8.839772097852753,0.1814629672911111,-1.543354945782917,11.149797131347656,-2.3626932283727133,-2.010810665967988,-1.4871736852134143,-2.922802436642531,-0.9505109089176828,-1.4101354087271345,-6.756480147198932,1.6419945693597562,-0.9363686166158538,-30.93984375,-15.235448985042735,-2.0289679070929103,-8.819613579529445,-44.541212693556446,-0.7876525517751478,26.798664150717343,31.111720130589752,33.10051816575314,1577399873.0,-27.714517627212743,-51.1022455226765,22.944338
86764,1577399873.04,0.3158594336532958,0.0805853241711119,8.155118015791729,-0.2473619081078499,-0.1014323971632044,11.170527414014863,-0.523629421624904,-1.0226160846989327,12.229582080078124,-2.0575174471227133,6.473076052782012,-0.6631990758384145,-2.8465084913300305,-2.110178877667683,-1.2117711509146345,-3.216441084698933,-8.978122618140244,0.1775229849466463,-30.93984375,-15.235448985042735,-2.0289679070929103,10.081344436813186,-38.3091088598901,-3.8850429918639056,26.89450983915896,30.92002875370653,33.31617096474676,1577399873.0,-27.714517627212743,-51.1022455226765,22.944338
86765,1577399873.05,0.2727638037704833,0.0901621308117369,8.447210618330791,0.8874896788062115,-0.0224237423780482,7.943143576124237,1.7604389621641574,-1.84143305247237,9.375693701171874,-5.048240103372714,-1.125800900342988,-0.4800936070884145,1.3343997117949695,-5.436594893292683,-2.2188512290396343,-8.740122725323932,-6.506198790015244,0.0554526724466463,-28.824298878205127,-14.008432959401707,-1.4277922309172344,-11.901291516976611,-37.02602865884116,-4.032537774725275,26.990355527600563,31.20756581903136,32.64525114565549,1577399873.0,-27.714517627212743,-51.1022455226765,22.944338
86766,1577399873.06,0.184178342344702,-0.4545187468738089,9.487491239668683,0.3200638853491803,-0.2522671017530482,8.354946261671111,1.3534246799375949,-0.4073062580387764,8.17141026611328,-3.262961783060213,-6.512153439405488,-1.8686434117759143,-3.701000678830032,-4.460032393292683,-1.9747106040396345,-6.298716475323933,-21.581882383765244,1.9780600943216464,-29.4413327991453,-14.519689636752137,-0.9017635142635202,-11.901291516976611,-37.02602865884116,-4.032537774725275,26.96639410549016,31.111720130589752,33.55578518585078,1577399873.0,-27.714517627212743,-51.1022455226765,22.944338
86767,1577399873.07,0.174601535704077,-0.5969737456531058,9.531783970381571,1.1484576597632428,-0.3264873532178919,12.36044563911252,-0.0866876186463889,-1.062120412091511,9.860519537353516,-3.1561502596227133,-0.2102735565929878,-0.9073397008384144,-4.357128608517531,-1.5913800495426829,-2.081522127477134,-7.122691084698932,-10.320896055640244,-1.6840492806783538,-31.116139155982903,-15.030946314102565,-0.3757347976097998,-10.36045254825303,-19.88774311625874,-21.65816432665892,27.038278371821367,31.111720130589752,33.29220954263636,1577399873.0,-27.714517627212743,-51.1022455226765,22.944338
86768,1577399873.08,0.0620740576767333,-0.7765388701648245,11.33461782047923,-0.2880633363305061,-0.1253744137647669,11.96540236518674,1.30554064673447,2.920634049578411,11.949460485839843,-2.0880350252477133,-4.665839962842988,-0.9073397008384144,-8.370190131955031,-0.1875714557926829,-0.9981481040396342,-7.580454756573933,-5.041355040015244,-2.599576624428354,-31.116139155982903,-15.030946314102565,-0.3757347976097998,-16.215640629402646,-37.20932583041958,-3.8850429918639056,26.84658699493815,31.063797286368946,33.22032527630515,1577399873.0,-27.714517627212743,-51.1022455226765,22.944338
86769,1577399873.09,0.1889667456650145,-0.1660174468249808,10.94436294987376,0.4349855650366803,-0.7670204586866419,10.947866659620336,-0.3488527004334977,1.4003159953791913,10.465055456542968,-0.4400858064977134,-5.398261837842988,-0.8463045445884145,-1.1070065382050305,-1.8965558307926829,-2.0357457602896343,-2.972300459698933,-10.381931211890244,-0.9821449838033536,-30.058366720085463,-16.25796233974359,-1.277498311873317,-6.354271229571711,-2.749457573676323,-1.525126466081995,26.990355527600563,30.92002875370653,33.36409380896756,1577399873.0,-27.714517627212743,-51.1022455226765,22.944338
86770,1577399873.1,0.806670773985327,-0.8076634917468557,9.91605333683665,0.6360985044898053,-0.9944696164014856,10.588736410596896,-0.4063135402772477,0.1936383586604412,12.284648718261716,-1.2945779939977131,-5.138862423780488,-1.0599275914634143,2.921313774294969,-13.096507002667684,-1.4253941977896345,-9.289439131573932,-21.154636290015244,-1.1042152963033538,-28.55985576923077,-14.315186965811964,-1.0520574333074375,-9.025058775359255,-38.125811688311686,1.867253539729502,26.822625572827747,31.01587444214814,33.36409380896756,1577399873.0,-27.714517627212743,-51.1022455226765,22.944338
86771,1577399873.11,1.524931272032202,-1.1883415557116994,9.443198508955792,1.5375154295386333,-0.604214745796017,9.376073269727751,0.0018978427793923,-0.7353118854801831,10.760739361572265,0.3838888028772865,-3.628242306592988,-0.9683748570884144,-3.334789741330031,0.4838152629573171,-2.218851229039634,-4.925425459698932,-15.783542540015244,1.9933188833841464,-29.353185096153844,-15.030946314102565,-2.179261826136828,-8.100555394125106,-43.533078249875125,3.710938325496619,26.89450983915896,30.96795159792733,33.22032527630515,1577399873.0,-27.714517627212743,-51.1022455226765,22.944338
86772,1577399873.12,1.1203111914657955,-0.3479767729968558,9.23969136784251,0.5403304380835553,-0.8508175167921107,9.3844529755383,1.8945142551329075,-0.7879843220036202,8.037334973144532,0.5364766935022866,-0.4238966034679878,-0.9378572789634144,6.613940727419969,-18.95588200266768,-0.4793492759146341,-2.270396162823933,-15.203708555640244,-0.2192055306783537,-29.353185096153844,-15.030946314102565,-2.179261826136828,-5.943380837912087,-3.1160519168331664,-3.8850429918639056,26.702818462275737,30.92002875370653,33.41201665318837,1577399873.0,-27.714517627212743,-51.1022455226765,22.944338
86773,1577399873.13,0.8928620337509521,0.2793040619640807,9.222931956221418,1.5602603453101176,0.573732471000857,8.354946261671111,0.6974134250547825,-1.3314680988590888,9.030928662109377,0.4754415372522865,-1.797187619092988,-0.9378572789634144,-1.8394284132050305,2.162282059832317,-2.7681676352896343,-1.1107281940739329,-13.799899961890244,0.0554526724466463,-29.353185096153844,-15.030946314102565,-2.179261826136828,-0.6018057463369949,-3.849240603146853,-3.2950638604184275,26.84658699493815,31.063797286368946,33.31617096474676,1577399873.0,-27.714517627212743,-51.1022455226765,22.944338
86774,1577399873.14,-0.2312156456924063,-0.5347245024890438,9.390526072432356,0.2183103147925397,-0.1612874386671112,10.13742939765744,1.882543246832126,-0.5605351642887769,10.696095916748046,-2.8967508455602133,-2.209174923780488,-0.8463045445884144,-2.175121772580031,-0.2333478229801833,-1.7000524009146345,-4.955943037823933,-19.003147032202744,-2.446988733803354,-29.353185096153844,-15.644454326923077,-1.1272043928293995,10.081344436813186,-2.5661604020979016,-39.72627522717667,26.94243268337976,31.01587444214814,33.22032527630515,1577399873.0,-27.714517627212743,-51.1022455226765,22.944338
86775,1577399873.15,-0.1510098900771719,-0.6831650054187307,9.266027586104231,0.4206203550757428,-0.0320005490186732,12.970967062452363,-0.7247423610780289,-0.5437757526676827,10.529698901367189,-1.4776834627477131,-3.445136837842988,-0.9378572789634144,-1.5037350538300305,-0.6453351276676829,-1.9441930259146345,-11.669810225323932,-10.198825743140244,-3.209928186928354,-29.70577590811965,-13.803930288461538,-1.277498311873317,-9.641394362848688,-0.916485857892108,-39.28379087859256,26.798664150717343,30.92002875370653,33.12447958786354,1577399873.0,-27.714517627212743,-51.1022455226765,22.944338
86776,1577399873.16,-0.687311061952172,-0.6999244170398244,10.961122361494857,0.221901617282774,-1.1261507077100794,11.83132707221799,2.121963412847751,0.7538815471370037,9.90241806640625,1.5435567716272869,-7.107246212842988,-0.5716463414634145,2.707690727419969,-10.136301924542684,-0.6014195884146342,0.7508440715510671,-20.361179258765244,-0.0361000619283536,-29.70577590811965,-13.803930288461538,-1.277498311873317,-9.641394362848688,-0.916485857892108,-39.28379087859256,26.89450983915896,30.872105909485725,33.17240243208434,1577399873.0,-27.714517627212743,-51.1022455226765,22.944338
86777,1577399873.17,-0.1593895958877193,-0.3383999663562307,10.964713663985089,0.0782495176733991,-0.3815539914014856,11.92709513862424,-0.2004121975038102,0.976542301531535,9.878476049804688,0.9026876310022868,-7.259834103467988,-0.4343172399009145,-5.257397163205031,6.770436356707317,-1.8221227134146345,-9.503062178448932,-8.764499571265244,-1.8671547494283536,-29.88207131410256,-13.599427617521368,-0.976910473785476,-9.641394362848688,-0.916485857892108,-39.28379087859256,26.702818462275737,30.92002875370653,33.22032527630515,1577399873.0,-27.714517627212743,-51.1022455226765,22.944338
86778,1577399873.18,1.0963691748642332,-0.8316055083484182,10.74085580876048,1.462098077243711,-0.9142638607862512,10.352907547071505,0.7668452731993136,-0.6048278950016676,10.447098944091795,1.7571798185022869,-8.419502072217988,-0.6937166539634145,0.4493899461699693,1.3840838176448171,-1.7610875571646345,-5.016978194073933,-1.5623511337652438,-0.0361000619283536,-29.17688969017094,-14.41743830128205,-1.4277922309172344,-9.025058775359255,-1.099783029470529,-42.9711604501268,26.990355527600563,30.92002875370653,33.22032527630515,1577399873.0,-27.714517627212743,-51.1022455226765,22.944338
86779,1577399873.19,1.9798295874618892,-1.6025384429187306,9.1965957379597,1.2729561460913676,-1.5283765866163297,7.643868368604706,0.3789846042540012,-2.4399834675114325,10.89840595703125,1.0247579435022869,-5.672920040967988,0.3133634241615854,5.606860649294969,-13.859446455792684,-1.4864293540396345,-0.9886578815739328,-17.370456602515244,-0.3412758431783537,-30.76354834401709,-14.21293563034188,-2.179261826136828,-10.668620341997745,-45.82429289460539,5.407128328402368,26.798664150717343,31.01587444214814,33.12447958786354,1577399873.0,-27.714517627212743,-51.1022455226765,22.944338
86780,1577399873.2,1.5464790869736085,-1.157216934129668,9.589244810225324,1.7110950498999613,-0.1900178585889857,9.197705246046112,0.9871118259336888,0.7945829753596599,9.10514891357422,-1.0504373689977131,-4.635322384717988,-1.3040682164634143,2.310962211794969,-8.793528487042684,0.8634241615853658,5.450551102801067,-12.762302305640244,-0.0971352181783536,-29.88207131410256,-15.644454326923077,-2.329555745180745,-3.2725932921245406,-39.59218906093906,0.6872952768385466,27.038278371821367,31.01587444214814,33.17240243208434,1577399873.0,-27.714517627212743,-51.1022455226765,22.944338
86781,1577399873.21,1.6266848425888427,0.0781911225109562,9.896899723555402,1.639269000095274,0.0924979373094508,9.75555423286252,0.3765904025938449,-1.7432707844059638,8.027758166503906,3.725563607564786,-3.139961056592988,-0.6631990758384145,-0.4051022413300305,-5.619700362042683,-1.6695348227896345,-0.3477887409489328,-10.870212461890244,0.8489097036966463,-29.52948050213675,-14.62194097222222,-2.179261826136828,-1.4235865296562409,-3.1160519168331664,-3.5900534261411665,27.014316949710967,31.01587444214814,33.12447958786354,1577399873.0,-27.714517627212743,-51.1022455226765,22.944338
86782,1577399873.22,0.3876854834579833,-1.1620053374499806,11.420809080244856,0.5846231687964464,-0.160090337837033,9.14144150703244,0.4484164523985329,-1.5816621723454174,9.006986645507812,-2.8509744783727133,-2.377021603467988,-1.0294100133384143,0.5867190477324695,1.7808123332698171,-1.8678990806021345,-0.7750348346989329,-4.568332579077744,-3.0268227181783534,-27.9428218482906,-15.848956997863246,-0.3757347976097998,-9.025058775359254,-2.016268887362637,-40.90623349006762,26.65489561805493,30.752298798933715,33.29220954263636,1577399873.0,-27.714517627212743,-51.1022455226765,22.944338
86783,1577399873.23,0.8042765723251708,-0.1755942534656058,10.767192027022196,-0.1252576234398811,-0.3935249997022669,11.895970517042208,-1.902689577874904,-1.3601985187809638,12.052411157226562,0.9026876310022866,-0.2102735565929878,-0.9073397008384144,4.264087211794969,-2.476389815167683,-0.3572789634146341,-3.185923506573933,-5.071872618140244,-4.003385218178353,-29.70577590811965,-13.803930288461538,-2.179261826136828,-12.517627104466046,-0.1832971715784212,-39.87377001003804,26.798664150717343,31.01587444214814,33.31617096474676,1577399873.0,-27.714517627212743,-51.1022455226765,22.944338
86784,1577399873.24,-0.2587489647842032,-1.2242545806140432,11.60755680973704,-0.1444112367211311,-1.818074987495236,11.776260434034397,-1.27301454125381,-0.5677177692692452,12.952630981445312,-2.3626932283727133,-1.583564572217988,-0.9073397008384144,6.980151664919969,-8.976633955792684,-0.8150426352896342,5.358998368426067,-3.637546446265244,-2.721646936928354,-29.52948050213675,-13.190422275641025,-1.4277922309172344,6.9996664993660165,-39.22559471778221,-3.4425586432797965,26.990355527600563,31.063797286368946,33.22032527630515,1577399873.0,-27.714517627212743,-51.1022455226765,22.944338
86785,1577399873.25,-0.0157374962783443,-1.0039880278796682,11.323843913008526,-0.5957182496605843,-0.8400436093214075,12.828512063673069,0.6650917026426731,1.8528201091487224,11.641805572509766,3.969704232564786,-0.7443311737804876,-0.2054354039634145,2.661914360232469,-5.604441572980184,-0.2046910727896341,0.9186907512385672,-13.693088438452744,0.1470054068216463,-30.058366720085463,-14.62194097222222,-1.277498311873317,-6.354271229571711,-22.178957760989007,-0.7876525517751476,26.990355527600563,31.039835864258546,33.22032527630515,1577399873.0,-27.714517627212743,-51.1022455226765,22.944338
86786,1577399873.26,0.414021701719702,-0.9082199614734182,11.382501853682356,1.9433326109351177,-1.7103359127882043,11.462620016553927,0.9631698093321264,-1.063317512921589,10.697293017578124,6.639992318502286,-0.973213009717988,0.0081876429115854,4.813403618044969,-2.903635908917683,-1.3643590415396345,2.002064774676067,-15.875095274390244,1.9475425161966464,-29.52948050213675,-14.008432959401707,-1.7283800690050757,-12.517627104466046,-38.67570320304695,6.144602242709213,26.798664150717343,31.063797286368946,33.17240243208434,1577399873.0,-27.714517627212743,-51.1022455226765,22.944338
86787,1577399873.27,0.6678070776962646,-1.2362255889148244,10.786345640303448,2.175570171970274,-0.3384583615186731,9.32699213569455,0.8626133396055637,-0.2037991169254952,9.29668504638672,1.5435567716272869,-4.665839962842988,-0.2664705602134145,3.043384086794969,7.411305497332317,-1.5474645102896345,-0.4393414753239328,-17.278903868140244,2.435823766196646,-27.590231036324784,-14.62194097222222,-1.277498311873317,-12.517627104466046,-38.67570320304695,6.144602242709213,27.18204690448378,31.01587444214814,33.17240243208434,1577399873.0,-27.714517627212743,-51.1022455226765,22.944338
86788,1577399873.28,1.196925644590796,-0.8124518950671682,10.767192027022196,1.4046372373999614,-0.3264873532178919,11.10348976753049,1.4491927463438448,-1.4631491901676823,9.313444458007812,1.7266622403772869,-3.017890744092988,-0.4495760289634145,6.797046196169969,-7.908518721417683,0.8329065834603658,-1.4464215534489329,2.374416444359756,2.313753453696646,-29.88207131410256,-16.053459668803416,-1.7283800690050757,-12.517627104466046,-38.67570320304695,6.144602242709213,27.038278371821367,31.111720130589752,33.31617096474676,1577399873.0,-27.714517627212743,-51.1022455226765,22.944338
86789,1577399873.29,1.706890598204077,-0.0271537505359187,10.270395182539776,2.7058858396948837,0.3654369265672633,9.44670221870236,0.76923947485947,-2.340624098614948,7.952340814208984,3.1609884122522867,-2.285468869092988,-0.1749178258384144,2.097339164919969,4.283253739519817,-0.9981481040396344,-1.3701276081364329,9.805446717797256,0.0249350943216463,-28.73615117521367,-15.337700320512818,-2.1041148666148723,0.3226976348971559,-37.11767724463037,-3.2213164689877427,26.94243268337976,31.01587444214814,33.26824812052595,1577399873.0,-27.714517627212743,-51.1022455226765,22.944338
86790,1577399873.3,1.9295513525986083,-0.5443013091296682,9.811905564619854,0.6552521177710553,-0.0727019772413294,9.317415329053924,0.817123508062595,-2.2125343097965886,10.450690246582033,3.832375131002287,-1.339423947217988,-0.2664705602134145,-1.6868405225800305,6.312672684832317,0.1920374428353658,15.887562821551068,12.597805116234756,-3.484586390053354,-28.29541266025641,-17.07597302350427,-1.277498311873317,-9.025058775359255,-1.099783029470529,-41.4962126215131,26.990355527600563,31.20756581903136,33.17240243208434,1577399873.0,-27.714517627212743,-51.1022455226765,22.944338
86791,1577399873.31,1.477047238829077,-0.7980866851062307,11.693748069502666,0.4756869932593366,-0.3504293698194544,10.801820358350804,0.2736397312071262,1.3931333903987224,12.476184851074215,2.3064962247522867,-1.156318478467988,-0.4190584508384145,4.660815727419969,-1.4082745807926829,1.5348108803353655,1.3611956340510671,10.125881288109756,-5.834439905678353,-30.76354834401709,-15.030946314102565,-1.578086149961158,-9.8468395586785,0.3665943431568428,-40.02126479289941,26.798664150717343,31.063797286368946,33.22032527630515,1577399873.0,-27.714517627212743,-51.1022455226765,22.944338
86792,1577399873.32,0.720479514219702,-0.1743971526355281,13.16019658634837,0.2147190123023053,-1.7989213742139856,9.774707846143768,0.17547746314072,1.1465306194026288,8.28633194580078,2.9015889981897867,0.339042849657012,-0.2206941930259144,2.707690727419969,4.969899247332317,0.2530725990853658,0.2015276653010671,2.893215272484756,-3.576139124428354,-28.47170806623932,-14.41743830128205,-2.329555745180745,-16.421085825232456,-34.826462599900104,-4.032537774725275,27.014316949710967,30.872105909485725,33.17240243208434,1577399873.0,-27.714517627212743,-51.1022455226765,22.944338
86793,1577399873.33,1.6637949683212645,-0.388678201219512,11.542913364912822,0.1081770384253527,0.3091731875535918,10.370864059522676,0.6207989719297825,-0.5306076435368238,10.20887587890625,5.175148568502286,2.3532030059070124,-0.3885408727134145,2.005786430544969,2.497975419207317,0.2683313881478656,6.030385087176067,5.777126405297256,-2.8131996713033534,-28.47170806623932,-14.41743830128205,-2.329555745180745,-5.737935642082276,-38.125811688311686,-1.3776316832206257,26.990355527600563,30.94399017581693,33.22032527630515,1577399873.0,-27.714517627212743,-51.1022455226765,22.944338
86794,1577399873.34,1.4842298438095458,-1.202706765672637,10.441580601240949,1.9169963926733988,-1.6385098629835169,9.092360372999236,0.204207883062595,-1.0465581013004952,8.020575561523437,4.168068490377286,7.541191287157012,0.0997403772865854,4.325122368044969,-0.2791241901676829,-0.2657262290396341,10.791127274676068,-5.071872618140244,2.191683141196646,-29.88207131410256,-15.644454326923077,-1.4277922309172344,-11.901291516976611,-46.19088723776223,3.0472118026204567,26.89450983915896,31.111720130589752,33.12447958786354,1577399873.0,-27.714517627212743,-51.1022455226765,22.944338
86795,1577399873.35,1.5321138770126708,-0.7980866851062307,9.780780943037824,2.436538152927305,-0.6090031491163294,8.079613070753144,0.989506027593845,-1.120778352765339,10.184933862304687,3.1609884122522867,3.695976443407013,-0.2359529820884145,2.066821586794969,3.749196122332317,0.2530725990853658,5.908314774676067,-1.0740698837652438,2.191683141196646,-29.00059428418804,-16.25796233974359,-2.479849664224669,-11.901291516976611,-46.19088723776223,3.0472118026204567,27.18204690448378,30.92002875370653,33.17240243208434,1577399873.0,-27.714517627212743,-51.1022455226765,22.944338
86796,1577399873.36,2.0564440405868893,-0.4976143767566213,9.452775315596416,1.0526895933569929,1.224955322563357,9.99258019721799,1.0397842624571263,0.7107859172541912,7.723694555664062,3.847633920064786,1.9259569121570124,-0.2054354039634144,7.712573539919969,-6.779368330792683,1.1075647865853655,8.227650712176068,-7.299655821265244,2.710481969321646,-28.55985576923077,-16.155711004273503,-2.104114866614869,-5.327045250422654,-3.299349088411588,0.6872952768385466,27.062239793931774,30.77626022104412,33.31617096474676,1577399873.0,-27.714517627212743,-51.1022455226765,22.944338
86797,1577399873.37,1.6709775733017331,0.4564749848156432,12.620304111983137,1.562654546970274,-1.2159332699659389,9.15580671699338,-0.0088760646913107,-2.7524267841618237,8.58680425415039,2.0928731778772867,4.947197146532012,-0.8463045445884145,3.516406547732469,5.763356278582316,0.5277308022103658,3.726307938738567,5.899196717797256,-0.8753334603658538,-28.824298878205127,-15.644454326923077,-2.0289679070929103,-3.580761085869259,-3.5742948457792205,-22.54313302382714,26.84658699493815,31.039835864258546,33.17240243208434,1577399873.0,-27.714517627212743,-51.1022455226765,22.944338
86798,1577399873.38,1.170589426329077,-0.379101394578887,11.46869311344798,0.6289158995093366,0.353465918266482,10.062012045362522,1.1403407321836887,-0.4839207111637764,12.713210815429688,1.1773458341272869,9.036552615282012,0.1302579554115854,0.7850833055449695,7.014576981707317,0.2225550209603658,1.6358538371760671,11.895900819359756,-5.956510218178353,-28.29541266025641,-15.030946314102565,-1.277498311873317,-9.8468395586785,0.3665943431568428,-39.431285661453934,27.038278371821367,30.872105909485725,33.31617096474676,1577399873.0,-27.714517627212743,-51.1022455226765,22.944338
86799,1577399873.39,0.9766590918564207,-0.6879534087390432,9.704166489912824,-0.3838314027367561,-0.3791597897413294,11.311785311964083,-0.073519509515529,-0.5701119709294015,10.383652600097657,2.5506368497522867,7.144462771532012,-0.6937166539634145,-2.8159909132050305,9.639088700457316,0.9244593178353658,-3.216441084698933,4.785305116234756,-5.285123499428353,-29.52948050213675,-14.008432959401707,-1.4277922309172344,-9.8468395586785,0.3665943431568428,-39.431285661453934,26.990355527600563,31.01587444214814,33.939167939617214,1577399873.0,-27.714517627212743,-51.1022455226765,22.944338
86800,1577399873.4,0.5397172888779052,-0.5838056365222464,10.258424174238996,3.030300164646055,-1.1596695309522669,11.189681027296116,1.710160727300876,-0.8741755817692453,11.06360587158203,3.588234506002286,8.075248904344512,0.0234464319740854,3.562182914919969,5.763356278582317,1.5958460365853655,11.370961259051068,6.799465272484756,-3.576139124428354,-29.353185096153844,-14.621940972222225,-1.578086149961158,-16.010195433572836,-35.559651286213786,-4.032537774725275,26.990355527600563,30.92002875370653,33.17240243208434,1577399873.0,-27.714517627212743,-51.1022455226765,22.944338
86801,1577399873.41,0.3326188452743895,0.4612633881359557,11.169417905928448,0.0387451902808214,0.4097296572801538,11.387202664259004,0.6471351901915017,1.051959653826458,11.055226165771485,2.7032247403772867,4.001152224657012,-0.5411287633384145,1.5327639696074693,7.045094559832316,0.2835901772103656,2.597157548113567,1.916652772484756,-1.3636147103658538,-28.64800347222222,-14.21293563034188,-1.578086149961158,-16.010195433572836,-37.392623001998,0.6872952768385465,27.229969748704587,31.08775870847935,33.12447958786354,1577399873.0,-27.714517627212743,-51.1022455226765,22.944338
86802,1577399873.42,1.065244553282202,-0.4006492095202933,11.626710423018292,1.3950604307593364,-1.6887880978467982,9.236012472608612,0.53939611548447,-1.4511781818669014,10.172962854003906,1.0247579435022869,4.611503787157012,-0.3275057164634145,4.172534477419969,7.685963700457317,0.6803186928353658,0.6898089153010671,13.208156678734756,1.5508140005716462,-29.52948050213675,-15.644454326923077,-1.7283800690050757,-9.025058775359255,-47.65726461038961,3.3422013683431966,26.990355527600563,31.01587444214814,33.31617096474676,1577399873.0,-27.714517627212743,-51.1022455226765,22.944338
86803,1577399873.43,0.385291281797827,-0.6185215605945119,8.875772715498762,0.767779595798399,0.9879293582078882,9.82019767768674,-0.2219600124452165,-4.386469417218463,8.17859287109375,1.7571798185022869,8.273613162157012,0.0692227991615854,-1.3206295850800305,4.420582841082317,-0.0521031821646341,6.640736649676067,7.928615663109756,1.8865073599466464,-29.17688969017094,-16.462465010683758,-2.329555745180745,-9.025058775359255,-47.65726461038961,3.3422013683431966,27.038278371821367,31.01587444214814,33.17240243208434,1577399873.0,-27.714517627212743,-51.1022455226765,22.944338
86804,1577399873.44,0.7144940100693115,0.1488200714855655,8.255674485518291,1.3747097166480082,-0.4689423519971893,8.448320126417206,0.2221643955137673,-1.6187722980778387,9.957484704589843,1.5740743497522869,6.915580935594512,-0.3732820836509145,-1.6105465772675305,9.654347489519816,0.6803186928353658,3.192250321551067,5.716091249047256,1.8712485708841464,-28.20726495726496,-15.133197649572647,-1.2023513523513585,2.4798721911101724,-22.72884927572428,-1.3776316832206257,26.870548417048557,30.99191302003774,33.24428669841555,1577399873.0,-27.714517627212743,-51.1022455226765,22.944338
86805,1577399873.45,-0.0073577904677969,0.2721214569836119,10.79831664860423,-0.2689097230492561,0.0063066775438258,10.78984935005002,2.976693405523533,-1.7528475910465888,10.850521923828124,-1.4471658846227131,2.1395799590320124,-0.2359529820884145,1.7921633836699695,-4.154856612042683,0.8329065834603658,-1.2633160846989329,16.290432069359756,-1.6230141244283538,-28.47170806623932,-14.826443643162394,-1.1272043928293995,-5.121600054592842,-3.849240603146853,-39.28379087859256,26.84658699493815,31.25548866325217,33.31617096474676,1577399873.0,-27.714517627212743,-51.1022455226765,22.944338
86806,1577399873.46,0.586404221250952,-0.0989798003406057,9.926827244307354,0.6456753111304303,0.4995122195360132,9.994974398878146,0.7045960300352513,-4.463083870343463,10.328585961914062,1.8792501310022869,3.4518358184070124,-0.1444002477134145,-2.0835690382050305,6.617848466082317,-0.1741734946646341,-9.045298506573932,9.973293397484756,-8.611539515053353,-28.29541266025641,-16.25796233974359,-1.277498311873317,-9.641394362848688,-2.3828632305194803,-39.28379087859256,26.798664150717343,30.728337376823312,32.98071105520113,1577399873.0,-27.714517627212743,-51.1022455226765,22.944338
86807,1577399873.47,0.3398014502548583,-1.2458023955554494,10.096815562178447,0.6145506895483991,-1.9521502804639856,8.292697018507049,-0.3967367336366227,-3.000226655987995,9.981426721191406,-1.4471658846227131,3.1771776152820124,-0.2054354039634145,0.1747317430449695,0.8195086223323171,-0.2046910727896341,-4.070933272198933,9.027248475609756,-10.747769983803352,-28.64800347222222,-15.030946314102565,-1.578086149961158,-16.010195433572836,-39.22559471778221,-2.2626003803888417,26.89450983915896,30.872105909485725,32.98071105520113,1577399873.0,-27.714517627212743,-51.1022455226765,22.944338
86808,1577399873.48,0.5804187171005615,-0.8495620207995901,9.670647666670636,0.8431969480933214,-0.3528235714796112,9.281502304151582,0.4939062839415012,-0.7353118854801831,8.704120135498046,-0.9131082674352132,5.359184451219512,-0.0833650914634145,-0.5424313428925304,-1.4998273151676829,0.2530725990853655,-0.1952008503239328,4.281765077172256,-5.483487757240853,-29.441332799145297,-14.315186965811964,-1.0520574333074375,-11.28495592948718,-38.85900037462537,-3.1475690775570584,26.96639410549016,30.92002875370653,32.88486536675951,1577399873.0,-27.714517627212743,-51.1022455226765,22.944338
86809,1577399873.49,1.2998763159775144,-0.7071070220202932,9.105616074873762,1.514770513767149,-1.6672402829053918,8.704499704053925,-0.1022499294374039,1.8719737224299724,9.05965908203125,-2.1185526033727133,2.1700975371570124,-1.0904451695884143,-3.0296139600800305,-0.4927472370426829,2.3587854897103657,5.328480790301067,-4.003757383765244,-0.2497231088033537,-29.52948050213675,-15.644454326923077,-1.1272043928293995,-4.505264467103409,-43.62472683566433,1.867253539729502,26.89450983915896,30.92002875370653,33.939167939617214,1577399873.0,-27.714517627212743,-51.1022455226765,22.944338
86810,1577399873.5,0.9527170752548584,-1.5426834014148243,10.108786570479229,1.7781326963843365,-2.656045568549924,8.398041891553925,-1.663269411859279,0.7514873454768475,8.882488159179687,-1.874411978372713,5.923759646532012,0.1607755335365854,-7.790356147580031,11.592213700457316,-0.5403844321646342,5.938832352801067,7.989650819359756,3.015657750571646,-29.17688969017094,-14.826443643162394,-2.0289679070929103,-10.257729950338122,-48.02385895354645,5.702117894125108,26.798664150717343,31.01587444214814,33.31617096474676,1577399873.0,-27.714517627212743,-51.1022455226765,22.944338
86811,1577399873.51,-0.3042387963271719,-0.7466113494128713,8.973934983565167,0.0926147276343366,1.1148220461961695,10.447478512647676,1.1547059421446262,-2.7488354816715885,9.610325463867188,-4.620994009622714,6.717216677782012,-0.4495760289634145,-6.844311225705031,6.617848466082317,-0.9371129477896342,-5.627329756573933,2.221828553734756,3.931185094321646,-28.736151175213674,-14.928694978632478,-0.601175676175679,-4.710709662933221,-40.14208057567433,1.1297796254226546,26.84658699493815,31.063797286368946,33.17240243208434,1577399873.0,-27.714517627212743,-51.1022455226765,22.944338
86812,1577399873.52,0.5576738013290771,0.0231244843273619,6.400168198897198,0.2338726255835553,-0.4976727719190638,8.933145962598847,0.085694900884861,-2.466319685773151,8.601169464111328,0.8111348966272866,2.5668260527820124,-0.1444002477134145,-3.960400092892531,7.518117020769816,1.1991175209603655,1.4680071574885671,5.349880311547256,1.9628013052591464,-30.058366720085463,-14.21293563034188,-1.8786739880489929,-4.402541869188504,-39.50054047514985,-1.45137907465131,26.89450983915896,31.08775870847935,33.148441009973936,1577399873.0,-27.714517627212743,-51.1022455226765,22.944338
86813,1577399873.53,-0.2108649315810782,0.1212867523937682,10.324264719893293,-0.0223069520531624,0.0541907107469508,9.48022104194455,0.90331476782822,-1.3506217121403388,5.947196923828125,-3.5223611971227133,-2.651679806592988,-1.5482088414634143,-0.6797604444550305,-2.506907393292683,-0.6014195884146342,1.4832659465510671,3.656154725609756,0.9099448599466464,-30.058366720085463,-14.21293563034188,-1.8786739880489929,9.875899240983376,-34.826462599900104,-3.4425586432797965,26.798664150717343,31.111720130589752,33.17240243208434,1577399873.0,-27.714517627212743,-51.1022455226765,22.944338
86814,1577399873.54,-0.1031258568740469,0.2170548188000182,10.640299339033916,0.0447306944312116,-0.8747595333936732,8.740412728956269,2.10999240454697,-0.9890972614567451,7.673416320800781,0.8721700528772866,6.289970584032012,-0.6021639195884145,-0.8933834913300305,1.5824480754573171,-0.2046910727896341,-0.3172711628239328,7.745510194359756,-0.9211098275533536,-30.058366720085463,-14.21293563034188,-1.8786739880489929,9.875899240983376,-2.5661604020979016,-37.661348267117496,26.65489561805493,30.92002875370653,33.12447958786354,1577399873.0,-27.714517627212743,-51.1022455226765,22.944338
86815,1577399873.55,0.3062826270126713,-1.5714138213366995,9.12476968815501,-0.1755358583031624,-1.2985332272413297,9.611902133253142,0.5441845188047825,-0.4791323078434639,10.532093103027345,-5.078757681497714,2.3379442168445124,-0.4648348180259145,-4.769115913205031,4.359547684832317,0.1615198647103658,-0.7750348346989329,12.506252381859756,-0.7990395150533537,-29.17688969017094,-15.644454326923077,-1.4277922309172375,-16.421085825232456,-34.826462599900104,-2.852579511834319,26.94243268337976,31.01587444214814,33.41201665318837,1577399873.0,-27.714517627212743,-51.1022455226765,22.944338
86816,1577399873.56,0.1602363257431396,-1.138063320848418,9.187018931319074,0.7605969908179308,-0.7335016354444545,10.005748306348847,-0.7486843776795915,-0.2648512592594801,11.621454858398437,-1.813376822122713,3.5739061309070124,-0.7242342320884145,-2.5871090772675305,-1.2556866901676829,-0.9676305259146344,-6.985361983136432,10.858303163109756,-0.9821449838033538,-28.64800347222222,-12.985919604700852,-0.3757347976097998,-12.62034970238095,-20.07104028783716,-3.368811251849112,26.89450983915896,31.01587444214814,33.14844100997394,1577399873.0,-27.714517627212743,-51.1022455226765,22.944338
86817,1577399873.57,-0.0576360253310781,-0.2186898833484183,11.475875718428448,0.4493507749976178,-0.4342264279249231,9.109119784620331,1.9136678684141573,0.3612324748713787,7.6997525390625,-3.1866678377477133,2.0785448027820124,-1.3956209508384143,-7.332592475705031,7.899586747332317,-0.3267613852896341,-0.3783063190739328,6.921535584984756,2.283235875571646,-29.88207131410256,-14.826443643162394,-0.8266165547415584,-3.067148096294731,-41.24186360514485,-3.8850429918639056,26.990355527600563,30.728337376823312,33.12447958786354,1577399873.0,-27.714517627212743,-51.1022455226765,22.944338
86818,1577399873.58,1.2735400977157958,-0.1899594634265433,10.262015476729228,2.261761431735899,-1.236283984077267,8.017363827589081,0.5848859470274387,-0.4216714679997139,7.867346655273437,-2.9730447908727133,-0.4544141815929878,-1.0904451695884143,-6.050854194455031,7.380787919207317,-0.1741734946646341,0.3846331340510671,13.452297303734756,1.7339194693216462,-29.88207131410256,-14.826443643162394,-0.8266165547415584,-9.641394362848688,-47.84056178196803,-3.8850429918639056,26.84658699493815,31.111720130589752,33.12447958786354,1577399873.0,-27.714517627212743,-51.1022455226765,22.944338
86819,1577399873.59,0.5313375830673583,-1.0327184478015432,7.84147759831126,0.7522172850073835,-0.1744555477979706,10.008142508009003,1.066120480718845,-2.39090233347823,9.327809667968747,-4.086936392435214,6.183159060594512,-1.0294100133384143,-2.6481442335175305,-1.5456036823551829,-1.2117711509146345,0.5829973918635671,6.067043397484756,-0.3107582650533537,-29.52948050213675,-15.030946314102565,-1.578086149961155,-6.148826033741899,-42.15834946303696,3.0472118026204567,26.870548417048557,30.94399017581693,33.19636385419474,1577399873.0,-27.714517627212743,-51.1022455226765,22.944338
86820,1577399873.6,0.6294998511337645,-0.273756521532012,8.847042295576886,-0.2234198915062874,-0.3073337399366419,8.984621298292206,0.3071585544493137,-0.9076944050114328,10.297461340332031,-5.322898306497714,5.282890505907012,-0.7547518102134145,-4.067211616330031,-0.0960187214176829,-0.1741734946646341,-5.932505537823933,1.4894066787347562,0.0554526724466463,-29.353185096153844,-16.66696768162393,-0.3757347976097998,-3.6834836837841647,-38.125811688311686,-3.4425586432797965,26.89450983915896,31.063797286368946,33.17240243208434,1577399873.0,-27.714517627212743,-51.1022455226765,22.944338
86821,1577399873.61,-0.1270678734756094,-0.053489968797637,10.769586228682352,0.7390491758765241,-2.5459122921827366,9.983003390577364,0.4268686374571262,-3.0983889240544014,10.9941740234375,-1.5692361971227131,-1.003730587842988,-1.3956209508384143,2.677173149294969,-7.755930830792683,-0.4488316977896341,-1.6905621784489329,2.404934022484756,-2.904752405678354,-29.70577590811965,-15.439951655982904,-0.0751469595219649,-6.148826033741899,-4.032537774725275,-40.02126479289941,26.990355527600563,30.872105909485725,33.02863389942193,1577399873.0,-27.714517627212743,-51.1022455226765,22.944338
86822,1577399873.62,-0.592740096376,-0.9213880706042776,9.97471127751048,0.0040292662085553,-0.1852294552686732,12.518462948682831,1.5808738376524385,-0.6251786091129953,12.255918298339845,-1.1114725252477131,3.757011599657013,-0.8768221227134144,-4.158764350705031,7.502858231707317,-1.9441930259146345,-5.352671553448933,-3.973239805640244,-7.879117640053353,-29.000594284188036,-15.848956997863247,-0.8266165547415615,-11.079510733657369,-2.5661604020979016,-39.431285661453934,26.96639410549016,31.01587444214814,33.31617096474676,1577399873.0,-27.714517627212743,-51.1022455226765,22.944338
86823,1577399873.63,-0.5364763573623281,-1.595355837938262,9.172653721358136,-0.2210256898461317,-1.646889568794064,9.913571542432832,-0.0519716945741232,-0.0326136982243238,11.553220111083984,-4.804099478372714,3.787529177782013,-0.9073397008384144,-4.479198921017531,7.121388505144816,-1.1812535727896345,-5.749400069073932,1.1384545302972562,-4.506925257240853,-29.88207131410256,-14.41743830128205,-1.4277922309172344,-16.421085825232456,-37.759217345154845,-3.4425586432797965,26.84658699493815,30.752298798933715,33.17240243208434,1577399873.0,-27.714517627212743,-51.1022455226765,22.944338
86824,1577399873.64,-0.0624244286513906,-1.020747439500762,7.863025413252667,0.4158319517554303,-1.3895128903272669,10.018916415479708,0.4340512424375949,1.6062173381526286,9.504980590820312,-1.3556131502477131,2.4447557402820124,-0.4495760289634145,-5.501537788205031,5.641285966082317,-1.2422887290396345,-8.526499678448932,-0.5247534775152439,-2.080777796303354,-29.00059428418804,-16.25796233974359,-0.6763226356976347,-16.421085825232456,-46.557481580919074,6.587086591293322,27.038278371821367,30.872105909485725,33.36409380896756,1577399873.0,-27.714517627212743,-51.1022455226765,22.944338
86825,1577399873.65,0.7216766150497802,-0.8579417266101369,9.48868834049876,-0.0223069520531624,0.4659933962938257,9.350934152296112,1.2480798068907195,0.612623649187785,7.266402038574219,0.3228536466272867,-1.156318478467988,-1.4719148961509143,-4.372387397580031,6.831471512957317,-1.8526402915396345,1.1170550090510671,10.705715272484756,2.954622594321646,-29.353185096153844,-15.235448985042732,-0.8266165547415553,-16.421085825232456,-48.02385895354645,5.407128328402368,26.94243268337976,31.20756581903136,33.31617096474676,1577399873.0,-27.714517627212743,-51.1022455226765,22.944338
86826,1577399873.66,0.5265491797470458,-1.3343878569812306,9.141529099776106,0.988046148532774,-1.7055475094678918,7.974268197706269,0.55854972876572,-0.5030743244450264,7.043741284179687,-0.2874979158727134,3.848564334032013,-0.9073397008384144,-2.5108151319550305,3.260914872332317,-0.5709020102896342,0.9034319621760672,0.146633241234756,1.4897788443216462,-29.17688969017094,-15.644454326923077,-2.329555745180745,-9.8468395586785,-39.22559471778221,5.407128328402368,26.990355527600563,30.92002875370653,33.17240243208434,1577399873.0,-27.714517627212743,-51.1022455226765,22.944338
86827,1577399873.67,0.1003812842392333,-1.5881732329577931,7.262080796553448,1.5889907652319926,-1.5283765866163297,8.857728610303925,0.0078833469297825,-1.8342504474919008,10.16338604736328,-2.0269998689977133,4.580986209032012,-0.8157869664634145,-5.074291694455031,6.831471512957317,-1.5779820884146345,0.7508440715510671,-3.729099180640244,-1.0736977181783538,-28.64800347222222,-14.62194097222222,-0.9769104737854758,-3.888928879613976,-38.67570320304695,3.489696151204564,26.84658699493815,31.111720130589752,33.31617096474676,1577399873.0,-27.714517627212743,-51.1022455226765,22.944338
86828,1577399873.68,0.6893548926376708,-0.7861156768054495,8.602833726240949,1.2466199278296488,0.3079760867235137,10.01053670966916,-0.0184528713319357,-1.4236448627751044,10.667365496826172,-0.8368143221227134,-0.5764844940929879,-1.2125154820884143,-2.922802436642531,-2.232249190167683,-1.4406529868521345,-3.521616865948933,2.572780702172256,-1.1957680306783538,-27.9428218482906,-14.21293563034188,-2.479849664224669,-5.018877456677936,-21.35412048888611,-18.41327910370879,27.038278371821367,31.15964297481056,33.12447958786354,1577399873.0,-27.714517627212743,-51.1022455226765,22.944338
86829,1577399873.69,-0.1617837975478755,-0.8531533232898244,9.91605333683665,0.4301971617163678,-1.2889564206007045,10.93110724799924,-1.1102088283631852,-1.1734507892887764,11.449072338867186,-1.3708719393102131,-0.6222608612804881,-1.1667391149009143,-1.2290768507050305,1.3688250285823171,-1.5169469321646345,-5.322153975323933,-8.611911680640244,-0.8905922494283537,-28.55985576923077,-14.724192307692308,-2.1041148666148723,-6.148826033741899,-4.032537774725275,-38.25132739856297,26.89450983915896,31.111720130589752,32.64525114565549,1577399873.0,-27.714517627212743,-51.1022455226765,22.944338
86830,1577399873.7,-0.4646503075576407,-1.2170719756335744,9.696983884932354,1.5027995054663676,-2.043129943549923,9.990185995557834,-0.2698440456483414,0.6676902873713787,10.409988818359375,0.8111348966272866,0.7357713652820121,-1.0904451695884143,-4.067211616330031,1.4603777629573171,-1.9747106040396345,-5.291636397198933,-7.391208555640244,-0.7380043588033537,-30.058366720085463,-16.66696768162393,-0.6763226356976347,-11.901291516976611,-3.299349088411588,-37.95633783284024,26.990355527600563,30.92002875370653,33.22032527630515,1577399873.0,-27.714517627212743,-51.1022455226765,22.944338
86831,1577399873.71,-0.0743954369521719,-1.4588863433093555,9.960346067549542,0.547513043064024,0.5090890261766383,10.44029590766721,1.89930265845322,0.6389598674495037,10.90319436035156,-3.644431509622713,-2.529609494092988,-1.1514803258384143,-1.1680416944550305,-5.650217940167683,-1.7610875571646345,-5.627329756573933,-2.355808165015244,0.6658042349466463,-29.17688969017094,-15.235448985042735,-0.5260287166537173,-15.18841465025359,-36.292839972527474,-4.032537774725275,26.65489561805493,31.01587444214814,33.22032527630515,1577399873.0,-27.714517627212743,-51.1022455226765,22.944338
86832,1577399873.72,0.3098739295029052,-0.3360057646960745,9.36778115666087,0.2470407347144152,-1.1740347409132044,9.157003817823457,-0.0603514003846701,-1.6355317096989326,9.269151727294922,-0.6231912752477136,-3.674018673780488,-0.8463045445884144,-3.151684272580031,2.665822098894817,-0.8913365806021344,-7.031138350323933,7.776027772484756,-0.5854164681783538,-29.52948050213675,-14.41743830128205,-1.4277922309172344,-6.55971642540152,-38.3091088598901,-0.492662986052409,26.96639410549016,31.01587444214814,33.07655674364274,1577399873.0,-27.714517627212743,-51.1022455226765,22.944338
86833,1577399873.73,0.6558360693954833,0.0015766693859557,9.218143552901106,0.3104870787085553,0.104468945610232,7.457120639112518,0.4555990573790012,-1.0465581013004952,6.5505357421875,1.5740743497522869,1.651298709032012,-0.5411287633384145,-0.1304440382050304,-3.575022627667683,-1.6695348227896345,3.344838212176067,6.219631288109756,-1.6535317025533538,-28.824298878205127,-15.644454326923077,-1.7283800690050757,-6.148826033741899,-45.09110420829171,3.637190934065935,26.89450983915896,31.063797286368946,33.17240243208434,1577399873.0,-27.714517627212743,-51.1022455226765,22.944338
86834,1577399873.74,0.5217607764267334,-1.0351126494616991,8.219761460615947,0.2697856504858991,0.2936108767625758,10.282278598096896,0.7524800632383762,0.2918006267268475,8.097190014648437,-2.5457986971227133,0.0338670684070121,-0.9683748570884144,1.2733645555449695,-6.687815596417683,-0.2962438071646341,2.856556962176067,-2.996677305640244,-0.4023109994283537,-28.29541266025641,-15.030946314102565,-1.578086149961158,-11.901291516976611,-50.22342501248751,3.637190934065935,26.702818462275737,30.872105909485725,33.02863389942193,1577399873.0,-27.714517627212743,-51.1022455226765,22.944338
86835,1577399873.75,0.0381320410751708,-1.4995877715320118,7.989918101240948,1.0335359800757429,-1.516405578315548,10.435507504346896,0.0054891452696262,-1.666656331280964,11.992556115722657,2.2454610685022867,2.0480272246570124,-0.8157869664634145,-6.539135444455031,7.594410966082317,-1.5169469321646345,-6.359751631573933,2.557521913109756,-1.7756020150533538,-30.23466212606837,-15.235448985042735,-2.0289679070929103,-4.916154858763031,-39.958783404095904,1.867253539729502,26.89450983915896,30.872105909485725,33.17240243208434,1577399873.0,-27.714517627212743,-51.1022455226765,22.944338
86836,1577399873.76,0.212908762266577,-0.3838897978992,8.863801707197979,0.8779128721655864,-0.4689423519971893,9.311429824903534,0.1826600681211887,-0.4515989887516671,8.98304462890625,0.3533712247522865,-4.330146603467988,-1.2430330602134143,0.1289553758574695,-4.429514815167683,-1.4864293540396345,2.078358719988567,2.343898866234756,-0.2802406869283536,-28.64800347222222,-14.62194097222222,-1.277498311873317,-4.813432260848126,-37.48427158778721,-1.0088947260672017,26.94243268337976,31.039835864258546,33.12447958786354,1577399873.0,-27.714517627212743,-51.1022455226765,22.944338
86837,1577399873.77,0.3996564917587645,-1.2146777739734185,10.441580601240949,-0.3551009828148811,-1.3823302853467982,9.731612216260956,-1.0671131984803728,-1.2620362507145575,9.18655177001953,-0.5621561189977134,-2.315986447217988,-0.7547518102134145,2.036304008669969,-1.9575909870426829,-1.2728063071646345,-9.594614912823932,-1.1961401962652438,-1.7756020150533538,-28.824298878205127,-14.826443643162394,-1.1272043928293995,-4.916154858763031,-34.826462599900104,-2.852579511834319,26.990355527600563,31.01587444214814,33.17240243208434,1577399873.0,-27.714517627212743,-51.1022455226765,22.944338
86838,1577399873.78,0.0908044775986083,-1.7150659209460744,9.998653294112042,1.064660601657774,-2.8906773312452363,9.7675252411633,-1.864382351312404,-2.5357515339176824,11.10191309814453,1.6961446622522869,0.4611131621570121,-1.3040682164634143,1.3954348680449695,-2.140696455792683,-1.3948766196646345,-2.331431319073933,3.259426209984756,-4.339078577553353,-29.353185096153844,-15.848956997863246,-1.277498311873317,-11.490401125316987,-4.032537774725275,-38.25132739856297,26.89450983915896,30.92002875370653,33.22032527630515,1577399873.0,-27.714517627212743,-51.1022455226765,22.944338
86839,1577399873.79,0.3924738867782958,-0.8627301299304494,9.436015903975324,-0.8770369447289437,0.4659933962938257,10.052435238721896,2.023801144781345,0.8688032268245037,11.298237634277344,-1.7218240877477131,-0.4238966034679878,-1.1819979039634143,-0.0388913038300304,-4.002268721417683,-1.7916051352896345,8.532826493426068,-5.834812071265244,-0.9821449838033536,-27.76652644230769,-15.235448985042735,-1.4277922309172344,-14.777524258593967,-39.22559471778221,-1.6726212489433638,26.84658699493815,31.063797286368946,33.17240243208434,1577399873.0,-27.714517627212743,-51.1022455226765,22.944338
86840,1577399873.8,0.4056419959091552,-1.135669119188262,8.357428056074932,0.9844548460425396,-1.7294895260694545,8.602746133497284,-0.2411136257264665,-2.316682082013385,11.111489904785156,0.3686300138147867,-4.650581173780488,-1.0751863805259143,-1.2901120069550305,3.4287615520198167,-0.7997838462271343,2.856556962176067,-10.763400938452744,-1.5162026009908538,-30.23466212606837,-15.235448985042735,-0.2254408785658824,-6.456993827486614,-39.867134818306695,0.0235687539623843,26.94243268337976,31.039835864258546,33.26824812052595,1577399873.0,-27.714517627212743,-51.1022455226765,22.944338
86841,1577399873.81,0.4235985083603271,0.0183360810070494,10.24286186344798,1.332811187595274,0.2624862551805446,11.424312789991427,1.2025899753477511,-1.139931966046589,9.323021264648435,2.3980489591272867,-3.078925900342988,-1.0294100133384143,0.8156008836699695,-9.983714033917684,-1.7305699790396345,-2.819712569073933,-3.240817930640244,-0.4633461556783537,-30.23466212606837,-15.235448985042735,-0.2254408785658824,-3.2725932921245406,-40.69197209040959,3.637190934065935,27.18204690448378,31.01587444214814,32.98071105520113,1577399873.0,-27.714517627212743,-51.1022455226765,22.944338
86842,1577399873.82,0.3158594336532958,-0.8220287017077932,10.096815562178447,0.5786376646460554,0.7341439822313257,11.189681027296116,-0.6170032863709977,1.5008724651057537,10.211270080566406,-2.5457986971227133,-1.369941525342988,-0.8768221227134145,-2.1446041944550305,1.8571062785823167,-1.7305699790396345,-3.582652022198933,-0.4637183212652439,0.5742515005716463,-28.64800347222222,-15.848956997863246,-1.578086149961158,-9.435949167018876,-50.9566136988012,3.3422013683431966,27.08620121604217,30.872105909485725,32.83694252253871,1577399873.0,-27.714517627212743,-51.1022455226765,22.944338
86843,1577399873.83,0.5409143897079833,-1.4397327300281058,8.80634086735423,2.338375884860899,-2.289732714546017,9.39642398383908,0.4508106540586887,0.5767106242854412,11.295843432617186,1.5740743497522869,1.925956912157012,-0.6326814977134145,-3.731518256955032,6.709401200457317,-0.9981481040396342,-1.7210797565739329,-6.841892149390244,1.2761557974466462,-29.00059428418804,-15.439951655982904,-1.578086149961158,9.875899240983376,-40.69197209040959,4.522159631234151,26.702818462275737,31.20756581903136,33.12447958786354,1577399873.0,-27.714517627212743,-51.1022455226765,22.944338
86844,1577399873.84,0.4499347266220458,-0.752596853563262,9.117587083174543,0.7929187132300397,-0.4868988644483607,10.93110724799924,0.912891574468845,-0.8286857502262769,6.461950280761719,0.5822530606897868,-1.690376095655488,-0.9683748570884144,-1.9157223585175305,-0.4469708698551837,-1.1507359946646345,0.5372210246760671,-11.694187071265244,1.9475425161966464,-30.058366720085463,-15.848956997863246,-1.8786739880489929,9.875899240983376,-22.362254932567435,-18.044542146555365,26.918471261269357,31.11172013058975,33.10051816575314,1577399873.0,-27.714517627212743,-51.1022455226765,22.944338
86845,1577399873.85,0.4020506934189208,-1.097361892625762,9.48868834049876,0.6600405210913678,-0.0750961789014857,9.983003390577364,1.0349958591368138,-2.16704447825362,10.491391674804689,0.3838888028772865,-2.468574337842988,-0.4495760289634145,2.494067680544969,3.352467606707317,-2.4935094321646343,-2.484019209698933,7.898098084984756,-3.637174280678354,-30.058366720085463,-15.848956997863246,-1.8786739880489929,-10.668620341997745,-2.1995660589410586,-39.431285661453934,26.84658699493815,31.20756581903136,33.17240243208434,1577399873.0,-27.714517627212743,-51.1022455226765,22.944338
86846,1577399873.86,0.2248797705673583,-0.8818837432116995,10.154276402022198,0.2051422056616803,-0.805327685249142,10.322980026319552,-0.8660002590272478,-0.8478393635075265,10.488997473144533,0.8721700528772866,-4.696357540967988,-1.1209627477134143,-1.3816647413300305,3.657643387957317,0.1920374428353658,2.703969071551067,1.5504418349847562,-2.996305140053354,-28.64800347222222,-16.66696768162393,-1.578086149961158,-10.668620341997745,-2.1995660589410586,-39.431285661453934,26.84658699493815,31.063797286368946,33.12447958786354,1577399873.0,-27.714517627212743,-51.1022455226765,22.944338
86847,1577399873.87,0.5014100623154052,-1.1775676482409962,10.041748923994854,1.9457268125952736,-2.2370602780225792,11.52486925971799,1.863389633550876,0.0811108806330975,10.89840595703125,0.8263936856897868,-2.392280392530488,-0.5411287633384145,0.8156008836699695,-1.0725812214176829,-1.0897008384146345,8.227650712176068,-12.792819883765244,-0.9211098275533536,-29.52948050213675,-14.826443643162392,-2.179261826136831,-15.393859846083402,-39.04229754620379,-3.8850429918639056,26.94243268337976,30.92002875370653,33.17240243208434,1577399873.0,-27.714517627212743,-51.1022455226765,22.944338
86848,1577399873.88,0.6797780859970458,-0.7238664336413869,10.343418333174542,0.4792782957495713,-0.4533800412061737,10.321782925489474,0.5022859897520482,1.1573045268733324,8.82263311767578,2.6421895841272867,-2.254951290967988,-1.1514803258384143,4.248828422732469,-10.624583174542684,-1.1049596274771345,3.314320634051067,0.6501732802972562,-1.3788734994283538,-29.52948050213675,-14.008432959401707,-2.930731421356421,-15.188414650253591,-41.97505229145854,-0.9351473346365176,26.84658699493815,31.039835864258546,33.29220954263636,1577399873.0,-27.714517627212743,-51.1022455226765,22.944338
86849,1577399873.89,0.6294998511337645,-0.9297677764148244,10.183006821944073,0.1117683409155866,-1.7869503659132044,8.960679281690643,-0.2219600124452165,-0.689822053937214,8.652644799804687,3.1609884122522867,1.101982302782012,-0.2359529820884145,-1.4426998975800305,5.153004716082317,-0.8455602134146342,-0.9886578815739328,0.6349144912347561,0.3606284536966463,-29.52948050213675,-14.008432959401707,-2.930731421356421,-15.18841465025359,-45.09110420829171,2.0147483225908704,26.89450983915896,30.92002875370653,33.22032527630515,1577399873.0,-27.714517627212743,-51.1022455226765,22.944338
86850,1577399873.9,0.9455344702743896,-1.059054666063262,8.981117588545636,1.4429444639624611,-0.7071654171827357,8.412407101514862,0.78839308814072,-1.8007316242497138,8.176198669433592,1.3604513028772869,-1.492011837842988,-0.7547518102134145,0.2052493211699695,0.4532976848323171,-1.3338414634146345,1.1170550090510671,10.034328553734756,0.2385581411966463,-30.058366720085463,-13.803930288461538,-0.6763226356976347,-15.18841465025359,-45.09110420829171,0.6872952768385466,26.990355527600563,30.872105909485725,33.31617096474676,1577399873.0,-27.714517627212743,-51.1022455226765,22.944338
86851,1577399873.91,0.9060301428818114,-0.8447736174792776,8.874575614668682,0.3272464903296491,0.0541907107469508,9.022928524854706,-0.3680063137147477,-2.846997749737995,10.144232434082031,1.4825216153772869,-2.560127072217988,-0.6479402867759145,3.318042289919969,-4.368479658917683,-1.5779820884146345,0.0489397746760671,9.240871522484756,-1.8366371713033536,-29.353185096153844,-15.848956997863247,-1.5780861499611518,-4.505264467103409,-42.15834946303696,3.0472118026204567,26.89450983915896,30.77626022104412,33.31617096474676,1577399873.0,-27.714517627212743,-51.1022455226765,22.944338
86852,1577399873.92,1.026937326719702,0.0518549042492369,10.582838499190167,1.152048962253477,-0.2091714718702361,9.81900057685666,1.070908884039158,-0.4085033588688551,8.84777223510742,0.6280294278772866,-2.132880978467988,-0.9683748570884144,2.433032524294969,-3.620798994855183,-0.2657262290396345,0.0184221965510671,-1.4707983993902438,-0.5548988900533537,-29.17688969017094,-14.826443643162394,-2.329555745180745,1.760814005705833,-21.904012003621386,-17.97079475512468,26.990355527600563,31.063797286368946,33.19636385419474,1577399873.0,-27.714517627212743,-51.1022455226765,22.944338
86853,1577399873.93,0.5816158179306395,-0.9991996245593556,10.309899509932354,0.4517449766577741,-0.719136425483517,10.370864059522678,1.085274094000095,-3.10557152903487,10.1131078125,-0.7147440096227134,-2.834785275342988,-0.3885408727134145,3.043384086794969,-0.4011945026676829,-1.4253941977896345,-5.200083662823933,-0.7688941025152439,-4.278043421303353,-29.17688969017094,-14.826443643162394,-2.329555745180745,9.875899240983376,-37.02602865884116,-40.61124392434488,26.89450983915896,31.01587444214814,33.17240243208434,1577399873.0,-27.714517627212743,-51.1022455226765,22.944338
86854,1577399873.94,0.720479514219702,-0.7789330718249807,9.48868834049876,1.0502953916968365,-0.2426902951124232,10.239182968214084,-0.5834844631288102,0.7083917155940349,11.537657800292967,3.4966817716272867,1.132499880907012,-0.7242342320884145,-2.4802975538300305,2.162282059832317,-0.1131383384146341,3.527943680926067,0.5433617568597561,-2.630094202553354,-28.47170806623932,-14.826443643162394,-2.329555745180745,-13.955743475274724,-38.492406031468526,-3.4425586432797965,26.89450983915896,30.728337376823312,33.17240243208434,1577399873.0,-27.714517627212743,-51.1022455226765,22.944338
86855,1577399873.95,0.1386885108017333,-0.8567446257800588,10.094421360518291,0.5020232115210553,-1.0531275570753138,10.907165231397675,0.2508948154356424,-1.9515663288395573,10.694898815917968,0.4296651700647867,0.5984422637195124,0.0997403772865854,1.0444827196074693,-0.5537823932926829,-0.4183141196646341,2.002064774676067,-1.2113989853277438,-0.3870522103658537,-29.17688969017094,-14.826443643162394,-2.0289679070929103,-11.901291516976611,-38.125811688311686,-3.737548209002536,26.75074130649654,31.08775870847935,33.12447958786354,1577399873.0,-27.714517627212743,-51.1022455226765,22.944338
86856,1577399873.96,0.3757144751572021,-0.0391247588366995,10.305111106612042,1.170005474704649,-0.2690265133741419,9.5376818817883,2.086050387945407,1.3165189372737225,9.861716638183593,2.1233907560022867,-7.381904415967988,-1.0294100133384143,-0.1914791944550304,5.427662919207317,-1.7000524009146345,-6.268198897198933,-0.3111304306402439,1.6423667349466462,-29.17688969017094,-14.41743830128205,-1.7283800690050757,-6.55971642540152,-4.032537774725275,3.0472118026204567,26.84658699493815,30.92002875370653,33.12447958786354,1577399873.0,-27.714517627212743,-51.1022455226765,22.944338
86857,1577399873.97,0.7755461524032958,-0.9106141631335744,10.884507908369851,0.3966783384741804,-1.9186314572217984,8.955890878370331,-0.6074264797303727,-1.2859782673161202,8.367734802246094,-2.6373514314977133,-3.292548947217988,-0.1138826695884145,5.759448539919969,-13.859446455792684,1.0770472084603655,1.6968889934260671,-0.2806128525152439,0.9404624380716464,-29.17688969017094,-14.41743830128205,-1.7283800690050757,-6.55971642540152,-45.09110420829171,1.867253539729502,26.798664150717343,30.92002875370653,33.22032527630515,1577399873.0,-27.714517627212743,-51.1022455226765,22.944338
86858,1577399873.98,1.1729836279892332,-0.8675185332507619,9.218143552901106,1.6847588316382427,-0.929826171577267,10.093136666944552,-0.5954554714295914,-1.9611431354801825,8.619125976562499,1.3604513028772869,0.0949022246570121,-0.2969881383384145,0.6935305711699695,-3.422434737042683,-0.0215856040396341,4.596058915301067,-5.529636290015244,0.6963218130716463,-28.824298878205127,-14.826443643162394,-2.0289679070929103,-5.532490446252464,-41.24186360514485,4.669654414095521,26.798664150717343,31.063797286368946,33.02863389942193,1577399873.0,-27.714517627212743,-51.1022455226765,22.944338
86859,1577399873.99,0.6857635901474364,-0.7693562651843557,8.78120174992259,0.6660260252417589,-0.5766814267042201,7.0955961884289245,0.5477758212950173,-1.427236165265339,9.441534246826173,1.0094991544397869,-0.072944455030488,-0.0986238805259145,-2.3429684522675305,-2.430613447980183,-0.9523717368521344,3.634755204363567,-4.583591368140244,-0.3260170541158537,-28.383560363247863,-13.701678952991452,-2.404702704702707,10.492234828472808,-41.24186360514485,5.259633545540999,26.75074130649654,31.01587444214814,33.148441009973936,1577399873.0,-27.714517627212743,-51.1022455226765,22.944338
86860,1577399874.0,0.3014942236923583,0.2218432221203307,9.203778342940168,0.1333161558569928,0.9999003665086696,10.320585824659396,1.3294826633360324,-2.6722210285465886,9.227253198242186,-0.2874979158727134,-3.994453244092988,-0.4495760289634145,-3.0906491163300305,-8.610423018292684,-0.2046910727896341,0.3846331340510671,2.008205506859756,-1.2262856088033538,-29.353185096153844,-14.21293563034188,-2.179261826136828,9.875899240983376,-36.292839972527474,-1.0826421174978862,26.89450983915896,30.92002875370653,33.12447958786354,1577399874.0,-27.714680107523144,-51.1021013246673,22.97123
86861,1577399874.01,0.1027754858993895,-0.5155708892077933,9.256450779463606,1.7517964781226176,-0.508446679389767,10.605495822217993,0.17547746314072,-3.0983889240544014,4.604049792480469,-0.8368143221227134,-0.8816602753429879,0.0997403772865854,-2.9075436475800305,7.594410966082317,-1.0286656821646345,3.283803055926067,7.074123475609756,-1.8061195931783536,-29.353185096153844,-14.21293563034188,-2.179261826136828,9.875899240983376,-36.292839972527474,-1.0826421174978862,26.798664150717343,30.872105909485725,33.17240243208434,1577399874.0,-27.714680107523144,-51.1021013246673,22.97123
86862,1577399874.02,0.356560861875952,-0.8567446257800588,10.16624741032298,0.537936236423399,-0.3983134030225794,8.726047518995331,-0.1405571559999039,-0.5198337360661202,7.977479931640625,-1.5997537752477131,-2.727973751905488,-0.3732820836509145,-0.1304440382050304,1.0331316692073171,-1.5169469321646345,-0.8360699909489329,3.228908631859756,-2.172330530678354,-29.26503739316239,-15.337700320512818,-1.502939190439193,-13.5448530836151,-35.559651286213786,-1.6726212489433638,26.894509839158957,31.063797286368946,33.22032527630515,1577399874.0,-27.714680107523144,-51.1021013246673,22.97123
86863,1577399874.03,0.9000446387314208,-0.7166838286609182,8.471152634932354,0.9653012327612897,-0.926234869087033,8.740412728956269,0.3849701084043923,-1.1770420917790112,10.184933862304687,0.2007833341272865,-1.400459103467988,0.1302579554115854,-0.8323483350800305,1.3383074504573171,-0.3115025962271343,0.6135149699885671,7.119899842797256,-1.4704262338033538,-29.17688969017094,-15.235448985042735,-0.5260287166537173,-11.593123723231894,-37.11767724463037,-2.7788321204036346,26.990355527600563,30.943990175816936,33.17240243208434,1577399874.0,-27.714680107523144,-51.1021013246673,22.97123
86864,1577399874.04,0.8042765723251708,-0.0127885405749808,9.4264390973347,0.4086493467749616,0.4085325564500757,9.099542977979706,2.1339344211485325,2.523196573992473,7.223306408691406,0.8721700528772866,-3.719795040967988,-0.7547518102134145,-0.4966549757050305,3.596608231707317,-1.0591832602896345,3.497426102801067,-7.940524961890244,-0.5243813119283537,-29.00059428418804,-13.394924946581195,-2.179261826136828,-4.916154858763031,-42.15834946303696,5.407128328402368,26.990355527600563,31.01587444214814,33.31617096474676,1577399874.0,-27.714680107523144,-51.1021013246673,22.97123
86865,1577399874.05,1.371702365782202,-0.388678201219512,10.532560264326886,1.170005474704649,-1.1069970944288294,8.587183822706269,-1.0455653835389664,0.4402411296565349,10.98220301513672,-1.7828592439977131,-4.086005978467988,-0.3885408727134145,-4.463940131955031,2.620045731707317,0.1310022865853658,-4.864390303448933,-7.696384336890244,0.1164878286966463,-29.00059428418804,-13.394924946581195,-2.179261826136828,-8.203277992040011,-43.99132117882117,1.2772744082840235,26.84658699493815,30.77626022104412,33.12447958786354,1577399874.0,-27.714680107523144,-51.1021013246673,22.97123
86866,1577399874.06,0.6630186743759521,-0.8028750884265432,8.838662589766338,0.7151071592749616,-1.0208058346632043,8.218476767042207,0.644740988531345,-1.34343910715987,8.839392529296875,-1.0656961580602131,2.7957078887195124,-0.1901766149009144,2.341479789919969,-11.784251143292684,-0.8760777915396342,1.0865374309260671,0.7875023818597561,-0.9516274056783536,-28.64800347222222,-13.394924946581195,-2.179261826136828,9.875899240983376,-41.42516077672328,3.0472118026204567,26.990355527600563,31.063797286368946,33.22032527630515,1577399874.0,-27.714680107523144,-51.1021013246673,22.97123
86867,1577399874.07,0.6654128760361083,-0.5155708892077933,7.558961802412823,0.3475972044409772,-0.6592813839796107,8.770340249708221,2.034575052252048,-0.4300511738102613,8.400056524658202,-1.7523416658727131,0.8578416777820121,-0.4495760289634145,-0.6950192335175305,-3.681834151105183,-0.7082311118521342,-3.063853194073933,-2.554172422827744,-0.4786049447408537,-27.9428218482906,-15.439951655982904,-1.578086149961158,11.10857041596224,-37.392623001998,-3.885042991863905,26.990355527600563,30.99191302003773,33.45993949740917,1577399874.0,-27.714680107523144,-51.1021013246673,22.97123
86868,1577399874.08,0.6941432959579833,-0.7885098784656057,8.049773142744854,0.9138258970679304,-0.7239248288038295,7.890471139600799,-1.5675013454530289,-2.351398006085651,6.998251452636718,-4.804099478372714,-3.658759884717988,-0.5411287633384145,-2.1446041944550305,2.375905106707317,-1.0897008384146345,5.450551102801067,-7.818454649390244,0.7878745474466463,-28.29541266025641,-15.030946314102565,-0.6763226356976347,11.519460807621863,-1.099783029470529,-3.4425586432797965,26.89450983915896,31.111720130589752,33.17240243208434,1577399874.0,-27.714680107523144,-51.1021013246673,22.97123
86869,1577399874.09,0.835401193907202,-1.0470836577624807,9.498265147139389,1.4932226988257429,-2.5195760739210176,9.20488785102658,-1.088661013421779,-3.005015059308308,9.686939916992188,1.9097677091272869,-2.163398556592988,-0.7852693883384145,0.3273196336699695,-14.103587080792684,-0.0215856040396341,-10.235484053448932,-2.599948790015244,-1.9892250619283536,-29.52948050213675,-15.235448985042735,-1.4277922309172344,10.081344436813186,-36.10954280094905,-40.758738707206255,26.84658699493815,31.063797286368946,33.12447958786354,1577399874.0,-27.714680107523144,-51.1021013246673,22.97123
86870,1577399874.1,0.241639182188452,-1.0518720610827932,12.437147684981182,0.1895798948706647,-0.4054960080030487,11.2507331696301,-0.6265800930116232,0.3229252483088792,9.830592016601562,-4.697287954935214,-2.499091915967988,-0.9836336461509144,-0.0846676710175304,1.5824480754573171,-1.1202184165396345,-2.621348311261433,-6.185764219702744,0.0401938833841463,-29.265037393162395,-14.928694978632478,-1.2023513523513552,-8.819613579529443,-3.849240603146853,-3.8850429918639056,26.91847126126936,31.063797286368946,33.24428669841555,1577399874.0,-27.714680107523144,-51.1021013246673,22.97123
86871,1577399874.11,1.1442532080673582,-1.126092312547637,10.087238755537824,2.704688738864805,-2.4214138058546104,10.967020272901584,0.6591061984922825,-1.053740706280964,11.743559143066406,-2.7899393221227133,-2.682197384717988,-0.9073397008384144,-1.2901120069550305,-4.704173018292683,-0.8455602134146342,-13.287241865948932,-11.358493711890244,-0.8295570931783537,-28.824298878205127,-16.053459668803416,-2.630143583268586,-8.614168383699631,-4.032537774725275,-3.737548209002536,26.89450983915896,30.92002875370653,33.17240243208434,1577399874.0,-27.714680107523144,-51.1021013246673,22.97123
86872,1577399874.12,0.4858477515243896,-0.3527651763171683,11.69853647282298,0.8946722837866803,1.0741206179735132,12.46339631049924,0.568126535406345,1.1154059978205977,11.049240661621091,0.5059591153772866,1.620781130907012,-0.8768221227134145,-2.9685788038300305,-10.868723799542684,-1.0286656821646345,-3.582652022198933,-14.837497618140244,1.1540854849466462,-27.76652644230769,-14.008432959401707,-2.329555745180745,-8.614168383699631,-4.032537774725275,-3.737548209002536,26.798664150717343,31.063797286368946,33.31617096474676,1577399874.0,-27.714680107523144,-51.1021013246673,22.97123
86873,1577399874.13,0.8761026221298582,-1.0566604644031057,10.297928501631572,1.4213966490210552,-0.2929685299757044,11.216017245557834,1.317511655035251,1.3356725505549725,8.046911779785155,-2.4847635408727133,0.979911990282012,0.0081876429115854,-4.311352241330031,6.251637528582317,-0.4793492759146341,-0.9581403034489328,-8.093112852515244,2.740999547446646,-29.00059428418804,-13.803930288461538,-1.277498311873317,-9.230503971189066,-3.1160519168331664,-3.8850429918639056,27.18204690448378,30.77626022104412,33.31617096474676,1577399874.0,-27.714680107523144,-51.1021013246673,22.97123
86874,1577399874.14,0.8473722022079833,-0.8136489958972464,9.057732041670636,1.6703936216773052,-1.4601418393018764,8.393253488233611,-0.4541975734803732,-2.9667078327458074,11.54244620361328,1.4214864591272869,-0.3018262909679878,-0.4343172399009145,-2.8312497022675305,8.921925614519816,-0.8150426352896342,2.063099930926067,-16.683811094702744,0.0859702505716463,-28.912446581196583,-14.724192307692308,-0.6011756761756822,-6.456993827486615,-40.60032350462038,4.300917456942097,26.822625572827747,31.01587444214814,33.17240243208434,1577399874.0,-27.714680107523144,-51.1021013246673,22.97123
86875,1577399874.15,0.6630186743759521,-1.6097210478991997,8.945204563643292,0.1596523741187115,-0.8675769284132044,9.350934152296112,1.3390594699766574,5.563832682390911,9.622296472167967,-0.4095682283727134,-1.339423947217988,-0.9988924352134144,-3.2127194288300305,6.068532059832317,-0.3572789634146341,-3.826792647198933,-21.459812071265244,3.351351109946646,-28.29541266025641,-14.21293563034188,-0.6763226356976347,-7.381497208720765,-36.292839972527474,-1.3776316832206257,26.798664150717343,31.063797286368946,33.17240243208434,1577399874.0,-27.714680107523144,-51.1021013246673,22.97123
86876,1577399874.16,0.3182536353134521,-0.9106141631335744,9.29236380436595,0.7294723692358991,-1.035171044624142,10.82815657661252,0.0844978000547825,-3.134301948956745,10.6877162109375,-4.132712759622714,-1.583564572217988,-0.9378572789634144,0.5409426805449695,1.5214129192073171,-0.4183141196646341,0.9034319621760672,-26.373142149390244,3.748079625571646,-30.587252938034187,-15.235448985042735,-0.5260287166537173,0.0145298411524369,-4.032537774725275,-4.032537774725275,26.84658699493815,31.01587444214814,33.12447958786354,1577399874.0,-27.714680107523144,-51.1021013246673,22.97123
86877,1577399874.17,0.2739609046005619,-0.7968895842761525,12.08759424259837,1.4884342955054302,-1.2291013790967982,10.38762347114377,0.13717023657822,-3.632295894269245,6.675034228515624,1.7571798185022869,0.8731004668445121,-0.8157869664634144,-0.7407956007050305,6.434742997332317,-1.0897008384146345,-0.7445172565739329,-14.288181211890244,-2.416471155678354,-29.00059428418804,-14.62194097222222,-0.3757347976097998,-8.203277992040011,-4.032537774725275,-41.79120218723584,26.822625572827747,30.872105909485725,33.17240243208434,1577399874.0,-27.714680107523144,-51.1021013246673,22.97123
86878,1577399874.18,0.7875171607040771,-1.7485847441882618,11.188571519209695,0.3248522886694933,-0.6078060482862514,12.081521145704318,0.2628658237364231,0.4294672221858324,12.527660186767577,0.9026876310022866,2.1700975371570124,-0.2359529820884145,1.4869876024199693,-4.337962080792684,0.2988489662728658,0.4456682903010671,5.090480897484756,-1.7450844369283538,-30.058366720085463,-14.62194097222222,-0.9769104737854758,-9.230503971189066,-0.5498915147352641,-39.28379087859256,26.798664150717343,31.063797286368946,33.10051816575314,1577399874.0,-27.714680107523144,-51.1021013246673,22.97123
86879,1577399874.19,0.3805028784775146,-1.001593826219512,10.94436294987376,1.6823646299780863,-1.3895128903272669,9.925542550733615,0.3789846042540012,-0.2301353351872139,8.95670841064453,2.4896016935022867,0.5526658965320121,-0.2969881383384145,-3.792553413205032,13.148610184832316,-0.3572789634146341,-1.7210797565739329,-2.508396055640244,-2.508023890053354,-29.00059428418804,-15.439951655982904,-1.277498311873317,-12.928517496125668,-37.20932583041958,-1.525126466081995,26.990355527600563,31.063797286368946,33.17240243208434,1577399874.0,-27.714680107523144,-51.1021013246673,22.97123
86880,1577399874.2,0.7779403540634521,-0.771750466844512,11.054496226240948,1.2011300962866802,-0.8915189450147669,9.298261715772677,-0.6098206813905289,-0.2756251667301827,8.085219006347655,0.8416524747522866,0.5526658965320121,-0.6021639195884145,1.0902590867949695,6.221119950457317,-1.2117711509146345,9.784047196551068,-7.391208555640244,1.1540854849466462,-28.824298878205127,-14.41743830128205,-1.7283800690050757,-7.792387600380388,-3.299349088411588,-4.032537774725275,26.798664150717343,30.872105909485725,33.22032527630515,1577399874.0,-27.714680107523144,-51.1021013246673,22.97123
86881,1577399874.21,1.390855979063452,-0.7741446685046682,10.151882200362042,0.4349855650366803,-0.4461974362257044,9.018140121534394,0.7572684665586887,-0.4264598713200264,8.279149340820313,2.0318380216272867,1.910698123094512,-0.3275057164634146,1.6700930711699695,-4.582102705792683,0.3141077553353658,6.152455399676067,-6.353610899390244,1.0625327505716462,-29.52948050213675,-15.235448985042735,-0.5260287166537173,-4.916154858763031,-42.15834946303696,-0.4926629860524088,27.038278371821367,31.30341150747297,33.12447958786354,1577399874.0,-27.714680107523144,-51.1021013246673,22.97123
86882,1577399874.22,2.099539670469702,-0.5083882842273245,8.459181626631572,1.5303328245581644,-0.4102844113233612,8.243615884473847,1.1044277072813449,-1.1782391926090894,8.686163623046875,3.679787240377287,3.4518358184070124,-0.1138826695884145,-3.655224311642531,11.68376643483232,-0.1741734946646345,1.7579241496760676,23.52309808498476,-0.8600746713033538,-30.058366720085463,-12.985919604700852,-0.6763226356976347,1.863536603620736,-40.87526926198801,0.2448109282544377,26.89450983915896,30.99191302003774,33.12447958786354,1577399874.0,-27.714680107523144,-51.1021013246673,22.97123
86883,1577399874.23,1.4076153906845457,-1.118909707567168,8.9667523785847,2.12050353378668,-0.2714207150342982,7.816250888135956,2.6702355930235324,-1.755241792706745,12.758700646972656,1.7571798185022869,5.557548709032012,-0.2969881383384145,3.348559868044969,-0.1570538776676829,0.1615198647103658,-5.963023115948933,13.849025819359756,-1.4399086556783538,-30.058366720085463,-15.439951655982904,-2.179261826136828,11.724906003451672,-39.04229754620379,-3.8850429918639056,27.038278371821367,30.92002875370653,33.17240243208434,1577399874.0,-27.714680107523144,-51.1021013246673,22.97123
86884,1577399874.24,1.1753778296493895,-0.1157392119616995,9.919644639326885,1.5411067320288676,-0.1349512204053919,10.718023300245331,-0.6457337062928727,-1.716934566144245,13.57272921142578,0.8416524747522866,5.954277224657012,-0.1749178258384145,-2.2971920850800305,3.718678544207317,2.2672327553353657,2.520863602801067,-7.330173399390244,-2.477506311928354,-27.590231036324784,-13.803930288461538,-0.9769104737854758,-7.9978327962102,-39.04229754620379,-2.70508472897295,26.89450983915896,30.92002875370653,33.22032527630515,1577399874.0,-27.714680107523144,-51.1021013246673,22.97123
86885,1577399874.25,0.2883261145614994,-0.9118112639636524,12.230049241377667,0.6444782103003526,-1.2913506222608606,11.463817117384004,-0.2734353481385763,0.1254036113459886,10.656591589355468,-0.3637918611852131,4.809868044969512,-0.7394930211509145,0.0679202196074693,6.907765458269816,-0.3267613852896341,5.709950516863567,10.522609803734756,-1.9434486947408536,-30.587252938034187,-15.644454326923077,-1.4277922309172344,-9.025058775359255,-19.796094530469524,-20.10946910661454,26.894509839158957,30.92002875370653,33.29220954263636,1577399874.0,-27.714680107523144,-51.1021013246673,22.97123
86886,1577399874.26,0.6630186743759521,-2.007158523485137,11.272368577315168,-0.6232515687523811,-2.12213859833508,10.071588852003146,-0.5188410183045915,-0.9436074299137764,13.218387365722656,-0.3485330721227134,6.656181521532012,0.0692227991615854,1.0902590867949695,0.3617449504573171,1.0160120522103655,-4.131968428448933,-10.870212461890244,-2.202848108803354,-30.587252938034187,-15.644454326923077,-1.4277922309172344,-13.955743475274724,-37.759217345154845,-40.31625435862215,26.798664150717343,31.20756581903136,33.17240243208434,1577399874.0,-27.714680107523144,-51.1021013246673,22.97123
86887,1577399874.27,0.8186417822861083,-0.369524587938262,10.25483287174876,0.0686727110327741,0.8825844851610133,10.67013926704221,-1.203582693109279,-0.8645987751286203,10.51533369140625,4.473244271627286,6.320488162157012,0.0997403772865854,1.5785403367949695,5.488698075457317,0.9244593178353658,-1.3853863971989329,-8.062595274390244,-0.3412758431783537,-30.93984375,-14.008432959401707,-1.7283800690050757,-13.955743475274724,-37.759217345154845,-2.5575899461115803,26.798664150717343,31.01587444214814,33.17240243208434,1577399874.0,-27.714680107523144,-51.1021013246673,22.97123
86888,1577399874.28,0.136294309141577,0.0781911225109557,10.501435642744854,0.6145506895483991,-1.2075535641553918,8.338186850050018,0.625587375250095,-0.910088606671589,12.66772098388672,3.0084005216272867,7.449638552782012,-0.6021639195884145,2.371997368044969,10.432545731707316,-0.3267613852896341,0.7203264934260671,-14.440769102515244,2.649446813071646,-29.88207131410256,-15.644454326923077,-1.7283800690050757,-6.55971642540152,-37.759217345154845,8.357023985629755,26.990355527600563,31.063797286368946,33.17240243208434,1577399874.0,-27.714680107523144,-51.1021013246673,22.97123
86889,1577399874.29,0.9754619910263428,-0.6628142913074025,10.339827030684308,0.3344290953101183,-0.5599220150831263,10.417550991895723,0.80754670142197,-2.138314058331745,8.276755139160155,1.9555440763147869,4.199516482469512,-0.0986238805259145,3.287524711794969,1.8113299113948167,1.8094690834603653,-7.137949873761432,-9.985202696265244,2.100130406821646,-31.468729967948715,-13.394924946581195,-3.0810253404003385,-8.511445785784726,-39.133946131993,1.3510217997147085,26.870548417048557,30.84814448737532,33.17240243208434,1577399874.0,-27.714680107523144,-51.1021013246673,22.97123
86890,1577399874.3,0.8090649756454833,-1.1284865142077931,10.719307993819072,1.2226779112280866,-1.9665154904249231,9.765131039503142,1.5808738376524385,-1.4224477619450264,11.839327209472655,-1.0199197908727131,5.191337771532012,-0.6326814977134145,-1.1375241163300305,16.139332841082318,-0.5709020102896342,-1.4769391315739329,-11.175388243140244,2.222200719321646,-31.468729967948715,-13.394924946581195,-3.0810253404003385,-9.025058775359255,-4.032537774725275,-1.6726212489433638,26.84658699493815,31.01587444214814,33.31617096474676,1577399874.0,-27.714680107523144,-51.1021013246673,22.97123
86891,1577399874.31,-0.1557982933974844,-1.585779031297637,10.525377659346416,0.1979596006812115,-1.3272636471632044,8.462685336378144,1.4587695529844698,-0.5054685261051827,8.609549169921875,1.7876973966272869,9.158622927782012,0.4659513147865854,2.524585258669969,6.526295731707317,0.7413538490853658,-0.9886578815739328,-9.649509336890244,2.069612828696646,-30.058366720085463,-14.62194097222222,-2.479849664224669,-5.7379356420822765,-4.032537774725275,-3.737548209002536,26.89450983915896,31.01587444214814,33.02863389942193,1577399874.0,-27.714680107523144,-51.1021013246673,22.97123
86892,1577399874.32,-0.0947461510635005,0.1895214997082218,9.807117161299542,-0.5179066957055062,0.640770117485232,14.153702682569552,0.4220802341368137,-1.72651137278487,7.678204724121093,2.8558126310022867,5.084526248094512,-0.0223299352134145,-3.2737545850800305,4.176442216082317,1.3822229897103655,1.8494768840510671,-2.111667540015244,1.7339194693216462,-29.6176282051282,-14.519689636752137,-3.156172299922304,9.875899240983376,-3.665943431568431,-3.147569077557058,27.014316949710967,30.92002875370653,33.12447958786354,1577399874.0,-27.714680107523144,-51.1021013246673,22.97123
86893,1577399874.33,-0.1557982933974844,-0.9393445830554494,10.520589256026105,-0.0749793885766003,-0.9286290707471888,10.297840908887911,-0.4206787502381852,-1.8222794391911208,10.803834991455078,1.2688985685022869,0.6137010527820121,-0.5411287633384145,2.127856743044969,5.671803544207317,0.1615198647103658,6.457631180926068,5.059963319359756,-2.874234827553354,-30.76354834401709,-14.62194097222222,-1.8786739880489929,9.875899240983376,-0.5498915147352641,-40.90623349006763,26.84658699493815,30.96795159792733,33.17240243208434,1577399874.0,-27.714680107523144,-51.1021013246673,22.97123
86894,1577399874.34,-0.1270678734756094,-1.5211355864734182,11.763179917647198,-1.5306539979515998,-1.6456924679639855,11.278266488721895,1.200195773687595,2.233498173113566,11.947066284179687,-0.2264627596227134,3.634941287157013,0.1912931116615854,3.318042289919969,-0.8284405964176829,2.3587854897103657,3.344838212176067,2.923732850609756,-0.0971352181783536,-30.76354834401709,-14.62194097222222,-1.8786739880489929,9.875899240983376,1.0997830294705304,-40.90623349006763,26.84658699493815,31.01587444214814,33.22032527630515,1577399874.0,-27.714680107523144,-51.1021013246673,22.97123
86895,1577399874.35,0.1003812842392333,-0.6616171904773245,11.37771345036204,1.2107069029273052,-1.4110607052686732,12.66690345161252,0.5944627536680637,-1.2835840656559638,11.257536206054686,2.9168477872522867,4.397880740282012,0.4659513147865854,0.3578372117949695,7.136647294207317,1.0160120522103655,-3.491099287823933,5.395656678734756,1.0014975943216462,-32.52650240384615,-12.985919604700852,-1.578086149961158,9.875899240983376,1.0997830294705304,-40.90623349006763,26.990355527600563,31.01587444214814,33.17240243208434,1577399874.0,-27.714680107523144,-51.1021013246673,22.97123
86896,1577399874.36,0.0117958228134525,-0.561060720750762,10.26081837589915,-0.0677967835961311,-0.2929685299757044,9.911177340772678,1.1666769504454075,-0.4815265095036202,9.088389501953124,3.176247201314786,4.092704959032012,0.9694913538490856,2.371997368044969,1.4603777629573171,-0.8455602134146342,-1.9957379596989329,1.4588891006097562,1.4897788443216462,-28.29541266025641,-14.21293563034188,-2.0289679070929107,-8.614168383699631,-3.299349088411588,-41.79120218723584,26.91847126126936,31.01587444214814,33.17240243208434,1577399874.0,-27.714680107523144,-51.1021013246673,22.97123
86897,1577399874.37,0.1482653174423583,-0.0582783721179495,10.475099424483137,0.5020232115210553,-0.4725336544874237,9.133061801221894,0.4352483432676731,-0.8921320942204172,8.139088543701172,1.2994161466272869,0.4916307402820121,0.2523282679115854,1.3191409227324693,3.0472918254573167,1.4737757240853655,2.429310868426067,-0.0517310165777438,1.6423667349466462,-29.52948050213675,-14.826443643162394,-3.531907097532104,-9.12778137327416,-21.53741766046453,-21.65816432665892,26.798664150717343,30.872105909485725,33.00467247731153,1577399874.0,-27.714680107523144,-51.1021013246673,22.97123
86898,1577399874.38,0.3038884253525146,-1.3128400420398243,10.400879173018293,0.1069799375952741,-1.360782470405392,8.766748947217987,0.2568803195860325,-2.4399834675114325,9.842563024902343,-0.7147440096227134,3.604423709032013,0.6795743616615855,-0.0694088819550304,4.847828934832317,0.4361780678353658,-0.3477887409489328,11.407619569359756,-0.6769692025533537,-29.52948050213675,-14.826443643162394,-3.531907097532104,-8.408723187869821,-3.849240603146853,-2.70508472897295,27.038278371821367,31.20756581903136,33.22032527630515,1577399874.0,-27.714680107523144,-51.1021013246673,22.97123
86899,1577399874.39,-0.3688822411513907,-1.0710256743640432,9.175047923018292,1.2801387510718365,0.0158834841844508,8.3118506317883,1.480317367925876,1.1058291911799725,10.613495959472656,0.5975118497522866,3.2992479277820124,0.0387052210365854,1.0597415086699695,4.390065262957317,1.4432581459603655,1.3306780559260671,-11.480564024390244,2.313753453696646,-26.708754006410253,-15.235448985042735,-1.7283800690050757,-3.888928879613976,-3.849240603146853,-0.345168203191039,26.990355527600563,30.92002875370653,33.17240243208434,1577399874.0,-27.714680107523144,-51.1021013246673,22.97123
86900,1577399874.4,-0.0097519921279536,-0.3012898406238089,10.399682072188211,-0.2090546815453499,-1.5379533932569545,10.57915960395627,-0.4877163967225602,0.2319455852229412,11.326968054199218,-0.7452615877477133,1.2087938262195124,0.4201749475990854,1.7921633836699695,-6.352122237042683,1.9315393959603653,-2.880747725323933,-8.581394102515244,2.374788609946646,-29.265037393162395,-14.110684294871792,-2.7052905427905447,-1.4235865296562409,-3.1160519168331664,-3.8850429918639056,26.96639410549016,31.20756581903136,33.17240243208434,1577399874.0,-27.714680107523144,-51.1021013246673,22.97123
86901,1577399874.41,-0.4000068627334219,-0.4221970244616995,11.914014622237042,0.2302813230933214,-1.0136232296827357,10.423536496046117,-0.5511627407167013,-2.329850191144245,7.36097300415039,2.3064962247522867,4.275810427782012,0.2828458460365854,-2.9380612257050305,10.783497880144816,0.1920374428353657,-2.728159834698933,9.668117616234756,0.2538169302591463,-30.41095753205128,-14.62194097222222,-3.381613178488186,0.117252439067343,-3.207700502622377,-40.39000175005283,27.038278371821367,30.96795159792733,33.26824812052595,1577399874.0,-27.714680107523144,-51.1021013246673,22.97123
86902,1577399874.42,-0.5364763573623281,-0.5921853423327933,12.435950584151104,-0.9632282044945686,-0.6018205441358606,10.773089938428928,0.9942944309141576,-1.657079524640339,7.3932947265625,0.1702657560022865,1.437675662157012,0.3133634241615854,3.379077446169969,-1.6829327839176829,0.6498011147103658,0.7813616496760671,14.062648866234756,-2.569059046303354,-30.41095753205128,-14.62194097222222,-3.381613178488186,-16.421085825232456,-33.36008522727273,-3.147569077557058,26.84658699493815,30.92002875370653,33.12447958786354,1577399874.0,-27.714680107523144,-51.1021013246673,22.97123
86903,1577399874.43,0.4786651465439208,-0.4389564360827933,9.847818589522198,1.2202837095679302,-0.9322203732374232,9.427548605421112,0.1682948581602512,-1.2716130573551825,12.186486450195313,0.5364766935022866,0.3390428496570121,-0.1138826695884145,5.637378227419969,-4.643137862042683,1.6568811928353655,-2.270396162823933,15.558010194359756,-1.3483559213033538,-29.17688969017094,-14.008432959401707,-2.0289679070929103,-16.421085825232456,-33.36008522727273,-3.147569077557058,26.702818462275737,30.92002875370653,33.12447958786354,1577399874.0,-27.714680107523144,-51.1021013246673,22.97123
86904,1577399874.44,-0.0301027062392818,-1.2170719756335744,9.902885227705791,-0.5191037965355847,-0.2091714718702362,11.006524600294162,0.9344393894102512,-0.0864832355778394,11.259930407714844,0.3533712247522865,3.3297655059070124,0.0997403772865854,-1.3053707960175307,6.007496903582316,0.2683313881478659,2.902333329363567,-13.021701719702744,-0.4633461556783537,-28.824298878205127,-14.621940972222225,-2.479849664224666,-4.91615485876303,-3.665943431568431,3.194706585481827,26.96639410549016,30.872105909485725,33.05259532153233,1577399874.0,-27.714680107523144,-51.1021013246673,22.97123
86905,1577399874.45,0.2871290137314208,-0.4868404692859183,10.961122361494857,1.064660601657774,-3.932155053413205,7.754001644971893,-1.5244057155702164,-0.7879843220036202,8.303091357421874,3.862892709127287,2.7499315215320124,0.2523282679115854,-0.0694088819550304,7.045094559832317,1.7179163490853655,-1.4159039753239329,-8.917087461890244,2.649446813071646,-29.353185096153844,-12.576914262820512,-1.8786739880489929,-11.490401125316987,-39.22559471778221,3.0472118026204567,26.798664150717343,30.92002875370653,33.17240243208434,1577399874.0,-27.714680107523144,-51.1021013246673,22.97123
86906,1577399874.46,-0.1653751000381094,-0.8890663481921682,10.755221018721416,-1.0302658509789435,-1.6456924679639855,8.855334408643769,0.7069902316954075,-2.461531282452839,8.595183959960938,0.2313009122522865,0.0033494902820121,-0.3580232945884145,2.066821586794969,-1.9270734089176829,0.4056604897103658,3.802601884051067,5.334621522484756,2.008577672446646,-29.353185096153844,-12.576914262820512,-1.8786739880489929,-11.490401125316987,-39.22559471778221,3.0472118026204567,26.990355527600563,31.063797286368946,33.31617096474676,1577399874.0,-27.714680107523144,-51.1021013246673,22.97123
86907,1577399874.47,0.3278304419540775,-0.3623419829577932,8.720149607588604,0.6025796812476178,0.688654150688357,8.362128866651581,-0.5906670681092789,-1.3865347370426826,10.05564697265625,-0.2569803377477133,1.285087771532012,-0.7089754430259145,0.4799075242949695,3.535573075457317,-0.1436559165396341,0.0794573528010671,13.818508241234756,0.6658042349466463,-28.912446581196583,-13.701678952991454,-1.953820947570952,10.286789632642996,-36.292839972527474,3.0472118026204567,26.94243268337976,31.01587444214814,33.02863389942193,1577399874.0,-27.714680107523144,-51.1021013246673,22.97123
86908,1577399874.48,-0.3832474511123281,-0.0080001372546683,11.00182378971751,-0.0737822877465222,-1.43859402436047,10.224817758253144,-1.154501559076076,-3.748414674786823,11.917138763427731,-3.4308084627477133,0.3390428496570121,-0.8157869664634145,1.5022463914824693,-1.6829327839176829,1.1838587318978655,-0.1799420612614328,-1.2266577743902438,-1.1805092416158538,-27.590231036324784,-13.394924946581195,-3.0810253404003385,10.69768002430262,-19.612797358891108,-22.026901283812343,26.990355527600563,31.063797286368946,33.17240243208434,1577399874.0,-27.714680107523144,-51.1021013246673,22.97123
86909,1577399874.49,-0.2755083764052969,-0.9082199614734182,11.540519163252666,-0.1228634217797249,-1.1046028927686733,10.42593069770627,0.9200741794493136,0.172090543719035,10.9175595703125,-0.1959451814977134,1.346122927782012,-0.7547518102134145,2.555102836794969,0.117604325457317,-1.1202184165396345,-0.7445172565739329,1.7945824599847562,-3.972867640053354,-27.9428218482906,-14.21293563034188,-1.8786739880489929,10.286789632642996,-2.9327547452547447,-41.4962126215131,26.84658699493815,31.063797286368946,33.31617096474676,1577399874.0,-27.714680107523144,-51.1021013246673,22.97123
86910,1577399874.5,-0.4790155175185782,-1.0279300444812307,11.550095969893292,-0.7525384584008187,-1.066295666206173,10.155385910108617,1.1068219089415012,1.6971970012385662,11.719617126464843,0.6890645841272866,1.254570193407012,-0.4495760289634145,-0.1914791944550304,2.864186356707317,1.1380823647103655,5.511586259051067,-2.081149961890244,-1.1042152963033538,-27.9428218482906,-14.21293563034188,-1.8786739880489929,10.492234828472808,-38.3091088598901,-3.8850429918639056,26.84658699493815,30.872105909485725,33.17240243208434,1577399874.0,-27.714680107523144,-51.1021013246673,22.97123
86911,1577399874.51,-0.2802967797256094,-0.5646520232409964,10.481084928633528,-0.0869503968773811,-1.6241446530225794,11.393188168409395,-1.902689577874904,-2.693768843487995,12.00931552734375,1.6351095060022869,3.0398485137195124,-0.2664705602134145,1.9142336961699693,-2.537424971417683,0.0394495522103658,-0.0731305378239328,8.691555116234756,-1.5314613900533538,-28.55985576923077,-14.315186965811964,-2.104114866614869,10.492234828472808,-38.3091088598901,-3.8850429918639056,27.014316949710967,31.111720130589752,33.12447958786354,1577399874.0,-27.714680107523144,-51.1021013246673,22.97123
86912,1577399874.52,-0.5556299706435782,-0.4820520659656058,11.073649839522195,-0.8447152223168343,0.0182776858446075,10.374455362012911,0.952395901861423,0.8688032268245037,10.018536846923828,-0.8368143221227134,-0.0882032440929878,-0.4495760289634145,1.6853518602324695,2.818409989519817,-0.6014195884146343,1.5443011028010671,-6.353610899390244,0.4064048208841462,-28.47170806623932,-12.372411591880342,-2.0289679070929103,-4.813432260848126,-19.5211487731019,5.185886154110314,26.990355527600563,30.872105909485725,33.148441009973936,1577399874.0,-27.714680107523144,-51.1021013246673,22.97123
86913,1577399874.53,0.3685318701767333,-0.0103943389148245,9.550937583662824,0.6384927061499616,-2.5722485104444552,7.229671481397674,0.4101092258360324,-2.5836355671208078,8.834604125976561,3.4051290372522867,3.1466600371570124,-0.2054354039634145,-1.3816647413300305,2.833668778582317,0.2835901772103658,0.5372210246760671,-11.114353086890244,1.7949546255716462,-28.47170806623932,-14.008432959401707,-1.4277922309172344,-9.025058775359255,-38.85900037462537,1.2772744082840235,27.038278371821367,30.77626022104412,33.12447958786354,1577399874.0,-27.714680107523144,-51.1021013246673,22.97123
86914,1577399874.54,0.2153029639267333,-1.068631472703887,8.92126254704173,0.9066432920874616,-1.2793796139600797,11.204046237257051,0.5370019138243137,-2.2268995197575263,8.525752111816406,-1.965964712747713,-0.3323438690929878,-0.5716463414634145,1.9447512742949693,0.7279558879573171,-0.5403844321646342,4.260365555926067,-9.496921446265244,0.4521811880716463,-28.1191172542735,-14.41743830128205,-1.7283800690050757,-6.55971642540152,-38.85900037462537,3.0472118026204567,26.84658699493815,30.92002875370653,33.17240243208434,1577399874.0,-27.714680107523144,-51.1021013246673,22.97123
86915,1577399874.55,0.1554479224228275,-0.800480886766387,9.1965957379597,0.6779970335425397,-0.9238406674268764,9.8058324677258,0.3801817050840799,-1.6714447346012768,10.79066688232422,0.7348409513147866,0.6594774199695123,-0.5716463414634145,-0.0236325147675307,2.665822098894817,-0.2504674399771341,0.4914446574885671,-3.957981016577744,-0.1276527963033538,-28.38356036324786,-14.315186965811964,-1.5029391904391964,9.875899240983376,-36.292839972527474,-3.4425586432797965,26.89450983915896,30.92002875370653,33.148441009973936,1577399874.0,-27.714680107523144,-51.1021013246673,22.97123
86916,1577399874.56,-0.4383140892959219,0.1284693573742369,12.218078233076886,-0.5155124940453499,-1.418243310249142,10.78984935005002,-0.0663369045350602,-2.16704447825362,9.548076220703123,-0.9588846346227134,-2.377021603467988,-0.9683748570884144,3.318042289919969,-7.450755049542683,0.3141077553353658,-0.1036481159489328,1.6114769912347562,-1.8061195931783536,-29.70577590811965,-15.439951655982904,-0.9769104737854758,10.081344436813186,-2.3828632305194803,-40.46374914148351,26.990355527600563,30.92002875370653,33.12447958786354,1577399874.0,-27.714680107523144,-51.1021013246673,22.97123
86917,1577399874.57,-0.7495603051162344,-1.0542662627429495,10.973093369795636,1.0502953916968365,0.4803586062547633,10.847310189893772,0.6279815769102512,-0.804743733624714,12.62223115234375,1.4520040372522869,1.773369021532012,-0.8463045445884145,-0.8018307569550305,0.5448504192073171,-2.1272984946646343,6.152455399676067,12.902980897484756,-2.111295374428354,-27.9428218482906,-14.21293563034188,-2.179261826136828,-8.614168383699631,-4.032537774725275,-41.79120218723584,26.89450983915896,31.063797286368946,33.17240243208434,1577399874.0,-27.714680107523144,-51.1021013246673,22.97123
