,timestamp,acc_x_dashboard,acc_y_dashboard,acc_z_dashboard,acc_x_above_suspension,acc_y_above_suspension,acc_z_above_suspension,acc_x_below_suspension,acc_y_below_suspension,acc_z_below_suspension,gyro_x_dashboard,gyro_y_dashboard,gyro_z_dashboard,gyro_x_above_suspension,gyro_y_above_suspension,gyro_z_above_suspension,gyro_x_below_suspension,gyro_y_below_suspension,gyro_z_below_suspension,mag_x_dashboard,mag_y_dashboard,mag_z_dashboard,mag_x_above_suspension,mag_y_above_suspension,mag_z_above_suspension,temp_dashboard,temp_above_suspension,temp_below_suspension,timestamp_gps,latitude,longitude,speed
59088,1577396021.3,0.4007659998451791,1.8517689962247523,8.027349400366806,-1.7529059862090313,0.414313677531916,9.71070674810642,3.5364110375381093,-2.492597508872427,3.788970115103373,-10.986514207793444,4.527766530106708,-0.8107627310403963,-3.097720262480945,1.1183575886051829,-0.3055479468368902,6.381895483993903,35.1657402224657,0.8373725705030487,4.370419983802039,-3.4692417391636146,0.7085284754927537,-20.789582061457065,19.36030140836176,-26.185071499013805,31.063797286368946,37.772995477281576,42.325665678258005,1577396021.0,-27.68612111614855,-51.13154547418664,7.793059
59089,1577396021.31,-0.9998419713462272,0.7791666524747515,6.174237315405869,-1.645166911502,-2.688571674030583,3.842518479063453,0.4263430809951407,2.923086646401009,2.8217126444002485,3.3872650890815548,9.929377858231708,0.4404579720846037,-4.013247606230945,5.634959151105183,-0.4581358374618902,10.501768530868905,45.0229179568407,2.2411811642530486,6.679321107320097,-2.37369171626984,1.7713211887318916,-11.54334681522182,15.396775135783756,-24.14467631727247,31.111720130589752,37.86884116572318,42.37358852247881,1577396021.0,-27.68612111614855,-51.13154547418664,7.793059
59090,1577396021.32,1.3823886805092416,-4.076274314322123,5.788770848120713,0.9956375196503424,1.3839653498951971,3.2008724341415777,-5.923079721739234,-5.7822305899271145,13.856588096060404,-20.569033739043444,3.856379811356707,0.8371864877096037,-7.797427293730945,2.857859541730183,-0.2139952124618902,5.405332983993903,44.8092949099657,2.7904975705030486,5.689792054383787,-0.9129583524114792,2.125585426478283,-10.2142004985755,16.463878363016292,-14.282766272189347,31.063797286368946,37.86884116572318,42.46943421092042,1577396021.0,-27.68612111614855,-51.13154547418664,7.793059
59091,1577396021.33,1.3632350672279916,4.392016957650533,7.167831004370712,4.699467487912061,3.0742717219655105,8.544730539610327,1.1350267724013907,-8.540350902427114,13.353805747427591,6.194882276581555,-0.4771162823932927,-2.214571324790396,-13.626284715605944,6.489451338605183,-1.5872862280868902,0.0037216558689026,18.8388359255907,-11.64431688262195,6.184556580851942,-2.556283386752136,0.8856605943659495,-21.020737942612943,19.665188044713904,-18.023490772048465,31.063797286368946,37.725072633060776,42.37358852247881,1577396021.0,-27.68612111614855,-51.13154547418664,7.793059
59092,1577396021.34,-2.4100267491782583,0.783955055795064,9.633858714331652,-0.3211733934355939,-0.1818425358469891,8.956533225157202,1.3816295433974843,7.134487366615853,9.590120737661966,-3.601260301543445,10.387141530106708,-1.4211142935403962,-11.490054246855944,4.109080244855183,-1.3431456030868902,-3.017518578506097,-3.0117500119092986,-6.730986804496951,6.844242616142818,-2.556283386752136,-0.53139635661958,-20.905160002035004,19.970074681066063,-25.504939771766697,30.92002875370653,37.725072633060776,42.13397430137479,1577396021.0,-27.68612111614855,-51.13154547418664,7.793059
59093,1577396021.35,-0.9735057530845084,2.7543830221036587,9.772722410620714,-0.8550803636504376,1.2067944270436346,15.94281366949314,-5.681265354063453,-12.696684984458363,12.79356255895103,-15.655703660918444,8.342463795731707,-1.6652549185403962,-11.184878465605944,1.2709454792301829,-4.4559385718368905,-17.9100967035061,-8.9016425900343,2.0580756955030486,5.689792054383787,-3.834425080128205,1.062792713239138,-21.020737942612943,19.970074681066063,-25.504939771766697,31.111720130589752,37.772995477281576,42.46943421092042,1577396021.0,-27.68612111614855,-51.13154547418664,7.793059
59094,1577396021.36,-4.42594454702982,-0.1330241800447788,13.605839268530868,-2.9452184129668435,0.4789571223561348,7.49607021246189,5.564299843690453,4.1082164681783535,11.201418454947124,-21.728701707793444,1.842219655106708,-3.435274449790396,-10.482974168730944,6.489451338605183,-1.8009092749618902,-19.0392470941311,-27.9140937619093,-15.79470750762195,6.184556580851942,-1.0955500228937742,1.2399248321123264,-21.020737942612943,19.970074681066063,-25.504939771766697,31.111720130589752,37.725072633060776,42.325665678258005,1577396021.0,-27.68612111614855,-51.13154547418664,7.793059
59095,1577396021.37,-1.7396502843345083,2.130693489632955,9.69012245334532,0.4114523145722176,1.8628056819264471,11.353129086973608,9.93371787347561,19.737564905678354,11.840670298208842,-12.176699754668444,6.374080006669208,-1.4058555044778962,-15.609927293730944,4.322703291730183,-0.5802061499618902,-30.6664443597561,-23.5500800900343,2.4853217892530486,5.937174317617865,-1.734620869581807,1.8598872481684927,-20.96294897232397,20.12251799924213,-14.96289799943646,31.15964297481056,37.91676400994399,42.325665678258005,1577396021.0,-27.68612111614855,-51.13154547418664,7.793059
59096,1577396021.38,-0.7939406285727896,-2.02204928990806,5.795953453101181,-0.3714516282988756,1.1481364863698065,9.01519116583103,-1.1969256445907963,0.1087025948873382,9.514703385367046,-18.341250535918444,-0.9959151105182926,-1.4821494497903962,-14.145083543730944,3.758128096417683,-3.5098936499618905,-25.2953506097561,-42.8219306759718,1.0357368283155488,6.019635072029224,-2.7388750572344303,1.7713211887318916,-21.020737942612943,19.970074681066063,-24.824808044519585,31.111720130589752,37.79695689939198,42.42151136669962,1577396021.0,-27.68612111614855,-51.13154547418664,7.793059
59097,1577396021.39,0.6832817957436166,-1.0954932474275914,6.499848741187119,1.2159040723847176,-2.611957220905583,4.730767294981422,-0.5816158179306395,6.464110901772104,4.990859348501811,-13.763613817168444,1.933772389481708,-2.031465856040396,-12.466616746855944,3.224070479230183,-0.8548643530868902,-21.5416885003811,-44.0273750119093,15.79098585175305,5.359949036738351,-3.1040583981990206,1.062792713239138,-19.7493805962556,21.799394499178984,-77.1949510425472,31.063797286368946,37.91676400994399,42.37358852247881,1577396021.0,-27.68612111614855,-51.13154547418664,7.793059
59098,1577396021.4,-1.7204966710532583,1.631502443490377,8.527737547339463,1.847973310665968,3.562688860637385,11.32679286871189,1.788643825624047,-3.397605736411489,7.30844655553306,-2.411074754668445,5.778987233231708,-1.909395543540396,-18.722720262480944,-9.593312333269816,-1.4957334937118902,-26.6076064691311,-32.2781074337843,10.63351514862805,5.854713563206506,-3.286650068681319,1.9484533076050947,-19.7493805962556,21.799394499178984,-77.1949510425472,31.20756581903136,37.62922694461916,42.325665678258005,1577396021.0,-27.68612111614855,-51.13154547418664,7.793059
59099,1577396021.41,-0.5784624791587272,0.1674481283048305,8.809056242407822,-2.554963542361375,-1.8506010929758956,13.926895871641577,-1.7691398413681394,0.6174704476705409,3.7123556619783735,-15.899844285918444,-3.5593916730182924,-1.6194785513528962,-8.346743699980944,-5.107228348894817,-3.8455870093368905,-23.3422256097561,-19.2165839962843,7.337616711128049,5.854713563206506,-3.286650068681319,1.9484533076050947,-20.674004120879125,20.57984795377037,-69.71350204282896,30.99191302003773,37.91676400994399,42.37358852247881,1577396021.0,-27.68612111614855,-51.13154547418664,7.793059
59100,1577396021.42,-2.103568936678258,-3.3604080179354034,10.538866941870712,-1.8211407335234844,-1.3023289128001143,7.085464627745093,-0.8832852271103279,-0.0325553030618805,7.061843784536967,-20.569033739043444,0.8351395769817074,-1.7568076529153962,-12.909121629668444,-0.2091570598323171,-1.3126280249618902,-12.5237441644436,-2.9812324337842986,-0.9021293826219514,6.019635072029224,-2.7388750572344303,2.125585426478283,-11.023246082621084,20.12251799924213,-65.6327116793463,30.872105909485725,37.94072543205439,42.66112558780364,1577396021.0,-27.68612111614855,-51.13154547418664,7.793059
59101,1577396021.43,-0.8705550816977896,3.625872426400533,10.77589290622618,-1.3027960740996565,2.4398082820241034,15.375387876036108,4.822097329042015,5.381931751381479,7.315629160513529,-11.871523973418444,7.152278248856708,-1.1159385122903962,-15.274233934355944,-5.259816239519817,-2.0450498999618905,-4.299256859756097,10.5380546755907,0.0133979611280486,5.030106019092915,-3.834425080128205,1.062792713239138,-10.792090201465204,20.732291271946444,-66.65290927021697,31.111720130589752,37.86884116572318,42.18189714559559,1577396021.0,-27.68612111614855,-51.13154547418664,7.793059
59102,1577396021.44,-0.1283525670493521,-0.6765079569002476,11.884408274878524,-0.9269064134551253,1.1038437556569158,9.468892380430638,-4.939062839415015,-2.581182970298208,12.819898777212748,-13.427920457793444,-6.855290110518292,-0.7497275747903963,-11.856265184355944,-0.8042498332698171,-1.4041807593368902,-8.358094750381097,11.8503105349657,1.1425483517530486,5.524870545561069,-4.0170167506105,0.8856605943659495,-10.792090201465204,22.561611090059365,-66.65290927021697,31.20756581903136,37.86884116572318,42.2777428340372,1577396021.0,-27.68612111614855,-51.13154547418664,7.793059
59103,1577396021.45,0.0057227259193973,-0.2132299356600137,8.473868009985948,-0.6312225084258288,-1.868557605427068,6.801751731016577,2.4865536095595937,3.9657614693990566,7.420974033560404,-10.254092332793444,4.070002858231708,-0.4903281607278962,-11.139102098418444,1.9881085651676829,0.3963563500381097,-8.205506859756095,8.2797538943407,-5.968047351371951,5.524870545561069,-4.0170167506105,0.8856605943659495,-12.612442765567769,21.723172840090943,-68.18320565652297,30.99191302003773,37.70111121095037,42.397549944589215,1577396021.0,-27.68612111614855,-51.13154547418664,7.793059
59104,1577396021.46,-1.1458882726157584,-2.709185166372904,5.218950853003525,-0.1847038988066876,0.7351366999928535,5.67647695074314,-4.211225534727515,-8.672031993735708,10.507099973501813,-9.430117723418444,16.734797780106707,1.6916786752096038,-12.741274949980944,-3.001515458269817,-3.3267881812118905,-14.125917016006095,0.9250175662157012,4.102753429878049,4.700263001447476,-2.7388750572344303,1.4170569509855149,-13.565960775335776,20.42740463559429,-66.65290927021697,31.063797286368946,37.62922694461916,42.325665678258005,1577396021.0,-27.68612111614855,-51.13154547418664,7.793059
59105,1577396021.47,-0.7819696202720083,1.5740416036466274,4.989107493628525,-0.4145472581816876,3.241865838176448,11.858305637266575,-2.0875686621689207,-5.880392857993521,13.468727427115091,-8.972354051543444,3.551204030106707,-0.6581748404153963,-14.450259324980944,-5.015675614519817,0.8236024437881098,-15.682313500381095,-2.8286445431592986,-10.14895555449695,3.7107339485111663,-3.4692417391636146,1.4170569509855149,-13.103649013024016,17.68342490842491,-25.84500563539025,30.872105909485725,37.725072633060776,42.18189714559559,1577396021.0,-27.68612111614855,-51.13154547418664,7.793059
59106,1577396021.48,-2.716484561678258,0.679807283578268,7.602378605689072,-3.1942153856230933,-0.6487118595774579,12.58374874029392,5.731893959901391,7.225467029701791,12.585267014517436,-6.927676317168444,-3.0100752667682924,-0.2156699576028963,-8.194155809355944,-2.147023270769817,-1.3736631812118902,-23.2506728753811,-8.1997382931593,-0.5054008669969513,5.195027527915633,-3.834425080128205,2.302717545351468,-11.658924755799758,17.835868226600986,-12.582436954071568,31.111720130589752,37.725072633060776,42.18189714559559,1577396021.0,-27.68612111614855,-51.13154547418664,7.793059
59107,1577396021.49,-3.001394559236852,1.2867374044278774,12.09270381931212,-3.507855803103562,-0.1327614018137865,10.819222116758764,1.2212180321670154,4.482909027992807,14.346202335562356,-15.930361864043444,-7.831852610518292,-0.0783408560403963,-8.041567918730944,-9.929005692644816,0.1674745141006097,-14.2937636956936,-38.7020576290968,1.8139350705030488,5.030106019092915,-2.37369171626984,3.188378139717421,-11.54334681522182,16.311435044840216,-9.521844181459567,31.063797286368946,37.82091832150238,42.42151136669961,1577396021.0,-27.68612111614855,-51.13154547418664,7.793059
59108,1577396021.5,-3.813028922029821,-2.091481138052591,9.722444175757431,-0.3427212083770001,-2.4922471378977704,13.316374448301731,-7.960545334532203,-11.734215917075552,16.703293869986187,-22.400088426543444,0.3773759051067073,2.088407190834604,-10.757632371855944,-2.787892411394817,-3.0521299780868905,-31.7040420160061,-60.1406562619093,0.4406440548780487,7.174085633788254,-3.286650068681319,3.0112460208442324,-11.54334681522182,16.311435044840216,-9.861910045083125,30.77626022104412,37.725072633060776,42.46943421092042,1577396021.0,-27.68612111614855,-51.13154547418664,7.793059
59109,1577396021.51,-3.0588553990806018,-2.522437436880716,7.1821962143316505,0.0140148389862801,-2.6670238590891766,9.737042966368138,2.348887014100609,6.14089367765101,10.34190005895103,-26.397891160918444,-6.305973704268292,0.5930458627096037,-8.926577684355944,-3.978077958269817,-0.7938291968368902,-26.5465713128811,-70.2114570431593,6.605194836128049,5.19502752791563,-4.0170167506105,1.5941890698587031,-11.54334681522182,16.311435044840216,-9.861910045083125,30.92002875370653,37.725072633060776,42.325665678258005,1577396021.0,-27.68612111614855,-51.13154547418664,7.793059
59110,1577396021.52,-1.0501202062095083,0.8964825338224076,11.870043064917589,-3.701786137576218,0.3209398127858223,14.925277963926732,-2.161788913633764,5.448969397865854,12.956368271841654,-15.075869676543444,-11.219303782393292,-0.2309287466653963,-9.018130418730944,-16.398732255144818,1.4949891625381098,-28.7743545160061,-70.0893867306593,25.12936475800305,6.514399598497378,-4.0170167506105,1.2399248321123264,-21.020737942612943,19.970074681066063,-23.46454459002536,31.01587444214814,37.725072633060776,42.37358852247881,1577396021.0,-27.68612111614855,-51.13154547418664,7.793059
59111,1577396021.53,-0.6179668065513052,-0.4550443033357944,7.784337931860947,-1.685868339724656,0.6345802302662917,12.7872558814072,1.0979166466689694,-5.629001683677115,6.694333829702983,-1.5413237781059443,-12.745182688643292,0.6083046517721038,-7.980532762480944,-7.289235184832316,-2.4417784155868905,-32.7874160394436,-54.9984443478468,4.041718273628049,5.772252808795146,-3.0127625629578727,0.97422665380254,-20.96294897232397,18.902971453833523,-81.61580726965343,30.99191302003773,37.74903405517118,42.42151136669961,1577396021.0,-27.68612111614855,-51.13154547418664,7.793059
59112,1577396021.54,-2.03892549185404,-0.87283249303306,7.598787303198837,2.2286513746308114,-3.244026459186833,4.022083603575172,1.1589687890029532,9.44249776700648,5.484064890493999,-7.904238817168445,-5.207340891768292,1.3559853158346038,-6.820864793730945,-8.097951005144816,-0.1224424780868902,-15.682313500381095,-24.6487129025343,7.642792492378049,5.854713563206506,-1.825916704822951,0.1771321188731884,-21.020737942612943,18.75052813565745,-83.99626831501831,31.01587444214814,37.772995477281576,42.46943421092042,1577396021.0,-27.68612111614855,-51.13154547418664,7.793059
59113,1577396021.55,-1.3302418004477896,1.1742099264005326,8.798282334937118,-1.7576943895293438,1.678452154094416,13.938866879942358,-3.921527133848609,-3.8644750601419577,5.424209848990092,-5.829043504668445,-1.4536787823932926,0.1352821908346037,-13.107485887480944,-21.06792170826981,0.5489442406631098,-14.949891625381095,-9.4204414181593,18.11032178925305,5.030106019092915,-2.37369171626984,2.47984966422466,-11.7745026963777,16.311435044840216,-83.99626831501831,31.111720130589752,37.91676400994399,42.2777428340372,1577396021.0,-27.68612111614855,-51.13154547418664,7.793059
59114,1577396021.56,-0.9160449132407584,1.1837867330411576,10.663365428198835,-1.85585665759575,2.3392518122975408,12.665151596739234,-1.3693081641220457,-3.694486742270864,1.1529540872713422,-7.873721239043445,-17.902653391768293,-0.1698935904153963,-8.316226121855944,-9.745900223894816,-1.6178038062118902,-7.961366234756097,18.9609062380907,11.57956007050305,6.514399598497378,-3.6518334096459095,2.3027175453514714,-13.508171805046809,15.396775135783756,-26.185071499013805,31.111720130589752,37.725072633060776,42.08605145715399,1577396021.0,-27.68612111614855,-51.13154547418664,7.793059
59115,1577396021.57,-0.6395146214927115,-0.6609456461092319,7.468303312720322,0.6939681104706551,-0.6080104313548016,6.328896903135719,1.332548409364282,1.375235273109994,10.107268296255716,-7.400698778105944,-9.083073313643292,0.7303749642721037,-5.630679246855945,-10.112111161394818,-1.9382383765243905,-2.559754906631097,21.5701591677782,4.652069836128049,6.019635072029224,-2.7388750572344307,1.062792713239138,-11.369979904354908,12.805238726790453,-25.84500563539025,31.11172013058975,37.74903405517118,42.18189714559559,1577396021.0,-27.68612111614855,-51.13154547418664,7.793059
59116,1577396021.58,0.8005976770912728,1.0497114400724077,11.2236086166754,-2.96676622790825,2.2985503840748844,14.532628891661108,-5.947021738340796,-4.879616564048208,10.435273923697125,-0.2748442859184451,-8.411686594893293,-0.8412803091653963,-4.684634324980945,-18.10771663014481,1.2203309594131098,-2.285096703506097,15.2377617068407,-0.9326469607469512,6.184556580851942,-2.921466727716725,1.2399248321123264,-11.196612993487996,17.835868226600986,-26.185071499013805,30.92002875370653,37.62922694461916,42.37358852247881,1577396021.0,-27.68612111614855,-51.13154547418664,7.793059
59117,1577396021.59,-0.5545204625571646,-4.318088681997904,10.883631980933211,-1.0035208665801252,-2.240855963581364,8.738660874082983,-6.164894089415015,-7.518026793540396,8.766515366568218,-22.461123582793444,-7.099430735518292,-0.2919639029153963,-2.090640184355945,-2.147023270769817,-2.2281553687118905,-7.991883812881097,4.404021472465701,-13.32278367949695,6.019635072029224,-4.199608421092795,1.4170569509855149,-10.618723290598291,19.36030140836176,-26.185071499013805,30.92002875370653,37.725072633060776,42.61320274358283,1577396021.0,-27.68612111614855,-51.13154547418664,7.793059
59118,1577396021.6,1.6122320398842416,-2.2590752542635286,9.957075938452745,1.688758900265577,-0.5744916081126143,9.57064595098728,6.378328408143578,12.223362995277965,8.409779319204935,-8.850283739043444,-0.1109053448932926,1.3865028939596038,-9.399600145293444,-9.608571122332318,1.1287782250381095,-4.772279320693597,-0.3567207150342987,-8.77566453887195,6.019635072029224,-3.1040583981990206,0.7085284754927537,-10.763195716320718,17.912089885689024,-78.38518156522963,31.01587444214814,37.74903405517118,42.325665678258005,1577396021.0,-27.68612111614855,-51.13154547418664,7.793059
59119,1577396021.61,0.496534066251429,1.8170530721524865,12.247129826392197,-1.824732036013719,4.290526165324885,13.65156268072361,-0.634288254454077,-3.790254808677114,10.617233249868995,-0.9767485827934456,-6.962101633955792,0.0742470345846036,-4.257388231230945,-1.6587420207698171,-3.9676573218368905,-3.475282250381097,8.0661308474657,5.201386242378049,6.184556580851941,-1.8259167048229548,0.531396356619569,-10.503145350020352,15.701661772135914,-69.03337031558186,31.039835864258546,37.725072633060776,42.51735705514122,1577396021.0,-27.68612111614855,-51.13154547418664,7.793059
59120,1577396021.62,4.37753495736471,-3.374773227896341,6.483089329566025,4.857484797482374,-2.2073371403391766,1.3286067358993896,-0.7444215308212645,3.6174051278463217,10.856653415884622,-7.507510301543445,-12.928288157393292,0.2573525033346037,-3.433413621855945,6.092722822980183,0.7625672875381098,-16.5062881097561,5.868865222465701,-1.878691882621952,5.854713563206506,-2.191100045787545,0.1771321188731884,-10.503145350020352,15.701661772135914,-69.03337031558186,31.111720130589752,37.725072633060776,42.51735705514122,1577396021.0,-27.68612111614855,-51.13154547418664,7.793059
59121,1577396021.63,2.208388253263148,0.4966508565763138,7.349790330542588,0.7586115552948738,-3.816240655964177,0.8114591773056395,0.1031258568740469,2.212008753334603,5.230279514517436,7.476620557831555,4.436213795731708,0.1963173470846037,-2.060122606230945,-8.799855302019816,3.7227723656631095,-5.611512719131097,10.8737480349657,3.2787788205030486,5.854713563206506,-2.191100045787545,0.1771321188731884,-19.7493805962556,20.57984795377037,-67.67310686108763,31.01587444214814,37.725072633060776,42.37358852247881,1577396021.0,-27.68612111614855,-51.13154547418664,7.793059
59122,1577396021.64,3.252260177091273,-1.3229424051424354,5.9060867294683685,-0.8957817918730941,0.2443253596608232,9.447344565489232,-1.9906034949325928,-1.136282268393912,9.628427964224468,1.9071625500190548,-0.8738447980182933,-0.0478232779153962,-3.845400926543445,-4.237477372332316,-0.5344297827743902,2.979185523056403,16.3669120974657,0.4253852658155486,6.267017335263301,-3.560537574404762,1.1513587726757355,-21.020737942612943,20.427404635594293,-68.35323858833475,31.15964297481056,37.772995477281576,42.37358852247881,1577396021.0,-27.68612111614855,-51.13154547418664,7.793059
59123,1577396021.65,0.5970905359779916,1.0305578267911577,17.877095030249617,3.0857755689667488,1.3552349299733222,7.239890634825171,-4.998917880918921,-5.272265636313834,8.493576377310404,-2.197451707793445,-2.369206126143293,-0.9023154654153964,-3.524966356230945,12.837107588605184,1.7086122094131098,0.5835556402439026,24.5456230349657,-3.2519828982469514,3.545812439688445,-3.6518334096459095,1.9484533076050947,-11.312190934065937,20.274961317418214,-66.99297513384053,31.20756581903136,37.725072633060776,42.46943421092042,1577396021.0,-27.68612111614855,-51.13154547418664,7.793059
59124,1577396021.66,1.7678551477943978,-2.376391135611185,10.009748374976182,0.7442463453339363,-2.422815289753239,9.485651792051732,0.9243370263076408,-6.804554698813833,11.287609714712747,-8.880801317168444,11.516291920731708,1.2949501595846038,0.4118012218940549,-3.581349442644817,0.2742860375381097,0.2783798589939026,20.8835136599657,-12.65139696074695,3.545812439688445,-3.6518334096459095,1.9484533076050947,-11.427768874643876,22.40916777188329,-66.99297513384053,30.92002875370653,37.725072633060776,42.325665678258005,1577396021.0,-27.68612111614855,-51.13154547418664,7.793059
59125,1577396021.67,0.3935833948647103,-1.3780090433260288,12.516477513159774,-0.7569180955840313,0.8716061946217597,13.21102957525486,2.6074607933974843,14.448773438393196,17.720829575552592,-5.432314989043445,6.297786061356708,0.5320107064596037,-2.151675340605945,-0.4380388957698171,1.5865418969131098,9.860899390243905,9.6530449099657,-9.99636766387195,3.545812439688445,-3.6518334096459095,1.9484533076050947,-11.658924755799758,22.40916777188329,-65.63271167934629,31.20756581903136,37.772995477281576,42.46943421092042,1577396021.0,-27.68612111614855,-51.13154547418664,7.793059
59126,1577396021.68,0.9406584742104134,-2.5619417642732945,14.587461949194932,-0.0769648240996563,-3.2272670475657392,9.74901397466892,-3.018913107969703,-13.35030203768102,17.182134202017433,-11.993594285918444,7.579524342606708,0.1810585580221037,0.1981781750190548,16.438181807355182,0.8541200219131098,-2.742860375381097,1.4132988162157012,-8.43997117949695,5.27748828232699,-3.377945903922467,0.2656981783097826,-11.716713726088727,20.12251799924213,-65.29264581572274,30.96795159792733,37.91676400994399,42.94866265312847,1577396021.0,-27.68612111614855,-51.13154547418664,7.793059
59127,1577396021.69,1.724759517911585,0.0513293477872513,12.782233897437118,3.4891985487030768,-1.340636139362614,11.04547417364353,5.692389632508813,13.14393353360804,10.515479679312357,7.110409620331555,9.898860280106708,0.1352821908346037,-2.731509324980945,9.495432783917684,2.395257717225609,3.528501929306403,-9.5882880978468,4.3316352658155495,6.34947808967466,-2.37369171626984,1.4170569509855149,-11.485557844932847,23.781157635467977,-68.35323858833475,31.20756581903136,37.82091832150238,42.42151136669962,1577396021.0,-27.68612111614855,-51.13154547418664,7.793059
59128,1577396021.7,-1.526566336580602,0.7671956441739701,11.757515586890245,-4.19259747790825,3.0742717219655105,10.98202782964939,-6.34685341558689,-24.9693626944193,11.163111228384624,3.7534760265815534,11.516291920731708,0.0132118783346036,2.3954438000190548,3.254588057355183,2.074823146913109,-12.569520531631095,-20.9255683712843,13.07492139862805,6.34947808967466,-2.37369171626984,1.4170569509855149,-11.427768874643876,23.0189410445876,-66.99297513384053,31.01587444214814,37.91676400994399,42.37358852247881,1577396021.0,-27.68612111614855,-51.13154547418664,7.793059
59129,1577396021.71,0.7527136438881478,1.8326153829435023,7.783140831030868,-0.0625996141387188,0.2275659480397285,9.318057675840794,-1.0508793433212644,5.705148975502572,10.748914341177592,9.490780714081556,8.739192311356707,0.1352821908346037,3.1278656750190548,11.189158369855184,1.5560243187881098,-12.783143578506095,-28.8601386837843,-6.792021960746951,6.34947808967466,-2.37369171626984,1.4170569509855149,-11.54334681522182,22.40916777188329,-66.99297513384053,31.111720130589752,37.772995477281576,42.46943421092042,1577396021.0,-27.68612111614855,-51.13154547418664,7.793059
59130,1577396021.72,-0.8286565526450552,-1.9502232401033728,8.22846233981993,0.4222262220429207,-1.6111809269602704,9.440161960508766,-4.365651541807592,-6.089885503257193,8.631242972769389,5.645565870331556,2.681453053544207,0.2878700814596037,1.6019867687690548,4.231150557355184,0.5336854516006098,-5.031678734756096,-1.3027656369092986,11.80844190644055,4.865184510270195,-2.373691716269838,2.1255854264782794,-12.46797033984534,21.34206454465075,-95.21844181459564,31.08775870847935,37.89280258783359,42.37358852247881,1577396021.0,-27.68612111614855,-51.13154547418664,7.793059
59131,1577396021.73,-2.4028441441977897,1.2604011861661586,15.10460950778868,-3.8789570604277808,2.5571241633717605,17.58763021002048,1.2188238305068595,0.8377370004049159,13.00425230504478,0.2744721203315549,0.4994462176067073,-0.0478232779153963,4.287533643769055,-0.9568377238948172,4.8824403344131095,8.182432593368903,-1.9436347775342988,-18.54128953887195,4.370419983802039,-1.643325034340656,2.47984966422466,-12.641337250712253,20.12251799924213,-11.5622393632009,31.063797286368946,37.62922694461916,42.37358852247881,1577396021.0,-27.68612111614855,-51.13154547418664,7.793059
59132,1577396021.74,0.2882385218178353,-0.3101951028963414,12.013695164526965,-0.8287441453887189,0.1868645198170723,18.09998936529392,-2.039684628965796,15.322657044350228,12.659487265982278,7.812313917206555,4.771907155106708,1.1118446908346038,6.149105909394055,13.081248213605184,0.8846376000381098,13.950254858993905,-12.3806464962843,1.8444526486280488,6.184556580851942,-3.6518334096459095,1.9484533076050947,-12.179025488400493,20.732291271946444,-11.5622393632009,31.111720130589752,37.62922694461916,42.46943421092042,1577396021.0,-27.68612111614855,-51.13154547418664,7.793059
59133,1577396021.75,-1.2272911290610709,-4.648488511099466,11.640199705542589,2.17837313976753,-7.239949029987614,6.485717111875952,-5.219184433653297,-5.7822305899271145,19.68886334020103,-0.3053618640434451,7.549006764481708,2.179959925209604,8.315853956269056,14.424021651105184,0.6710145531631098,2.384092749618903,-23.2754218869093,7.917450695503049,6.184556580851942,-3.6518334096459095,1.9484533076050947,-20.789582061457065,16.311435044840216,-20.0638859537898,30.77626022104412,37.91676400994399,42.37358852247881,1577396021.0,-27.68612111614855,-51.13154547418664,7.793059
59134,1577396021.76,-1.5145953282798208,1.6446705526212362,14.637740184058211,-2.377792619509812,2.6277531123463693,14.67747809210056,0.3832474511123281,0.8425254037252288,10.189868253531108,3.5856293468940548,2.9866288347942067,0.8066689095846038,3.3720063000190548,0.2180890339176828,3.310785060975609,-5.504701195693597,-24.4961250119093,1.5697944455030484,6.431938844086021,-2.464987551510986,2.037019367041689,-20.905160002035004,15.70166177213591,-22.444346999154693,31.063797286368946,37.89280258783359,42.42151136669962,1577396021.0,-27.68612111614855,-51.13154547418664,7.793059
59135,1577396021.77,0.429496419767054,-1.27505837193931,8.357749229468368,4.05542724133003,-3.109951166218083,8.353194406797828,2.9546200341201407,4.790563941322884,7.186342270865092,10.619931104706556,0.5299637957317074,0.2878700814596037,5.660824659394055,16.956980635480182,2.776727443788109,8.060362280868903,-11.1294257931593,13.44113233612805,5.689792054383787,-1.2781416933760694,0.3542642377463768,-20.96294897232397,15.85410509031199,-80.2555438151592,30.92002875370653,37.772995477281576,42.2777428340372,1577396021.0,-27.68612111614855,-51.13154547418664,7.793059
59136,1577396021.78,-1.0070245763266958,-2.82650104772056,10.349725010718368,0.2223103834198738,-1.338241937702458,8.302916171934546,1.003345681092797,-1.4583023916849267,7.349147983755717,1.6782807140815548,8.983332936356707,1.996854456459604,7.003598096894055,2.094920088605183,5.1265809594131095,8.426573218368903,-0.2956855587842988,10.90817335175305,5.19502752791563,-3.286650068681319,1.9484533076050947,-12.23681445868946,15.701661772135914,-91.47771731473654,30.92002875370653,37.58130410039836,42.37358852247881,1577396021.0,-27.68612111614855,-51.13154547418664,7.793059
59137,1577396021.79,-1.1889839024985709,0.2967350179532675,10.097136735571883,-4.247664116091843,3.9074538996998855,13.074560080625952,-2.417968491270483,-3.081571117270864,4.84481304723228,5.157284620331555,4.314143483231707,1.859525354897104,5.996518018769055,-4.588429520769817,2.532586818788109,14.713194312118905,24.5151054568407,7.490204601753049,5.3599490367383495,-2.9214667277167274,1.5941890698587105,-13.62374974562475,16.311435044840216,-87.39692695125387,31.01587444214814,37.725072633060776,42.51735705514122,1577396021.0,-27.68612111614855,-51.13154547418664,7.793059
59138,1577396021.8,-0.6024044957602896,-3.9134686014314974,8.4271810776129,-1.336314897341844,-2.100795166462224,6.702392362120093,-1.104748880674781,-2.696104649985708,11.7389167276522,1.4341400890815548,1.811702076981708,1.3254677377096038,9.750180128144056,8.427317549542684,2.959832912538109,14.835264624618905,24.4540703005907,3.339813976753049,6.514399598497378,-0.3651833409645902,0.1771321188731884,-13.24812143874644,15.168110158519642,-53.2203076570865,30.77626022104412,37.74903405517118,42.42151136669962,1577396021.0,-27.68612111614855,-51.13154547418664,7.793059
59139,1577396021.81,-0.913650711580602,-0.0611981302400913,10.3808496323004,-1.1878743944121564,-0.3949264836008954,11.611702866270484,1.2906498803115467,11.405743128334604,5.481670688833842,18.21880805783156,9.715754811356708,2.607206018959604,6.576352003144055,0.4774884479801829,4.6382997094131095,26.2793564214939,27.6584160037157,-14.69607469512195,6.844242616142818,-2.191100045787545,1.5941890698587031,-13.334804894179896,15.24433181760768,-19.04368836291913,31.01587444214814,37.58130410039836,42.37358852247881,1577396021.0,-27.68612111614855,-51.13154547418664,7.793059
59140,1577396021.82,-1.380520035311071,1.868528407845846,10.474223497046491,-0.6300254075957501,-0.3470424503977705,12.36108798589939,-0.452328928282202,10.828740528236947,7.028324961294779,21.78936469845656,8.769709889481707,1.935819300209604,9.170346143769056,6.153757979230183,-0.2750303687118902,29.9109482183689,41.2082206912157,11.85421827362805,4.535341492624757,-3.6518334096459095,0.8856605943659495,-11.716713726088727,15.24433181760768,-25.84500563539025,30.92002875370653,37.91676400994399,42.46943421092042,1577396021.0,-27.68612111614855,-51.13154547418664,7.793059
59141,1577396021.83,-0.6694421422446646,-0.5927108987947792,8.674980949439071,0.0642930738495613,2.7486602961842603,9.689158933165016,-5.642958127500952,-25.132168407309926,13.329863730826029,8.621029737519056,3.535945241044208,0.8219276986471038,7.888607862519055,12.196238447980184,4.0279481469131095,21.5491318121189,49.2648613162157,-9.11135789824695,4.700263001447476,-2.9214667277167274,1.2399248321123264,-11.54334681522182,15.091888499431604,-20.0638859537898,31.135681552700152,37.725072633060776,42.61320274358283,1577396021.0,-27.68612111614855,-51.13154547418664,7.793059
59142,1577396021.84,1.463791536954554,2.093583363900533,5.357814549292588,1.3954691968964363,-1.3478187443430834,5.499306027891578,3.990112252137719,8.1388549630514,2.831289451040873,22.06402290158156,16.551692311356707,3.126004847084604,10.940365675019056,5.421336104230184,2.181634670350609,23.3801864996189,68.2315361209032,-7.90591356230945,5.524870545561069,-3.6518334096459095,0.5313963566195653,-11.630030270655274,15.472996794871795,-50.159714884474496,31.063797286368946,37.91676400994399,42.397549944589215,1577396021.0,-27.68612111614855,-51.13154547418664,7.793059
59143,1577396021.85,0.1637400354897103,3.03450461634194,11.723996763648056,0.2941364332245613,0.5555715754811348,10.498399094297827,-9.054695493223608,-12.988777586997427,11.323522739615091,18.005185010956556,-2.765934641768293,-2.153536168540396,6.576352003144055,3.346140791730183,2.441034084413109,24.7839950933689,69.8947441287157,-6.425811023246951,6.679321107320097,-4.199608421092795,1.062792713239138,-10.792090201465204,17.0736516357206,-21.764215271907577,31.01587444214814,37.91676400994399,42.51735705514122,1577396021.0,-27.68612111614855,-51.13154547418664,7.793059
59144,1577396021.86,0.525264486173304,-2.663695334829935,7.977071165503525,3.1767552320526864,-0.3398598454173017,10.091384812071263,1.9370843285537345,5.9302039315572594,8.208666379751811,10.894589307831556,4.497248951981708,-0.5055869497903963,5.111508253144055,16.621287276105182,0.8236024437881098,30.5518173589939,66.8735038943407,-6.608916491996951,6.019635072029224,-3.834425080128205,1.7713211887318916,-20.21169235856736,20.884734590122523,-20.74401768103691,30.92002875370653,37.772995477281576,42.2777428340372,1577396021.0,-27.68612111614855,-51.13154547418664,7.793059
59145,1577396021.87,-1.2117288182700552,0.957534676156393,8.392465153540634,-0.3235675950957506,-0.444007617634099,6.786189420225562,-2.783084244444312,0.1386301156392913,15.96587975865806,9.094052198456556,12.065608326981708,0.2420937142721037,6.698422315644056,5.238230635480183,0.9761903344131098,22.1747421636814,43.3291923709032,-6.7767631716844505,6.019635072029224,-3.834425080128205,1.7713211887318916,-19.98053647741148,20.274961317418214,-72.09396308819387,31.063797286368946,37.653188366729566,42.325665678258005,1577396021.0,-27.68612111614855,-51.13154547418664,7.793059
59146,1577396021.88,-1.141099869295446,1.3848996724942837,9.0400967026129,-3.2325226121855937,3.981674151164729,16.33306854009861,-2.599927817442359,8.199907105385385,12.963550876822122,8.697323682831556,8.067805592606707,-0.4750693716653963,5.172543409394055,8.259470869855184,1.6170594750381098,20.0537704839939,8.9816581912157,-6.334258288871951,6.184556580851942,-3.286650068681319,0.5313963566195653,-20.905160002035004,20.57984795377037,-84.67640004226544,31.01587444214814,37.772995477281576,42.2777428340372,1577396021.0,-27.68612111614855,-51.13154547418664,7.793059
59147,1577396021.89,-0.6574711339438833,0.956337575326314,8.736033091773056,-1.9444421190215315,0.1677109065358223,12.578960336973608,-1.975041184141577,-4.130231444419302,15.503798838247905,7.690243604706555,4.802424733231708,0.4709755502096037,11.123471143769056,14.851267744855184,1.4644715844131098,6.046202124618903,-3.8967597775342986,-4.625273913871951,6.514399598497378,-2.921466727716725,1.2399248321123264,-21.020737942612943,20.57984795377037,-92.15784904198368,31.01587444214814,37.772995477281576,42.61320274358283,1577396021.0,-27.68612111614855,-51.13154547418664,7.793059
59148,1577396021.9,-0.1331409703696646,-0.87283249303306,12.375219615210556,0.8807158399628425,-1.608786725300114,7.613386093809546,6.967302016542016,3.971746973549447,10.090508884634623,0.7322357922065549,6.328303639481708,-0.5971396841653963,9.200863721894056,13.874705244855184,2.715692287538109,13.584043921493905,-12.1975410275343,-14.32986375762195,6.019635072029224,-3.1040583981990206,0.3542642377463768,-11.7745026963777,19.970074681066063,-68.35323858833475,30.92002875370653,37.62922694461916,42.46943421092042,1577396021.0,-27.68612111614855,-51.13154547418664,7.793059
59149,1577396021.91,-0.385729245516149,-0.9937396768709508,7.664627848853135,1.4457474317597176,-0.9934768986399578,11.274120432188452,-2.0061658057236085,-4.345709593833365,10.503508671011575,10.543637159394056,11.394221608231708,0.7303749642721038,6.851010206269055,2.857859541730183,0.9914491234756098,1.8042587652439028,-13.1435859494093,2.5616157345655486,6.019635072029224,-3.1040583981990206,0.3542642377463768,-11.7745026963777,21.18962122647468,-69.71350204282896,31.039835864258546,37.74903405517118,42.46943421092042,1577396021.0,-27.68612111614855,-51.13154547418664,7.793059
59150,1577396021.92,-1.4643170934165397,-0.2551284647127476,12.791810704077744,-3.7592469774199686,-0.8306711857493329,11.712259335997048,5.018421865174828,17.266748792397102,3.4896949075838424,4.546933057831555,-0.2940108136432927,-0.0478232779153963,9.445004346894056,7.099802901105183,2.166375881288109,9.586241187118905,-3.3474433712842986,2.1191108517530486,5.689792054383787,-3.834425080128205,1.4170569509855149,-11.7745026963777,21.18962122647468,-69.71350204282896,30.92002875370653,37.725072633060776,42.37358852247881,1577396021.0,-27.68612111614855,-51.13154547418664,7.793059
59151,1577396021.93,-0.8729492833579459,1.3561692525724085,9.25796905368712,-2.1479492601348125,-1.4316158024485517,8.08983222418064,-0.739633127500952,8.992387854897103,2.9964893655916547,11.352352979706556,11.302668873856708,0.4709755502096037,6.912045362519055,7.496531416730183,1.4034364281631098,20.8167099371189,24.5456230349657,43.19577100800305,5.854713563206506,-4.0170167506105,1.2399248321123264,-11.7745026963777,20.57984795377037,-69.71350204282896,30.872105909485725,37.725072633060776,42.325665678258005,1577396021.0,-27.68612111614855,-51.13154547418664,7.793059
59152,1577396021.94,0.0188908350502572,3.773115828500143,8.6953316635504,0.2654060133026863,4.929778008586604,6.219960727598608,-9.535930026915011,-28.95810266023961,18.793431919302595,20.61443794064405,-6.473820383955792,-0.5513633169778963,4.592709425019055,9.541209151105184,0.1827333031631097,-0.7592177972560974,19.4491874880907,-2.2143852419969514,5.195027527915633,-3.286650068681318,2.125585426478276,-13.392593864468866,20.274961317418214,-66.99297513384053,30.99191302003773,37.772995477281576,42.46943421092042,1577396021.0,-27.68612111614855,-51.13154547418664,7.793059
59153,1577396021.95,1.521252376798304,-2.6660895364900914,8.491824522437119,-2.522641819949265,1.393542156535823,8.828443436338842,-1.0329228308700935,-1.7551833975443023,7.296475547232279,4.791073682831555,5.351741139481708,2.332547815834604,6.637387159394056,7.664378096417683,2.334222560975609,10.730650366806405,25.5221855349657,-0.978423327934451,5.524870545561069,-4.0170167506105,1.5941890698587031,-13.479277319902325,16.69254334028041,-17.51339197661313,31.01587444214814,37.772995477281576,42.493395633030815,1577396021.0,-27.68612111614855,-51.13154547418664,7.793059
59154,1577396021.96,-0.5210016393149771,1.138296901498189,6.107199668921494,-3.974725126834031,-0.4045032902415204,4.785833933165015,-0.3805028784775146,-6.330502770102896,5.201549094595561,6.988339307831555,13.835627858231708,3.034452112709604,4.562191846894055,6.611521651105183,4.1195008812881095,12.699034155868905,28.5129081912157,-17.90042039824695,6.514399598497378,-2.191100045787545,1.2399248321123264,-11.7745026963777,17.53098159024883,-9.861910045083125,30.872105909485725,37.58130410039836,42.37358852247881,1577396021.0,-27.68612111614855,-51.13154547418664,7.793059
59155,1577396021.97,0.0176937342201781,0.6977637960294389,11.38880853122618,3.468847834591749,2.839639959270198,10.493610690977516,-5.54240165777439,15.157457129799448,6.393861521353373,1.6477631359565548,16.795832936356707,1.3254677377096038,0.5949066906440549,6.825144697980183,4.2415711937881095,24.6924423589939,20.2121269412157,-10.69827196074695,5.524870545561069,-2.921466727716725,1.9484533076050947,-11.312190934065937,15.091888499431604,-14.622832135812905,30.872105909485725,37.58130410039836,42.37358852247881,1577396021.0,-27.68612111614855,-51.13154547418664,7.793059
59156,1577396021.98,0.9250961634193978,-0.1473893900057168,8.8485605698004,1.3356141553925305,-0.7420857243235516,10.357141196348609,-8.939773813536107,-17.55212595125524,17.332968906607277,2.9295014172065548,1.2776444597942074,1.1728798470846038,5.019955518769055,8.778269697980184,0.7625672875381098,4.794981421493903,19.4186699099657,-2.8247368044969514,5.030106019092914,-2.556283386752135,0.5313963566195652,-20.96294897232397,15.85410509031199,-13.602634544942235,31.11172013058975,37.725072633060776,42.37358852247881,1577396021.0,-27.68612111614855,-51.13154547418664,7.793059
59157,1577396021.99,1.1908525476967415,-0.614258713736185,11.27388685153868,-1.386593132205125,-0.1842367375071454,8.42861175909275,-0.4487376257919685,8.342362104164682,8.594132847036967,-3.326602098418445,10.204036061356708,1.6001259408346038,3.768734815644055,9.251292158917684,5.2333924828506095,7.205870093368903,-1.180695324409299,3.385590343940549,4.700263001447476,-2.37369171626984,0.7085284754927537,-16.28204237891738,19.970074681066063,-11.902305226824456,31.111720130589752,37.86884116572319,42.54131847725162,1577396021.0,-27.68612111614855,-51.13154547418664,7.793059
59158,1577396022.0,-1.6917662511313831,0.8078970723966264,12.629004991187118,0.1385133253144051,1.4557913996998846,11.199900180723608,-5.250309055235328,-15.490718321860708,16.904406809439312,9.887509229706556,18.626887623856707,2.393582972084604,-4.867739793730945,16.224558760480182,-0.7022764624618902,-10.799501000381095,-17.5686347775343,13.04440382050305,7.339007142610972,-3.1040583981990206,1.4170569509855149,-20.905160002035004,15.091888499431604,-22.784412862778247,31.111720130589752,37.772995477281576,42.2777428340372,1577396022.0,-27.68615842374692,-51.13160982375426,7.4816704
59159,1577396022.01,-1.4260098668540395,0.2261060689786576,11.965811131323838,2.685943891720655,1.4031189631764471,8.532759531309546,6.105389418885766,1.979771192299447,9.075367380728371,-13.488955614043444,2.513606373856707,0.9592568002096036,-4.135317918730945,20.985300947980186,4.3941590844131095,-6.618592797256097,-27.8835761837843,4.499481945503049,6.019635072029224,-2.7388750572344303,0.3542642377463768,-21.020737942612943,18.14075486295314,-26.185071499013805,31.01587444214814,37.62922694461916,42.18189714559559,1577396022.0,-27.68615842374692,-51.13160982375426,7.4816704
59160,1577396022.02,-2.1837746922934924,3.081191548714987,7.084033946265244,-0.94965132922661,5.50079510453387,10.019558762266575,-4.503318137266577,-1.3158473929056305,11.985519498648294,12.328915479706556,9.898860280106708,3.049710901772104,-2.166934129668445,5.909617354230184,3.7838075219131095,-14.3242812738186,-40.4568183712843,19.60568311737805,5.524870545561068,-3.6518334096459095,2.656981783097852,-12.092342032967036,17.75964656751295,-81.78584020146519,30.94399017581693,37.772995477281576,42.42151136669962,1577396022.0,-27.68615842374692,-51.13160982375426,7.4816704
59161,1577396022.03,-3.377284219881383,-0.7243919901033725,10.912362400855088,1.3571619703339364,-2.2073371403391766,11.489598581602516,5.020816066834985,0.0931402840963221,10.215007370962748,-2.533145067168445,4.588801686356708,0.6540810189596037,0.0150727062690548,8.961375166730184,3.417596584413109,-4.970643578506097,-48.3913886837843,-11.52224657012195,5.854713563206506,-3.6518334096459095,2.3027175453514714,-12.467970339845342,17.835868226600986,-83.99626831501831,31.01587444214814,37.86884116572318,42.46943421092042,1577396022.0,-27.68615842374692,-51.13160982375426,7.4816704
59162,1577396022.04,-0.3677727330649771,0.5110160665372514,11.44148096774962,-2.006691362185594,0.538812163860041,13.297220835020484,5.717528749940453,5.827253260170541,5.237462119497905,-9.887881395293444,5.534846608231708,4.865506800209603,3.5245941906440548,2.125437666730183,3.9363954125381095,0.8582138433689026,-31.1184394650343,13.16647413300305,5.524870545561069,-3.286650068681319,1.2399248321123264,-11.312190934065937,17.53098159024883,-80.59560967878276,30.92002875370653,37.62922694461916,42.37358852247881,1577396022.0,-27.68615842374692,-51.13160982375426,7.4816704
59163,1577396022.05,-1.2823577672446649,0.3769407735685013,11.819764830054304,-0.1607618822051251,-2.535342767780583,8.858370957090795,-0.5169723731064209,-6.653719994223989,4.744256577505717,-10.223574754668444,1.1403153582317074,1.4475380502096038,4.531674268769055,2.644236494855183,3.478631740663109,-5.489442406631097,-2.8591621212842986,8.03952100800305,4.865184510270197,-3.286650068681319,1.2399248321123264,-11.312190934065937,15.091888499431604,-24.14467631727247,31.063797286368946,37.58130410039836,42.37358852247881,1577396022.0,-27.68615842374692,-51.13160982375426,7.4816704
59164,1577396022.06,-1.25961285147318,-0.0312706094881386,9.453096488989852,-0.7844514146758288,-0.0980454777415209,9.7885183020615,1.8520901696181875,-0.2815522757181304,11.877780423941264,8.224301221894056,11.684138600419208,2.790311487709604,-0.1985503406059451,6.077464033917684,2.791986232850609,1.9263290777439028,1.1844169802782014,6.8340766720655495,6.102095826440582,-3.3779459039224653,0.442830297182971,-15.790836131461134,16.997429976632567,-24.654775112707803,31.135681552700152,37.82091832150238,42.397549944589215,1577396022.0,-27.68615842374692,-51.13160982375426,7.4816704
59165,1577396022.07,-1.928792215486852,3.7479767110685023,10.349725010718368,0.8902926466034675,0.8309047663991035,12.576566135313453,-3.3612839453720467,-9.840402403891956,18.2403713358065,2.0750092297065548,4.710871998856708,2.668241175209604,-2.487368699980945,3.468211104230183,0.8236024437881098,-10.372254906631095,-18.2400214962843,1.2035835080030486,5.689792054383787,-3.1040583981990206,-0.3542642377463842,-11.369979904354906,18.902971453833526,-77.53501690617075,30.872105909485725,37.725072633060776,42.46943421092042,1577396022.0,-27.68615842374692,-51.13160982375426,7.4816704
59166,1577396022.08,-2.8721076695884142,0.4535552266935013,9.52611963962462,-2.0904884202910625,-0.4499931217844892,9.57663145513767,-2.7555509253525154,5.685995362221322,19.0065158670565,-2.319522020293445,4.863459889481708,0.3489052377096037,1.1442230968940548,5.970652510480183,2.807245021913109,-4.299256859756097,-53.9150703244093,-5.662871570121951,5.030106019092915,-2.7388750572344303,1.062792713239138,-11.369979904354906,18.902971453833526,-77.53501690617075,31.111720130589752,37.772995477281576,42.37358852247881,1577396022.0,-27.68615842374692,-51.13160982375426,7.4816704
59167,1577396022.09,-3.775918796297399,-0.0791546426912637,9.56442686618712,-3.3953283250762185,-3.1362873844798016,9.919002292540014,-0.1817841406845458,-4.824549925864614,19.142985361685405,-5.432314989043444,8.769709889481708,1.5696083627096038,5.843930128144055,-3.703419755144817,1.0982606469131098,-45.8336806878811,-77.4136054806593,-7.738066882621951,6.267017335263301,-3.19535423344017,1.682755129295305,-11.254401963776964,16.463878363016292,-25.84500563539025,30.99191302003774,37.91676400994399,42.46943421092042,1577396022.0,-27.68615842374692,-51.13160982375426,7.4816704
59168,1577396022.1,-2.4435455724204456,3.103936464486471,9.918768711890245,-3.275618242068406,0.1497543940846509,13.302009238340796,-4.445857297422828,3.696413782631478,14.884897709097514,1.4646576672065548,-3.284733469893293,0.8066689095846037,-0.3053618640434452,-2.955739091082317,0.1216981469131097,-37.3040176019436,-106.9088447384718,11.59481885956555,6.514399598497378,-4.38220009157509,1.9484533076050947,-20.06721993284493,17.759646567512945,-49.47958315722739,30.77626022104412,37.725072633060776,42.34962710036841,1577396022.0,-27.68615842374692,-51.13160982375426,7.4816704
59169,1577396022.11,-3.5664261510337267,-0.9087455179354038,11.103898533667588,-2.586088163943406,-3.167412006061833,9.23904902105564,-4.60387460699314,-10.05588055330602,6.920585886587748,-0.8546782702934451,-1.1179854230182926,0.0132118783346036,4.989437940644055,1.2099103229801829,-0.5802061499618902,-28.9879775628811,-78.7258613400343,15.15011671112805,6.514399598497378,-4.38220009157509,1.9484533076050947,-20.03832544770045,20.42740463559429,-99.97936390532546,31.20756581903136,37.725072633060776,42.46943421092042,1577396022.0,-27.68615842374692,-51.13160982375426,7.4816704
59170,1577396022.12,-2.2208848180259144,-2.955787937368997,9.923557115210556,-3.898110673709031,-0.6535002628977704,6.94061542730564,8.865903933045923,9.39700793546351,-4.7415704000333445,-11.810488817168444,-2.918522532393293,0.2878700814596037,3.2499359875190548,-7.792775223894817,1.1287782250381098,-4.726502953506097,-33.7734687619093,17.77462842987805,6.514399598497378,-4.38220009157509,1.9484533076050947,-20.558426180301183,21.49450786282683,-69.03337031558186,31.01587444214814,37.86884116572318,42.46943421092042,1577396022.0,-27.68615842374692,-51.13160982375426,7.4816704
59171,1577396022.13,-1.831827048250524,2.88127571009194,9.214873423804306,-1.946836320681688,3.1915876033131667,14.649944773008764,0.6322444237685781,-3.816591026938833,-0.1901930440763129,9.124569776581556,-6.214420969893292,0.0284706673971036,6.912045362519055,-21.40361506764481,-1.1905577124618902,-9.304139672256095,19.5102226443407,16.73703077362805,6.102095826440582,-3.743129244887057,0.442830297182971,-21.020737942612943,21.18962122647468,-100.319429768949,30.89606733159613,37.725072633060776,42.46943421092042,1577396022.0,-27.68615842374692,-51.13160982375426,7.4816704
59172,1577396022.14,-2.3621427159751334,-1.1457714822908724,5.704973790015244,-1.7828335069609846,-0.3123265263255053,8.514803018858375,-0.7132969092392343,2.2287681649556976,11.946015171255716,4.669003370331555,-1.1485030011432926,0.4404579720846037,-0.0764800281059447,7.084544112042684,-1.3584043921493905,10.9747909918064,19.6475517459032,-9.38601610137195,5.524870545561069,-2.921466727716725,0.5313963566195653,-21.020737942612943,20.88473459012252,-85.01646590588899,31.111720130589752,37.82091832150238,42.325665678258005,1577396022.0,-27.68615842374692,-51.13160982375426,7.4816704
59173,1577396022.15,-1.7851401158774771,2.213293446908346,11.889196678198838,-4.3338553758574685,0.1868645198170723,16.967531980040015,2.7104114647842037,0.5671922128072596,14.244448765005716,1.7393158703315548,1.7506669207317074,-0.3835166372903963,2.3344086437690548,-17.314259598894818,-1.1905577124618902,0.1257919683689026,-0.8450019650342988,2.2716987423780486,6.679321107320097,-3.1040583981990206,0.7085284754927537,-11.7745026963777,20.274961317418214,-69.71350204282896,31.111720130589752,37.725072633060776,42.46943421092042,1577396022.0,-27.68615842374692,-51.13160982375426,7.4816704
59174,1577396022.16,-2.3741137242759147,-1.6222176126619663,10.33057139743712,-3.5294036180449684,0.3041804011647285,14.408130405332985,-6.559937363340796,-17.08046822420446,11.74011382848228,-5.279727098418445,-6.977360423018292,-0.3224814810403963,2.7006195812690548,1.6066388386051829,-0.9158995093368902,-12.661073266006095,-6.521271496284299,-15.52004930449695,6.679321107320097,-3.1040583981990206,0.7085284754927537,-11.7745026963777,20.274961317418214,-69.71350204282896,30.92002875370653,37.725072633060776,42.18189714559559,1577396022.0,-27.68615842374692,-51.13160982375426,7.4816704
59175,1577396022.17,-1.2703867589438833,-0.3712472452303262,9.687728251685163,0.6508724805878431,-1.1155811833079272,8.190388693907202,4.350439601991234,18.344139539467417,8.804822593130718,3.951840284394056,-6.809513743330792,0.5320107064596037,5.843930128144055,1.4235333698551829,-1.5567686499618902,9.799864233993905,-15.5086982540968,-1.2225639529344503,6.102095826440584,-3.012762562957876,0.97422665380254,-16.802143111518113,21.342064544650757,-99.97936390532544,31.135681552700152,37.67714978883997,42.804894120466045,1577396022.0,-27.68615842374692,-51.13160982375426,7.4816704
59176,1577396022.18,-2.505794815584508,-1.73474509068931,9.004183677710557,-2.023450773806688,0.3233340144459785,11.92773748541111,-4.436280490782202,-20.6406460928568,9.82475250035728,-3.051943895293445,-6.031315501143292,0.7456337533346037,1.3273285656440548,-13.743702958269816,-0.1529600562118902,-9.914491234756095,-6.460236340034299,4.224823742378049,6.184556580851942,-4.0170167506105,0.8856605943659495,-10.849879171754177,16.311435044840216,-80.59560967878276,30.92002875370653,37.725072633060776,41.702668703387545,1577396022.0,-27.68615842374692,-51.13160982375426,7.4816704
59177,1577396022.19,-0.7508449986899771,1.157450514779439,10.24677433933165,-4.707350834841844,1.6162029109303535,12.037870761778295,-2.437122104551733,4.587056800209603,12.934820456900248,3.8755463390815534,-4.658024485518292,1.2949501595846038,4.470639112519055,-7.731740067644817,1.861200100038109,5.252745093368903,-10.6411445431593,-0.5359184451219513,5.524870545561069,-3.286650068681319,0.5313963566195653,-13.161437983312986,17.226094953896677,-12.582436954071568,31.063797286368946,37.725072633060776,42.46943421092042,1577396022.0,-27.68615842374692,-51.13160982375426,7.4816704
59178,1577396022.2,-2.5967744786704454,0.1734336324552201,8.91320401462462,-4.029791765017625,-1.2376854679758953,10.895836569883764,3.857234059999047,6.229479139076791,9.053819565786966,5.554013135956555,-7.068913157393292,0.0132118783346036,6.973080518769055,1.3930157917301829,-1.4652159155868902,10.044004858993905,-8.5964668087843,20.36862257050305,5.524870545561069,-3.286650068681319,0.5313963566195653,-13.62374974562475,16.616321681192368,-11.902305226824456,31.063797286368946,37.772995477281576,43.04450834157007,1577396022.0,-27.68615842374692,-51.13160982375426,7.4816704
59179,1577396022.21,-2.092795029207555,1.5249604696134242,8.44633469089415,-2.5058824083281728,1.122997368938167,10.660007706358376,-1.469864633848609,-1.465484996665396,6.464490470327982,5.996518018769055,-5.848210032393292,1.7374550423971038,1.7698334484565548,-16.688649247332314,0.7625672875381098,3.360655249618901,-2.5082099728467986,-3.0688774294969514,5.854713563206506,-2.7388750572344307,0.1771321188731847,-12.179025488400493,17.0736516357206,-11.222173499577345,31.01587444214814,37.74903405517117,42.73300985413484,1577396022.0,-27.68615842374692,-51.13160982375426,7.4816704
59180,1577396022.22,-1.3302418004477896,-0.2263980447908726,9.839760057105089,-1.872616069216844,1.872382488567072,12.308415549375953,3.445431374452172,-5.3871873160013335,8.651593686880718,-7.202334520293445,-16.926090891768293,1.844266565834604,6.759457471894055,-6.785695145769817,-0.5191709937118902,1.3159775152439026,1.7489921755907012,6.391571789253049,6.019635072029224,-3.1040583981990206,2.125585426478283,-20.44284823972324,16.616321681192368,-13.942700408565791,31.01587444214814,37.91676400994399,42.51735705514122,1577396022.0,-27.68615842374692,-51.13160982375426,7.4816704
59181,1577396022.23,-1.217714322420446,1.4256011007169398,10.172554087866809,0.3061074415253426,-0.1938135441477704,7.946180124571265,-1.7428036231064208,-2.8253915396341456,7.334782773794779,7.629208448456555,-17.353336985518293,1.0508095345846038,4.318051221894055,-5.290333817644817,-0.2139952124618902,1.6821884527439026,6.357146472465701,0.5016792111280487,7.009164124965536,-3.4692417391636146,2.47984966422466,-20.44284823972324,16.616321681192368,-15.302963863060016,31.111720130589752,37.772995477281576,42.325665678258005,1577396022.0,-27.68615842374692,-51.13160982375426,7.4816704
59182,1577396022.24,-1.3446070104087269,1.817053072152487,7.959114653052353,-3.392934123416062,1.7143651789967596,12.344328574278297,2.212417519471703,2.592686817299447,5.682783628286967,2.3954438000190548,-13.569157298018292,2.988675745522104,1.5409516125190548,-18.84013850514481,2.654657131288109,5.741026343368903,13.2541191287157,1.1730659298780486,6.844242616142816,-3.834425080128205,1.9484533076050876,-20.44284823972324,16.616321681192368,-15.302963863060016,30.99191302003774,37.91676400994399,42.325665678258005,1577396022.0,-27.68615842374692,-51.13160982375426,7.4816704
59183,1577396022.25,-1.3326360021079455,2.3162441182950646,10.66097122653868,-2.5525693407012184,2.2434837458912917,9.355167801573218,0.0181316979385005,2.311368122231088,7.942909995474467,2.0444916515815548,-14.637272532393292,1.874784143959604,3.768734815644055,-9.333912919207316,-0.5191709937118902,7.770445288681403,14.3069755740282,-0.9173881716844514,6.184556580851942,-4.0170167506105,1.5941890698587031,-20.93405448717949,16.082770067576103,-53.22030765708651,31.01587444214814,37.67714978883997,42.2777428340372,1577396022.0,-27.68615842374692,-51.13160982375426,7.4816704
59184,1577396022.26,-0.7245087804282584,1.705722694955221,8.10156965183165,1.8623385206269047,-2.293528400104801,6.188836106016578,-3.940680747129859,3.540790674721322,7.976428818716655,1.5562104015815548,-7.129948313643292,2.057889612709604,4.287533643769055,-6.968800614519817,-1.4652159155868902,6.137754858993903,17.2824394412157,4.072235851753049,6.514399598497378,-3.286650068681319,0.8856605943659495,-11.369979904354906,15.85410509031199,-87.05686108763032,30.92002875370653,37.91676400994399,42.46943421092042,1577396022.0,-27.68615842374692,-51.13160982375426,7.4816704
59185,1577396022.27,1.463791536954554,-4.880726072134622,3.440059019507431,-0.8263499437285626,0.8811830012623847,1.9223687476181397,4.2546715355849845,1.1777136361471034,2.27822886754478,-0.9157134265434452,-16.010563548018293,1.2949501595846038,-3.433413621855945,-12.736622880144816,1.2813661156631098,7.694151343368903,22.8976738162157,3.2482612423780486,6.019635072029224,-2.37369171626984,1.4170569509855149,-11.7745026963777,15.091888499431604,-80.59560967878276,30.92002875370653,37.91676400994399,42.46943421092042,1577396022.0,-27.68615842374692,-51.13160982375426,7.4816704
59186,1577396022.28,0.4103428064858035,4.071193935189596,7.237262852515244,-2.7656532884551246,3.435796172649104,10.201518088438451,-9.485651792051732,3.830489075600228,4.272598850454936,12.496762159394056,-10.669987376143292,2.363065393959604,1.8461273937690548,-13.682667802019816,1.983270412538109,3.696348608993903,26.0409843630907,5.750702648628049,5.937174317617865,-3.743129244887057,1.8598872481684927,-11.7745026963777,15.701661772135914,-80.59560967878276,31.11172013058975,37.772995477281576,42.37358852247881,1577396022.0,-27.68615842374692,-51.13160982375426,7.4816704
59187,1577396022.29,0.3193631433998665,-0.4538472025057163,4.182261534155868,0.6424927747772958,0.1868645198170723,3.587536002256812,2.0328523949599844,-4.243956023276724,9.506323679556498,9.155087354706556,-19.123356516768293,1.1423622689596038,0.8695648937690548,-2.909962723894817,-1.3889219702743902,2.078916968368903,19.4186699099657,-11.76638719512195,6.019635072029224,-2.7388750572344303,1.7713211887318916,-11.485557844932847,16.463878363016295,-24.824808044519585,31.01587444214814,37.74903405517118,42.325665678258005,1577396022.0,-27.68615842374692,-51.13160982375426,7.4816704
59188,1577396022.3,-0.2169380284751334,0.0321757345060014,10.447887278784776,0.7801593702362801,0.0144820002858223,9.94773271246189,-0.241639182188452,7.263774256264291,5.785734299673686,-7.232852098418445,-8.899967844893293,0.0132118783346036,-2.029605028105945,-15.208546708269816,2.502069240663109,10.532286108993905,17.7707206912157,3.7670600705030486,6.184556580851942,-3.286650068681319,1.2399248321123264,-20.84737103174604,17.68342490842491,-22.444346999154693,31.111720130589752,37.725072633060776,42.37358852247881,1577396022.0,-27.68615842374692,-51.13160982375426,7.4816704
59189,1577396022.31,1.5954726282631475,-0.978177366079935,7.455135203589463,1.0339447462128426,-0.0741034611399579,7.646904917051733,-5.247914853575171,-4.633013793052114,8.646805283560404,-6.744570848418445,-6.336491282393292,1.996854456459604,-5.783267137480945,-3.764454911394817,-0.5191709937118902,-2.895448266006097,31.1069023318407,11.42697217987805,6.844242616142818,-3.6518334096459095,-0.53139635661958,-21.020737942612943,15.091888499431604,-79.91547795153564,30.92002875370653,37.772995477281576,42.2777428340372,1577396022.0,-27.68615842374692,-51.13160982375426,7.4816704
59190,1577396022.32,1.1309975061928352,2.3904643697599086,11.86764886325743,-0.2649096544219225,1.7766144221608222,6.170879593565406,-1.7942789587997805,-5.084320805991568,5.196760691275248,-5.645938035918444,-6.351750071455792,1.1118446908346038,-0.5037261218559452,-6.022755692644816,1.5865418969131098,4.764463843368903,38.3548271365282,-4.411650866996951,6.844242616142818,-3.6518334096459095,-0.53139635661958,-15.472996794871795,17.835868226600986,-76.85488517892364,31.23152724114176,37.74903405517118,42.397549944589215,1577396022.0,-27.68615842374692,-51.13160982375426,7.4816704
59191,1577396022.33,0.8963657434975227,-0.8584672830721225,10.48380030368712,1.175202644162061,1.1277857722584783,-0.0480592186904531,0.9291254296279532,1.836119092690072,11.021853330435404,-13.458438035918444,-10.273258860518292,-0.2004111685403963,-3.189272996855945,-2.177540848894817,-2.5943663062118905,2.902891577743903,37.3630058474657,-4.960967273246951,5.524870545561069,-4.747383432539684,1.9484533076050947,-21.020737942612943,19.970074681066063,-19.38375422654269,30.728337376823312,37.772995477281576,42.2777428340372,1577396022.0,-27.68615842374692,-51.13160982375426,7.4816704
59192,1577396022.34,2.1078317835365854,2.6418555440763147,6.791941343726181,0.1026003004120613,0.9769510676686348,9.48804599371189,6.37114580316311,1.9438581673971032,9.764897458853373,1.5256928234565548,1.0792802019817074,-0.0478232779153963,-3.341860887480945,-3.550831864519817,2.471551662538109,1.2854599371189026,25.1864921755907,-10.88137742949695,5.689792054383787,-5.295158443986569,1.062792713239138,-20.674004120879125,19.970074681066063,-20.74401768103691,31.01587444214814,37.725072633060776,42.46943421092042,1577396022.0,-27.68615842374692,-51.13160982375426,7.4816704
59193,1577396022.35,1.4877335535561165,2.1438615987638148,11.202060801733994,4.646795051388624,-0.1938135441477704,8.932591208555639,-5.6932363623642335,2.585504212318978,7.440127646841654,0.8848236828315549,6.053645436356708,-0.3224814810403963,-2.731509324980945,5.451853682355183,-3.8455870093368905,5.466368140243903,26.0104667849657,-1.4514457888719514,5.854713563206506,-3.6518334096459095,0.1771321188731884,-20.905160002035004,22.40916777188329,-24.824808044519585,31.20756581903136,37.772995477281576,42.51735705514122,1577396022.0,-27.68615842374692,-51.13160982375426,7.4816704
59194,1577396022.36,1.729547921231898,-0.5998935037752475,6.066498240698838,2.538700489621046,-0.6894132878001141,5.766259512998999,2.6804839440322508,-4.569567449057974,5.928189298452983,-9.720034715605944,3.062922780106708,-0.3224814810403963,-7.507510301543444,-0.6211443645198162,0.3658387719131097,-0.8660293206935974,35.1962578005907,-4.091216296684451,6.679321107320097,-3.4692417391636146,1.7713211887318916,-20.471742724867728,21.265842885562712,-47.77925383910961,31.11172013058975,37.79695689939198,42.46943421092042,1577396022.0,-27.68615842374692,-51.13160982375426,7.4816704
59195,1577396022.37,1.3249278406654914,1.4782735372403772,8.879685191382432,2.10175868664253,4.992027251750667,10.802462705137671,-0.6271056494736083,11.556577832924448,11.938832566275249,-8.728213426543444,9.013850514481708,-1.1159385122903962,-11.734194871855944,6.245310713605183,-4.0286924780868905,1.4685654058689026,31.8698417849657,1.3561713986280486,7.339007142610972,-4.199608421092795,1.7713211887318916,-10.849879171754177,20.57984795377037,-69.03337031558186,31.063797286368946,37.725072633060776,42.37358852247881,1577396022.0,-27.68615842374692,-51.13160982375426,7.4816704
59196,1577396022.38,1.2938032190834603,0.5062276632169389,4.419287498511337,1.1560490308808111,2.5858545832936355,8.896678183653295,-2.262345383360327,-8.068693175376334,15.527740854849467,4.119686964081555,3.032405201981707,-0.0783408560403963,-8.621401903105944,11.830027510480184,-2.4722959937118905,-2.681825219131097,20.7614433474657,-6.059600085746951,5.359949036738351,-3.834425080128205,0.3542642377463768,-10.849879171754177,-4.420856227106227,-88.7571904057481,31.111720130589752,37.772995477281576,42.2777428340372,1577396022.0,-27.68615842374692,-51.13160982375426,7.4816704
59197,1577396022.39,0.946643978360804,-1.7706581155916543,11.554008445776962,-0.93648322009575,-3.9120087223704263,8.863159360411107,-3.3325535254501717,-6.502885289634146,11.48393425084556,-17.074771043730944,5.183894459794208,-1.878877965415396,-1.1751128406059452,1.3624982136051829,1.0372254906631098,-8.297059594131097,1.9931328005907007,-6.608916491996951,6.267017335263301,-2.6475792219932828,1.5056230104221164,-10.792090201465204,23.78115763546798,-69.37343617920541,31.08775870847935,37.91676400994399,42.2777428340372,1577396022.0,-27.68615842374692,-51.13160982375426,7.4816704
59198,1577396022.4,0.7383484339272103,-3.5423673441072787,11.302617271460557,2.032326838497999,-2.161847308796208,9.05349839239353,-2.416771390440406,0.8904094369283541,15.785117533316264,-17.212100145293444,10.387141530106708,-0.8717978872903963,-10.254092332793444,3.330882002667683,-1.2363340796493902,-8.007142601943597,-12.7468574337843,2.3785102658155486,5.854713563206506,-2.556283386752136,1.9484533076050947,-10.849879171754177,23.933600953644056,-69.71350204282896,31.111720130589752,37.82091832150238,42.46943421092042,1577396022.0,-27.68615842374692,-51.13160982375426,7.4816704
59199,1577396022.41,-1.3757316319907584,1.0712592550138138,15.312905052222275,1.4649010450409676,1.7383071955983225,15.224553171446264,3.4119125512099844,-2.9977740591653954,6.384284714712749,-15.045352098418444,8.342463795731707,-2.489229527915396,-10.086245653105944,4.994090010480183,-2.7469541968368905,-16.1400771722561,-19.0639961056593,-0.6885063357469513,6.844242616142818,-1.825916704822951,1.9484533076050947,-11.7745026963777,22.40916777188329,-69.71350204282896,31.063797286368946,37.725072633060776,42.37358852247881,1577396022.0,-27.68615842374692,-51.13160982375426,7.4816704
59200,1577396022.42,-0.1618713902915396,2.483838234506002,10.306629380835556,-2.9691604295684058,0.8763945979420722,10.488822287657202,-4.64218183355564,9.272509449135384,7.667576804556498,-3.540225145293445,14.232356373856708,-0.5971396841653963,-5.874819871855945,-1.6282244426448171,-1.7703916968368902,-12.111756859756095,-15.1577461056593,12.34249952362805,6.34947808967466,-2.7388750572344303,2.125585426478283,-13.103649013024016,20.12251799924213,-76.17475345167654,30.77626022104412,37.91676400994399,42.61320274358283,1577396022.0,-27.68615842374692,-51.13160982375426,7.4816704
59201,1577396022.43,-1.033360794588415,2.5760149984220178,10.02411358493712,-1.0921063280059065,3.3879121394459792,9.598179270079076,0.2443837548232657,-6.177273863852896,8.443298142447123,0.3812836437690548,-1.8046309308307928,-4.427095738852897,-2.212710496855945,-1.1094256145198171,-1.9229795874618905,-15.194032250381095,-19.8879707150343,-0.1697075076219513,5.112566773504272,-3.19535423344017,2.0370193670416814,-13.508171805046809,15.701661772135914,-24.824808044519585,30.967951597927332,37.772995477281576,42.46943421092042,1577396022.0,-27.68615842374692,-51.13160982375426,7.4816704
59202,1577396022.44,-0.2456684483970084,-1.9957130716463407,5.7552520248785255,0.7262898328827645,0.2443253596608227,9.517973514463844,-0.1542508215927494,1.5033250619283538,15.106361362661966,-4.852481004668445,7.152278248856708,-2.367159215415396,-7.431216356230944,5.909617354230183,-4.8526670874618905,-12.615296898818595,-39.1903388790968,-3.618193835746952,5.854713563206506,-3.6518334096459095,1.5941890698587031,-11.7745026963777,16.311435044840216,-24.824808044519585,31.01587444214814,37.74903405517118,42.2777428340372,1577396022.0,-27.68615842374692,-51.13160982375426,7.4816704
59203,1577396022.45,0.3887949915443978,0.0848481710294389,9.071221324194932,-3.735304960818406,-1.3837317692454263,11.621279672911108,-2.7699161353134527,-2.7296234732278952,12.056148447622904,-14.038272020293444,-6.702702219893292,-3.038545934165396,-2.548403856230945,-11.729542802019816,1.830682521913109,-27.8893447503811,-52.9385078244093,3.4008491330030486,6.184556580851942,-2.191100045787545,2.3027175453514714,-11.7745026963777,16.311435044840216,-24.824808044519585,30.92002875370653,37.725072633060776,42.46943421092042,1577396022.0,-27.68615842374692,-51.13160982375426,7.4816704
59204,1577396022.46,-1.1363114659751334,0.6259377462247514,9.5380906479254,1.06746356945503,-2.611957220905583,13.404959909727514,-3.3636781470322026,12.308357154213509,13.650686753286967,-0.6105376452934451,4.832942311356708,-2.428194371665396,-8.041567918730944,0.2943829792301829,-3.0521299780868905,-20.2294326410061,-62.8567207150343,9.01608350800305,5.524870545561069,-2.556283386752136,1.2399248321123264,-13.045860042735043,15.091888499431604,-13.942700408565791,31.20756581903136,37.91676400994399,42.37358852247881,1577396022.0,-27.68615842374692,-51.13160982375426,7.4816704
59205,1577396022.47,-2.7571859899009143,0.9120448446134244,16.004829332007432,-4.4068785264922345,0.974556866008479,15.870987619688451,3.71477906121975,-1.581603777182974,10.847076609244,-11.779971239043444,1.0335038347942074,-2.611299840415396,-3.692813035918445,-2.940480302019817,-2.3807432593368905,-19.0087295160061,-44.9429023556593,6.0863960080030495,5.772252808795146,-3.560537574404762,1.682755129295305,-20.385059269434272,19.20785809018568,-47.269155043674274,31.01587444214814,37.91676400994399,42.42151136669962,1577396022.0,-27.68615842374692,-51.13160982375426,7.4816704
59206,1577396022.48,-3.082797415682164,-1.17929030553306,10.773498704566023,-3.009861857791062,-1.9487633610423016,10.840769931700171,1.2475542504287342,17.07042425626429,8.06262007848228,-12.298770067168444,1.7201493426067074,-3.038545934165396,-3.128237840605945,3.590281416730183,-5.1578428687118905,-1.4611220941310974,-18.6977851681593,9.01608350800305,5.524870545561069,-3.6518334096459095,1.9484533076050947,-20.385059269434272,19.20785809018568,-74.8144899971823,31.111720130589752,37.725072633060776,42.18189714559559,1577396022.0,-27.68615842374692,-51.13160982375426,7.4816704
59207,1577396022.49,-1.0764564244712271,-4.552720444693216,7.225291844214462,-2.210198503298875,-0.9695348820383952,3.873643100645484,-3.880825705625953,-12.627253136313833,7.0067771463533735,-13.122744676543444,-4.871647532393292,-0.2614463247903963,-0.1680327624809451,-2.024952958269817,-1.0684873999618902,-13.149354516006095,2.6645195193407014,6.574677258003049,5.359949036738351,-3.1040583981990206,2.8341139019710444,-21.020737942612943,17.53098159024883,-79.91547795153564,31.063797286368946,37.58130410039836,42.46943421092042,1577396022.0,-27.68615842374692,-51.13160982375426,7.4816704
59208,1577396022.5,-1.7779575108970085,5.5460221578458455,10.730403074683212,-2.8566329515410622,3.332845501262385,9.636486496641576,-3.6509823462509527,-9.088623082602895,6.812846811880717,10.009579542206556,-4.261295969893292,-2.550264684165396,-3.463931199980945,-11.607472489519816,-0.0919248999618902,-2.925965844131097,9.9887382693407,-11.98001024199695,6.679321107320097,-3.4692417391636146,2.125585426478283,-12.23681445868946,15.396775135783756,-84.67640004226544,30.92002875370653,37.725072633060776,42.46943421092042,1577396022.0,-27.68615842374692,-51.13160982375426,7.4816704
59209,1577396022.51,0.0811400782143197,1.4495431173185018,4.317533927954697,-2.308360771365282,0.7890062373463697,6.148134677793921,-1.672174674131811,-0.7149027762064117,10.074946573843608,14.114193800019056,-10.914128001143292,-2.260347691977896,-3.555483934355945,-6.984059403582316,-2.1060850562118905,-1.7205215081935972,6.6165458865282005,-7.23452684355945,6.019635072029224,-3.1040583981990224,0.7085284754927574,-11.427768874643878,12.043022135910068,-51.00987954353339,30.80022164315452,37.79695689939198,42.493395633030815,1577396022.0,-27.68615842374692,-51.13160982375426,7.4816704
59210,1577396022.52,-3.2456031285727893,0.3099031270841264,11.422327354468369,-4.769600078005906,0.8285105647389472,16.335462741758764,4.221152712342797,-3.818985228598989,13.710541794790872,-3.051943895293445,-9.571354563643292,-2.275606481040396,-1.3582183093559452,-3.398243973894817,-2.0145323218368905,-10.189149437881095,-10.5801093869093,-12.62087938262195,5.854713563206506,-2.921466727716725,0.8856605943659495,-11.312190934065937,8.994155772388531,-23.46454459002536,30.872105909485725,37.725072633060776,42.2777428340372,1577396022.0,-27.68615842374692,-51.13160982375426,7.4816704
59211,1577396022.53,-2.38369053091654,-3.2909761697908726,11.846101048316024,1.809666084103468,-0.6223756413157391,10.199123886778295,-5.499306027891578,6.818452747475228,11.438444419302591,-14.648623582793444,-5.420963938643292,-0.2919639029153963,-6.729312059355945,5.329783369855183,-4.5474913062118905,-8.876893578506097,-9.2983711056593,-3.0383598513719514,5.854713563206506,-2.921466727716725,0.8856605943659495,-21.020737942612943,16.311435044840216,-77.87508276979432,30.92002875370653,37.62922694461916,42.37358852247881,1577396022.0,-27.68615842374692,-51.13160982375426,7.4816704
59212,1577396022.54,-3.616704385897008,-0.4598327066561074,17.575425621069932,-3.407299333377,-3.856942084186833,12.677122605040015,2.020881386659203,6.710713672768197,17.043270505728373,-24.780459520293448,-4.032414133955792,-0.7344687857278962,-0.7173491687309451,-14.689747880144816,0.0301454125381097,-3.078553734756097,-21.9631660275343,9.74850538300305,6.431938844086021,-2.6475792219932828,2.391283604788065,-20.789582061457065,16.921208317544526,-24.824808044519585,31.063797286368946,37.62922694461916,42.51735705514122,1577396022.0,-27.68615842374692,-51.13160982375426,7.4816704
59213,1577396022.55,-2.544102042147008,-0.6836905618807163,9.363313926733994,-2.953598118777391,3.9732944453541816,16.578474210264623,3.109046041200219,6.7597948068014,16.09396954747642,-14.618106004668444,-1.8809248761432928,1.4475380502096038,-2.578921434355945,-8.891408036394818,-2.0450498999618905,-6.069276391006096,-34.7805488400343,-0.9326469607469514,6.514399598497378,-3.6518334096459095,1.2399248321123264,-20.96294897232397,16.463878363016292,-80.2555438151592,31.111720130589752,37.79695689939198,42.325665678258005,1577396022.0,-27.68615842374692,-51.13160982375426,7.4816704
59214,1577396022.56,-1.4140388585532584,4.39441115931069,13.562743638648056,-0.3618748216582501,-1.7931402531321452,10.654022202207983,-0.8617374121689207,-0.6969462637552393,14.110373472036969,5.096249464081555,-15.217106516768292,-1.5431846060403962,4.958920362519055,-5.503956864519817,-1.3736631812118902,-14.858338891006095,-51.1684882931593,5.384491711128049,6.514399598497378,-3.6518334096459095,1.2399248321123264,-20.96294897232397,16.463878363016292,-80.2555438151592,30.92002875370653,37.58130410039836,42.46943421092042,1577396022.0,-27.68615842374692,-51.13160982375426,7.4816704
59215,1577396022.57,-2.8170410314048207,-3.0347965921541538,10.941092820776962,-0.5390457445098127,-5.372471735065739,6.603032993223609,-4.256715366270484,-13.094122460044302,6.515965806021342,-0.3358794421684451,-9.174626048018292,0.0437294564596036,4.165463331269055,-16.948048661394818,0.5489442406631098,-26.0888076410061,-46.5298164181593,-5.083037585746951,6.514399598497378,-3.6518334096459095,1.2399248321123264,-20.789582061457065,16.921208317544526,-69.71350204282896,31.01587444214814,37.772995477281576,42.46943421092042,1577396022.0,-27.68615842374692,-51.13160982375426,7.4816704
59216,1577396022.58,-1.0596970128501333,-1.0248642984529823,6.344225633276963,-0.8694455736113751,0.960191656047541,10.519946909239234,8.47804326410061,15.33941645597132,-1.1430853048185003,2.7006195812690548,-13.981144602705792,0.1200234017721038,-1.7244292468559452,-20.70171077076981,-0.0919248999618902,6.748106421493903,-21.3833320431593,4.926728039253049,6.431938844086021,-2.464987551510988,1.3284908915489206,-19.63380265567766,22.40916777188329,-25.504939771766697,31.01587444214814,37.58130410039836,42.325665678258005,1577396022.0,-27.68615842374692,-51.13160982375426,7.4816704
59217,1577396022.59,-1.390096841951696,1.198151943002095,7.5748452865972755,-1.2860366624785629,-0.2572598881419115,9.204333096983374,-3.1829159216904057,-12.190311333335318,6.883475760855326,11.413388135956556,-10.212223704268292,1.935819300209604,4.409603956269055,-9.501759598894816,-1.4652159155868902,-1.5221572503810974,20.1205742068407,8.81771925019055,6.184556580851942,-1.0955500228937742,1.5941890698587031,-19.80716956654457,-4.420856227106227,-62.912184770357854,31.111720130589752,37.74903405517118,42.493395633030815,1577396022.0,-27.68615842374692,-51.13160982375426,7.4816704
59218,1577396022.6,-2.196942801424352,-0.7818528299471226,8.716879478491807,-1.386593132205125,2.4134720637623848,10.977239426329078,17.528125539491235,24.53554503263148,4.770592795767436,-0.6715728015434451,-20.496647532393293,-1.817842809165396,1.9376801281440548,-12.370411942644816,-1.5262510718368902,22.5562118902439,30.3134453005907,-11.91897508574695,5.689792054383787,-3.1040583981990206,2.125585426478283,-20.674004120879125,19.970074681066063,-69.71350204282896,31.01587444214814,37.725072633060776,42.325665678258005,1577396022.0,-27.68615842374692,-51.13160982375426,7.4816704
59219,1577396022.61,0.209229867032679,0.2308944722989701,12.95940482028868,1.8360023023651864,-1.2712042912180828,13.845493015196263,-0.4212043067001708,7.907814502846322,3.140141465201029,6.103329542206555,-15.034001048018292,0.2573525033346037,7.308773878144055,-10.264699052019816,-1.0379698218368902,7.785704077743903,38.0649101443407,12.58664014862805,5.689792054383787,-3.1040583981990206,2.125585426478283,-21.020737942612943,19.970074681066063,-69.71350204282896,31.111720130589752,37.62922694461916,42.325665678258005,1577396022.0,-27.68615842374692,-51.13160982375426,7.4816704
59220,1577396022.62,-1.1662389867270864,-2.2255564310213414,10.962640635718367,-4.008243950076219,-2.2169139469798016,9.322846079161108,-17.003445004942357,-14.889773705161488,13.547736081900249,-3.433413621855945,-5.573551829268292,1.1576210580221038,8.254818800019056,-13.621632645769816,-1.6483213843368902,17.3987411871189,38.8278495974657,-11.40017625762195,5.689792054383788,-2.00850837530525,0.8856605943659458,-11.54334681522182,20.57984795377037,-102.35982495069037,31.135681552700152,37.91676400994399,42.94866265312847,1577396022.0,-27.68615842374692,-51.13160982375426,7.4816704
59221,1577396022.63,2.5603358973061168,0.5828421163419388,11.561191050757431,0.4473653394745613,0.457409307414729,10.099764517881813,6.278969039247094,11.851064637123663,6.40822673131431,9.551815870331556,-9.846012766768292,1.2949501595846038,5.325131300019055,-6.984059403582317,0.3048036156631094,28.3698105230564,61.0293876834032,-8.10427782012195,5.19502752791563,-2.921466727716725,2.3027175453514714,-11.196612993488,22.714054408235445,-68.35323858833475,31.111720130589752,37.725072633060776,42.42151136669962,1577396022.0,-27.68615842374692,-51.13160982375426,7.4816704
59222,1577396022.64,3.175645723966273,2.4958092428067835,9.751174595679307,5.33871933117378,3.4980454158131664,10.56064833746189,-8.846399948790014,-16.642329320395863,19.80617922154869,19.89727485470656,-12.897770579268292,0.0742470345846036,0.3202484875190549,2.125437666730183,0.7320497094131098,14.713194312118905,51.0043632693407,-15.79470750762195,6.34947808967466,-2.0085083753052464,0.3542642377463768,-10.849879171754177,22.40916777188329,-69.71350204282896,30.92002875370653,37.725072633060776,42.46943421092042,1577396022.0,-27.68615842374692,-51.13160982375426,7.4816704
59223,1577396022.65,2.124591195157679,1.09280706995522,7.589210496558213,1.45053583508003,1.118208965617853,5.283827878477515,-5.06356132574314,10.493552295815071,11.65631677037681,16.387753370331556,-9.846012766768292,-1.4821494497903962,2.6701020031440548,4.017527510480183,0.4573915062881097,24.3872665777439,13.0099785037157,-24.67532274199695,6.34947808967466,-2.0085083753052464,0.3542642377463768,-11.485557844932847,22.561611090059365,-66.65290927021697,31.01587444214814,37.91676400994399,42.325665678258005,1577396022.0,-27.68615842374692,-51.13160982375426,7.4816704
59224,1577396022.66,2.4992837549721325,-1.40314816075767,6.298735801733994,2.004793519406202,-0.2788077030833179,8.665637723448217,2.8624432702041256,4.151312098061166,11.627586350454935,10.497860792206556,0.4536698504192074,0.6083046517721037,3.3262299328315548,-5.473439286394816,1.2355897484756095,10.7001327886814,-14.8830879025343,5.6591499142530495,5.772252808795146,-1.552029199099512,2.0370193670416854,-11.485557844932847,21.951837817355063,-93.85817836010143,31.01587444214814,37.70111121095037,42.397549944589215,1577396022.0,-27.68615842374692,-51.13160982375426,7.4816704
59225,1577396022.67,0.0512125574623656,3.5899594014981897,15.011235643042587,1.1608374342011238,2.686411053020198,13.761695957090796,-3.2846694922470463,0.1817257455221034,8.632440073599467,6.469540479706555,0.4078934832317073,-0.0478232779153963,2.9142426281440548,5.360300947980183,-0.6412413062118902,-4.634950219131097,-17.0803535275343,-2.6416313357469514,6.844242616142818,-1.4607333638583646,0.8856605943659495,-11.485557844932847,23.78115763546798,-69.37343617920541,30.92002875370653,37.91676400994399,41.702668703387545,1577396022.0,-27.68615842374692,-51.13160982375426,7.4816704
59226,1577396022.68,-0.2121496251548209,-1.56236257115806,10.033690391577744,0.1313307203339363,0.577119390422541,8.662046420957983,-0.6606244727157958,2.381997071205697,13.04255953160728,-6.317324754668445,0.7741044207317074,-0.2919639029153963,5.874447706269055,3.742869307355183,0.6404969750381098,6.900694312118903,-8.6575019650343,13.62423780487805,7.009164124965536,-2.7388750572344303,1.7713211887318916,-11.7745026963777,23.933600953644056,-69.71350204282896,31.01587444214814,37.772995477281576,42.46943421092042,1577396022.0,-27.68615842374692,-51.13160982375426,7.4816704
59227,1577396022.69,0.870029525235804,-2.1968260110994664,12.26987474216368,1.14407802258003,-3.349371332233708,9.67239952154392,-3.70365478277439,-13.134823888266958,13.193394236197124,-4.364199754668445,-8.198063548018293,-0.0173056997903963,9.383969190644056,-5.229298661394817,2.563104396913109,-9.426209984756095,-11.2514961056593,6.422089367378049,7.009164124965536,-2.7388750572344303,1.7713211887318916,-11.7745026963777,19.0554147720096,-26.185071499013805,31.01587444214814,37.725072633060776,42.46943421092042,1577396022.0,-27.68615842374692,-51.13160982375426,7.4816704
59228,1577396022.7,-0.0254018956626334,-1.2966061868807162,13.5603494369879,0.6101710523651869,1.3001682917897284,14.318347843077124,2.2435421410537346,7.612130597817026,16.54048815709556,-2.121157762480945,5.305964772294208,2.637723597084604,7.156185987519055,-0.2701922160823171,1.5102479516006095,8.319761694931405,-29.6078193478468,0.7305610470655486,5.689792054383788,-2.0085083753052464,1.7713211887318916,-20.385059269434272,19.970074681066063,-14.96289799943646,31.039835864258546,37.84487974361278,42.325665678258005,1577396022.0,-27.68615842374692,-51.13160982375426,7.4816704
59229,1577396022.71,1.2363423792397104,2.3306093282560023,14.937015391577743,0.4066639112519051,1.451002996379572,8.966110031797827,0.0097519921279531,0.9287166634908534,9.49195846959556,5.615048292206555,-11.738102610518292,1.6611610970846038,6.332211378144055,3.071482588605183,3.570184475038109,0.4004501714939026,-29.0432441525343,4.743622570503049,5.854713563206506,-2.556283386752136,1.5941890698587031,-20.96294897232397,20.12251799924213,-25.84500563539025,30.92002875370653,37.58130410039836,42.37358852247881,1577396022.0,-27.68615842374692,-51.13160982375426,7.4816704
59230,1577396022.72,-0.5617030675376334,3.216463942513814,13.881172459448836,0.3803276929901864,-0.3614076603587079,10.570225144102515,-0.0716508643173583,-12.169960619223987,6.48484118443931,28.19805610470656,8.708674733231707,3.370145472084604,4.806332471894055,-3.123585770769817,2.959832912538109,-4.238221703506097,-14.4863593869093,-2.5195610232469514,6.184556580851942,-3.286650068681319,3.0112460208442324,-11.716713726088727,20.12251799924213,-25.84500563539025,31.111720130589752,37.725072633060776,42.51735705514122,1577396022.0,-27.68615842374692,-51.13160982375426,7.4816704
59231,1577396022.73,0.9705859949623664,-0.3066038004061074,9.21846472629454,0.8424086134003426,0.5627541804616035,9.61493868170017,7.017580251405296,11.003517249428354,8.067408481802591,0.0761078625190547,3.444392506669208,2.637723597084604,5.325131300019055,1.2709454792301829,4.0279481469131095,14.163877905868905,-2.7981269650342986,-3.3740532107469514,6.184556580851942,-3.286650068681319,3.0112460208442324,-11.427768874643876,15.701661772135914,-77.87508276979432,30.99191302003773,37.725072633060776,42.37358852247881,1577396022.0,-27.68615842374692,-51.13160982375426,7.4816704
59232,1577396022.74,1.6026552332436166,1.8565573995450648,4.924464048804307,1.5570778089569832,1.5479681636159002,6.521630136778296,0.2012881249404536,0.9418847726217134,8.249367807974467,12.237362745331556,7.030207936356708,3.858426722084604,6.515316846894055,1.8355206745426829,2.822503810975609,9.952452124618905,13.5592949099657,11.41171339081555,6.514399598497378,-1.825916704822951,2.3027175453514714,-11.456663359788362,17.60720324933687,-80.42557674697098,31.111720130589752,37.67714978883997,42.445472788810015,1577396022.0,-27.68615842374692,-51.13160982375426,7.4816704
59233,1577396022.75,1.4183017054115852,0.6977637960294389,8.257192759741807,1.96768339367378,-0.0836802677805829,8.934985410215795,-0.1291117041611083,7.46249299405726,11.10086198522056,18.005185010956556,-8.869450266768293,1.6306435189596038,4.104428175019055,-0.3159685832698171,1.3729188500381098,8.396055640243903,-1.7605293087842988,0.1965034298780487,6.019635072029224,-1.643325034340656,0.0,-11.658924755799758,16.616321681192368,-20.74401768103691,31.063797286368946,37.58130410039836,42.325665678258005,1577396022.0,-27.68615842374692,-51.13160982375426,7.4816704
59234,1577396022.76,-0.8250652501548209,-1.4139220682283724,9.3082472885504,-3.498278996462937,-0.6630770695383954,10.364323801329077,-0.2392449805282958,-10.28572391268102,6.755385972036967,14.526181104706556,-5.604069407393292,2.729276331459604,3.2194184093940548,-1.9639178020198167,4.9739930687881095,0.4004501714939026,9.8056328005907,0.7458198361280487,7.50392865143369,-1.825916704822951,0.8856605943659495,-11.7745026963777,15.091888499431604,-22.10428113553113,31.01587444214814,37.725072633060776,42.2777428340372,1577396022.0,-27.68615842374692,-51.13160982375426,7.4816704
59235,1577396022.77,-0.692187058016149,1.317862026009908,11.215228910864854,-0.0326720933867662,1.1660929988209785,8.68359423589939,-0.7013259009384528,2.44424631436976,7.85791583653892,-5.737490770293445,3.734309498856708,3.690580042397104,2.5480316906440548,4.215891768292683,2.502069240663109,6.626036108993904,14.8715507693407,5.2624213986280495,7.50392865143369,-1.825916704822951,0.8856605943659495,-11.7745026963777,15.091888499431604,-22.10428113553113,31.01587444214814,37.820918321502376,42.49339563303082,1577396022.0,-27.68615842374692,-51.13160982375426,7.4816704
59236,1577396022.78,-0.7101435704673209,0.4942566549161576,5.922846141089463,-0.2134343187285626,-0.7013842961008954,6.852029965879859,4.383958425233422,-3.9482721182474263,9.508717881216652,16.113095167206556,9.166438405106708,2.881864222084604,2.7921723156440548,2.247507979230183,1.952752834413109,9.128477515243905,19.5712578005907,-2.5805961794969514,5.359949036738351,-3.1040583981990206,2.125585426478283,-21.020737942612943,16.311435044840216,-75.15455586080586,31.111720130589752,37.772995477281576,42.51735705514122,1577396022.0,-27.68615842374692,-51.13160982375426,7.4816704
59237,1577396022.79,0.3409109583412728,-0.4610298074861851,9.399226951636338,0.3372320631073738,0.826116363078791,5.863224680235327,-5.2239728369736085,0.1984851571431971,6.475264377798686,-8.087344285918444,-4.139225657393292,1.966336878334604,2.7616547375190548,-0.7432146770198171,2.959832912538109,17.2766708746189,25.6747734255907,-3.953887195121952,6.184556580851942,-1.4607333638583646,0.1771321188731884,-10.849879171754177,21.18962122647468,-73.11416067906453,30.92002875370653,37.43753556773595,42.2777428340372,1577396022.0,-27.68615842374692,-51.13160982375426,7.4816704
59238,1577396022.8,0.6449745691811165,3.487008730111471,8.994606871069932,1.2637881055878426,2.9617442439381665,8.08983222418064,-1.975041184141577,-4.494150096763051,10.76806795445884,15.685849073456556,1.6896317644817074,2.302030237709604,-1.8464995593559448,4.872019697980183,2.013787990663109,4.794981421493903,27.7499687380907,-2.8857719607469514,6.514399598497378,-2.556283386752136,0.5313963566195653,-21.020737942612943,21.49450786282683,-73.11416067906453,31.20756581903136,37.62922694461916,42.37358852247881,1577396022.0,-27.68615842374692,-51.13160982375426,7.4816704
59239,1577396022.81,0.7527136438881478,-0.0049343912264194,6.638712437476181,1.0626751661347178,-0.9348189579661296,4.243547257139625,3.1605213768935783,5.9110503182760095,3.5028630167147017,5.187802198456556,3.429133717606708,0.9897743783346038,2.9905365734565548,0.0960187214176828,2.227411037538109,11.981871069931405,25.5832206912157,-0.2460014529344514,6.184556580851942,-2.921466727716725,2.3027175453514714,-20.26948132885633,20.12251799924213,-21.08408354466047,30.99191302003773,37.772995477281576,42.42151136669962,1577396022.0,-27.68615842374692,-51.13160982375426,7.4816704
59240,1577396022.82,-0.1594771886313834,1.0664708516935013,6.009037400855088,-1.5015148118926251,3.876329278117854,6.53838954839939,-0.4331753150009521,-7.381557298911489,6.341189084829936,6.286435010956555,8.037288014481707,2.088407190834604,-2.365298387480945,-3.428761552019817,2.410516506288109,3.940489233993903,32.9989921755907,4.133271008003049,7.174085633788254,-1.0955500228937742,0.1771321188731884,-20.03832544770045,20.732291271946444,-69.37343617920541,30.92002875370653,37.58130410039836,42.46943421092042,1577396022.0,-27.68615842374692,-51.13160982375426,7.4816704
59241,1577396022.83,-0.8633724767173209,2.2444180684903774,5.7839824448004,2.3339962476776863,-1.168253619831364,9.911819687559548,-7.201583408262671,-3.426336156333364,8.282886631216654,0.7322357922065549,10.204036061356708,-0.2614463247903963,3.3720063000190548,5.329783369855183,-1.7398741187118902,4.947569312118903,24.3014824099657,-0.6274711794969513,5.524870545561069,-2.556283386752136,2.6569817830978484,-20.558426180301183,21.18962122647468,-66.99297513384053,31.01587444214814,37.725072633060776,42.61320274358283,1577396022.0,-27.68615842374692,-51.13160982375426,7.4816704
59242,1577396022.84,-1.033360794588415,-0.3676559427400913,6.376547355689072,-0.7425528856230939,-1.211349249714177,3.686895371153296,-0.1099580908798583,-4.8628571524271145,6.128105137076029,-4.882998582793444,3.856379811356708,0.8066689095846036,-1.9380522937309448,9.937937666730184,0.0911805687881097,6.107237280868903,26.7428886599657,-3.679228991996952,5.689792054383787,-2.7388750572344303,1.2399248321123264,-10.734301231176234,22.40916777188329,-69.71350204282896,30.89606733159613,37.58130410039836,42.46943421092042,1577396022.0,-27.68615842374692,-51.13160982375426,7.4816704
59243,1577396022.85,-0.6574711339438833,1.5692532003263149,10.730403074683212,-0.0614025133086412,1.2822117793385566,8.83682314214939,-1.0257402258896249,4.773804529701791,6.519557108511576,-4.455752489043445,0.9572098894817074,-1.6652549185403962,-4.394717332793445,-0.1633806926448171,0.6099793969131093,5.023863257431404,22.9281913943407,3.4161079220655486,5.030106019092915,-2.7388750572344303,1.062792713239138,-11.081035052910057,22.40916777188329,-69.37343617920541,31.111720130589752,37.79695689939198,42.42151136669962,1577396022.0,-27.68615842374692,-51.13160982375426,7.4816704
59244,1577396022.86,-0.2815814732993521,2.723258400521628,5.934817149390244,-0.8167731370879376,-0.1602947209055829,5.817734848692359,-5.271856870176734,-18.06209090486852,11.06255475865806,10.680966260956556,1.6285966082317074,0.5625282845846037,-3.494448778105945,7.069285322980183,0.9151551781631098,-0.6371474847560974,21.4633476443407,-8.07376024199695,5.689792054383787,-2.7388750572344303,0.3542642377463768,-11.312190934065937,22.40916777188329,-68.35323858833475,31.063797286368946,37.62922694461916,42.18189714559559,1577396022.0,-27.68615842374692,-51.13160982375426,7.4816704
59245,1577396022.87,-1.459528690096227,1.906835634408346,8.973059056128527,-1.31955548572075,-1.9990415959055827,5.978146359922827,6.924206386659203,5.417844776283823,5.6181401834627485,1.4646576672065548,3.856379811356707,-1.1159385122903962,-2.670474168730945,-3.733937333269817,-1.3431456030868902,8.212950171493903,21.6159355349657,-8.86721727324695,6.679321107320097,-4.564791762057388,1.7713211887318916,-11.312190934065937,22.40916777188329,-68.35323858833475,31.063797286368946,37.772995477281576,42.46943421092042,1577396022.0,-27.68615842374692,-51.13160982375426,7.4816704
59246,1577396022.88,-0.4288248753989615,1.771563240609518,8.431969480933212,-3.448000761599656,1.027229302531916,7.338052902891578,0.7998385399795157,13.15111613858851,12.072907859243998,-3.1434966296684443,9.227473561356708,-0.7192099966653962,-5.233950731230945,-2.787892411394817,0.9456727562881098,3.909971655868903,17.8927910037157,5.231903820503049,5.937174317617865,-2.464987551510988,1.5056230104221089,-11.7745026963777,22.40916777188329,-68.35323858833475,31.063797286368946,37.725072633060776,42.46943421092042,1577396022.0,-27.68615842374692,-51.13160982375426,7.4816704
59247,1577396022.89,-2.005406668611852,-0.7842470316072788,9.437534178198838,0.7370637403534676,0.9769510676686356,7.61099189214939,-2.1917164343857176,-7.709562926352896,11.046992447867044,-14.007754442168444,3.337580983231707,-2.946993199790396,-6.683535692168444,6.184275557355183,-3.2810118140243905,-3.063294945693597,15.3903495974657,-8.34841844512195,6.019635072029224,-2.7388750572344303,1.4170569509855149,-12.381286884411884,21.418286203738788,-46.75905624823894,30.92002875370653,37.67714978883997,42.61320274358283,1577396022.0,-27.68615842374692,-51.13160982375426,7.4816704
59248,1577396022.9,1.9210840540443976,2.488626637826315,9.368102330054308,-1.985143547244188,5.300879265910822,12.068995383360328,2.459020290467797,7.038719300209603,6.108951523794779,-9.735293504668444,-3.986637766768293,-2.397676793540396,-8.835024949980944,-5.809132645769817,0.6099793969131098,-2.620790062881097,11.1178886599657,2.0275581173780486,5.689792054383787,-3.834425080128205,1.062792713239138,-11.7745026963777,20.274961317418214,-13.942700408565791,30.92002875370653,37.86884116572318,42.46943421092042,1577396022.0,-27.68615842374692,-51.13160982375426,7.4816704
59249,1577396022.91,-2.1251167516196645,4.178933009896627,9.34176611179259,-2.327514384646532,-0.0142484196360517,10.12011523199314,-4.101092258360327,-2.2483889395364893,10.868624424185404,12.512020948456556,8.983332936356707,-1.3600791372903962,-1.8159819812309448,-1.1094256145198171,-2.5333311499618905,-6.771180687881097,3.732634753715701,-4.167510241996951,5.524870545561069,-1.825916704822951,0.5313963566195653,-11.658924755799758,21.18962122647468,-9.861910045083125,30.92002875370653,37.9646868541648,42.51735705514122,1577396022.0,-27.68615842374692,-51.13160982375426,7.4816704
59250,1577396022.92,0.1086733973061161,-1.9526174417635287,5.598431816138291,2.0383123426483896,-0.3685902653391771,6.745487992002905,-4.366848642637671,1.7547162362447597,7.477237772574076,-10.910220262480944,8.739192311356708,-0.1698935904153963,-6.103701707793444,6.886179854230184,-1.2363340796493902,-1.7510390863185972,-3.0727851681592986,-2.8247368044969514,5.442409791149711,-2.2823958810286906,0.9742266538025436,-11.658924755799758,21.18962122647468,-26.185071499013805,31.01587444214814,37.74903405517118,42.34962710036841,1577396022.0,-27.68615842374692,-51.13160982375426,7.4816704
59251,1577396022.93,0.3337283533608041,1.3274388326505335,9.317824095191028,0.5958058424042488,-1.637517145221989,8.757814487364234,1.6880873558974845,-4.340921190513051,7.124093027701029,-5.981631395293445,7.823664967606708,-2.885958043540396,-3.158755418730945,-3.001515458269817,-2.1060850562118905,-9.731385766006095,-2.4624336056592986,1.6613471798780486,6.019635072029224,-1.643325034340656,1.062792713239138,-20.905160002035004,19.970074681066063,-26.185071499013805,31.01587444214814,37.772995477281576,42.66112558780364,1577396022.0,-27.68615842374692,-51.13160982375426,7.4816704
59252,1577396022.94,-0.4803002110923209,-2.8983270975252475,7.416827977026963,-3.4288471483184058,1.0320177058522284,6.801751731016577,-0.2583985938095458,3.832883277260384,8.69468931676353,-6.134219285918445,1.5370438738567074,-2.336641637290396,-11.306948778105944,4.383738447980183,-2.0450498999618905,-4.970643578506097,0.8029472537157012,-3.1604301638719514,6.34947808967466,-2.7388750572344303,0.3542642377463768,-20.674004120879125,20.274961317418214,-23.46454459002536,31.01587444214814,37.725072633060776,42.46943421092042,1577396022.0,-27.68615842374692,-51.13160982375426,7.4816704
59253,1577396022.95,0.3576703699623665,5.392793251595846,10.203678709448836,-3.900504875369187,4.807673723918636,14.561359311582985,5.844421437928734,-3.388028929770864,6.494417991079936,3.6314057140815534,3.734309498856707,-2.031465856040396,-7.431216356230945,2.278025557355183,-0.6107237280868902,-5.855653344131097,9.5309745974657,-5.632353991996951,5.689792054383787,-2.0085083753052464,1.062792713239138,-21.020737942612943,16.00654840848806,-25.504939771766697,30.92002875370653,37.86884116572318,42.325665678258005,1577396022.0,-27.68615842374692,-51.13160982375426,7.4816704
59254,1577396022.96,0.3816123865639286,-1.9981072733064973,8.937146031226181,0.4737015577362806,-1.9487633610423016,5.189256912901343,-0.4104303992294681,4.111807770668588,10.760885349478372,-12.756533739043444,3.429133717606708,-1.2990439810403962,-5.935855028105944,11.784251143292684,-2.6248838843368905,0.5530380621189027,13.8339531130907,0.4711616330030487,6.184556580851943,-2.191100045787545,1.4170569509855149,-11.312190934065937,15.701661772135914,-80.59560967878276,30.96795159792733,37.70111121095037,42.325665678258005,1577396022.0,-27.68615842374692,-51.13160982375426,7.4816704
59255,1577396022.97,-0.0182192906821646,4.468631410775534,9.145441575659776,-2.978737236209031,3.39988314774676,13.864646628477514,6.780554287049828,-8.633724767173208,9.175923850454934,10.803036573456556,12.370784108231708,0.8982216439596037,-6.179995653105945,-7.335011552019817,3.387079006288109,-8.968446312881097,14.6884453005907,0.1659858517530487,6.844242616142818,-1.4607333638583646,1.5941890698587031,-11.54334681522182,15.091888499431604,-79.91547795153564,31.063797286368946,37.725072633060776,42.61320274358283,1577396022.0,-27.68615842374692,-51.13160982375426,7.4816704
59256,1577396022.98,0.3983717981850228,1.236459169564596,11.422327354468369,1.7881182691620614,0.127009478313166,13.132020920469705,-7.417061557676734,4.634940833412728,18.187698899283063,-14.526553270293444,0.4994462176067073,-1.2990439810403962,-4.287905809355945,6.886179854230183,-2.7469541968368905,-5.001161156631097,-9.2373359494093,-0.9021293826219512,6.844242616142818,-1.4607333638583646,1.5941890698587031,-11.081035052910057,15.701661772135914,-82.6360048605241,30.92002875370653,37.86884116572318,42.37358852247881,1577396022.0,-27.68615842374692,-51.13160982375426,7.4816704
59257,1577396022.99,-1.6750068395102895,1.2388533712247525,11.793428611792589,-1.85585665759575,0.9937104792897284,8.72190146246189,3.5531704491592038,2.0803276620260096,20.86681055699791,-6.073184129668445,-8.899967844893293,-1.5431846060403962,-7.370181199980945,11.250193526105184,-1.1905577124618902,-24.6544814691311,-33.4988105587843,-7.036162585746951,6.34947808967466,-2.0085083753052464,0.0,-11.081035052910057,18.75052813565745,-15.302963863060016,31.20756581903136,37.725072633060776,42.46943421092042,1577396022.0,-27.68615842374692,-51.13160982375426,7.4816704
59258,1577396023.0,-0.6526827306235709,-1.123026566519388,8.451123094214463,2.4764512464569832,0.7471077082936353,12.224618491270483,-3.955045957090796,-1.8904557913431304,20.698019339956893,-9.613223192168444,10.097224537919208,1.2033974252096038,-9.460635301543444,7.984812666730184,-1.0379698218368905,-27.2637343988186,-84.9667060665968,-1.3751518435594514,5.937174317617865,-2.6475792219932828,2.0370193670416814,-10.329778439153442,16.15899172666414,-23.1244787264018,30.872105909485725,37.772995477281576,42.37358852247881,1577396023.0,-27.68619468624732,-51.13167417917566,7.562036
59259,1577396023.01,-1.1267346593345084,-0.1856966165682163,10.129458457983992,0.5910174390839363,-2.848983185261052,10.917384384825173,0.5676009789443595,1.7834466561666344,6.654829502310404,-7.385439989043445,6.358821217606708,-0.0783408560403963,-7.095522996855945,2.552683760480183,0.5489442406631098,-49.2821670160061,-106.0696113400343,18.93429639862805,6.514399598497378,-3.286650068681319,1.2399248321123264,-20.96294897232397,19.817631362889983,-25.84500563539025,31.20756581903136,37.9646868541648,41.99020576871237,1577396023.0,-27.68619468624732,-51.13167417917566,7.562036
59260,1577396023.02,-2.3286238927329457,-0.81537165318931,11.74793878024962,-4.4080756273223125,1.774220220500666,14.46080284185642,-0.8808910254501708,8.22145492032679,9.21662527867759,-15.838809129668444,9.044368092606708,1.2033974252096038,-7.614321824980945,-1.5671892863948171,2.715692287538109,-29.3847060785061,-82.9372871212843,24.18331983612805,6.514399598497378,-3.286650068681319,1.2399248321123264,-21.020737942612943,19.970074681066063,-73.79429240631164,31.111720130589752,37.86884116572318,42.51735705514122,1577396023.0,-27.68619468624732,-51.13167417917566,7.562036
59261,1577396023.03,-0.9363956273520864,3.0033799947599085,12.855257048071884,-0.6084775926543439,2.6720458430592604,12.655574790098608,11.853867604920922,0.5983168343892908,0.1138705667635298,-4.013247606230944,-4.642765696455792,-0.6734336294778961,-11.673159715605944,4.688914229230183,-0.6412413062118902,-30.6054092035061,-49.0322578244093,13.65475538300305,5.030106019092913,-2.008508375305248,1.2399248321123264,-10.849879171754177,19.970074681066063,-69.03337031558186,30.96795159792733,37.725072633060776,42.61320274358283,1577396023.0,-27.68619468624732,-51.13167417917566,7.562036
59262,1577396023.04,-2.350171707674352,-4.26302204381431,4.550968589819931,-1.7828335069609846,-0.3482395512278492,6.157711484434547,-6.379175137999,0.2547488961568694,6.61293097325767,-5.798525926543445,12.523371998856708,3.766873987709604,-10.879702684355944,3.056223799542683,0.4421327172256096,-11.425111351943595,20.3036796755907,11.39645460175305,6.844242616142818,-4.0170167506105,1.9484533076050947,-20.70289860602361,20.0462963401541,-5.951152613412228,31.111720130589752,37.91676400994399,42.325665678258005,1577396023.0,-27.68619468624732,-51.13167417917566,7.562036
59263,1577396023.05,1.7678551477943978,1.4567257222989711,6.997842686499619,-2.408917241091844,2.741477691203792,11.561424631407204,2.849275161073266,-13.58014539705602,13.459150620474466,0.5796479015815549,8.647639576981707,1.2339150033346038,-10.482974168730944,-0.7737322551448171,1.1287782250381098,-6.099793969131097,14.5968925662157,-0.0476371951219513,5.19502752791563,-2.191100045787545,1.5941890698587031,-20.558426180301183,19.970074681066063,-75.15455586080586,30.92002875370653,37.725072633060776,42.37358852247881,1577396023.0,-27.68619468624732,-51.13167417917566,7.562036
59264,1577396023.06,-1.354183817049352,1.099989674935689,13.763856578101182,-0.6707268358184064,-2.726878900593083,13.28046142339939,1.989756765077172,-4.848491942466176,15.056083127798685,-6.103701707793445,-10.090153391768292,-2.885958043540396,-1.8770171374809448,0.0197247761051829,0.4268739281631097,1.6821884527439026,-11.6787421994093,-21.62356492949695,5.19502752791563,-2.191100045787545,1.5941890698587031,-20.26948132885633,21.0371779082986,-94.53831008734856,30.77626022104412,37.725072633060776,42.61320274358283,1577396023.0,-27.68619468624732,-51.13167417917566,7.562036
59265,1577396023.07,-1.7659865025962271,-1.484551017202982,10.8788435776129,0.1456959302948738,0.8811830012623847,5.817734848692359,8.513956289002953,29.30240053800257,18.989756455435405,-9.109683153105944,9.822566334794208,2.271512659584604,-10.269351121855944,3.193552901105183,0.1827333031631097,1.8958114996189024,-35.3909004025343,-3.1604301638719514,4.452880738213398,-2.8301708924755795,1.1513587726757322,-21.020737942612943,19.970074681066063,-69.03337031558186,30.943990175816936,37.62922694461916,42.51735705514122,1577396023.0,-27.68619468624732,-51.13167417917566,7.562036
59266,1577396023.08,-2.716484561678258,2.1127369771817834,13.115027928198836,-4.06450768908989,-1.4723172306712078,13.394186002256813,-3.7168228919052497,-7.011653142417349,12.500272855581889,-14.190859910918444,8.617121998856707,1.966336878334604,-3.357119676543445,-8.708302567644816,1.998529201600609,-19.0087295160061,-31.9729316525343,2.409027843940549,6.844242616142818,-3.6518334096459095,1.9484533076050947,-20.905160002035004,20.57984795377037,-66.31284340659342,31.20756581903136,37.74903405517118,42.42151136669962,1577396023.0,-27.68619468624732,-51.13167417917566,7.562036
59267,1577396023.09,-2.522554227205602,-0.7124209818025913,9.20050821384337,-6.831007707400437,-2.8561657902415205,9.552689438536108,1.7407597924209215,13.996269324623665,10.87101862584556,-6.134219285918445,-8.289616282393293,-0.5666221060403963,-0.4426909656059451,-3.032033036394817,1.830682521913109,-26.2719131097561,-26.2356269650343,2.5463569455030486,5.030106019092915,-3.4692417391636146,2.8341139019710444,-20.789582061457065,21.18962122647468,-63.59231649760496,31.30341150747297,37.772995477281576,42.66112558780364,1577396023.0,-27.68619468624732,-51.13167417917566,7.562036
59268,1577396023.1,-2.3190470860923207,-0.0635923319002476,10.33057139743712,-1.0705585130645,-3.952710150593083,9.25820263433689,6.165244460389672,-4.06079959627477,8.891013852896341,-7.599063035918445,-13.691227610518292,-1.1769736685403962,-3.952212449980945,-5.473439286394817,-0.0614073218368902,-1.6747451410060974,-26.7849433712843,9.13815382050305,5.030106019092915,-3.4692417391636146,2.8341139019710444,-11.658924755799758,21.18962122647468,-69.71350204282896,31.111720130589752,37.725072633060776,42.66112558780364,1577396023.0,-27.68619468624732,-51.13167417917566,7.562036
59269,1577396023.11,-1.7228908727134145,-1.6641161417147006,8.763566410864852,-1.6355901048613748,-1.193392737263005,13.515093186094704,-6.277421567442358,-0.066074126304068,12.70377999669517,-1.815981981230945,0.5757401629192076,0.5625282845846037,-3.524966356230945,-5.320851395769817,-0.0003721655868906,-22.8386855706936,-23.5958564572218,8.25314405487805,4.370419983802039,-2.7388750572344303,2.656981783097852,-12.699126221001226,22.866497726411524,-68.01317272471118,31.15964297481056,37.74903405517118,42.34962710036841,1577396023.0,-27.68619468624732,-51.13167417917566,7.562036
59270,1577396023.12,-3.8249999303306015,0.5229870748380326,13.390361119116806,-6.093593596072313,-0.8594016056712078,14.64036796636814,5.535569423768578,-11.123694493735709,11.397742991079935,3.7534760265815534,-6.183903391768292,0.8982216439596037,2.1818207531440548,-8.006398270769816,0.6099793969131098,0.1868271246189026,-36.2453925900343,2.4853217892530486,5.854713563206506,-2.556283386752136,0.1771321188731884,-11.716713726088727,16.463878363016292,-24.484742180896028,31.063797286368946,37.725072633060776,42.46943421092042,1577396023.0,-27.68619468624732,-51.13167417917566,7.562036
59271,1577396023.13,-1.7779575108970085,-0.1593603983064976,11.77906340183165,0.2749828199433113,3.6440917170826976,16.143926608946263,1.1972760155654532,10.414543641029915,14.158257505240092,-6.439395067168445,-6.916325266768292,0.3489052377096037,-2.914614793730945,-3.947560380144817,-0.9158995093368902,-13.973329125381095,-32.6443183712843,-1.3904106326219514,5.689792054383787,-1.2781416933760694,1.7713211887318916,-11.485557844932847,16.463878363016292,-25.84500563539025,31.063797286368946,37.91676400994399,42.37358852247881,1577396023.0,-27.68619468624732,-51.13167417917566,7.562036
59272,1577396023.14,-2.487838303133336,-1.634188620962748,13.476552378882433,-1.2046338060332502,-2.650264447468083,12.159975046446265,5.925824294374047,8.56621995938929,9.142405027212748,-3.036685106230945,-10.441105540205792,0.6693398080221037,4.287533643769055,-1.1094256145198171,-2.9300596655868905,-3.933045922256097,-30.4165351681593,8.00900342987805,5.689792054383787,-1.2781416933760694,1.7713211887318916,-13.334804894179896,16.463878363016292,-25.164873908143136,30.96795159792733,37.772995477281576,42.37358852247881,1577396023.0,-27.68619468624732,-51.13167417917566,7.562036
59273,1577396023.15,-1.121946256014196,-3.307735581411966,10.601116185034774,-1.0274628831816877,-1.2568390812571453,10.17757607183689,0.5867545922256096,4.879149402748666,8.093744700064311,-6.408877489043445,-7.343571360518292,1.3559853158346038,-2.212710496855945,-3.245656083269817,2.547845607850609,0.4920029058689027,-1.1959541134717997,1.1425483517530486,5.854713563206506,-2.191100045787545,3.0112460208442324,-12.294603428978432,18.140754862953138,-18.36355663567202,31.111720130589752,37.84487974361278,42.58924132147243,1577396023.0,-27.68619468624732,-51.13167417917566,7.562036
59274,1577396023.16,-1.2560215489829458,3.7096694845060014,11.783851805151963,-0.4935559129668438,2.8851297908131666,8.381924826719702,8.020750747010766,1.9007625375142907,3.1449298685213423,18.67657172970656,-9.388249094893292,1.5085732064596038,0.7780121593940549,-4.435841630144817,-0.3971006812118902,10.593321265243905,18.1674492068407,9.38229444550305,6.844242616142818,-2.191100045787545,-0.1771321188731884,-20.3272702991453,15.091888499431604,-24.14467631727247,31.01587444214814,37.58130410039836,41.702668703387545,1577396023.0,-27.68619468624732,-51.13167417917566,7.562036
59275,1577396023.17,-1.5959981847251332,0.0561177511075638,12.224384910620712,1.3068837354706553,0.4837455256764473,8.750631882383765,-2.1737599219345456,-0.2971145865091456,8.998752927603372,-2.411074754668445,-15.705387766768292,-1.6652549185403962,6.210141065644055,-6.877247880144817,-0.6107237280868902,10.684873999618905,26.3461601443407,4.499481945503049,3.8756554573338846,-2.191100045787545,1.9484533076050947,-20.3272702991453,15.091888499431604,-24.14467631727247,30.872105909485725,37.91676400994399,42.37358852247881,1577396023.0,-27.68619468624732,-51.13167417917566,7.562036
59276,1577396023.18,-0.5257900426352902,-0.6034848062654825,7.592801799048447,-2.305966569705125,4.422207256633479,10.297286154844702,-1.898426731016577,-0.8549635733255517,14.744836911978371,9.841732862519056,-3.1474043683307924,1.7221962533346038,2.4259613781440548,-7.945363114519817,2.715692287538109,13.187315405868905,24.5456230349657,-1.2073051638719514,3.8756554573338846,-2.191100045787545,1.9484533076050947,-20.3272702991453,15.091888499431604,-24.14467631727247,31.063797286368946,37.62922694461916,41.84643723604996,1577396023.0,-27.68619468624732,-51.13167417917566,7.562036
59277,1577396023.19,-0.4443871861899771,-3.719538266958841,9.935528123511338,0.5359508009003432,-3.744414606159489,6.476140305235328,-3.05243193121189,-4.248744426597036,6.221479001822123,-10.162539598418444,0.6215165301067074,2.149442347084604,8.590512159394056,-1.9028826457698167,0.5947206078506098,19.7333359136814,19.4339286990282,-10.28628465605945,6.514399598497378,-3.6518334096459095,1.9484533076050947,-20.3272702991453,15.091888499431604,-24.14467631727247,30.872105909485725,37.86884116572319,42.37358852247881,1577396023.0,-27.68619468624732,-51.13167417917566,7.562036
59278,1577396023.2,-0.4419929845298209,0.7145232076505327,13.43345674899962,0.3875102979706551,3.759013396770198,12.983580417540017,1.7096351708388904,3.648529749428353,18.3936002420565,-0.6410552234184451,-10.212223704268292,0.5625282845846037,0.8695648937690549,-14.506642411394816,3.478631740663109,9.494688452743905,12.2165214724657,-2.2754203982469514,6.019635072029224,-3.4692417391636146,2.125585426478283,-13.450382834757836,17.68342490842491,-82.97607072414765,31.01587444214814,37.725072633060776,42.37358852247881,1577396023.0,-27.68619468624732,-51.13167417917566,7.562036
59279,1577396023.21,-1.220108524080602,3.05365822962319,13.505282798804306,0.2390697950409676,2.8611877742116043,15.282014011290014,1.0081340844131097,-3.4718259878763327,11.00509391881431,12.664608839081556,-4.566471751143292,0.3183876595846037,6.912045362519055,2.949412276105183,1.3729188500381098,4.917051733993903,1.5964042849657012,1.0509956173780486,5.19502752791563,-2.921466727716725,3.3655102585906094,-12.23681445868946,17.835868226600986,-82.6360048605241,31.01587444214814,37.86884116572318,42.46943421092042,1577396023.0,-27.68619468624732,-51.13167417917566,7.562036
59280,1577396023.22,-1.3793229344809927,-1.7957972330232943,9.635055815161728,-0.5845355760527818,-1.2628245854075366,10.803659805967747,1.6006989953017812,9.618471589027962,13.439997007193217,2.3191498547065548,-1.0111738995807926,2.454618128334604,8.743100050019056,-5.900685380144816,1.6323182641006095,11.447813452743905,-12.6705634884718,-4.411650866996951,6.019635072029224,-2.0085083753052464,2.125585426478283,-13.045860042735049,12.652795408614374,-22.784412862778247,30.89606733159613,37.84487974361278,42.49339563303082,1577396023.0,-27.68619468624732,-51.13167417917566,7.562036
59281,1577396023.23,-0.8514014684165396,1.9427486593106895,13.095874314917587,1.237451887326124,0.9721626643483222,16.941195761778296,0.7280124901748282,-3.292260863364614,4.763410190786967,10.558895948456556,-10.853092844893292,0.4404579720846037,6.301693800019055,-8.067433427019816,1.0372254906631098,6.259825171493903,8.5849296755907,20.73483350800305,6.34947808967466,-2.7388750572344303,2.125585426478283,-10.560934320309322,19.51274472653783,-76.17475345167654,31.063797286368946,37.86884116572318,42.37358852247881,1577396023.0,-27.68619468624732,-51.13167417917566,7.562036
59282,1577396023.24,-2.3717195226157584,0.9252129537442828,8.171001499976182,-1.444053972048875,-0.2919758122141767,8.195177097227514,0.7591371117568594,-12.770905235923207,13.918837339224469,9.368710401581556,1.811702076981708,3.980497034584604,9.689144971894056,1.2709454792301829,0.2132508812881097,3.940489233993903,-4.629181652534299,-2.7942192263719514,5.689792054383787,-1.643325034340656,1.4170569509855149,-21.020737942612943,19.970074681066063,-80.59560967878276,31.063797286368946,37.9646868541648,42.18189714559559,1577396023.0,-27.68619468624732,-51.13167417917566,7.562036
59283,1577396023.25,-0.4922712193931021,-1.6437654276033724,3.8853805282964937,1.2230866773651865,1.678452154094416,6.507264926817359,5.4182535424209215,18.67932777188929,9.745743845572122,-3.357119676543445,-2.552311594893293,2.698758753334604,5.538754346894055,-0.8958025676448171,2.898797756288109,11.539366187118905,-8.4438789181593,4.407929211128049,5.689792054383787,-2.0085083753052464,1.7713211887318916,-21.020737942612943,19.970074681066063,-80.59560967878276,31.063797286368946,37.725072633060776,42.37358852247881,1577396023.0,-27.68619468624732,-51.13167417917566,7.562036
59284,1577396023.26,-1.7336647801841174,1.54650828455483,10.396411943091415,-2.7165721544219217,0.7076033809010576,12.756131259825173,-5.842873966124,-6.264662224448599,11.955591977896342,16.37249458126906,-6.397526438643293,3.049710901772104,8.956723096894056,-11.241261552019816,1.998529201600609,-9.456727562881095,-10.7937324337843,-0.6885063357469505,5.689792054383787,-3.1040583981990206,1.7713211887318916,-16.0508864977615,19.970074681066063,-50.66981367990984,31.08775870847935,37.84487974361279,42.37358852247881,1577396023.0,-27.68619468624732,-51.13167417917566,7.562036
59285,1577396023.27,-0.0134308873618521,-3.437022471060404,9.976229551733994,-1.93247111072075,-2.746032513874333,7.642116513731421,4.915471193788109,12.938032190834605,12.496681553091657,-15.167422410918444,-15.522282298018292,2.363065393959604,12.893490675019056,-1.9639178020198167,4.4246766625381095,10.990049780868905,-28.1582343869093,-3.770781726371952,5.524870545561069,-2.556283386752136,0.8856605943659495,-19.86495853683354,21.18962122647468,-26.185071499013805,30.92002875370653,37.725072633060776,42.46943421092042,1577396023.0,-27.68619468624732,-51.13167417917566,7.562036
59286,1577396023.28,-0.0756801305259146,0.0417525411466263,11.04404349216368,-0.4744022996855939,3.663245330363948,12.00914034185642,-0.5289433814072021,1.3548845589986658,6.901432273306498,10.497860792206556,-10.181706126143292,5.292752893959603,7.613949659394055,-9.227101395769816,1.0982606469131098,8.365538062118903,-18.9114082150343,8.89401319550305,5.524870545561069,-1.825916704822951,1.2399248321123264,-19.86495853683354,19.970074681066063,-23.46454459002536,31.01587444214814,37.725072633060776,42.51735705514122,1577396023.0,-27.68619468624732,-51.13167417917566,7.562036
59287,1577396023.29,-0.9076652074302116,-0.0181025003572788,11.55640264743712,0.4066639112519051,1.0559597224537909,13.18469335699314,-1.716467404844702,-6.088688402427114,4.950157920279155,3.524594190644056,-3.895085032393293,4.865506800209603,7.247738721894055,-13.774220536394816,3.9669129906631095,0.7361435308689026,0.3757011599657012,8.95504835175305,6.102095826440584,-3.0127625629578745,0.6199624160561632,-19.86495853683354,21.18962122647468,-26.185071499013805,30.94399017581693,37.725072633060776,42.46943421092042,1577396023.0,-27.68619468624732,-51.13167417917566,7.562036
59288,1577396023.3,1.3416872522865853,-0.6453833353182163,9.554850059546494,-0.932891917605516,-1.7955344547923024,5.878786991026344,-2.057641141416968,0.613879145180307,3.799744022574077,10.528378370331556,-10.975163157393292,4.255155237709603,13.915829542206556,-5.046193192644817,3.9669129906631095,12.546446265243905,30.4812919802782,8.23788526581555,6.019635072029224,-2.7388750572344303,0.0,-15.241840913715915,22.25672445370721,-69.71350204282898,31.111720130589752,37.84487974361278,42.42151136669962,1577396023.0,-27.68619468624732,-51.13167417917566,7.562036
59289,1577396023.31,0.0536067591225218,0.9730969869474076,8.436757884253526,0.8926868482636239,-0.7133553044016766,4.754709311582984,1.3864179467177968,-6.361627391684927,7.473646470083842,14.037899854706556,-3.010075266768293,4.224637659584603,6.942562940644055,-7.853810380144817,1.3424012719131098,16.1170029058689,27.9025566287157,4.041718273628049,6.019635072029224,-3.834425080128205,0.3542642377463768,-11.54334681522182,-4.420856227106227,-69.71350204282896,31.01587444214814,37.62922694461916,42.46943421092042,1577396023.0,-27.68619468624732,-51.13167417917566,7.562036
59290,1577396023.32,0.5923021326576791,-0.1186589700838413,6.964323863257431,0.76100575695503,4.745424480754573,8.02040037603611,-5.1665119971298585,-8.04475115877477,14.313880613150248,8.605770948456556,-7.068913157393292,3.339627893959604,2.0902680187690548,-3.611867020769817,3.509149318788109,15.994932593368905,14.5968925662157,-7.249785632621951,4.700263001447476,-1.643325034340656,1.4170569509855149,-10.849879171754177,-4.420856227106227,-91.47771731473654,31.25548866325217,37.58130410039836,42.325665678258005,1577396023.0,-27.68619468624732,-51.13167417917566,7.562036
