,timestamp,acc_x_dashboard,acc_y_dashboard,acc_z_dashboard,acc_x_above_suspension,acc_y_above_suspension,acc_z_above_suspension,acc_x_below_suspension,acc_y_below_suspension,acc_z_below_suspension,gyro_x_dashboard,gyro_y_dashboard,gyro_z_dashboard,gyro_x_above_suspension,gyro_y_above_suspension,gyro_z_above_suspension,gyro_x_below_suspension,gyro_y_below_suspension,gyro_z_below_suspension,mag_x_dashboard,mag_y_dashboard,mag_z_dashboard,mag_x_above_suspension,mag_y_above_suspension,mag_z_above_suspension,temp_dashboard,temp_above_suspension,temp_below_suspension,timestamp_gps,latitude,longitude,speed
82134,1577396251.76,2.2155708582436167,3.0033799947599085,6.195785130347275,2.549474397091749,3.917030706340511,10.711483042051734,0.4359198876357656,-3.3808463247903955,7.638846384634623,11.962704542206556,-10.822575266768292,-3.160616246665396,3.860287550019055,-3.398243973894817,-1.6178038062118902,1.2244247808689026,18.4115898318407,11.88473585175305,26.46990216604632,-14.424741968101342,8.148077468166749,-19.05591295278796,6.555062681571303,-13.942700408565791,29.4823434270824,38.25222391948962,44.3863479797526,1577396250.0,-27.685454068980945,-51.12984670589159,4.22658
82135,1577396251.77,-0.1211699620688833,6.04162190149819,12.57154415134337,-4.020214958376999,3.067089116985042,10.27334413824314,-5.789004428770483,-11.679149278891956,14.25402557164634,22.64385688595656,-8.198063548018293,-2.519747106040396,6.667904737519055,-1.8113299113948167,-1.3431456030868902,0.4004501714939026,-0.3262031369092988,-11.12551805449695,26.799745183691755,-13.69437528617216,6.731020517181234,-19.05591295278796,6.555062681571303,-13.942700408565791,29.5302662713032,38.0605325426064,44.62596220085662,1577396250.0,-27.685454068980945,-51.12984670589159,4.22658
82136,1577396251.78,-1.2225027257407584,-0.7603050150057168,8.759975108374618,-0.4887675096465319,-1.817082269733708,8.860765158750953,-1.3681110632919675,2.63578244718226,10.516676780142436,-2.563662645293445,3.322322194169208,-2.367159215415396,3.677182081269055,-0.0260515910823169,-3.2657530249618905,3.497984351181403,-5.3158271603468,-2.9162895388719514,26.552362920457675,-14.1508544623779,6.642454457744632,-17.986817002442006,6.021511067955034,-8.671679522400675,29.5302662713032,38.41995387426244,44.410309401863,1577396250.0,-27.685454068980945,-51.12984670589159,4.22658
82137,1577396251.79,-1.5193837316001333,1.322650429330221,10.567597361792588,-1.8223378343535623,0.8045685481373847,11.82478681402439,-0.4930303565048583,-7.273818224204458,13.59083171178306,-8.941836473418444,6.755549733231708,-1.3905967154153962,1.0221527843940548,-4.130665848894817,-0.7633116187118902,4.550840796493903,-19.0639961056593,-7.951689929496951,27.45943121898264,-12.96400860424298,7.439548992673988,-17.322243844118844,6.555062681571303,-1.7003293181177797,29.43442058286159,38.25222391948962,44.62596220085662,1577396250.0,-27.685454068980945,-51.12984670589159,4.22658
82138,1577396251.8,1.0376236414467417,-0.5663746805330602,11.63301710056212,0.0882350904511238,3.893088689738948,11.458473960020484,3.1317909569717037,10.402572632729134,11.498299460806498,-12.512393114043444,-2.704899485518293,-2.763887731040396,4.684262159394055,-1.4146013957698171,-1.4041807593368902,4.184629858993903,-28.9822089962843,-10.85085985137195,26.799745183691755,-14.059558627136752,7.793813230420372,-16.744354141229145,5.335516136162689,-1.7003293181177797,29.62611195974481,38.25222391948962,44.290502291310986,1577396250.0,-27.685454068980945,-51.12984670589159,4.22658
82139,1577396251.81,1.5715306116615853,3.625872426400533,9.961864341773056,2.269352802853468,0.1916529231373848,7.876748276426734,0.1294620751357657,2.391573877846322,10.799192576040872,10.680966260956556,-15.980045969893292,-1.4821494497903962,3.890805128144055,1.3319806354801829,-1.7093565405868902,-5.184266625381097,-27.1511543087843,3.0651557736280486,26.63482367486904,-13.876966956654456,6.553888398308031,-16.339831349206353,5.487959454338766,-4.08079036348267,29.19480636175757,38.10845538682721,44.482193668194206,1577396250.0,-27.685454068980945,-51.12984670589159,4.22658
82140,1577396251.82,0.6605368799721322,0.6881869893888148,10.456266984595322,0.4150436170624519,1.0128640925709784,9.07384910650486,0.6262589196181876,1.6685249764791346,5.585818461050639,4.913143995331555,-6.534855540205792,-1.7568076529153962,0.9153412609565548,-7.182423661394816,-2.1060850562118905,-6.069276391006097,-19.2318427853468,10.83187940644055,26.7172844292804,-13.42048778044872,6.996718695491009,-17.322243844118844,6.859949317923457,-21.76421527190758,29.4823434270824,38.22826249737922,44.33842513553179,1577396250.0,-27.685454068980945,-51.12984670589159,4.22658
82141,1577396251.83,1.2985916224037728,-0.0755633402010288,7.847784275855088,3.265340693478468,1.697605767375666,8.93737961187595,1.1589687890029532,-4.178115477622427,3.69559625035728,-5.554385301543445,3.184993092606707,-2.031465856040396,-0.7478667468559451,2.644236494855183,-3.2962706030868905,-11.715028344131095,11.5756523318407,15.15011671112805,26.799745183691755,-12.96400860424298,6.022492041688465,-16.39762031949532,-4.420856227106227,-19.38375422654269,29.29065205019917,38.39599245215204,44.24257944709018,1577396250.0,-27.685454068980945,-51.12984670589159,4.22658
82142,1577396251.84,1.032835238126429,1.3968706807950648,10.148612071265244,1.9916254102753423,-1.2041666447337078,8.13532205572361,0.9075776146865469,-7.139742931235708,8.306828647818216,-3.387637254668445,-0.0498701886432926,-0.9633506216653964,-0.3206206531059451,-6.572072098894817,-0.5496885718368902,-3.810975609756097,17.2214042849657,3.2787788205030486,26.96466669251448,-14.242150297619048,8.325209587039938,-16.39762031949532,-4.115969590754073,-22.10428113553113,29.62611195974481,38.10845538682721,44.482193668194206,1577396250.0,-27.685454068980945,-51.12984670589159,4.22658
82143,1577396251.85,0.0512125574623665,3.25117986658608,10.13185265964415,-1.4895438035918438,6.754159673625667,13.28764402837986,0.6442154320693594,1.7283800179830406,13.15748121129478,0.3355072765815547,-8.701603587080792,-2.9469931997903966,-2.578921434355945,-8.494679520769816,-1.8924620093368905,8.212950171493903,12.8268730349657,-13.84158250762195,27.45943121898264,-14.059558627136752,8.502341705913125,-16.859932081807084,-4.115969590754073,-26.185071499013805,29.4823434270824,38.39599245215204,44.43427082397341,1577396250.0,-27.685454068980945,-51.12984670589159,4.22658
82144,1577396251.86,0.1757110437904915,-1.0188787943025912,9.751174595679307,0.7047420179413582,-1.1107927799876147,8.411852347471655,1.0643978234267817,-0.3593638296732086,11.337887949576029,-1.5871001452934452,4.100520436356708,-0.8107627310403963,-0.778384324980945,5.634959151105183,-4.3338682593368905,3.574278296493903,1.7032158084032014,-7.5244438357469505,27.45943121898264,-14.059558627136752,8.502341705913125,-18.535812220187225,-0.4573299545282305,-21.76421527190758,29.5302662713032,38.41995387426245,44.3623865576422,1577396250.0,-27.685454068980945,-51.12984670589159,4.22658
82145,1577396251.87,0.0655777674233031,-0.4538472025057163,10.421551060523056,1.5510923048065928,1.0894785456959784,9.119338938047829,-3.184113022520484,4.4649525155416345,7.016353952993998,-13.916201707793444,1.811702076981708,-2.092501012290396,-6.424136278105945,-4.679982255144817,-0.1834776343368902,1.2549423589939026,-0.2956855587842988,-13.20071336699695,27.294509710159915,-13.146600274725271,8.325209587039938,-19.98053647741148,2.896423045345459,-18.023490772048465,29.67403480396561,38.44391529637284,44.57803935663581,1577396250.0,-27.685454068980945,-51.12984670589159,4.22658
82146,1577396251.88,1.8899594324623663,1.1215374898770951,10.421551060523056,1.323643147091749,2.0112461848561347,9.94055010748142,5.52838681878811,12.665093201576791,5.838406736197124,-5.096621629668445,-14.301579173018292,-4.045626012290397,-0.9614897937309452,-0.102345536394817,-3.5404112280868905,2.902891577743903,11.8808281130907,5.750702648628049,26.96466669251448,-13.146600274725271,6.908152636054422,-19.05591295278796,2.896423045345459,-18.023490772048465,29.338574894419985,38.25222391948962,44.3863479797526,1577396250.0,-27.685454068980945,-51.12984670589159,4.22658
82147,1577396251.89,2.5387880823647104,2.5903802083829555,10.658577024878523,4.306818415646436,1.2690436702076973,4.299810996153297,-3.095527561094703,-6.526827306235708,7.045084372915873,3.585629346894055,-4.123966868330792,-2.916475621665396,-1.6023589343559452,0.5080060261051829,-3.7540342749618905,-7.686708031631097,19.9374687380907,6.269501476753049,25.31545160428729,-12.781416933760685,6.199624160561654,-19.05591295278796,2.896423045345459,-18.023490772048465,29.4823434270824,38.25222391948962,44.290502291310986,1577396250.0,-27.685454068980945,-51.12984670589159,4.22658
82148,1577396251.9,2.00248691048971,0.2237118673185013,6.430416893042588,0.6281275648163582,1.8101332454030097,7.383542734434546,-0.825824387266577,-3.579565062583364,6.146061649527201,-0.4884673327934451,3.184993092606707,-2.275606481040396,-5.844302293730945,0.2486066120426828,-2.8842832983993905,-3.841493187881097,19.3576347537157,-1.8634330935594516,25.31545160428729,-12.781416933760685,6.199624160561654,-16.802143111518113,-4.115969590754073,-23.80461045364892,29.62611195974481,38.32410818582083,44.45823224608381,1577396250.0,-27.685454068980945,-51.12984670589159,4.22658
82149,1577396251.91,1.90671884408346,1.2867374044278774,7.9148219223394625,2.6787612867401864,-2.4635167179758954,3.4211389868759525,-0.7252679175400145,-4.683292027915395,10.413726108755716,-4.821963426543445,8.006770436356707,-3.679415074790396,-2.304263231230945,8.778269697980184,-3.6319639624618905,-1.4000869378810974,19.1134941287157,-9.01980516387195,26.46990216604632,-14.059558627136752,7.793813230420372,-17.322243844118844,5.945289408866995,-25.504939771766697,29.67403480396561,38.0605325426064,44.290502291310986,1577396250.0,-27.685454068980945,-51.12984670589159,4.22658
82150,1577396251.92,-0.8418246617759146,0.2045582540372514,11.688083738745712,-1.1902685960723125,-0.7708161442454267,9.1480693579697,4.431842458436547,-0.579630382407583,8.407385117544779,-8.667178270293444,17.924983326981707,-3.160616246665396,-5.569644090605945,-3.489796708269817,-1.9534971655868905,4.764463843368903,14.4137870974657,-17.16799852324695,26.96466669251448,-13.511783615689868,6.553888398308031,-17.322243844118844,5.945289408866995,-25.504939771766697,29.5302662713032,38.25222391948962,44.57803935663581,1577396250.0,-27.685454068980945,-51.12984670589159,4.22658
82151,1577396251.93,1.1525453211342416,1.423206899056783,7.02896730808165,0.3647653821991712,3.756619195110041,10.69592073126072,-0.825824387266577,2.4047419869771822,9.950448087515484,-6.775088426543444,0.8503983660442072,-3.3284629263528966,-4.577822801543445,2.8426007526676838,-3.3573057593368905,2.429869116806403,10.8127128787157,-9.09609910918445,25.31545160428729,-13.876966956654456,6.553888398308038,-17.033298992673995,7.012392636099534,-21.76421527190758,29.410459160751188,38.41995387426245,44.482193668194206,1577396250.0,-27.685454068980945,-51.12984670589159,4.22658
82152,1577396251.94,-0.2528510533774771,2.55566428431069,9.851731065405868,1.0459157545136235,-1.9583401676829264,4.397973264219703,2.0448234032607653,-0.5652651724466455,9.094520994009622,-1.0377837390434452,4.497248951981708,-2.367159215415396,-2.639956590605945,5.451853682355183,-3.1436827124618905,-8.327577172256097,5.594207019340701,-9.90481492949695,25.15053009546457,-14.059558627136752,6.731020517181234,-17.206665903540905,5.945289408866995,-15.302963863060016,29.4823434270824,38.0605325426064,44.62596220085662,1577396250.0,-27.685454068980945,-51.12984670589159,4.22658
82153,1577396251.95,1.1980351526772102,-1.8927624002596224,9.77511661228087,-0.3690574266387189,0.2371427546803535,9.744225571348608,3.1270025536513906,8.010765174233041,9.18550065709556,-17.822451707793444,0.2247880144817073,-3.343721715415396,-7.858462449980945,-11.851613114519816,-1.8009092749618902,-0.6066299066310974,6.875945300590701,5.170868664253049,26.63482367486904,-13.511783615689868,5.491095685068893,-16.455409289784292,5.487959454338766,-14.96289799943646,29.5302662713032,38.39599245215204,44.290502291310986,1577396250.0,-27.685454068980945,-51.12984670589159,4.22658
82154,1577396251.96,-0.5688856725181022,0.0537235494474076,10.632240806616808,-1.7361465745879376,2.281790972453791,13.72817713384861,-2.70766689214939,-1.8701050772318015,11.632374753775249,-3.051943895293445,8.922297780106707,-1.5737021841653962,-7.797427293730945,-1.8113299113948167,-2.1060850562118905,-10.189149437881095,8.0966484255907,3.9196479611280486,27.12958820133719,-14.789925309065936,6.731020517181234,-16.455409289784292,5.487959454338766,-14.96289799943646,29.4823434270824,38.30014676371043,44.24257944709018,1577396250.0,-27.685454068980945,-51.12984670589159,4.22658
82155,1577396251.97,-0.4575552953208365,0.7911376607755327,11.1853013901129,0.7238956312226088,-1.551325885456364,9.291721457579078,1.0679891259170156,-3.526892626059927,14.84299918004478,-6.820864793730944,-0.5686690167682926,-2.260347691977896,-3.433413621855945,-0.1633806926448171,-3.4030821265243905,-8.876893578506095,-8.1234443478468,-0.4596244998094516,26.3049806572236,-13.876966956654456,6.908152636054423,-15.87751958689459,6.402619363395226,-53.39034058889828,29.410459160751188,38.37203103004164,44.3623865576422,1577396250.0,-27.685454068980945,-51.12984670589159,4.22658
82156,1577396251.98,0.2044414637123665,2.1342847921231898,9.466264598120713,-1.4560249803496563,4.709511455852229,15.282014011290014,0.8932124047256094,1.0508209481588222,10.392178293814313,-4.821963426543445,-1.1485030011432926,-3.404756871665396,-7.522769090605945,-4.557911942644817,-1.9840147437118905,-10.768983422256095,-20.5593574337843,-12.52932664824695,25.48037311311001,-13.329191945207567,6.731020517181234,-17.148876933251934,7.012392636099534,-79.57541208791208,29.62611195974481,38.25222391948962,44.482193668194206,1577396250.0,-27.685454068980945,-51.12984670589159,4.22658
82157,1577396251.99,0.8005976770912728,-1.3085771951814975,8.745609898413681,4.115282282833936,-3.224872845905583,8.25024373541111,-2.0684150488876707,7.610933496986947,10.554984006704936,-11.718936082793444,-8.289616282393293,-3.435274449790396,-0.7173491687309451,5.695994307355183,-5.0052549780868905,-6.313417016006097,-23.1228339962843,1.7528999142530486,26.799745183691755,-13.69437528617216,8.502341705913125,-16.802143111518113,5.487959454338766,-74.8144899971823,29.4823434270824,38.15637823104801,44.57803935663581,1577396250.0,-27.685454068980945,-51.12984670589159,4.22658
82158,1577396252.0,1.8133449793373664,-1.6557364359041538,8.572030278052353,1.275759113888624,-2.386902264850895,5.915897116758765,-1.8337832861923584,-6.263465123618521,13.485486838736186,-7.278628465605944,-2.826969798018292,-2.397676793540396,-5.844302293730945,5.573923994855183,-2.2281553687118905,-17.2997451410061,-31.8203437619093,-5.632353991996951,26.7172844292804,-15.246404485271674,6.288190219998247,-16.802143111518113,5.487959454338766,-74.8144899971823,29.578189115524005,38.39599245215204,44.43427082397341,1577396252.0,-27.68535780128052,-51.12988430557765,5.8864307
82159,1577396252.01,3.043964632657679,1.52136916712319,10.06242081149962,1.0578867628144053,1.3097450984303534,11.23701030645603,2.218403023622094,4.176451215492807,10.638781064810404,7.232479932831555,-2.979557688643293,-2.977510777915396,-5.188174364043445,-1.8876238567073167,-2.7927305640243905,-12.905213891006095,-39.1903388790968,0.8526313595655486,26.3049806572236,-15.33770032051282,6.199624160561654,-17.06219347781848,6.021511067955034,-77.70504983798253,29.43442058286159,38.34806960793124,44.3623865576422,1577396252.0,-27.68535780128052,-51.12988430557765,5.8864307
82160,1577396252.02,1.0855076746498664,2.7902960470060023,10.938698619116806,1.5295444898651864,-1.4052795841868329,7.352418112852515,3.138973561952172,0.7276037240377284,9.199865867056497,1.4036225109565548,5.382258717606708,-3.832002965415396,-5.081362840605945,5.024607588605183,-3.8761045874618905,-21.2365127191311,-36.8252265744093,6.666229992378049,26.3049806572236,-15.33770032051282,6.199624160561654,-19.402646774521777,7.7746092269799165,-77.87508276979432,29.43442058286159,38.30014676371043,44.24257944709018,1577396252.0,-27.68535780128052,-51.12988430557765,5.8864307
82161,1577396252.03,-1.2272911290610709,-0.6597485452791538,9.976229551733994,-0.2349821336699688,-0.1650831242258954,14.137585617735327,0.6753400536513907,2.0803276620260096,6.714684543814311,-6.744570848418445,19.054133717606707,-2.855440465415396,-4.928774949980945,-6.053273270769817,-3.6014463843368905,-12.020204125381095,-23.2449043087843,7.917450695503049,26.3049806572236,-12.781416933760685,4.428302971829755,-17.322243844118844,5.335516136162689,-77.87508276979432,29.5302662713032,38.44391529637284,44.482193668194206,1577396252.0,-27.68535780128052,-51.12988430557765,5.8864307
82162,1577396252.04,-1.4188272618735709,-0.4059631693025913,9.898417997778916,-4.496661088748094,1.5946550959889472,12.928513779356422,-3.691683774473609,-2.0017861685403955,6.283728244986186,-14.007754442168444,7.838923756669208,-2.473970738852896,-2.182192918730945,-4.802052567644817,-3.4183409155868905,-9.029481469131095,-5.117462902534299,4.438446789253049,25.23299084987593,-14.333446132860196,7.173850814364208,-17.322243844118844,5.335516136162689,-79.91547795153564,29.578189115524005,38.10845538682721,44.482193668194206,1577396252.0,-27.68535780128052,-51.12988430557765,5.8864307
82163,1577396252.05,0.7120122156654916,-0.1138705667635288,12.650552806128523,0.5179942884491707,-1.6303345402415204,8.294536466123999,0.856102278993188,-1.045302605307974,7.93453028966392,-11.169619676543444,-7.770817454268292,-3.709932652915396,-3.647036668730945,3.193552901105183,-3.4793760718368905,0.8429550543064028,15.8481132693407,-0.1697075076219513,26.14005914840088,-14.059558627136752,6.376756279434842,-20.558426180301183,6.250176045219149,-84.67640004226543,29.5302662713032,38.32410818582083,44.410309401863,1577396252.0,-27.68535780128052,-51.12988430557765,5.8864307
82164,1577396252.06,2.0647361536537727,0.2907495138028764,6.401686473120713,1.096193989376905,3.1173673518483227,14.068153769590795,3.368816921327172,-0.1893755118021143,12.25007878209556,11.138729932831556,1.5980790301067074,-2.214571324790396,-7.309146043730945,-4.802052567644817,-1.4041807593368902,1.1633896246189026,7.425261706840701,-4.655791491996951,26.14005914840088,-14.059558627136752,6.376756279434842,-20.09611441798942,5.335516136162689,-20.0638859537898,29.19480636175757,38.49183814059364,44.482193668194206,1577396252.0,-27.68535780128052,-51.12988430557765,5.8864307
82165,1577396252.07,1.2171887659584602,-1.0284556009432162,8.769551915015244,-0.9436658250762188,0.2347485530201973,5.032436704161109,-5.137781577207984,-2.2914845694193016,7.854324534048685,-5.127139207793445,-5.237858469893292,-2.946993199790396,-1.3887358874809452,8.351023604230184,-4.7916319312118905,-2.407167016006097,3.824187488090701,-10.60671922637195,24.82068707781913,-14.059558627136752,6.376756279434842,-20.96294897232397,5.487959454338766,-19.72382009016624,29.338574894419985,38.30014676371043,44.57803935663581,1577396252.0,-27.68535780128052,-51.12988430557765,5.8864307
82166,1577396252.08,0.5336441919838509,0.7995173665860795,10.538866941870712,1.0686606702851082,-0.1986019474680835,7.182429794981421,2.2435421410537346,4.063923737465463,7.235423404898295,0.9611176281440548,5.336482350419208,-2.885958043540396,-6.714053270293444,2.857859541730183,-2.0755674780868905,-4.314515648818596,9.6530449099657,-6.654692859184451,25.645294621932727,-14.424741968101344,5.136831447322516,-20.44284823972324,-2.591536408993305,-4.420856227106225,29.458382004971995,38.34806960793124,44.45823224608381,1577396252.0,-27.68535780128052,-51.12988430557765,5.8864307
82167,1577396252.09,0.8269338953529916,1.3848996724942837,10.50774232028868,1.6636197828339363,2.487692315227229,12.607690756895485,3.115031545350609,-0.9267896231302392,6.245421018423686,-3.845400926543445,4.710871998856708,-3.954073277915396,-9.597964403105944,4.780466963605183,-5.0968077124618905,-5.519959984756097,12.4606620974657,3.3703315548780486,26.14005914840088,-12.598825263278387,6.376756279434842,-20.44284823972324,-2.286649772641151,-3.740724499859112,29.5302662713032,38.49183814059364,44.43427082397341,1577396252.0,-27.68535780128052,-51.12988430557765,5.8864307
82168,1577396252.1,-0.7221145787681021,-1.4689887064119662,9.784693418921496,-2.2030158983184065,-0.3542250553782392,7.239890634825171,-1.3669139624618896,-4.659350011313832,7.665182602896342,-13.763613817168444,4.314143483231708,-3.618379918540396,-0.7783843249809451,6.367381026105183,-2.8079893530868905,-7.442567406631097,13.4372245974657,-1.0852348513719514,26.14005914840088,-12.598825263278387,6.376756279434842,-19.51822471509972,-3.5061963180497666,-3.740724499859112,29.5302662713032,38.39599245215204,44.62596220085662,1577396252.0,-27.68535780128052,-51.12988430557765,5.8864307
82169,1577396252.11,-0.9926593663657584,1.9367631551602995,10.58435677341368,0.4593363477753426,2.9234370173756665,11.209476987364232,-1.5297196753525144,-0.6969462637552393,10.16951753941978,-10.177798387480944,3.764827076981708,-3.6031211294778966,-7.248110887480945,1.8202618854801829,-2.2891905249618905,-4.818055687881097,4.892302722465701,-8.04324266387195,25.975137639578165,-13.146600274725271,6.553888398308038,-19.51822471509972,-3.5061963180497666,-3.740724499859112,29.602150537634408,38.39599245215204,44.43427082397341,1577396252.0,-27.68535780128052,-51.12988430557765,5.8864307
82170,1577396252.12,-1.361366422029821,0.0465409444669389,10.076786021460556,-0.9089499010039532,-0.0860744694407397,11.335172574522437,1.1733339989638911,2.7937997567525725,11.11403009435142,-2.350039598418445,9.410579030106708,-1.909395543540396,-3.891177293730945,0.2638654011051828,-3.7540342749618905,-4.314515648818597,2.1457206912157014,-0.3070366091844513,24.82068707781913,-14.059558627136752,6.731020517181234,-18.47802324989825,-3.81108295440192,-19.38375422654269,29.5302662713032,38.44391529637284,44.410309401863,1577396252.0,-27.68535780128052,-51.12988430557765,5.8864307
82171,1577396252.13,-0.9088623082602896,-0.6358065286775912,9.562032664526964,-1.9827493455840317,2.583460381633479,10.893442368223608,-0.4212043067001708,-2.7224408682474266,10.25810300084556,-14.160342332793444,3.947932545731707,-2.855440465415396,-6.973452684355945,-0.193898270769817,-1.2515928687118902,-6.893251000381097,-3.0117500119092986,-6.761504382621951,26.14005914840088,-14.059558627136752,6.376756279434842,-16.39762031949532,-3.2013096816976128,-15.983095590307128,29.338574894419985,38.44391529637284,44.57803935663581,1577396252.0,-27.68535780128052,-51.12988430557765,5.8864307
82172,1577396252.14,-0.9854767613852896,2.5820005025724084,10.158188877905868,1.8072718824433116,1.1541219905201971,13.677898898985328,2.229176931092797,4.625364026772103,11.89334273473228,-1.9838286609184448,-0.2634932355182927,-2.306124059165396,-3.708071824980945,-1.2009783488948171,-3.3573057593368905,-2.193543969131097,-2.8896796994092986,-3.3130180544969514,25.48037311311001,-14.059558627136752,6.731020517181234,-16.39762031949532,-3.2013096816976128,-22.784412862778247,29.62611195974481,38.39599245215204,44.43427082397341,1577396252.0,-27.68535780128052,-51.12988430557765,5.8864307
82173,1577396252.15,0.2583110010658817,-1.2990003885408723,6.287961894263291,1.0698577711151862,-1.7284968083079266,8.39629003668064,2.870822976014672,-1.5899834829935204,8.606103855337748,-0.8241606921684452,1.7048905535442072,-1.2380088247903962,-0.6563140124809451,-1.3230486613948171,-4.0592100562118905,-9.456727562881095,-0.8144843869092988,3.9501655392530486,25.56283386752137,-14.333446132860196,6.465322338871443,-17.264454873829877,-3.658639636225843,-20.40395181741336,29.386497738640788,38.44391529637284,44.3863479797526,1577396252.0,-27.68535780128052,-51.12988430557765,5.8864307
82174,1577396252.16,-1.5912097814048207,2.529328066048971,9.293882078589464,-2.2101985032988747,2.709155968791681,10.900624973204078,-1.6817514807724372,2.686060682045541,8.586950242056497,-3.784365770293445,-3.071110423018293,-1.848360387290396,-4.120059129668445,-6.358449052019817,-1.7551329077743902,-3.627870141006097,1.4590751834032014,1.4629829220655486,26.63482367486904,-13.511783615689868,8.325209587039938,-17.206665903540905,-3.658639636225843,-25.84500563539025,29.5302662713032,38.22826249737922,44.602000778746216,1577396252.0,-27.68535780128052,-51.12988430557765,5.8864307
82175,1577396252.17,-0.3055234899009146,3.958666457162252,9.636252915991808,3.1791494337128428,-0.8713726139719891,9.971674729063452,4.094260024354516,-3.924330101645864,9.556601914419778,-0.4274321765434451,-15.430729563643292,-2.519747106040396,-4.257388231230945,1.4540509479801829,-3.9676573218368905,-8.449647484756097,0.8639824099657012,1.5392768673780486,24.98560858664185,-13.511783615689868,6.199624160561654,-19.17149089336589,-4.115969590754073,-26.185071499013805,29.5302662713032,38.58768382903526,44.290502291310986,1577396252.0,-27.68535780128052,-51.12988430557765,5.8864307
82176,1577396252.18,0.850875911954554,-3.1209878519197787,10.012142576636338,1.1584432325409677,-2.918415033405583,7.259044248106421,-0.2440333838486083,-8.073481578696645,13.377747764029154,-12.390322801543444,-12.501042063643292,-2.336641637290396,-3.891177293730945,-2.787892411394817,-3.0826475562118905,-8.724305687881097,-7.833527355659299,-13.93313524199695,27.12958820133719,-14.424741968101342,6.731020517181234,-19.17149089336589,-0.4573299545282303,-23.46454459002536,29.338574894419985,38.15637823104801,44.482193668194206,1577396252.0,-27.68535780128052,-51.12988430557765,5.8864307
82177,1577396252.19,-0.5210016393149771,-0.2527342630525913,11.51091281589415,-0.970002043337938,2.4505821894948068,12.857884830381812,1.8101916405654528,6.539528254067025,10.57653182164634,-13.717837449980944,0.7588456316692076,-0.5818808951028963,-3.982730028105945,-9.455983231707316,-0.9311582983993903,1.3617538824314028,-5.9261787228468,-3.282500476371951,26.882205938103112,-14.333446132860196,6.288190219998255,-17.206665903540905,-2.1342064544650747,-24.14467631727247,29.338574894419985,38.34806960793124,44.602000778746216,1577396252.0,-27.68535780128052,-51.12988430557765,5.8864307
82178,1577396252.2,0.5013224695717415,3.9371186422208457,12.846877342261337,3.612499934201124,-0.7612393376048017,11.061036484434544,-5.630987119200172,-9.505214171470085,13.021011716665871,-0.7326079577934451,-16.895573313643293,-2.550264684165396,-0.7783843249809451,-1.8723650676448167,-3.9371397437118905,-11.318299828506095,-2.8896796994092986,0.2270210080030487,25.975137639578165,-14.607333638583638,6.553888398308031,-16.744354141229145,-3.2013096816976128,-24.824808044519585,29.43442058286159,38.25222391948962,44.482193668194206,1577396252.0,-27.68535780128052,-51.12988430557765,5.8864307
82179,1577396252.21,-0.2767930699790396,1.5189749654630336,10.234803331030868,0.1073887037323738,-0.2033903507883954,10.91259598150486,0.5508415673232657,0.1960909554830409,7.3635131937166545,6.713681104706555,-5.085270579268292,-1.2990439810403962,-2.670474168730945,-8.189503739519816,-2.2281553687118905,-3.414247094131097,-4.446076183784299,-7.158232898246951,26.46990216604632,-14.424741968101342,6.376756279434842,-16.859932081807084,-3.2013096816976128,-24.824808044519585,29.62611195974481,38.30014676371043,44.482193668194206,1577396252.0,-27.68535780128052,-51.12988430557765,5.8864307
82180,1577396252.22,-0.8633724767173209,-2.3213244974275917,9.760751402319933,-0.1320314622832501,0.5507831721608223,9.28214465093845,-0.5792216162704833,7.859930469643197,6.757780173697124,-11.474795457793444,0.8656571551067074,-0.6886924185403963,-1.9685698718559448,-6.053273270769817,-3.6624815405868905,2.841856421493903,10.4465019412157,-0.7800590701219513,26.14005914840088,-13.69437528617216,5.313963566195704,-16.859932081807084,5.335516136162689,-24.824808044519585,29.4823434270824,38.0605325426064,44.3863479797526,1577396252.0,-27.68535780128052,-51.12988430557765,5.8864307
82181,1577396252.23,2.252680983976038,0.99105349939858,8.442743388403915,2.3040687269257334,1.2055973262135575,7.467339792540015,-0.2344565772079838,-2.8289828421243803,7.971640415396342,-0.4884673327934452,-12.623112376143292,-2.962251988852896,-4.730410692168445,-1.6434832317073171,-3.1436827124618905,-5.352113305068597,19.4491874880907,9.36703565644055,25.727755376344085,-13.420487780448717,5.57966174450549,-16.88882656695157,5.564181113426804,-18.5335895674838,29.36253631653038,38.49183814059365,44.482193668194206,1577396252.0,-27.68535780128052,-51.12988430557765,5.8864307
82182,1577396252.24,0.8125686853920541,1.57883000696694,11.05122609714415,-0.3666632249785626,2.2123591243092595,8.53036532964939,-1.3884617774032957,0.3995980965963221,10.147969724478372,4.882626417206555,-4.932682688643292,-2.245088902915396,-2.700991746855945,2.308543135480183,-3.7235166968368905,0.3699325933689026,10.9958183474657,-17.44265672637195,26.14005914840088,-13.69437528617216,4.605435090702943,-16.802143111518113,7.012392636099534,-19.04368836291913,29.4823434270824,38.30014676371043,44.482193668194206,1577396252.0,-27.68535780128052,-51.12988430557765,5.8864307
82183,1577396252.25,2.6632865686928358,-2.5822924783846224,7.081639744605088,3.435329011349561,-0.0573440495188642,3.540849069883765,12.679867177674828,8.829582142006478,7.361118992056498,-15.991397020293444,-7.892887766768292,-3.496309606040396,-1.3887358874809452,7.374461104230183,-3.2047178687118905,16.1475204839939,10.9347831912157,-11.91897508574695,26.63482367486904,-14.607333638583638,6.199624160561654,-17.091087962962966,5.640402772514843,-9.861910045083125,29.5302662713032,38.30014676371043,44.57803935663581,1577396252.0,-27.68535780128052,-51.12988430557765,5.8864307
82184,1577396252.26,0.7790498621498665,-0.5639804788729044,9.147835777319932,4.007543208126905,-4.462675104206364,6.84484736089939,-9.004417258360327,-10.685555589927114,7.351542185415873,-2.350039598418445,11.241633717606708,-1.3143027701028962,-8.499331590605944,-5.015675614519817,-1.8009092749618902,2.475645483993903,19.7543632693407,-3.4350883669969514,25.48037311311001,-12.598825263278387,6.022492041688465,-16.859932081807084,5.640402772514843,-15.302963863060016,29.5063048491928,38.30014676371043,44.482193668194206,1577396252.0,-27.68535780128052,-51.12988430557765,5.8864307
82185,1577396252.27,1.001710616544398,-0.6022877054354039,12.341700791968368,-0.7233992723418439,1.4569885005299634,12.152792441465795,0.9949659752822506,3.982520881020151,8.282886631216654,-19.836611864043444,-9.388249094893292,-3.862520543540396,-3.723330614043445,0.5537823932926829,-2.2128965796493905,-0.8660293206935972,16.4584648318407,-12.37673875762195,25.81021613075545,-14.424741968101342,6.022492041688465,-16.021992012617012,7.69838756789188,-53.2203076570865,29.19480636175757,38.37203103004163,44.33842513553179,1577396252.0,-27.68535780128052,-51.12988430557765,5.8864307
82186,1577396252.28,1.231553975919398,0.9204245504239702,12.731955662573837,1.754599445919874,-1.4986534489329266,5.149752585508765,1.7862496239638903,-1.230853233970083,11.94362096959556,1.0374115734565548,-1.8198897198932928,-3.130098668540396,-0.4426909656059451,2.857859541730183,-1.9840147437118905,0.9192489996189026,4.770232409965701,1.9970405392530488,26.14005914840088,-14.424741968101342,7.085284754927611,-17.091087962962966,8.07949586333207,-79.91547795153564,29.4823434270824,38.25222391948962,44.24257944709018,1577396252.0,-27.68535780128052,-51.12988430557765,5.8864307
82187,1577396252.29,0.2882385218178353,0.4942566549161576,12.624216587866806,-0.7593122972441876,1.8484404719655096,11.405801523497043,-3.366072348692359,-13.63760623689977,15.599566904654154,-13.305850145293444,3.337580983231707,-3.374239293540396,-6.302065965605945,-7.640187333269817,-1.9840147437118905,-22.8234267816311,-3.0117500119092986,-15.61160203887195,25.645294621932727,-14.607333638583638,6.908152636054422,-17.091087962962966,7.7746092269799165,-80.59560967878276,29.62611195974481,38.30014676371043,44.43427082397341,1577396252.0,-27.68535780128052,-51.12988430557765,5.8864307
82188,1577396252.3,0.7766556604897102,0.2680045980313925,11.05721160129454,-1.08971212634575,4.506004314738948,12.871052939512673,1.570771474549828,10.895778174721322,15.015381699576029,-5.752749559355945,3.810603444169208,-2.061983434165396,-3.708071824980945,3.407175947980183,-1.8619444312118905,-6.557557641006097,-21.9021308712843,-3.4045707888719514,26.3049806572236,-14.607333638583638,6.553888398308031,-16.975510022385023,8.384382499684225,-90.79758558748944,29.410459160751195,38.39599245215204,44.290502291310986,1577396252.0,-27.68535780128052,-51.12988430557765,5.8864307
82189,1577396252.31,-0.7987290318931021,-2.71157936803306,11.470211387671494,2.2789296094940927,-4.585976489704411,7.458960086729468,-0.7528012366318114,-3.3844376272806302,11.999884708609232,-8.606143114043444,7.884700123856708,-2.458711949790396,0.8390473156440548,1.5913800495426833,-1.7703916968368905,-16.4605117425686,-39.3276679806593,4.3621528439405495,25.15053009546457,-14.789925309065936,5.668227803942081,-17.322243844118844,8.384382499684225,-90.11745386024232,29.19480636175757,38.34806960793124,44.3623865576422,1577396252.0,-27.68535780128052,-51.12988430557765,5.8864307
82190,1577396252.32,0.0703661707436156,0.6403029561856889,7.457529405249619,-2.2748419481230937,2.985686260539729,15.13117930670017,4.108625234315453,7.876689881264291,9.515900486197122,1.3120697765815548,8.006770436356707,-1.6652549185403962,-2.365298387480945,-7.975880692644817,-3.0521299780868905,-6.069276391006097,-45.8584296994093,9.50436475800305,25.15053009546457,-15.520291990995116,7.793813230420372,-17.322243844118844,8.384382499684225,-89.4373221329952,29.4823434270824,38.15637823104801,44.43427082397341,1577396252.0,-27.68535780128052,-51.12988430557765,5.8864307
82191,1577396252.33,0.506110872892054,-1.3875858499666538,9.463870396460557,1.812060285763624,0.692041070110041,11.494386984922826,1.3936005516982657,-0.1845871084818018,7.265350925650249,-2.197451707793445,-10.242741282393292,-2.916475621665396,0.0761078625190548,3.285105635480183,-2.8995420874618905,-10.616395531631095,-29.2263496212843,14.26510694550305,26.46990216604632,-14.424741968101342,5.313963566195704,-17.322243844118844,8.384382499684225,-89.4373221329952,29.43442058286159,38.58768382903526,44.290502291310986,1577396252.0,-27.68535780128052,-51.12988430557765,5.8864307
82192,1577396252.34,-0.5066364293540396,1.4627112264493618,10.268322154273056,-2.089291319460984,0.6932381709401191,11.685923117735328,0.2898735863662344,0.4905777596822603,7.320417563833842,2.670102003144055,-1.835148508955792,-1.6194785513528962,3.3567475109565548,-4.512135575457317,-1.8772032202743905,-0.6218886956935972,-5.4378974728468,0.0133979611280486,25.48037311311001,-14.424741968101342,6.731020517181234,-17.95792251729752,8.994155772388533,-90.79758558748944,29.386497738640788,38.15637823104801,44.290502291310986,1577396252.0,-27.68535780128052,-51.12988430557765,5.8864307
82193,1577396252.35,2.009669515470179,-2.024443491568216,8.62589981540587,1.9197993604706551,-0.8426421940501141,8.48487549810642,0.8477225731826407,0.6318356576314784,12.67864087926353,0.8543061047065549,-11.829655344893292,-1.5431846060403962,0.8390473156440549,1.4235333698551829,-2.3197081030868905,4.550840796493903,-1.7300117306592988,2.4853217892530486,25.48037311311001,-14.424741968101342,6.731020517181234,-20.96294897232397,6.70750599974738,-73.45422654268809,29.62611195974481,38.10845538682721,44.43427082397341,1577396252.0,-27.68535780128052,-51.12988430557765,5.8864307
82194,1577396252.36,-0.0062482823813834,-1.6126408060213413,9.5380906479254,0.7705825635956551,-4.149034686725895,9.670005319883764,-4.1154574683212655,-11.432546507895864,14.498234140982278,6.377987745331555,13.377864186356708,-0.2309287466653963,2.7006195812690548,-1.4146013957698171,-0.3360655249618902,-3.749940453506097,-10.5801093869093,-4.259062976371951,26.96466669251448,-13.146600274725271,5.136831447322516,-20.96294897232397,6.70750599974738,-73.45422654268809,29.67403480396561,38.25222391948962,44.3863479797526,1577396252.0,-27.68535780128052,-51.12988430557765,5.8864307
82195,1577396252.37,0.3840065882240853,-1.8161479471346225,11.2236086166754,-1.8103668260527808,0.4286788874928535,13.424113523008764,-1.5201428687118894,0.2415807870260096,14.03854742223228,-9.216494676543444,6.511409108231708,0.7761513314596037,-1.0835601062309452,-5.626027177019817,-0.1529600562118902,-19.4664931878811,-24.5571601681593,-14.20779344512195,26.14005914840088,-12.96400860424298,6.731020517181234,-19.17149089336589,5.335516136162689,-13.942700408565791,29.62611195974481,38.25222391948962,44.3863479797526,1577396252.0,-27.68535780128052,-51.12988430557765,5.8864307
82196,1577396252.38,1.368023470548304,0.119564095101705,13.206007591284775,3.052256745724561,-0.6427263554270679,13.206241171934543,0.9829949669814686,7.877886982094369,12.956368271841654,4.333310010956556,-5.924503977705792,-1.1311973013528962,1.4493988781440548,4.719431807355184,-1.6635801733993905,-1.0796523675685974,-32.0187080197218,7.4902046017530495,24.98560858664185,-14.242150297619048,6.908152636054422,-20.09611441798942,1.6768764999368455,-10.201975908706675,29.266690628088774,38.515799562704046,44.43427082397341,1577396252.0,-27.68535780128052,-51.12988430557765,5.8864307
82197,1577396252.39,0.8867889368568977,0.0585119527677201,9.243603843726182,-0.4145472581816876,2.5858545832936355,10.44572665777439,1.791038027284203,-4.101501024497426,7.547866721548686,4.363827589081555,3.764827076981707,-0.2614463247903963,0.1676605968940548,-2.665822098894817,-1.7093565405868902,-7.625672875381097,-14.1201484494093,7.642792492378049,24.98560858664185,-14.242150297619048,6.908152636054422,-17.322243844118844,7.7746092269799165,-1.7003293181177797,29.29065205019917,38.10845538682721,44.3863479797526,1577396252.0,-27.68535780128052,-51.12988430557765,5.8864307
82198,1577396252.4,0.8245396936928353,3.5875651998380333,8.850954771460557,-1.4201119554473125,4.431784063274104,12.835139914610329,5.19559278802639,4.5774799935689785,4.2103496072908735,11.443905714081556,2.940852467606707,0.2573525033346037,2.7921723156440548,-8.677784989519816,0.4879090844131097,4.642393530868903,-0.5093086056592988,1.0509956173780486,26.63482367486904,-13.146600274725271,7.262416873800799,-17.322243844118844,7.7746092269799165,-1.7003293181177797,29.4823434270824,38.39599245215204,44.482193668194206,1577396252.0,-27.68535780128052,-51.12988430557765,5.8864307
82199,1577396252.41,0.1481777246986947,-1.0045135843416544,8.485839018286729,2.764952546505812,-1.168253619831364,7.1728529883407965,-0.2488217871689208,7.105756946693979,5.70672564488853,4.501156690644056,-1.0722090558307926,-0.1088584341653963,5.630307081269055,4.841502119855183,-1.9840147437118905,5.679991187118903,11.3009941287157,7.551239758003049,25.892676885166807,-13.78567112141331,6.642454457744632,-17.322243844118844,-1.981763136288998,-4.420856227106225,29.338574894419985,38.30014676371043,44.24257944709018,1577396252.0,-27.68535780128052,-51.12988430557765,5.8864307
82200,1577396252.42,1.0759308680092414,0.2213176656583451,8.506189732398056,-1.7672711961699683,-0.1902222416575365,9.241443222715796,-2.2731192908310307,-4.534851524985708,11.103256186880715,7.995419385956555,3.032405201981707,0.3794228158346037,1.9529389172065548,-5.931202958269817,0.6710145531631098,6.168272437118903,7.5320732302782,-2.0923149294969514,25.645294621932727,-11.685866910866912,7.616681111547183,-16.28204237891738,0.4573299545282312,-22.444346999154693,29.338574894419985,38.276185341600026,44.50615509030461,1577396252.0,-27.68535780128052,-51.12988430557765,5.8864307
82201,1577396252.43,1.9761506922279917,-0.5328558572908726,11.719208360327745,3.3299841383026862,-0.9024972355540204,8.875130368711888,-0.4283869116806396,5.7219083871236665,11.895736936392437,0.6406830578315549,-12.958805735518292,-2.519747106040396,3.5551117687690548,7.862742354230183,-1.2515928687118902,4.794981421493903,4.892302722465701,1.6918647580030486,25.645294621932727,-11.685866910866912,7.616681111547183,-16.39762031949532,-4.420856227106227,-25.504939771766697,29.72195764818641,38.39599245215204,44.43427082397341,1577396252.0,-27.68535780128052,-51.12988430557765,5.8864307
82202,1577396252.44,0.419919613126429,-0.1449951883455601,12.102280625952744,2.058663056759717,-2.1857893253977703,7.728307773497046,-3.3612839453720467,-4.364863207114614,10.126421909536967,11.993222120331556,7.945735280106708,0.1047646127096036,7.034115675019055,4.322703291730183,0.7015321312881098,6.046202124618903,14.6579277224657,-3.0993950076219514,26.14005914840088,-14.059558627136752,6.731020517181234,-16.39762031949532,-4.420856227106227,-25.504939771766697,29.4823434270824,38.0605325426064,44.290502291310986,1577396252.0,-27.68535780128052,-51.12988430557765,5.8864307
82203,1577396252.45,2.428654805997523,0.2871582113126426,12.227976213110948,-0.8766281785918438,3.086242730266292,13.007522434141578,-0.2655811987900145,0.2798880135885097,8.505547385611186,4.882626417206556,-3.0253340558307924,-0.8870566763528962,0.4728363781440549,-4.222218583269817,2.532586818788109,9.403135718368905,12.3080742068407,-9.69119188262195,26.46990216604632,-14.60733363858364,6.376756279434842,-16.39762031949532,-4.420856227106227,-25.504939771766697,29.5302662713032,38.15637823104801,44.43427082397341,1577396252.0,-27.68535780128052,-51.12988430557765,5.8864307
82204,1577396252.46,2.229936068204554,0.6019957296231888,10.371272825659776,2.994795905880811,0.3843861567799634,8.500437808897436,2.3524783165908434,3.158915509926401,8.755741459097514,5.370907667206555,7.030207936356708,-1.3295615591653962,3.616146925019055,14.042551924542684,-0.0461485327743906,9.326841773056405,13.7881767459032,1.9207465939405488,24.65576556899641,-14.97251697954823,6.553888398308031,-18.44912876475377,0.0762216590880382,-86.88682815581855,29.43442058286159,38.1084553868272,44.482193668194206,1577396252.0,-27.68535780128052,-51.12988430557765,5.8864307
82205,1577396252.47,1.8995362391029915,2.529328066048971,8.62589981540587,1.3499793653534675,3.732677178508479,8.980475241758764,1.1158731591201407,2.695637488686166,5.752215476431498,16.723446729706556,22.929866139481707,0.3489052377096037,0.2592133312690549,3.254588057355183,0.7015321312881098,5.893614233993903,22.5924980349657,-1.3598930544969514,24.65576556899641,-14.97251697954823,6.553888398308031,-19.63380265567766,2.896423045345459,-26.185071499013805,29.338574894419985,38.39599245215204,44.43427082397341,1577396252.0,-27.68535780128052,-51.12988430557765,5.8864307
82206,1577396252.48,1.0088932215248665,0.1375206075528764,7.938763938941025,0.0379568555878426,0.8380873713795722,8.149687265684546,-0.356560861875952,-3.7926490103372714,9.463228049673685,8.697323682831556,8.647639576981707,-0.7192099966653963,3.860287550019055,2.766306807355183,-0.2139952124618902,10.532286108993905,26.0104667849657,-1.1157524294969514,26.799745183691755,-14.059558627136752,7.439548992673988,-19.63380265567766,2.896423045345459,-26.185071499013805,29.43442058286159,38.30014676371043,44.24257944709018,1577396252.0,-27.68535780128052,-51.12988430557765,5.8864307
82207,1577396252.49,0.3708384790932259,-0.1042937601229043,9.516542832983994,0.8723361341522963,1.0427916133229325,9.692750235655248,0.6394270287490469,2.7219737069478844,10.453230436148296,0.4728363781440548,8.693415944169208,-1.2074912466653962,2.5175141125190548,9.724314619855184,2.059564357850609,15.720274390243905,25.0033867068407,-4.793120593559451,27.047127446925835,-13.603079450931014,6.465322338871443,-16.744354141229145,3.2013096816976128,-24.14467631727247,29.4823434270824,38.22826249737922,44.530116512415006,1577396252.0,-27.68535780128052,-51.12988430557765,5.8864307
82208,1577396252.5,0.1421922205483031,3.419971083627096,10.318600389136336,-2.2437173265410624,-0.7037784977610516,14.350669565489234,1.235583242127953,-2.0975542349466454,12.25007878209556,6.866268995331555,7.793147389481708,-0.8412803091653963,9.017758253144056,3.956492354230183,1.0067079125381098,5.527403296493903,15.1156913943407,-6.822539538871951,26.14005914840088,-14.424741968101342,6.376756279434842,-17.091087962962966,3.5061963180497666,-26.185071499013805,29.5302662713032,38.30014676371043,44.43427082397341,1577396252.0,-27.68535780128052,-51.12988430557765,5.8864307
82209,1577396252.51,-0.3438307164634146,-1.9574058450838407,8.012984190405868,-0.5558051561309064,-2.406055878132145,7.661270127012671,-1.5105660620712644,5.216731836830697,11.814334079947123,0.7932709484565549,6.267268483231708,-0.6886924185403963,3.829769971894055,12.959177901105184,0.3658387719131097,10.074522437118905,10.2328788943407,-8.07376024199695,26.14005914840088,-14.424741968101342,6.376756279434842,-17.264454873829877,-3.353752999873689,-19.72382009016624,29.4823434270824,38.25222391948962,44.482193668194206,1577396252.0,-27.68535780128052,-51.12988430557765,5.8864307
82210,1577396252.52,-0.577265378328649,0.9132419454435018,8.671389646948837,0.2845596265839363,0.8811830012623847,11.48720437994236,5.1357377465224845,4.85760158780726,8.17754175816978,2.0902680187690548,9.959895436356708,-0.7192099966653962,3.707699659394055,7.679636885480183,0.0606629906631097,15.720274390243905,15.4819023318407,2.6379096798780486,25.81021613075545,-15.155108650030524,6.553888398308038,-17.264454873829877,-4.26841290893015,-23.1244787264018,29.218767783867968,38.25222391948962,44.43427082397341,1577396252.0,-27.68535780128052,-51.12988430557765,5.8864307
82211,1577396252.53,0.0224821375404906,0.9802795919278764,6.100017063941025,-0.805999229617235,1.2462987544362127,10.69592073126072,4.21875851068264,1.5512090951314788,6.539907822622904,15.380673292206556,1.5980790301067074,0.0742470345846036,4.363827589081555,2.918894697980183,-0.7175352515243902,10.333921851181405,22.5467216677782,-0.6274711794969514,25.645294621932727,-14.242150297619048,5.491095685068893,-17.29334935897436,-3.734861295313881,-24.654775112707803,29.43442058286159,38.18033965315841,44.410309401863,1577396252.0,-27.68535780128052,-51.12988430557765,5.8864307
82212,1577396252.54,-0.4395987828696646,1.475879335580221,9.21966182712462,-0.5007385179473126,1.448608794719416,8.997234653379858,2.3273391991592027,-1.5684356680521143,9.369854184927592,1.6477631359565548,-2.552311594893293,-0.9328330435403964,4.714779737519055,2.278025557355183,0.9151551781631098,9.860899390243905,26.5903007693407,-3.3435356326219514,26.63482367486904,-14.607333638583638,6.908152636054422,-17.322243844118844,5.335516136162689,-23.46454459002536,29.5302662713032,38.39599245215204,44.43427082397341,1577396252.0,-27.68535780128052,-51.12988430557765,5.8864307
82213,1577396252.55,0.6234267542397103,0.5229870748380326,10.198890306128526,-0.1511850755645001,0.8141453547780098,9.169617172911108,2.4374724755263903,-3.440701366294302,7.203101682486186,2.8379486828315548,-0.7822920636432926,-0.3835166372903963,4.287533643769055,1.1183575886051829,-1.4346983374618902,10.959532202743905,28.6349785037157,-8.43997117949695,26.63482367486904,-14.607333638583638,6.908152636054422,-17.322243844118844,5.335516136162689,-23.46454459002536,29.4823434270824,38.10845538682721,44.43427082397341,1577396252.0,-27.68535780128052,-51.12988430557765,5.8864307
82214,1577396252.56,0.6234267542397103,-1.477368412222513,7.264796171607041,2.19752675304878,-2.221702350300114,5.286222080137671,-2.1067222754501707,1.3357309457174158,8.476816965689311,1.8919037609565543,3.947932545731708,-0.3835166372903962,4.379086378144055,6.306345869855183,-0.4276182593368902,16.8494247808689,33.3957206912157,-3.1299125857469514,26.05759839398952,-14.1508544623779,6.288190219998252,-17.264454873829877,-3.048866363521536,-17.683424908424907,29.43442058286159,38.39599245215204,44.482193668194206,1577396252.0,-27.68535780128052,-51.12988430557765,5.8864307
82215,1577396252.57,0.8173570887123666,2.048093532357565,10.273110557593368,0.2905451307343275,1.6401449275319164,7.18961239996189,0.4586648034072504,0.2104561654439788,4.259430741324077,14.495663526581556,3.490168873856707,-1.2990439810403962,0.7474945812690548,0.2028302448551828,0.8083436547256098,16.2085556402439,46.2893974490282,0.5474555783155486,26.46990216604632,-15.520291990995116,6.022492041688465,-17.206665903540905,-3.2013096816976128,-52.03007713440406,29.5302662713032,38.34806960793124,44.43427082397341,1577396252.0,-27.68535780128052,-51.12988430557765,5.8864307
82216,1577396252.58,2.316127327970179,2.7519888204435023,5.9372113510504,3.86389110851753,1.5419826594655095,8.381924826719702,0.553235768983422,-12.560215489829458,9.202260068716653,6.103329542206555,-11.493961985518292,-3.130098668540396,2.4564789562690548,4.292185713605183,-1.2515928687118902,11.112120093368905,44.4125663943407,-9.23342821074695,25.81021613075545,-14.789925309065936,6.376756279434842,-15.93530855718356,-2.591536408993305,-80.59560967878276,29.43442058286159,38.0605325426064,44.43427082397341,1577396252.0,-27.68535780128052,-51.12988430557765,5.8864307
82217,1577396252.59,-1.0549086095298208,1.533340175423971,9.07361552585509,-2.7991721116973123,2.849216765910823,5.40832636480564,-10.900624973204078,5.494459229408823,0.3748385477205611,12.634091260956556,10.265071217606708,-0.7802451529153963,-2.823062059355945,5.757029463605183,-2.0450498999618905,14.652159155868905,39.4992363162157,-27.48293992949695,25.81021613075545,-14.789925309065936,6.376756279434842,-16.744354141229145,-1.0671032272325374,-79.23534622428853,29.43442058286159,38.39599245215204,44.19465660286938,1577396252.0,-27.68535780128052,-51.12988430557765,5.8864307
82218,1577396252.6,-0.3139031957114615,1.0018274068692836,8.773143217505478,0.1073887037323743,-0.2955671147044117,8.144898862364233,1.83772495965725,1.7319713204732756,6.056279087271342,-6.454653856230945,6.9081376238567085,-1.894136754477896,3.2651947765815548,1.8202618854801829,-2.1976377905868905,13.3399032964939,48.4408867068407,3.7365424923780486,26.05759839398952,-14.150854462377902,6.642454457744632,-17.062193477818482,5.716624431602881,-80.08551088334741,29.458382004971995,38.39599245215204,44.45823224608381,1577396252.0,-27.68535780128052,-51.12988430557765,5.8864307
82219,1577396252.61,-0.5760682774985709,-1.7658697122713412,7.0481209213629,0.6029884473847176,-0.6223756413157391,9.550295236875952,-3.196084030821265,-2.631461205161489,12.511046763052592,-6.805606004668445,11.851985280106708,-1.3905967154153962,-6.759829637480945,2.979929854230183,1.0677430687881098,6.870176733993903,22.5314628787157,-15.97781297637195,26.14005914840088,-14.059558627136752,4.959699328449328,-17.033298992673995,7.927052545155993,-78.21514863341787,29.43442058286159,38.30014676371043,44.57803935663581,1577396252.0,-27.68535780128052,-51.12988430557765,5.8864307
82220,1577396252.62,0.9610091883217416,0.3769407735685013,9.432745774878526,-3.5940470628691874,5.10455472977801,9.732254563047826,7.235452602479516,16.02894653409632,11.428867612661966,-12.878604051543444,2.330500905106707,-1.6652549185403962,3.0973480968940548,2.247507979230183,0.6404969750381098,13.461973608993905,8.3102714724657,-3.709746570121952,26.14005914840088,-14.424741968101342,7.085284754927611,-17.206665903540905,8.384382499684225,-73.79429240631164,29.43442058286159,38.44391529637284,44.43427082397341,1577396252.0,-27.68535780128052,-51.12988430557765,5.8864307
82221,1577396252.63,0.640186165860804,5.900364003548971,8.19015511325743,0.3061074415253426,2.1333504695241032,7.539165842344702,-0.806670773985327,-6.5890765493997705,12.056148447622904,12.573056104706556,2.849299733231707,-1.2380088247903962,-2.182192918730945,10.365183760480184,-2.3197081030868905,-6.923768578506097,-4.232453136909299,0.6237495236280487,26.14005914840088,-14.424741968101342,7.085284754927611,-16.975510022385023,5.335516136162689,-73.11416067906453,29.43442058286159,38.30014676371043,44.482193668194206,1577396252.0,-27.68535780128052,-51.12988430557765,5.8864307
82222,1577396252.64,0.4342848230873665,-0.6621427469393101,7.920807426489853,1.4613097425507338,0.0491979243580886,8.304113272764624,1.5492236596084226,8.877466175209603,6.362736899771342,-1.236147996855945,-2.0945479230182924,-1.955171910727896,-1.4802886218559452,3.559763838605183,-1.526251071836891,-3.673646508193597,-19.3233955197218,3.065155773628049,25.645294621932727,-13.876966956654456,6.908152636054423,-19.17149089336589,8.384382499684223,-74.47442413355876,29.31461347230958,38.18033965315841,44.43427082397341,1577396252.0,-27.68535780128052,-51.12988430557765,5.8864307
82223,1577396252.65,-0.0661033238852896,-0.5951051004549351,5.908480931128525,-0.2206169237090313,-0.6175872379954266,7.960545334532203,-5.61901611089939,-8.990460814536489,2.539196848501811,-3.723330614043445,19.115168873856707,0.3183876595846037,0.2592133312690549,2.583201338605183,-1.9534971655868905,-17.4218154535061,-0.0515449337842987,16.37081983612805,27.45943121898264,-14.789925309065936,5.668227803942081,-18.88254604192104,5.487959454338766,-20.40395181741336,29.19480636175757,38.15637823104801,44.57803935663581,1577396252.0,-27.68535780128052,-51.12988430557765,5.8864307
82224,1577396252.66,0.0320589441811156,2.304273109994284,8.261981163062119,-1.6571379198027814,-2.1019922672923017,8.09701482916111,4.190028090760766,-7.5826702383646145,9.781656870474466,-4.730410692168445,3.276545826981707,-0.6886924185403963,5.386166456269055,-2.757374833269817,-0.3360655249618902,-4.787538109756097,5.594207019340701,-4.564238757621951,25.81021613075545,-12.96400860424298,4.959699328449328,-18.88254604192104,5.487959454338766,-20.40395181741336,29.43442058286159,38.39599245215204,44.43427082397341,1577396252.0,-27.68535780128052,-51.12988430557765,5.8864307
82225,1577396252.67,0.1314183130776009,1.621925636849752,9.356131321753525,-0.0099271776152813,5.1859575862233225,11.240601608946264,4.2163643090224845,11.013094056068978,5.74503287145103,2.6395844250190548,-1.6215254620807926,-0.7497275747903962,-5.478091356230945,1.3319806354801829,0.3658387719131097,11.203672827743905,6.936980456840701,-1.2378227419969514,25.81021613075545,-13.69437528617216,6.376756279434842,-20.26948132885633,6.402619363395226,-25.164873908143136,29.4823434270824,38.15637823104801,44.43427082397341,1577396252.0,-27.68535780128052,-51.12988430557765,5.8864307
82226,1577396252.68,-0.3893205480063834,-0.2694936746736851,7.740045201148057,-0.4720080980254381,-0.5445640873606615,10.941326401426734,-5.961386948301734,-6.051578276694693,17.889620792593607,-5.127139207793445,6.755549733231708,0.5014931283346037,-0.869937059355945,6.077464033917684,-1.9382383765243905,-9.380433617568595,-17.9653632931593,-15.29116746855945,26.799745183691755,-15.155108650030524,4.959699328449328,-17.264454873829877,0.7622165908803842,-2.380461045364892,29.43442058286159,38.37203103004163,44.24257944709018,1577396252.0,-27.68535780128052,-51.12988430557765,5.8864307
82227,1577396252.69,-0.5497320592368521,-2.44342878209556,8.431969480933212,-1.3171612840605935,-2.815464362018864,10.764155478575171,6.514797902772484,21.478149512611942,15.245225058951029,-7.934756395293445,8.281428639481707,0.5625282845846037,1.6325043468940548,-0.5906267863948171,3.7838075219131095,1.4380478277439026,-50.7717597775343,4.926728039253049,25.81021613075545,-14.059558627136752,6.731020517181234,-16.859932081807084,-3.2013096816976128,-3.740724499859112,29.29065205019917,38.39599245215204,44.43427082397341,1577396252.0,-27.68535780128052,-51.12988430557765,5.8864307
82228,1577396252.7,0.3983717981850228,-0.1497835916658726,12.363248606909774,1.8336081007050304,-0.6127988346751142,13.92450166998142,0.5484473656631095,2.4562173226705406,11.668287778677591,-7.263369676543445,-2.979557688643293,-1.2685264029153962,1.3883637218940548,1.0878400104801829,-0.6412413062118902,-17.0556045160061,-62.3074043087843,28.39474561737805,26.14005914840088,-14.059558627136752,7.085284754927611,-17.091087962962966,-2.896423045345459,-4.420856227106225,29.29065205019917,38.30014676371043,44.57803935663581,1577396252.0,-27.68535780128052,-51.12988430557765,5.8864307
82229,1577396252.71,-1.4834707066977897,2.2851194967130337,11.589921470679306,-3.8071310106230936,-1.417250592487614,8.788939108946265,-4.730767294981422,-2.600336583579458,10.370630478872904,1.540951612519055,3.688533131669208,-0.3377402701028963,-0.8089019031059451,-2.513234208269817,-2.0755674780868905,-25.3563857660061,-59.7744453244093,17.95773389862805,26.14005914840088,-14.424741968101342,4.959699328449328,-16.39762031949532,-2.896423045345459,-20.74401768103691,29.386497738640788,38.25222391948962,44.482193668194206,1577396252.0,-27.68535780128052,-51.12988430557765,5.8864307
82230,1577396252.72,-0.2480626500571646,2.251600673470846,11.934686509741804,-3.4611688707305155,3.2155296199147285,14.053788559629858,3.4837386010146725,1.8444987985006196,9.092126792349466,-7.446475145293445,-12.714665110518292,-1.1769736685403962,-3.387637254668445,3.056223799542683,-0.3360655249618902,-22.3504043206936,-45.9499824337843,12.63241651581555,25.81021613075545,-15.155108650030524,6.731020517181234,-16.224253408628414,-4.420856227106227,-20.40395181741336,29.5302662713032,38.34806960793124,44.530116512415006,1577396252.0,-27.68535780128052,-51.12988430557765,5.8864307
82231,1577396252.73,-0.6455001256431021,0.6331203512052201,11.309799876441025,2.594964228634717,-3.9479217472727695,7.608597690489233,-1.2424154761337645,-6.933841588462271,6.238238413443217,5.340390089081555,4.527766530106708,0.1963173470846037,-6.088442918730945,10.914500166730184,-1.0990049780868902,-16.4452529535061,-26.3271796994093,-3.2825004763719514,25.975137639578165,-13.511783615689868,5.845359922815277,-16.39762031949532,-4.115969590754073,-18.023490772048465,29.338574894419985,38.39599245215204,44.24257944709018,1577396252.0,-27.68535780128052,-51.12988430557765,5.8864307
82232,1577396252.74,-0.6478943273032584,-0.0779575418611851,8.800676536597274,-0.6803036424590314,1.8843534968678533,10.505581699278297,3.787802211854516,5.695572168861947,4.531172629751811,-14.679141160918444,9.013850514481708,0.5930458627096037,-9.170718309355944,-3.886525223894817,1.983270412538109,-5.458924828506097,-18.6367500119093,-5.540801257621951,24.82068707781913,-15.520291990995116,6.376756279434842,-17.033298992673995,0.6097732727043083,-24.484742180896028,29.338574894419985,38.10845538682721,44.43427082397341,1577396252.0,-27.68535780128052,-51.12988430557765,5.8864307
82233,1577396252.75,0.2331718836342415,-0.6705224527498574,9.893629594458604,1.3679358778046395,-0.8234885807688648,11.56262173223728,-1.5560558936142337,-4.295431358970084,12.136354203238138,-4.303164598418445,-2.0640303448932924,-0.1088584341653963,-4.333682176543445,5.940134932355184,-0.9158995093368902,-6.252381859756096,-22.7566230587843,2.0122993283155486,25.15053009546457,-13.69437528617216,6.376756279434842,-18.362445309320314,1.8293198181129215,-24.824808044519585,29.31461347230958,38.276185341600026,44.3863479797526,1577396252.0,-27.68535780128052,-51.12988430557765,5.8864307
82234,1577396252.76,-0.4683292027915396,-0.6525659402986851,10.083968626441026,0.1456959302948738,-2.693360077350896,9.528747421934543,5.933006899354515,7.019565686928353,12.216559958853374,-1.0683013171684452,3.307063405106707,-0.1088584341653963,-3.616519090605945,-1.2925310832698171,0.0606629906631097,-9.853456078506095,-39.4192207150343,-0.0476371951219513,25.15053009546457,-12.598825263278387,5.668227803942081,-20.09611441798942,0.457329954528231,-22.10428113553113,29.4823434270824,38.30014676371043,44.43427082397341,1577396252.0,-27.68535780128052,-51.12988430557765,5.8864307
82235,1577396252.77,-1.2536273473227897,-0.4275109842439976,13.723155149878524,-3.977119328494187,4.137297259074885,13.002734030821264,-5.812946445372046,0.1745431405416346,9.211836875357278,-11.200137254668444,7.457454030106708,0.2573525033346037,-6.393618699980945,-8.158986161394816,1.1287782250381098,-8.541200219131097,-33.7734687619093,7.123993664253049,25.31545160428729,-13.876966956654456,6.199624160561654,-20.09611441798942,1.6768764999368453,-24.824808044519585,29.62611195974481,38.49183814059364,44.290502291310986,1577396252.0,-27.68535780128052,-51.12988430557765,5.8864307
82236,1577396252.78,-0.1738423985923209,3.3361740255216272,10.912362400855088,-0.8526861619902814,2.906677605754573,16.51742206793064,-1.639852951719702,4.83844797452601,13.428025998892435,4.974179151581555,3.123957936356707,1.2033974252096038,-5.264468309355945,4.170115401105183,-0.1224424780868902,-8.541200219131097,-28.1887519650343,8.55831983612805,26.14005914840088,-15.155108650030524,6.731020517181234,-20.03832544770045,1.219546545408615,-25.84500563539025,29.4823434270824,38.15637823104801,44.57803935663581,1577396252.0,-27.68535780128052,-51.12988430557765,5.8864307
82237,1577396252.79,-0.9328043248618522,0.737268123422018,12.567952848853134,0.5862290357636244,-0.5517466923411303,8.769785495665015,6.873928151795922,1.280664307533822,6.272954337515483,-2.929873582793445,-6.397526438643292,-0.3377402701028963,-1.8007231921684452,2.964671065167683,0.0301454125381097,-5.687806664443596,-1.9283759884717997,3.5076606564405486,26.3049806572236,-13.146600274725271,5.491095685068893,-18.362445309320314,-0.9146599090564608,-23.124478726401804,29.386497738640788,38.276185341600026,44.45823224608381,1577396252.0,-27.68535780128052,-51.12988430557765,5.8864307
82238,1577396252.8,2.038399935392054,0.7671956441739701,9.509360228003526,2.2382281812714364,2.042370806438166,9.330028684141576,-6.59585038824314,-5.861239244712271,0.6549601419588422,1.2510346203315548,11.485774342606708,0.5625282845846037,-4.593081590605945,-2.116505692644817,1.0372254906631098,-3.994081078506097,23.5995781130907,3.5229194455030486,25.645294621932727,-14.97251697954823,6.199624160561654,-16.339831349206353,-4.26841290893015,-20.40395181741336,29.43442058286159,38.25222391948962,44.482193668194206,1577396252.0,-27.68535780128052,-51.12988430557765,5.8864307
82239,1577396252.81,1.406330697110804,0.7408594259122514,5.965941770972275,3.813612873654249,-0.0525556461985517,7.033989292051734,-0.346984055235327,-1.996997765220083,9.33872956334556,-4.608340379668445,-3.742497141768293,-1.0549033560403962,-5.264468309355945,6.092722822980183,-1.5262510718368902,3.299620093368903,20.8529960818407,-8.59255907012195,25.975137639578165,-14.97251697954823,5.845359922815277,-16.39762031949532,-4.115969590754073,-20.74401768103691,29.4823434270824,38.39599245215204,44.482193668194206,1577396252.0,-27.68535780128052,-51.12988430557765,5.8864307
82240,1577396252.82,0.621032552579554,-0.0312706094881387,8.267966667212509,-0.3403270067168439,-0.1531121159251142,7.378754331114234,3.5819008690810783,7.713884168373666,13.34183473912681,0.4880951672065547,-0.2940108136432926,-0.5513633169778962,-3.158755418730945,0.7826642292301829,1.8001649437881098,5.252745093368903,4.617644519340701,-5.907012195121951,26.222519902812245,-14.333446132860196,7.173850814364201,-17.322243844118844,-3.2013096816976128,-89.4373221329952,29.4823434270824,38.25222391948962,44.3863479797526,1577396252.0,-27.68535780128052,-51.12988430557765,5.8864307
82241,1577396252.83,-0.8729492833579459,0.1542800191739701,16.555495713843367,-0.0027445726348131,-0.0561469486887865,12.844716721250952,0.8776500939345939,-1.4307690725931308,12.873768314566265,-4.974551317168445,4.832942311356708,0.6540810189596037,-5.340762254668445,2.018626143292683,-0.9616758765243902,-4.741761742568597,-7.4367988400342995,-10.36257860137195,26.63482367486904,-14.242150297619048,6.553888398308031,-17.206665903540905,5.335516136162689,-23.124478726401804,29.4823434270824,38.41995387426244,44.33842513553179,1577396252.0,-27.68535780128052,-51.12988430557765,5.8864307
82242,1577396252.84,1.1118438929115853,1.4279953023770962,11.314588279761338,3.6292593458222178,-0.3853496769602704,13.718600327207984,1.6641453392959218,8.096956433998665,8.807216794790873,-13.580508348418444,6.297786061356708,0.5320107064596037,-5.142397996855945,6.428416182355183,1.0982606469131098,-3.292176781631097,-5.941437511909299,-1.5429985232469514,26.63482367486904,-14.242150297619048,6.553888398308031,-17.206665903540905,5.335516136162689,-26.185071499013805,29.43442058286159,38.39599245215204,44.62596220085662,1577396252.0,-27.68535780128052,-51.12988430557765,5.8864307
82243,1577396252.85,-0.7269029820884146,0.1183669942716263,10.938698619116806,0.7777651685761239,-0.9695348820383952,11.032306064512673,1.3720527367568591,0.0428620492330409,11.069737363638527,-9.308047410918444,1.933772389481708,-0.0783408560403963,-3.372378465605945,-2.574269364519817,-1.0990049780868902,-2.559754906631097,-2.8896796994092986,6.177948742378049,24.98560858664185,-14.607333638583638,5.845359922815277,-15.010685032560032,5.945289408866995,-18.023490772048465,29.29065205019917,38.30014676371043,44.290502291310986,1577396252.0,-27.68535780128052,-51.12988430557765,5.8864307
82244,1577396252.86,-0.5210016393149771,0.8078970723966273,10.54604954685118,-0.6826978441191877,0.8021743464772284,11.357917490293922,1.024893496034203,-2.6506148184427394,10.406543503775248,-3.204531785918445,2.269465748856708,-0.9633506216653962,-3.250308153105945,-3.398243973894817,-0.5191709937118902,-5.092713891006097,3.2443535037157014,9.35177686737805,24.903147832230488,-15.063812814789378,6.465322338871443,-15.357418854293858,6.555062681571303,-90.11745386024232,29.4823434270824,38.58768382903526,44.24257944709018,1577396252.0,-27.68535780128052,-51.12988430557765,5.8864307
82245,1577396252.87,0.4941398645912728,-0.6166529153963413,7.598787303198837,-0.4061675523711407,0.0408182185475415,8.31967558355564,0.8776500939345937,-3.8537011526712552,7.936924491324076,2.0139740734565548,4.131038014481708,-0.7497275747903963,-3.418154832793445,-0.9720965129573168,-0.9921934546493903,-5.916688500381097,10.1718437380907,6.2542426876905495,24.98560858664185,-14.242150297619048,6.199624160561654,-17.00440450752951,6.021511067955035,-95.38847474640744,29.19480636175757,38.34806960793124,44.43427082397341,1577396252.0,-27.68535780128052,-51.12988430557765,5.8864307
82246,1577396252.88,1.3512640589272102,-0.6310181253572787,7.146283189429306,1.3667387769745614,1.360023333293635,8.178417685606421,-0.126717502500952,-1.2859198721536769,13.320286924185403,-1.5871001452934452,-5.665104563643292,0.3794228158346037,-0.5037261218559451,-2.909962723894817,-0.9464170874618902,-8.388612328506097,3.854705066215701,-3.648711413871952,24.98560858664185,-14.242150297619048,6.199624160561654,-16.744354141229145,5.335516136162689,-102.35982495069037,29.338574894419985,38.39599245215204,44.57803935663581,1577396252.0,-27.68535780128052,-51.12988430557765,5.8864307
82247,1577396252.89,1.559559603360804,1.1143548848966265,9.834971653784775,1.1201360059784675,0.0168762019459785,12.349116977598609,0.3856416527724844,-6.031227562583364,9.841511911978372,1.9224213390815548,-7.221501048018292,-1.0854209341653962,-4.165835496855945,-0.4685564738948171,-0.0614073218368902,-3.414247094131097,2.3898613162157014,-6.730986804496951,26.799745183691755,-14.424741968101342,4.605435090702943,-16.744354141229145,5.335516136162689,-102.35982495069037,29.5302662713032,38.39599245215204,44.482193668194206,1577396252.0,-27.68535780128052,-51.12988430557765,5.8864307
82248,1577396252.9,-0.8789347875083365,0.1447032125333461,12.669706419409774,0.1840031568573744,-0.4116858952219892,11.48720437994236,2.687666549012719,5.20236662686976,9.854680021109232,-12.481875535918444,1.9948075457317076,-0.1241172232278963,-3.479189989043445,-0.2244158488948171,-1.0684873999618902,-0.5303359613185974,1.9778740115282012,-11.96475145293445,25.727755376344085,-14.51603780334249,6.288190219998251,-16.917721052096056,5.335516136162689,-100.99956149619612,29.31461347230958,38.34806960793124,44.43427082397341,1577396252.0,-27.68535780128052,-51.12988430557765,5.8864307
82249,1577396252.91,-0.7819696202720083,0.0561177511075638,11.63301710056212,0.911840461544874,-0.3398598454173017,13.895771250059546,0.553235768983422,-0.2133175284036768,12.068119455923686,-11.535830614043444,-1.7588545636432926,-0.7802451529153963,-0.3511382312309451,-3.978077958269817,-1.4957334937118902,2.048399390243903,2.7560722537157014,12.43405225800305,26.3049806572236,-16.068067002442003,5.136831447322516,-17.322243844118844,6.555062681571303,-80.59560967878276,29.62611195974481,38.39599245215204,44.482193668194206,1577396252.0,-27.68535780128052,-51.12988430557765,5.8864307
82250,1577396252.92,-0.6981725621665397,-0.5089138406893101,10.481406102026964,0.1073887037323738,-3.1698062077219893,10.934143796446264,-5.087503342344703,-6.524433104575552,11.65631677037681,5.767636182831555,1.5065262957317074,-0.9328330435403964,1.5409516125190548,-1.5671892863948171,-2.3807432593368905,-3.261659203506097,4.495574206840701,6.818817883003049,26.3049806572236,-16.068067002442003,5.136831447322516,-17.091087962962966,7.7746092269799165,-80.59560967878276,29.62611195974481,38.58768382903526,44.290502291310986,1577396252.0,-27.68535780128052,-51.12988430557765,5.8864307
82251,1577396252.93,1.0160758265053351,-1.0895077432772011,9.828986149634384,-0.6156601976348126,2.308127190715509,10.47685127935642,-1.1634068213486082,0.8688616219869472,13.753637424673686,2.105526807831556,-3.5136153058307924,-0.7192099966653963,0.2286957531440548,-1.5061541301448171,0.2437684594131097,-5.519959984756097,-0.9365546994092988,3.3398139767530486,26.3049806572236,-13.694375286172162,5.845359922815273,-17.322243844118844,7.164835954275611,-91.47771731473654,29.55422769341361,38.44391529637284,44.482193668194206,1577396252.0,-27.68535780128052,-51.12988430557765,5.8864307
82252,1577396252.94,-0.3965031529868521,-1.1194352640291538,9.930739720191024,1.401454701046827,0.1114471675221509,7.47093109503025,0.1857258141494377,-5.095094713462271,7.594553653921732,0.6712006359565549,1.0182450457317074,-0.2309287466653963,0.0455902843940547,3.681834151105183,-1.6025450171493905,-1.0643935785060972,0.9250175662157012,0.1812446408155485,25.975137639578165,-13.876966956654456,4.428302971829755,-20.356164784289785,6.478841022483265,-58.6613614750634,29.43442058286159,38.276185341600026,44.50615509030461,1577396252.0,-27.68535780128052,-51.12988430557765,5.8864307
82253,1577396252.95,1.4183017054115852,2.0648529439786585,8.439152085913681,1.677984992794874,3.3400281062428543,13.033858652403296,1.4151483666396718,6.490447120033823,9.240567295279153,3.2957123547065548,1.1403153582317074,-0.4445517935403963,-3.463931199980945,-4.618947098894817,2.074823146913109,8.396055640243903,-4.476593761909299,-7.005645007621951,25.645294621932727,-13.876966956654456,5.491095685068893,-20.558426180301183,5.335516136162689,-14.622832135812905,29.4823434270824,38.25222391948962,44.3863479797526,1577396252.0,-27.68535780128052,-51.12988430557765,5.8864307
82254,1577396252.96,0.7982034754311166,2.886064113412252,12.229173313941024,0.3252610548065926,2.4134720637623848,10.105750022032202,-0.2176971655868895,-0.7711665152200831,7.128881431021342,1.6172455578315548,-11.616032298018292,-1.2685264029153962,3.2499359875190548,1.0878400104801829,-2.4112608374618905,-0.6371474847560974,9.0121757693407,-5.418730945121951,25.645294621932727,-13.876966956654456,5.491095685068893,-19.86495853683354,5.335516136162689,-20.74401768103691,29.5302662713032,38.58768382903526,44.482193668194206,1577396252.0,-27.68535780128052,-51.12988430557765,5.8864307
82255,1577396252.97,0.3636558741127572,-1.610246604361185,8.54808826145079,5.841501679806593,-3.7851160343821455,7.57268466558689,4.082289016053735,0.2320039803853846,10.792009971060404,-2.060122606230945,3.413874928544208,-1.985689488852896,1.7240570812690548,6.184275557355183,-2.9605772437118905,1.9568466558689024,4.190398425590701,-8.68411180449695,25.645294621932727,-15.702883661477411,5.845359922815273,-19.86495853683354,5.640402772514843,-16.663227317554238,29.43442058286159,38.30014676371043,44.43427082397341,1577396252.0,-27.68535780128052,-51.12988430557765,5.8864307
82256,1577396252.98,-1.2536273473227897,-1.610246604361185,8.333807212866807,-1.392578636355516,1.0703249324147297,12.52030239629978,-1.3298038367294684,1.0400470406881197,11.742508030142435,-1.6786528796684452,9.135920826981708,0.1352821908346037,0.1066254406440547,-6.694142411394817,-1.1905577124618902,6.107237280868904,4.449797839653201,4.133271008003049,26.14005914840088,-14.059558627136752,6.376756279434842,-17.206665903540905,0.7622165908803846,-11.5622393632009,29.5302662713032,38.276185341600026,44.50615509030461,1577396252.0,-27.68535780128052,-51.12988430557765,5.8864307
82257,1577396252.99,-0.4850886144126334,-1.5168727396150912,10.385638035620712,-2.231746318240281,-0.2967642155344892,11.633250681211887,1.771884414002953,3.3468603402486656,10.167123337759625,-7.995791551543445,-6.916325266768292,-0.7802451529153963,7.949643018769055,-0.102345536394817,-0.4886534155868902,-2.376649437881097,4.709197253715701,-3.1299125857469514,26.14005914840088,-15.520291990995116,6.022492041688465,-16.39762031949532,-2.591536408993305,-24.824808044519585,29.4823434270824,38.44391529637284,44.57803935663581,1577396252.0,-27.68535780128052,-51.12988430557765,5.8864307
82258,1577396253.0,0.5779369226967416,3.630660829720846,14.360012791480088,0.4114523145722176,-1.2592332829173016,11.930131687071263,1.8077974389052969,4.630152430092416,13.044953733267436,11.840634229706556,-10.914128001143292,-1.3600791372903962,8.254818800019056,1.3930157917301829,1.1898133812881098,5.710508765243903,2.3593437380907014,2.3022163205030486,26.14005914840088,-15.520291990995116,6.022492041688465,-17.206665903540905,-3.2013096816976128,-26.185071499013805,29.43442058286159,38.30014676371043,44.43427082397341,1577396253.0,-27.68530420791018,-51.129901149779045,6.1621604
82259,1577396253.01,0.2463399927651009,-1.394768454947123,8.89405040134337,1.45053583508003,0.5902874995534003,8.438188565733375,0.1450243859267814,-2.697301750815786,8.085364994253764,8.376889112519056,4.5277665301067085,0.6083046517721038,5.172543409394055,-1.4298601848323171,-0.6717588843368903,5.847837866806403,9.0426933474657,3.309296398628049,25.645294621932727,-15.155108650030524,5.136831447322512,-16.28204237891738,-3.81108295440192,-22.10428113553113,29.31461347230958,38.34806960793124,44.31446371342139,1577396253.0,-27.68530420791018,-51.129901149779045,6.1621604
82260,1577396253.02,2.3927417810951788,0.7408594259122514,7.8382074692144625,2.4752541456269053,-0.7756045475657392,5.891955100157203,-0.232062375547827,-2.3657048208841456,7.025930759634623,4.150204542206555,-16.010563548018293,-3.160616246665396,7.705502393769055,1.5150861042301829,-0.6107237280868902,7.511045874618903,6.906462878715701,-3.648711413871952,25.81021613075545,-15.155108650030524,6.731020517181234,-16.975510022385023,-4.420856227106227,-24.824808044519585,29.43442058286159,38.44391529637284,44.43427082397341,1577396253.0,-27.68530420791018,-51.129901149779045,6.1621604
82261,1577396253.03,1.1070554895912728,2.634672939095846,6.327466221655869,0.8471970167206551,1.5156464412037909,7.857594663145484,1.9299017235732652,0.7323921273580409,3.743480283560405,28.44219672970656,-7.801335032393292,-0.6581748404153963,2.8532074718940548,-0.2549334270198171,-1.3736631812118902,13.034727515243905,8.4018242068407,-9.01980516387195,25.975137639578165,-13.876966956654456,6.199624160561654,-17.091087962962966,1.6768764999368453,-26.185071499013805,29.5302662713032,38.39599245215204,44.290502291310986,1577396253.0,-27.68530420791018,-51.129901149779045,6.1621604
82262,1577396253.04,-0.3031292882407584,0.5636885030606889,8.429575279273056,1.5774285230683114,1.5922608943287908,10.397842624571265,0.7711081200576406,4.498471338783822,6.551878830923686,14.648251417206556,0.3468583269817073,-2.397676793540396,4.043393018769055,1.1488751667301829,-2.0755674780868905,10.227110327743905,15.6650078005907,-6.456328601371951,25.975137639578165,-13.876966956654456,6.199624160561654,-19.17149089336589,1.0671032272325378,-2.3804610453648904,29.4823434270824,38.30014676371043,44.290502291310986,1577396253.0,-27.68530420791018,-51.129901149779045,6.1621604
82263,1577396253.05,1.0567772547279914,0.1782220357755336,9.9977773666754,0.1409075269745618,0.5950759028737134,8.489663901426734,-1.0724271582626708,-0.9722794546732084,8.713842930044779,-1.3277007312309452,-4.017155344893292,-2.046724645102896,4.867367628144055,0.9962872761051832,-1.1752989233993902,10.150816382431405,29.7946464724657,1.6308296017530486,27.624352727805352,-14.97251697954823,6.553888398308038,-19.92274750712251,2.89642304534546,-58.83139440687517,29.5063048491928,38.30014676371043,44.33842513553179,1577396253.0,-27.68530420791018,-51.129901149779045,6.1621604
82264,1577396253.06,0.5372354944740853,-1.8161479471346225,10.332965599097276,1.3356141553925305,-0.4428105168040204,11.056248081114234,0.0312998070693594,-0.6777926504739893,9.714619223990091,-3.265566942168445,11.577327076981708,0.4709755502096037,3.829769971894055,1.2709454792301829,1.4949891625381098,13.004209937118905,36.5695488162157,1.2341010861280486,26.96466669251448,-14.607333638583638,6.199624160561654,-17.206665903540905,1.6768764999368453,-26.185071499013805,29.62611195974481,38.25222391948962,44.43427082397341,1577396253.0,-27.68530420791018,-51.129901149779045,6.1621604
82265,1577396253.07,-0.2097554234946646,-0.6310181253572787,10.134246861304304,0.9621186964081552,-0.1387469059641767,8.410655246641577,-0.5193665747665771,-5.08312370516149,12.139945505728374,-13.641543504668444,2.483088795731707,0.0742470345846036,2.4564789562690548,2.918894697980183,-1.5567686499618902,10.501768530868905,24.8507988162157,-4.228545398246951,26.63482367486904,-16.43325034340659,6.199624160561654,-16.39762031949532,-3.81108295440192,-26.185071499013805,29.4823434270824,38.44391529637284,44.43427082397341,1577396253.0,-27.68530420791018,-51.129901149779045,6.1621604
82266,1577396253.08,-0.6790189488852896,3.935921541390768,9.042490904273055,0.3875102979706551,1.9250549250905096,11.951679502012672,-1.275934299375952,-2.384858434165396,11.704200803579935,11.749081495331556,0.8961747332317076,-0.3377402701028962,-0.4732085437309451,-4.435841630144817,2.502069240663109,6.961729468368903,12.8573906130907,-11.67483446074695,26.79974518369176,-15.520291990995116,6.731020517181227,-16.39762031949532,-3.5061963180497666,-23.46454459002536,29.31461347230958,38.25222391948962,44.43427082397341,1577396253.0,-27.68530420791018,-51.129901149779045,6.1621604
82267,1577396253.09,-0.3629843297446646,-0.3365313211580601,8.712091075171493,-0.1571705797148912,1.6904231623951975,10.83598152837986,3.3556488121963124,3.762254328285776,9.736167038931498,2.5938080578315548,-1.5147139386432926,-1.817842809165396,2.2733734875190548,2.278025557355183,-1.7551329077743905,4.306700171493903,-2.4624336056592986,-4.1522514529344505,26.3049806572236,-13.876966956654456,5.845359922815277,-17.206665903540905,-3.963526272577997,-22.44434699915469,29.5302662713032,38.276185341600026,44.3623865576422,1577396253.0,-27.68530420791018,-51.129901149779045,6.1621604
82268,1577396253.1,1.494916158536585,-0.0611981302400913,6.042556224097275,5.173519416622999,-2.9519338566477704,5.549584262754859,-1.965464377500952,-5.475772777427115,6.027548667349467,2.8379486828315548,-3.010075266768293,-0.6886924185403963,0.9611176281440548,0.3859357136051829,-1.3126280249618902,2.414610327743903,-6.368683605659299,-2.8857719607469514,27.45943121898264,-15.520291990995116,5.668227803942081,-16.975510022385023,-4.420856227106227,-20.74401768103691,29.19480636175757,38.10845538682721,44.57803935663581,1577396253.0,-27.68530420791018,-51.129901149779045,6.1621604
82269,1577396253.11,-0.1020163487876334,-1.3085771951814975,9.911586106909777,-0.7473412889434063,-0.3087352238352704,10.919778586485329,1.9035655053115468,0.6773254891744471,6.106557322134623,0.2134369640815548,0.1332352801067073,-1.0243857779153962,-2.121157762480945,-8.525197098894816,-0.2750303687118902,4.001524390243903,-0.5093086056592988,1.0815131955030486,26.96466669251448,-14.607333638583638,6.908152636054422,-16.859932081807084,-3.2013096816976128,-20.74401768103691,29.338574894419985,38.30014676371043,44.43427082397341,1577396253.0,-27.68530420791018,-51.129901149779045,6.1621604
82270,1577396253.12,1.0675511621986942,0.7875463582852993,10.978202946509384,1.8814921339081552,0.567542583781916,8.31967558355564,-1.3740965674423582,-0.2468363516458643,7.095362607779155,-3.067202684355945,-3.2389571027057924,-1.6957724966653962,-0.0764800281059451,0.1417950886051829,-1.2210752905868902,0.0647568121189026,2.0541679568407014,5.781220226753049,26.96466669251448,-14.607333638583638,6.908152636054422,-17.091087962962966,-3.2013096816976128,-18.023490772048465,29.410459160751195,38.49183814059364,44.290502291310986,1577396253.0,-27.68530420791018,-51.129901149779045,6.1621604
82271,1577396253.13,-0.2504568517173209,2.488626637826315,9.935528123511338,-1.0130976732207506,0.6285947261159003,7.740278781797827,-0.9934185034775154,-0.3916855520853179,6.48484118443931,1.1289643078315548,4.131038014481708,-1.1769736685403962,0.5949066906440548,-2.864186356707317,-0.4276182593368902,4.398252905868903,11.1941826052782,4.468964367378049,25.975137639578165,-14.242150297619048,5.845359922815277,-17.322243844118844,-3.2013096816976128,-18.023490772048465,29.5302662713032,38.276185341600026,44.24257944709018,1577396253.0,-27.68530420791018,-51.129901149779045,6.1621604
82272,1577396253.14,1.894747835782679,0.5181986715177201,8.886867796362901,2.654819270138624,-0.3135236271555829,6.188836106016578,0.1174910668349844,-6.74948806063024,5.723485056509623,-4.547305223418445,-11.036198313643292,-2.916475621665396,1.2052582531440548,3.437693526105183,-4.6085264624618905,3.848936499618903,25.7052910037157,-2.2143852419969514,26.63482367486904,-15.33770032051282,6.908152636054422,-15.415207824582827,-1.829319818112921,-25.164873908143136,29.62611195974481,38.39599245215204,44.43427082397341,1577396253.0,-27.68530420791018,-51.129901149779045,6.1621604
82273,1577396253.15,1.1932467493568977,1.255612782845846,9.842154258765245,1.227875080685499,-0.0884686711008954,5.506488632872046,0.5316879540420156,-2.427954064048208,6.946922104849467,0.8848236828315549,2.849299733231707,-2.519747106040396,-0.0459624499809451,-0.3770037395198171,-0.0614073218368902,5.863096655868903,28.2687675662157,-11.46121141387195,27.12958820133719,-15.520291990995116,5.668227803942081,-16.917721052096056,-1.829319818112921,-84.33633417864186,29.5302662713032,38.15637823104801,44.43427082397341,1577396253.0,-27.68530420791018,-51.129901149779045,6.1621604
82274,1577396253.16,1.595472628263148,0.2404712789395961,8.040517509497665,0.6424927747772957,1.7191535823170727,10.242219516661107,0.4993662316299063,2.4274869027486656,12.36500046178306,-3.723330614043445,4.451472584794208,-1.7720664419778962,-2.044863817168445,-1.3688250285823171,-2.3960020483993905,10.867979468368905,17.9843437380907,-10.60671922637195,27.12958820133719,-15.520291990995116,5.668227803942081,-17.29334935897436,5.411737795250728,-90.62755265567766,29.4823434270824,38.276185341600026,44.3623865576422,1577396253.0,-27.68530420791018,-51.129901149779045,6.1621604
82275,1577396253.17,1.7056059046303351,4.976202162728659,14.7861806869879,1.4936314649628426,1.5874724910084783,9.638880698301731,-3.157776804258765,4.124975879799447,10.964392490591656,4.577450635956555,-2.796452219893293,-3.374239293540396,-3.280825731230945,5.940134932355183,-2.1060850562118905,1.3159775152439026,2.1152031130907014,-8.65359422637195,25.48037311311001,-14.424741968101342,6.731020517181234,-16.859932081807084,5.335516136162689,-90.11745386024232,29.4823434270824,38.25222391948962,44.24257944709018,1577396253.0,-27.68530420791018,-51.129901149779045,6.1621604
82276,1577396253.18,-0.3079176915610709,-0.2934356912752476,10.237197532691026,-3.352232695193406,-0.8450363957102703,11.312427658750952,0.4095836693740469,-1.288314073813833,12.822292978872904,-1.3429595202934452,7.915217701981708,-1.909395543540396,-0.0459624499809451,-1.2620135051448171,-0.5191709937118902,-3.810975609756097,-11.8923652462843,-1.0547172732469514,26.14005914840088,-15.520291990995116,7.085284754927611,-17.322243844118844,5.335516136162689,-80.59560967878276,29.43442058286159,38.49183814059364,44.24257944709018,1577396253.0,-27.68530420791018,-51.129901149779045,6.1621604
82277,1577396253.19,2.5794895105873668,-1.9214928201814971,10.605904588355088,3.009161115841749,0.7566845149342597,12.018717148497046,-3.8664604956650153,-2.545269945395864,15.283532285513528,-20.782656785918444,10.387141530106708,-2.550264684165396,-4.898257371855945,7.740672041730183,-2.1671202124618905,-12.569520531631095,-32.7053535275343,-2.6721489138719514,25.81021613075545,-15.885475331959707,7.085284754927611,-19.113701923076928,8.536825817860302,-78.21514863341787,29.43442058286159,38.30014676371043,44.3863479797526,1577396253.0,-27.68530420791018,-51.129901149779045,6.1621604
82278,1577396253.2,0.0332560450111947,-0.8261455606600132,9.204099516333605,2.6213004468964365,0.0192704036061353,8.47290448980564,3.138973561952172,4.395520667397103,11.173885135855326,-3.799624559355945,8.678157155106708,-1.7873252310403962,-4.913516160918445,5.390818526105184,-1.8772032202743905,-21.4348769769436,-57.9891670040968,9.10763624237805,26.14005914840088,-15.885475331959707,6.376756279434842,-17.264454873829877,7.927052545155993,-80.2555438151592,29.55422769341361,38.41995387426245,44.33842513553179,1577396253.0,-27.68530420791018,-51.129901149779045,6.1621604
82279,1577396253.21,0.7622904505287728,2.711287392220846,10.160583079566026,-1.096894731326219,5.006392461711604,14.66670418462986,-2.698090085508765,-1.7025109610208642,12.082484665884625,9.246640089081556,-3.620426829268293,-3.221651402915396,-3.830142137480945,-3.642384598894817,-2.3197081030868905,-24.5018935785061,-73.1411445431593,10.41989210175305,25.81021613075545,-15.885475331959707,7.085284754927611,-17.264454873829877,5.487959454338766,-80.2555438151592,29.338574894419985,38.39599245215204,44.43427082397341,1577396253.0,-27.68530420791018,-51.129901149779045,6.1621604
82280,1577396253.22,-1.3565780187095082,2.567635292611471,12.277057347144147,1.6827733961151865,1.5324058528248847,12.219830087950172,-3.617463523008765,-3.6011128775247703,10.205430564322125,2.3496674328315548,-5.054753001143292,-3.221651402915396,-3.463931199980945,6.245310713605183,-3.1436827124618905,-19.9242568597561,-66.6103828244093,3.0346381955030486,26.46990216604632,-14.789925309065936,5.668227803942081,-19.17149089336589,5.335516136162689,-77.87508276979432,29.43442058286159,38.25222391948962,44.43427082397341,1577396253.0,-27.68530420791018,-51.129901149779045,6.1621604
82281,1577396253.23,-0.8561898717368521,-1.2211888345857944,8.933554728735947,1.98683700695503,-3.191354022663396,11.508752194883764,5.885122866151391,-3.8548982535013327,8.483999570669779,-4.944033739043444,3.673274342606707,-1.3600791372903962,-2.670474168730945,-1.4146013957698171,-2.3502256812118905,-18.2152724847561,-49.9783027462843,1.8749702267530488,26.63482367486904,-14.972516979548228,6.553888398308031,-19.17149089336589,5.335516136162689,-77.87508276979432,29.4823434270824,38.39599245215204,44.24257944709018,1577396253.0,-27.68530420791018,-51.129901149779045,6.1621604
82282,1577396253.24,0.1134618006264281,0.2692016988614701,10.981794248999618,-0.4791907030059069,1.143348083049494,14.313559439756812,0.6789313561416251,-1.4104183584818015,4.04036128941978,-3.936953660918445,-1.7893721417682926,-1.2380088247903962,-3.662295457793445,-2.284352372332317,-1.8314268530868905,-7.854554711318596,-6.2313545040968,0.5932319455030486,26.3049806572236,-14.607333638583638,6.553888398308031,-20.3272702991453,6.859949317923458,-80.59560967878276,29.5302662713032,38.276185341600026,44.410309401863,1577396253.0,-27.68530420791018,-51.129901149779045,6.1621604
82283,1577396253.25,-0.0254018956626334,1.466302528939596,10.965034837378523,0.0451394605683113,-1.1060043766673016,6.035607199766577,3.294596669862328,8.415385254799448,10.370630478872904,2.1360443859565548,-4.871647532393292,-1.909395543540396,2.2428559093940548,6.245310713605183,-3.2962706030868905,11.081602515243905,28.2077324099657,0.1049506955030487,26.3049806572236,-13.876966956654456,5.491095685068893,-19.17149089336589,-3.81108295440192,-3.0605927726120044,29.19480636175757,38.15637823104801,44.57803935663581,1577396253.0,-27.68530420791018,-51.129901149779045,6.1621604
82284,1577396253.26,3.031993624356898,0.4439784200528763,11.206849205054306,3.954870771603467,1.917872320110041,8.276579953672828,0.0815780419326406,-4.259518334067739,7.725037644400248,3.3567475109565548,-23.121159251143293,-3.648897496665396,-4.074282762480945,-4.618947098894817,1.952752834413109,9.677793921493905,29.2453300662157,0.1354682736280487,27.12958820133719,-13.69437528617216,7.439548992673988,-16.975510022385023,-4.115969590754073,-4.420856227106225,29.62611195974481,38.25222391948962,44.24257944709018,1577396253.0,-27.68530420791018,-51.129901149779045,6.1621604
82285,1577396253.27,1.1166322962318975,0.8234593831876424,9.414789262427352,-0.3929994432402814,1.2427074519459784,9.696341538145482,5.054334890077172,-2.3441570059427392,8.316405454458842,6.271176221894056,5.061824147294208,-1.7568076529153962,-1.8464995593559448,-2.787892411394817,-5.1273252905868905,5.039122046493903,28.4518730349657,-4.228545398246951,25.975137639578165,-13.694375286172162,6.376756279434842,-17.264454873829877,-3.048866363521536,-4.08079036348267,29.43442058286159,38.30014676371043,44.3863479797526,1577396253.0,-27.68530420791018,-51.129901149779045,6.1621604
82286,1577396253.28,2.3927417810951788,-2.92226911412681,12.53802532810118,1.98683700695503,-1.4543607182200364,7.109406644346656,-0.0082045203232181,-4.239167619956412,10.522662284292826,-12.970156785918444,-12.836735423018292,-4.076143590415397,-2.517886278105945,4.658396651105183,-1.7246153296493905,0.2326034918064026,14.9173271365282,-10.30154344512195,25.975137639578165,-13.511783615689868,6.553888398308031,-16.166464438339442,-4.420856227106227,-20.74401768103691,29.4823434270824,38.32410818582083,44.4342708239734,1577396253.0,-27.68530420791018,-51.129901149779045,6.1621604
82287,1577396253.29,-1.447557681795446,0.0704829610685014,9.554850059546494,-1.8390972459746564,-0.8258827824290204,9.744225571348608,-0.4954245581650146,1.462623633705697,11.86700651647056,-1.0072661609184452,24.730403248856707,-0.5361045279153963,-2.151675340605945,-2.574269364519817,-3.2047178687118905,2.262022437118903,1.0776054568407012,-9.35549852324695,26.3049806572236,-14.242150297619048,6.908152636054422,-16.39762031949532,4.420856227106227,-26.185071499013805,29.4823434270824,38.30014676371043,44.24257944709018,1577396253.0,-27.68530420791018,-51.129901149779045,6.1621604
82288,1577396253.3,1.1118438929115853,-0.0540155252596226,11.1853013901129,0.9597244947479988,1.3288987117116031,11.202294382383764,3.419095156190453,1.3860091805806969,10.588502829947124,-18.554873582793444,8.250911061356707,-3.465792027915396,-2.517886278105945,5.024607588605183,-2.8995420874618905,-3.048036156631097,-2.4624336056592986,-5.784941882621951,25.975137639578165,-14.242150297619048,6.553888398308031,-17.148876933251934,-4.26841290893015,-20.40395181741336,29.4823434270824,38.49183814059364,44.290502291310986,1577396253.0,-27.68530420791018,-51.129901149779045,6.1621604
82289,1577396253.31,-0.222923532625524,2.1282992879727987,11.993344450415634,1.1763997449921395,0.7231656916920731,9.878300864317358,2.7570983971572502,2.2742579964986662,9.512309183706888,4.730038526581555,-7.526676829268292,-4.060884801352897,-3.891177293730945,3.086741377667683,-3.2199766577743905,-3.002259789443597,-7.696198254096799,-1.6803276248094514,26.46990216604632,-14.789925309065936,6.731020517181227,-17.235560388685393,2.972644704433498,-24.99484097633136,29.338574894419985,38.39599245215204,44.33842513553179,1577396253.0,-27.68530420791018,-51.129901149779045,6.1621604
82290,1577396253.32,0.9777685999428352,-2.0651449197908724,7.424010582007432,0.85677382336128,-0.4260511051829267,10.575013547422827,-0.3900796851181395,-4.688080431235708,6.865519248404155,-10.833926317168444,0.0416825457317073,-2.245088902915396,-6.088442918730945,-4.435841630144817,-2.4417784155868905,2.689268530868903,7.394744128715701,3.8280952267530486,26.3049806572236,-13.511783615689868,6.199624160561654,-17.206665903540905,2.896423045345459,-26.185071499013805,29.5302662713032,38.30014676371043,44.290502291310986,1577396253.0,-27.68530420791018,-51.129901149779045,6.1621604
82291,1577396253.33,0.1421922205483031,1.84698059290444,12.26987474216368,-1.0466164964629376,2.6576806330983227,11.547059421446264,1.5204932396865467,-0.263595763266958,4.658065317740093,-2.075381395293445,-4.413883860518292,-4.167696324790397,-3.708071824980945,0.5385236042301829,-3.9066221655868905,-5.916688500381097,21.3717949099657,-1.0852348513719514,25.48037311311001,-14.059558627136752,7.085284754927611,-17.322243844118844,2.896423045345459,-26.185071499013805,29.5302662713032,38.39599245215204,44.43427082397341,1577396253.0,-27.68530420791018,-51.129901149779045,6.1621604
82292,1577396253.34,-0.6862015538657584,-0.8201600565096225,7.242051255835556,-0.6755152391387189,-1.8697547062571451,7.558319455625952,-0.500212961485327,8.906196595131478,9.149587632193215,-6.286807176543444,4.146296803544208,-2.336641637290396,-1.8770171374809448,-4.435841630144817,-4.3338682593368905,5.679991187118903,27.2311699099657,5.140351086128049,26.38744141163496,-15.246404485271672,6.465322338871443,-17.322243844118844,0.457329954528231,-26.185071499013805,29.362536316530388,38.30014676371043,44.24257944709018,1577396253.0,-27.68530420791018,-51.129901149779045,6.1621604
82293,1577396253.35,-0.7556334020102896,1.255612782845846,11.331347691382431,-1.5553843492461403,0.6836613642994946,12.088148996641577,-3.502541843321265,-11.765340538657584,15.688152366079937,2.6548432140815548,-4.139225657393292,-3.099581090415396,-1.2208892077934452,-3.718678544207317,-2.9453184546493905,-2.681825219131097,1.9931328005907003,-10.83560106230945,27.624352727805352,-14.607333638583638,7.616681111547183,-17.322243844118844,3.5061963180497666,-26.185071499013805,29.338574894419985,38.34806960793124,44.53011651241501,1577396253.0,-27.68530420791018,-51.129901149779045,6.1621604
82294,1577396253.36,0.228383480313929,-3.3508312112947785,10.751950889624618,2.994795905880811,-2.7891281437571456,8.056313400938452,-0.2967058203720458,7.426579969154916,16.552459165396343,-9.826846239043444,-2.979557688643293,-3.984590856040396,0.5949066906440549,6.458933760480183,-4.7916319312118905,7.205870093368903,-28.1887519650343,-15.67263719512195,27.624352727805352,-14.607333638583638,7.616681111547183,-17.322243844118844,3.5061963180497666,-26.185071499013805,29.4823434270824,38.25222391948962,44.3863479797526,1577396253.0,-27.68530420791018,-51.129901149779045,6.1621604
82295,1577396253.37,2.658498165372523,-2.2854114725252472,11.015313072241806,4.761716731076124,-2.248038568561833,9.926184897520484,0.553235768983422,0.8928036385885096,12.91327264195884,-2.258486864043445,-19.794743235518293,-3.709932652915396,-7.003970262480945,-2.818409989519817,0.8846376000381098,-11.806581078506095,-39.5107734494093,2.9736030392530486,27.624352727805352,-14.607333638583638,7.616681111547183,-17.206665903540905,4.115969590754076,-26.185071499013805,29.43442058286159,38.10845538682721,44.43427082397341,1577396253.0,-27.68530420791018,-51.129901149779045,6.1621604
82296,1577396253.38,-0.1678568944419302,1.4028561849454548,16.172423448218368,1.1871736524628425,3.0096282771412914,15.449608127500952,-3.3588897437118903,2.6262056405416345,8.280492429556498,-5.615420457793445,5.672175709794208,-2.809664098227896,-2.823062059355945,-5.534474442644817,-4.1507627905868905,-15.621278344131095,-37.7407539181593,8.40573194550305,25.81021613075545,-14.97251697954823,6.731020517181227,-17.264454873829877,-4.26841290893015,-25.84500563539025,29.36253631653038,38.39599245215204,44.43427082397341,1577396253.0,-27.68530420791018,-51.129901149779045,6.1621604
82297,1577396253.39,1.971362288907679,2.560452687631002,11.513307017554306,1.8204399915741716,2.1237736628834782,13.258913608457984,3.628587801454125,4.470938019692025,10.344294260611186,-6.042666551543445,-5.024235423018292,-4.320284215415397,-3.112979051543445,4.124339033917684,-3.4030821265243905,-5.550477562881097,-26.6628730587843,8.57357862519055,25.48037311311001,-16.981025354853482,6.022492041688465,-17.177771418396418,-3.1250880226095745,-23.29451165821358,29.5302662713032,38.39599245215204,44.482193668194206,1577396253.0,-27.68530420791018,-51.129901149779045,6.1621604
82298,1577396253.4,-1.7995053258384146,1.4830619405606895,14.132563633765244,2.9014220411347176,-2.279163190143864,9.758590781309543,0.5340821557021719,-10.577816515220084,3.362802219595561,5.248837354706555,13.774592701981708,-3.160616246665396,-0.3206206531059451,-0.3464861613948171,-5.9818174780868905,-6.099793969131097,10.9958183474657,-1.1157524294969514,25.975137639578165,-14.607333638583638,7.616681111547183,-16.802143111518113,5.792846090690919,-20.40395181741336,29.5302662713032,38.39599245215204,44.290502291310986,1577396253.0,-27.68530420791018,-51.129901149779045,6.1621604
82299,1577396253.41,-0.3270713048423209,-5.323653379263528,4.469565733374618,-0.5653819627715314,-0.7516625309641766,9.349182297422828,1.829345253846703,5.554314270912728,5.680389426626811,-16.418643114043444,19.023616139481707,-1.2990439810403962,-3.616519090605945,-3.520314286394817,-1.9229795874618905,2.750303687118903,22.7145683474657,4.926728039253049,25.975137639578165,-14.607333638583638,7.616681111547183,-16.802143111518113,5.792846090690919,-20.40395181741336,29.4823434270824,38.39599245215204,44.19465660286938,1577396253.0,-27.68530420791018,-51.129901149779045,6.1621604
82300,1577396253.42,0.4737891504799447,0.363772664437643,9.25677195285704,-0.4600370897246564,1.7861912288014472,10.151239853575172,-2.338959836485327,-7.180444359458365,12.961156675161966,3.677182081269055,-6.595890696455792,-3.740450231040396,2.1207855968940548,-1.4451189738948171,-1.8009092749618902,3.818418921493903,22.8671562380907,0.1354682736280487,25.56283386752137,-15.246404485271672,7.528115052110581,-17.322243844118844,7.164835954275611,-24.824808044519585,29.24272920597837,38.10845538682721,44.43427082397341,1577396253.0,-27.68530420791018,-51.129901149779045,6.1621604
82301,1577396253.43,0.8101744837318978,1.861345802865377,12.36564280856993,-0.4097588548613751,0.5388121638600409,8.878721671202124,0.6968878685927975,0.3588966683736663,12.01424991857017,10.253720167206556,-3.010075266768293,-3.404756871665396,2.5327729015815548,1.6981915729801829,-3.3267881812118905,10.394957007431405,5.2127372927782005,-18.55654832793445,25.645294621932727,-16.43325034340659,6.553888398308031,-15.472996794871795,5.335516136162689,-82.63600486052408,29.146883517536764,38.49183814059365,44.3623865576422,1577396253.0,-27.68530420791018,-51.129901149779045,6.1621604
82302,1577396253.44,0.9993164148842416,0.1590684224942826,12.406344236792588,-0.3187791917754377,1.170881402141291,12.849505124571264,-1.275934299375952,3.603039917885385,14.24923716832603,-2.838320848418445,1.7506669207317074,-3.282686559165396,2.7006195812690548,-2.879445145769817,-2.7469541968368905,-4.268739281631097,2.0846855349657014,-7.982207507621951,25.975137639578165,-15.702883661477411,5.845359922815277,-16.802143111518113,5.487959454338766,-91.137651451113,29.19480636175757,38.44391529637284,44.482193668194206,1577396253.0,-27.68530420791018,-51.129901149779045,6.1621604
82303,1577396253.45,-0.6718363439048208,-0.939870139517435,10.589145176733991,-0.7569180955840313,-1.4651346256907392,15.305956027891575,2.413530458924828,-2.813420531333364,9.365065781607278,0.2134369640815548,19.695002858231707,-1.6652549185403962,6.667904737519055,1.1488751667301829,-2.2281553687118905,-0.3624892816310974,2.3898613162157014,-2.0312797732469514,25.975137639578165,-15.702883661477411,5.845359922815277,-17.322243844118844,5.945289408866995,-90.11745386024232,29.4823434270824,38.30014676371043,44.3863479797526,1577396253.0,-27.68530420791018,-51.129901149779045,6.1621604
82304,1577396253.46,0.2918298243080697,-1.393571354117045,9.533302244605087,1.907828352169874,-1.2352912663157398,7.897098990538062,2.790617220399437,3.735918110024057,8.13923453160728,-2.304263231230945,3.886897389481708,-2.168794957602896,1.9987152843940548,-0.3312273723323171,-3.2352354468368905,8.716490210556405,19.4491874880907,6.6509712033155495,25.975137639578165,-15.702883661477411,6.553888398308038,-17.322243844118844,5.945289408866995,-90.11745386024232,29.36253631653038,38.276185341600026,44.410309401863,1577396253.0,-27.68530420791018,-51.129901149779045,6.1621604
82305,1577396253.47,-0.0684975255454459,1.0760476583341263,9.032914097632432,-0.8119847337676251,4.156450872356135,10.709088840391578,-1.5656327002548582,-7.118195116294302,3.920651206411968,3.6314057140815534,-4.627506907393292,-3.557344762290396,3.0668305187690548,-2.757374833269817,-4.5474913062118905,8.884336890243903,31.5341484255907,5.323456554878049,25.31545160428729,-15.702883661477411,6.199624160561654,-19.17149089336589,6.25017604521915,-80.59560967878276,29.62611195974481,38.39599245215204,44.24257944709018,1577396253.0,-27.68530420791018,-51.129901149779045,6.1621604
82306,1577396253.48,0.8867889368568977,4.166962001595846,5.453582615698838,0.7705825635956551,3.737465581828792,7.539165842344702,1.2906498803115467,-1.8868644888528956,7.626875376333842,24.38335883908156,-13.630192454268292,-4.106661168540397,2.3649262218940548,5.757029463605183,-1.6788389624618902,9.342100562118905,25.6747734255907,-8.74514696074695,25.81021613075545,-15.155108650030524,7.439548992673988,-17.206665903540905,6.555062681571303,-80.59560967878276,29.29065205019917,38.39599245215204,44.24257944709018,1577396253.0,-27.68530420791018,-51.129901149779045,6.1621604
82307,1577396253.49,1.0124845240151008,-0.4706066141268106,7.750819108618759,3.701085395626905,-0.6606828678782392,3.1314405859970464,3.1533387719131096,-1.0943837393411768,7.018748154654155,4.730038526581555,-5.924503977705792,-3.4047568716653966,4.073910596894055,5.390818526105183,-4.7916319312118905,19.0772079839939,38.8888847537157,-14.81814500762195,25.48037311311001,-14.789925309065932,6.553888398308034,-17.206665903540905,6.555062681571303,-80.59560967878276,29.410459160751188,38.25222391948962,44.3863479797526,1577396253.0,-27.68530420791018,-51.129901149779045,6.1621604
82308,1577396253.5,0.2020472620522103,-2.1824608011385287,9.25078644870665,-0.0410517991973131,-0.5158336674387866,9.619727085020484,-1.2759342993759528,-0.9519287405618804,12.144733909048686,-5.188174364043445,7.457454030106708,-1.939913121665396,-0.5189849109184452,-7.258717606707316,-1.9992735327743905,10.791685523056405,17.2061454959032,-15.44375535918445,24.98560858664185,-14.97251697954823,6.553888398308031,-19.142596408221408,5.869067749778957,-78.38518156522966,29.5302662713032,38.34806960793124,44.31446371342139,1577396253.0,-27.68530420791018,-51.129901149779045,6.1621604
82309,1577396253.51,1.6050494349037727,1.6841748800138148,12.147770457495712,1.3212489454315928,2.3368576106373844,14.377005783750953,0.0193287987685781,6.033154602943979,12.319510630240092,-7.782168504668445,0.4689286394817073,-2.611299840415396,0.6559418468940549,5.146677901105183,-2.7164366187118905,8.884336890243903,11.7892753787157,-6.425811023246951,24.65576556899641,-14.242150297619048,7.262416873800799,-19.576013685388688,5.487959454338766,-25.84500563539025,29.146883517536764,38.39599245215204,44.290502291310986,1577396253.0,-27.68530420791018,-51.129901149779045,6.1621604
82310,1577396253.52,0.4558326380287728,2.857333693490377,14.7861806869879,0.5239797925995614,0.1341920832936348,12.408972019102515,-2.214461350157202,2.7411273202291344,9.072973179068216,5.859188917206555,0.3773759051067073,-2.611299840415396,3.646664503144055,6.062205244855183,-4.6390440405868905,5.802061499618903,16.9772636599657,6.696747570503049,25.645294621932727,-15.702883661477411,6.908152636054422,-20.789582061457065,6.555062681571303,-12.582436954071568,29.43442058286159,38.44391529637284,44.43427082397341,1577396253.0,-27.68530420791018,-51.129901149779045,6.1621604
82311,1577396253.53,1.2554959925209603,-2.1645042886873567,10.913559501685166,0.7226985303925301,-2.2552211735423016,9.298904062559544,3.3209328881240467,-4.30979656893102,14.570060190786966,-8.148379442168444,0.3315995379192076,-3.8167441763528966,5.752377393769055,-0.6211443645198171,-1.4041807593368902,-3.902528344131097,11.2399589724657,-3.801299304496952,25.397912358698647,-15.611587826236264,6.465322338871443,-20.731793091168093,-3.048866363521536,-17.683424908424907,29.43442058286159,38.39599245215204,44.43427082397341,1577396253.0,-27.68530420791018,-51.129901149779045,6.1621604
82312,1577396253.54,1.281832210782679,0.5876305196622513,3.0043143173589937,2.636862757687452,1.231933544475276,8.270594449522436,-0.6977345984482177,-2.597942381919302,10.620824552359233,21.27056587033156,23.357112233231707,-0.7192099966653963,3.7229584484565543,8.442576338605184,-3.1742002905868905,3.055479468368903,-8.8558662228468,-0.2460014529344513,26.14005914840088,-14.789925309065936,6.731020517181234,-18.42023427960928,0.4573299545282308,-1.7003293181177797,29.338574894419985,38.41995387426245,44.410309401863,1577396253.0,-27.68530420791018,-51.129901149779045,6.1621604
82313,1577396253.55,0.4271022181068978,0.8725405172208451,5.953970762671494,0.3563856763886238,-1.2807810978587078,4.970187460997046,1.2595252587295156,-3.227617418540395,6.147258750357279,12.786679151581556,5.046565358231708,-1.6652549185403962,5.966000440644055,-4.924122880144817,-1.8619444312118905,-3.780458031631097,-11.6787421994093,-17.38162157012195,26.46990216604632,-14.059558627136752,7.085284754927611,-16.39762031949532,-3.2013096816976128,-1.7003293181177797,29.4823434270824,38.10845538682721,44.3863479797526,1577396253.0,-27.68530420791018,-51.129901149779045,6.1621604
82314,1577396253.56,1.7080001062904917,0.99703900354897,9.06643292087462,-2.4424360643340317,1.5635304744069158,13.527064194395484,3.6249964989638905,15.011410828529916,2.9462111307283734,4.119686964081555,-8.137028391768293,-3.740450231040396,4.775814893769055,-5.809132645769817,1.3729188500381098,10.898497046493905,-0.9365546994092988,-0.9631645388719512,24.98560858664185,-14.97251697954823,6.199624160561654,-16.39762031949532,5.335516136162689,-4.420856227106225,29.29065205019917,38.25222391948962,44.24257944709018,1577396253.0,-27.68530420791018,-51.129901149779045,6.1621604
82315,1577396253.57,0.6916615015541634,0.2703987996915488,9.945104930151963,2.3723034742401863,0.7447135066334785,9.71070674810642,-2.324594626524389,-5.918700084556021,14.036153220572125,4.653744581269056,-2.5523115948932933,-3.4200156607278966,-0.1375151843559451,8.198435713605184,-4.9137022437118905,0.3088974371189026,5.563689441215701,10.23678663300305,24.98560858664185,-14.97251697954823,6.199624160561654,-16.39762031949532,-3.2013096816976128,-4.420856227106225,29.43442058286159,38.39599245215204,44.290502291310986,1577396253.0,-27.68530420791018,-51.129901149779045,6.1621604
82316,1577396253.58,-0.6383175206626334,-1.5360263528963412,10.356907615698836,-0.6372080125762194,-1.5489316837962086,7.880339578916968,0.5113372399306876,-6.7016040274271145,9.846300315298686,-20.477481004668444,15.910823170731708,-0.8412803091653963,1.1289643078315548,3.987009932355183,-2.8842832983993905,1.4838241949314028,8.1882011599657,-2.0770561404344514,25.975137639578165,-14.242150297619048,6.553888398308031,-16.85993208180708,-3.81108295440192,-3.0605927726120026,29.338574894419985,38.39599245215204,44.26654086920058,1577396253.0,-27.68530420791018,-51.129901149779045,6.1621604
82317,1577396253.59,0.2619023035561165,1.839797987923971,8.15184788669493,-2.2245637132598124,3.1221557551686354,12.595719748594702,5.882728664491235,9.20547180265101,6.994806138052592,7.903866651581555,-2.552311594893293,-3.740450231040396,-2.700991746855945,-0.6211443645198171,-4.3338682593368905,5.618956030868903,7.089568347465701,2.7599799923780486,24.490844060173693,-15.520291990995116,7.085284754927611,-16.802143111518113,3.3537529998736897,-24.484742180896028,29.4823434270824,38.10845538682721,44.24257944709018,1577396253.0,-27.68530420791018,-51.129901149779045,6.1621604
82318,1577396253.6,-0.3605901280845084,2.3401861348966277,12.593091966284774,2.2573817945526864,0.385583257610041,11.132862534239234,-3.581550498106421,1.1394064095846037,10.315563840689313,0.7017182140815549,-6.885807688643292,-3.709932652915396,4.195980909394055,-3.398243973894817,-0.3055479468368902,0.2478622808689026,13.1320488162157,4.621552258003049,26.3049806572236,-15.33770032051282,6.908152636054422,-16.39762031949532,2.591536408993306,-26.185071499013805,29.4823434270824,38.49183814059364,44.3863479797526,1577396253.0,-27.68530420791018,-51.129901149779045,6.1621604
82319,1577396253.61,-0.112790256258337,2.553270082650533,11.838918443335556,-0.4720080980254381,3.287355669719416,10.133283341124,-0.5217607764267334,-2.940313219321645,11.57970231725181,6.637387159394055,-8.549015696455792,-3.4352744497903966,2.4564789562690548,-1.384083817644817,-3.4030821265243905,4.581358374618903,11.0110771365282,-11.41543504668445,25.15053009546457,-15.155108650030524,6.022492041688465,-18.1890783984534,2.2866497726411525,-25.84500563539025,29.4823434270824,38.22826249737922,44.43427082397341,1577396253.0,-27.68530420791018,-51.129901149779045,6.1621604
82320,1577396253.62,1.9953043055092412,-1.0691570291658723,6.296341600073838,3.571798505978468,-2.6071688175852707,7.929420712950171,-2.1785483252548583,2.6836664803853845,8.797639988150248,-1.1293364734184452,0.5909989519817074,-2.672334996665396,3.2804535656440548,4.627879072980183,-4.1507627905868905,7.480528296493903,3.1833183474657014,-10.72878953887195,25.15053009546457,-15.520291990995116,8.148077468166749,-20.03832544770045,3.3537529998736897,-20.40395181741336,29.62611195974481,38.44391529637284,44.43427082397341,1577396253.0,-27.68530420791018,-51.129901149779045,6.1621604
82321,1577396253.63,0.8484817102943978,-3.125776255240091,9.71765577243712,0.8591680250214363,-3.2081134342844893,5.59986249761814,-0.2153029639267333,6.124134266029916,6.252603623404155,-1.0683013171684452,11.272151295731708,-2.336641637290396,3.4940766125190548,-0.7737322551448171,-2.1671202124618905,5.191709937118903,3.1833183474657014,-1.6650688357469514,26.3049806572236,-16.068067002442003,6.553888398308031,-16.513198260073263,0.457329954528231,-20.74401768103691,29.338574894419985,38.25222391948962,44.43427082397341,1577396253.0,-27.68530420791018,-51.129901149779045,6.1621604
82322,1577396253.64,2.7901792566811165,-0.0827459451814976,8.54928536228087,2.855932209591749,2.5379705500905105,9.13609834966892,3.5435936425185783,2.4657941293111656,6.147258750357279,-2.533145067168445,-2.979557688643293,-4.045626012290397,-0.7478667468559451,2.033884932355183,-2.1366026343368905,2.597715796493903,10.5685722537157,4.591034679878049,25.645294621932727,-14.607333638583638,7.262416873800799,-16.0508864977615,2.896423045345459,-26.185071499013805,29.4823434270824,38.39599245215204,44.43427082397341,1577396253.0,-27.68530420791018,-51.129901149779045,6.1621604
82323,1577396253.65,1.3237307398354137,3.108724867806784,9.906797703589463,1.1572461317108895,1.0870843440358222,7.824075839903296,0.0157374962783443,-7.277409526694693,8.612089359488138,6.866268995331556,5.107600514481708,-4.274507848227897,0.2439545422065548,4.536326338605183,-2.9910948218368905,-3.154847680068597,11.3009941287157,-1.6192924685594514,26.46990216604632,-14.424741968101342,4.959699328449328,-17.322243844118844,-4.420856227106227,-25.84500563539025,29.43442058286159,38.44391529637284,44.43427082397341,1577396253.0,-27.68530420791018,-51.129901149779045,6.1621604
82324,1577396253.66,0.0871255823647093,-3.0036719705721224,6.521396556128525,-2.554963542361375,0.3424876277272285,10.481639682676734,2.267484157655297,9.325181885658822,9.693071409048684,-2.502627489043445,4.131038014481708,-2.855440465415396,0.4118012218940549,0.0502423542301829,-1.8314268530868905,9.860899390243905,-2.9507148556592986,-6.334258288871951,25.81021613075545,-15.520291990995116,6.376756279434842,-17.322243844118844,-4.420856227106227,-23.46454459002536,29.5302662713032,38.25222391948962,44.43427082397341,1577396253.0,-27.68530420791018,-51.129901149779045,6.1621604
82325,1577396253.67,-0.7436623937095084,0.9874621969083452,11.010524668921494,-1.910923295779344,0.9530090510670722,16.48629744634861,-1.6063341284775146,-6.967360411704458,10.705818711294778,-9.185977098418444,5.962092701981708,-2.336641637290396,-0.3511382312309451,-1.3230486613948171,-1.4346983374618902,-3.475282250381097,2.4203788943407014,-4.381133288871951,25.48037311311001,-14.789925309065936,7.439548992673988,-17.322243844118844,-4.420856227106227,-23.46454459002536,29.5302662713032,38.30014676371043,44.43427082397341,1577396253.0,-27.68530420791018,-51.129901149779045,6.1621604
82326,1577396253.68,-2.1454674657309925,-0.0947169534822788,13.450216160620712,-2.0114797655059062,-0.4739351383860517,13.792820578672828,-2.2264323584579837,-3.699275145591177,15.676181357779154,-14.496035692168444,5.229670826981708,-2.153536168540396,0.9611176281440548,4.444773604230183,-4.0592100562118905,1.6211532964939026,-3.8052070431592986,-20.00613328887195,25.315451604287286,-14.60733363858364,6.908152636054415,-17.322243844118844,-3.81108295440192,-25.504939771766697,29.31461347230958,38.15637823104801,44.482193668194206,1577396253.0,-27.68530420791018,-51.129901149779045,6.1621604
82327,1577396253.69,1.7582783411537728,-1.9765594583650912,9.186143003882432,0.3108958448456556,-0.9755203861887866,11.057445181944312,1.5360555504775626,6.6448731271139,8.109307010855327,-11.352725145293444,1.2013505144817074,-1.3295615591653962,0.8695648937690548,0.3859357136051828,-1.3889219702743902,9.479429663681405,9.1189872927782,8.63461378144055,24.490844060173693,-14.789925309065936,8.148077468166749,-17.322243844118844,5.945289408866995,-22.784412862778247,29.4823434270824,38.41995387426245,44.45823224608381,1577396253.0,-27.68530420791018,-51.129901149779045,6.1621604
82328,1577396253.7,1.2602843958412728,2.1223137838224084,12.080732811011336,3.356320356564405,2.284185174113947,6.184047702696265,-5.058772922422827,-14.05898572908727,9.570967124380717,1.2205170422065548,0.8961747332317074,-3.404756871665396,-2.395815965605945,4.749949385480183,-4.2117979468368905,-3.627870141006097,18.3810722537157,5.689667492378049,25.31545160428729,-14.607333638583638,6.199624160561654,-17.322243844118844,5.640402772514843,-23.46454459002536,29.29065205019917,38.30014676371043,44.57803935663581,1577396253.0,-27.68530420791018,-51.129901149779045,6.1621604
82329,1577396253.71,0.3864007898842415,3.3074436055997523,8.482247715796493,0.0858408887909676,2.7678139094655103,5.116233762266577,3.5004980126357657,3.9956889901510095,1.591092991079936,18.46294868283156,0.3163407488567073,-2.641817418540396,-0.4732085437309451,0.3554181354801829,-2.3197081030868905,7.358457983993903,21.8295585818407,-9.35549852324695,24.82068707781913,-15.520291990995116,6.376756279434842,-17.322243844118844,5.945289408866995,-26.185071499013805,29.43442058286159,38.30014676371043,44.290502291310986,1577396253.0,-27.68530420791018,-51.129901149779045,6.1621604
82330,1577396253.72,3.3109181177651013,1.3406069417813924,2.914531755103134,3.004372712521436,4.218700115520198,4.812170151426733,2.413530458924828,-1.3026792837747705,0.2216096414705611,18.43243110470656,-15.781681712080792,-4.655977574790397,1.4188813000190548,5.726511885480183,-3.5404112280868905,7.755186499618903,35.3183281130907,0.0133979611280486,26.634823674869043,-14.789925309065936,6.199624160561657,-17.264454873829877,-3.658639636225843,-76.17475345167654,29.386497738640788,38.25222391948962,44.43427082397341,1577396253.0,-27.68530420791018,-51.129901149779045,6.1621604
82331,1577396253.73,1.272255404142054,-1.6509480325838413,6.538155967749619,4.430119801144484,-2.361763147419255,6.530009842588843,-1.1622097205185309,-7.75744695955602,9.558996116079935,2.8074311047065548,15.941340748856708,-4.717012731040397,-1.892275926543445,2.751048018292683,-2.9148008765243905,1.8347763433689028,13.8644706912157,-24.87368699980945,27.45943121898264,-14.789925309065936,6.731020517181234,-17.29334935897436,0.8384382499684231,-78.38518156522966,29.338574894419985,38.39599245215204,44.43427082397341,1577396253.0,-27.68530420791018,-51.129901149779045,6.1621604
82332,1577396253.74,2.1293795984779917,-2.4482171854158725,9.827789048804306,-0.2708951585723126,0.136586284953791,14.058576962950172,-1.8457542944931395,11.226178003822884,13.66744616490806,-6.775088426543445,1.7811844988567074,-2.092501012290396,-2.060122606230945,-5.564992020769817,-2.1366026343368905,3.055479468368903,-0.5093086056592988,3.0346381955030486,26.14005914840088,-16.2506586729243,6.376756279434842,-17.091087962962966,5.335516136162689,-79.91547795153564,29.338574894419985,38.25222391948962,44.482193668194206,1577396253.0,-27.68530420791018,-51.129901149779045,6.1621604
82333,1577396253.75,0.496534066251429,3.2332233541349087,16.071866978491805,1.3499793653534675,3.2275006282155103,18.32983272466892,-0.4978187598251708,-5.372822106040396,14.385706662954936,-17.700381395293444,13.560969655106708,-3.618379918540396,-3.769106981230945,7.557566572980183,-4.7916319312118905,-8.174989281631097,-1.3943183712842988,-1.1462700076219514,24.32592255135097,-14.97251697954823,5.845359922815277,-17.322243844118844,5.335516136162689,-80.59560967878276,29.4823434270824,38.25222391948962,44.57803935663581,1577396253.0,-27.68530420791018,-51.129901149779045,6.1621604
82334,1577396253.76,-1.3422128087485703,1.595589418588033,11.9514459213629,-0.1475937730742662,-2.456334112995427,11.289682742979467,2.851669362733422,12.406519422279915,13.92841414586509,-1.7854644031059452,12.187678639481708,-3.9388144888528966,-1.6023589343559452,2.827341963605183,-4.3643858374618905,-2.208802758193597,-19.0792548947218,2.714203625190549,24.90314783223049,-15.79417949671856,6.111058101125059,-17.264454873829877,5.792846090690919,-78.21514863341787,29.55422769341361,38.34806960793124,44.33842513553179,1577396253.0,-27.68530420791018,-51.129901149779045,6.1621604
82335,1577396253.77,-0.4898770177329459,0.1159727926114701,13.447821958960557,-6.56764552478325,1.3552349299733222,15.468761740782202,-6.5743025733017335,-18.43319216219274,13.677022971548686,-22.674746629668444,-1.9724776105182928,-5.266329137290397,-0.7783843249809451,-6.999318192644817,-2.3197081030868905,-33.0773330316311,-29.5315254025343,6.818817883003049,25.31545160428729,-15.33770032051282,6.199624160561654,-16.917721052096056,6.097732727043072,-74.8144899971823,29.43442058286159,38.44391529637284,44.43427082397341,1577396253.0,-27.68530420791018,-51.129901149779045,6.1621604
82336,1577396253.78,-0.9423811315024772,-0.5232790506502476,7.481471421851181,0.1073887037323738,-2.6358992375071457,9.284538852598608,-7.1728529883407965,1.915127747475228,11.12719820348228,3.4177826672065548,21.007258717606707,-2.184053746665396,-3.586001512480945,10.182078291730184,-5.1273252905868905,-11.776063500381095,-42.3489082150343,-6.334258288871951,25.31545160428729,-15.33770032051282,6.199624160561654,-17.322243844118844,7.164835954275611,-77.87508276979432,29.43442058286159,38.39599245215204,44.43427082397341,1577396253.0,-27.68530420791018,-51.129901149779045,6.1621604
