,timestamp,acc_x_dashboard,acc_y_dashboard,acc_z_dashboard,acc_x_above_suspension,acc_y_above_suspension,acc_z_above_suspension,acc_x_below_suspension,acc_y_below_suspension,acc_z_below_suspension,gyro_x_dashboard,gyro_y_dashboard,gyro_z_dashboard,gyro_x_above_suspension,gyro_y_above_suspension,gyro_z_above_suspension,gyro_x_below_suspension,gyro_y_below_suspension,gyro_z_below_suspension,mag_x_dashboard,mag_y_dashboard,mag_z_dashboard,mag_x_above_suspension,mag_y_above_suspension,mag_z_above_suspension,temp_dashboard,temp_above_suspension,temp_below_suspension,timestamp_gps,latitude,longitude,speed
53780,1577395968.22,-0.1661575952148437,0.5965153436279299,6.1490879788208,-1.5691948051638716,3.0916150852110325,10.626401290372522,-1.3034147847493485,-1.8742608662923173,8.809065974934896,-7.665634155273437,1.3666152954101562,-0.319671630859375,-11.483913514672256,-0.0325644888528963,-0.0135840439214938,-9.306226457868304,80.20964122953869,-10.574704124813987,23.928496946726117,-16.045873193027212,3.5576822916666684,67.76799721659921,-7.093811406661874,-77.69024216524217,33.91520651750682,36.67077006020308,36.28738730643664,1577395968.0,-27.68745233183483,-51.13012167923201,9.046014
53781,1577395968.23,-3.1098285363769533,0.2146401788330078,13.574704427795409,1.2751167671017531,0.6064337619688451,6.298881789640102,1.3182360331217444,5.255671677652994,7.699353505452474,1.7337799072265625,1.6870498657226562,1.343536376953125,-9.744411561547256,-5.144258824790396,5.464321229516006,-11.167798723493304,83.00199962797619,4.073733375186013,24.329981794825542,-15.761035207352172,4.013795405982902,56.45747090080973,-8.68380361849988,6.02410968660968,33.939167939617214,36.71869290442388,36.50304010543026,1577395968.0,-27.68745233183483,-51.13012167923201,9.046014
53782,1577395968.24,-0.4139574670410146,-4.166748859252929,9.727222359924315,-6.800525432605278,0.2856107395079075,21.833659261563927,-7.0566813741048176,-9.650627858479815,1.7413826741536451,-13.830184936523438,-1.822471618652344,1.374053955078125,-3.366237733422256,12.449124964272103,1.5122948623285062,-7.963453020368304,36.66105724516369,-15.976315452938987,24.49057573406532,-15.571143216902144,4.196240651709401,67.76799721659921,-7.419963655244028,-7.8936609686609795,34.08293647227963,36.479078683319855,36.38323299487824,1577395968.0,-27.68745233183483,-51.13012167923201,9.046014
53783,1577395968.25,-1.4506467858886718,-3.3527202947998043,13.330495858459471,4.490529596691596,-3.61693796654678,15.850549312833458,3.7866579447428377,-2.044249184163411,-4.699019791666665,-9.435653686523438,2.938270568847656,0.611114501953125,0.509494688452744,2.103665979897104,4.533535096703506,-4.759107317243304,-18.88093494233631,-3.403073265438988,25.454139369503952,-17.849847102302462,2.371788194444441,69.31473585807468,-6.115354660915408,-8.724572649572671,34.08293647227963,36.71869290442388,36.19154161799503,1577395968.0,-27.68745233183483,-51.13012167923201,9.046014
53784,1577395968.26,-1.5907075830078123,-0.6712144354248047,10.542448025207518,-1.2974529167361375,3.387298990240329,6.399438259366664,-0.7826759236653645,-0.6675832295735681,9.641051051839192,-4.720687866210937,-2.097129821777344,0.244903564453125,1.7454566025152438,-10.835787145102891,2.275234315453506,-4.484449114118304,-25.53376697358631,11.199587867373513,23.76790300748634,-16.805441154827317,3.7401275373931626,69.21806469298247,-6.726890127006948,-8.516844729344749,34.058975050169224,36.694731482313486,36.45511726120945,1577395968.0,-27.68745233183483,-51.13012167923201,9.046014
53785,1577395968.27,-3.212779207763672,1.0813411798095702,15.839619198303222,-1.516522368640434,-2.891494863519436,14.945541085294396,-1.8684463765462236,3.9316781595865886,14.703590462239584,2.3136138916015625,-2.005577087402344,0.275421142578125,-3.701931092797256,11.472562464272103,0.2305565810785061,-6.346021379743304,-14.33381580171131,3.463381812686012,23.68760603786645,-17.280171130952382,4.013795405982902,67.96133954678365,-8.64303458742711,-8.309116809116826,34.03501362805883,36.57492437176146,36.38323299487824,1577395968.0,-27.68745233183483,-51.13012167923201,9.046014
53786,1577395968.28,-1.788229219970703,-2.634459796752929,13.464571151428222,-0.4989866630740277,-4.409418716058498,8.684703743985803,1.4786475443522131,-3.926091689046224,19.599732857259117,-4.6138763427734375,-3.043174743652344,0.214385986328125,-7.425075624047256,-15.382906285727897,0.2000390029535061,-5.491529192243304,13.40666271391369,5.965823218936012,24.008793916346,-13.86211530285191,4.3786858974359,67.76799721659921,-8.398420400990494,-5.400925925925935,33.939167939617214,36.67077006020308,36.479078683319855,1577395968.0,-27.68745233183483,-51.13012167923201,9.046014
53787,1577395968.29,-3.653312313232422,-2.926552399291992,9.41118774078369,-7.214722319812309,2.3757487888243136,11.902510775235802,-5.064705592854818,0.5175465922037754,17.162435567220054,-3.8204193115234375,-5.606651306152344,1.923370361328125,3.286594297827744,-16.023775426352895,2.977138612328506,-5.583081926618304,38.49211193266369,2.578372047061012,23.527012098626685,-17.470063121402408,2.371788194444441,80.33524867858752,-7.990730090262799,-8.309116809116826,34.17878216072124,36.71869290442388,36.81453859286549,1577395968.0,-27.68745233183483,-51.13012167923201,9.046014
53788,1577395968.3,-0.8078036401367182,-0.0199915838623047,10.180923574523923,-0.2140766655154345,-1.4813100856874046,11.126789437345176,-1.4829799092610676,1.3603055765787762,8.479863246663413,-5.0258636474609375,-7.208824157714844,0.870513916015625,-7.592922303734756,-0.2614463247903966,-0.5018652939214938,-4.423413957868304,47.26591564360119,-5.890255882626487,24.49057573406532,-16.710495159602303,3.6489049145299135,67.76799721659921,-6.115354660915408,-68.55021367521368,34.08293647227963,36.69473148231347,36.38323299487825,1577395968.0,-27.68745233183483,-51.13012167923201,9.046014
53789,1577395968.31,1.2715605017089844,4.533779973754883,3.497509640197753,2.149000373058784,2.8450123142149386,17.181725435880335,-5.421441640218099,-10.09594936726888,4.789201387532551,-1.6231536865234375,-1.4562606811523438,0.824737548828125,-6.814724061547256,-8.516451207602897,2.275234315453506,-4.850660051618304,29.79460216703869,-13.229733421688987,24.65116967330509,-16.140819188252223,3.6489049145299135,67.76799721659921,-6.115354660915408,-65.22656695156695,34.08293647227963,36.81453859286549,36.52700152754066,1577395968.0,-27.68745233183483,-51.13012167923201,9.046014
53790,1577395968.32,3.3138145178222653,-0.2833537664794922,4.99388567779541,-3.642573442859184,1.7221317356016572,13.750834456876428,-2.6848691426595046,-8.321845937093098,10.14263629964193,-7.757186889648437,-3.439903259277344,0.519561767578125,-0.711208436547256,2.042630823647104,2.488857362328506,-2.8364998953683034,11.20939708891369,7.674807593936012,24.49057573406532,-17.090279140502357,1.6420072115384623,68.15468187696808,-8.398420400990494,-65.22656695156695,34.03501362805883,36.67077006020308,36.52700152754066,1577395968.0,-27.68745233183483,-51.13012167923201,9.046014
53791,1577395968.33,-1.3656526269531244,-3.9572562139892575,11.76109667022705,4.0715443061642524,-3.4732858669374047,15.079616378263148,-3.3648224141438794,0.3044626444498691,14.744291890462245,-2.782821655273437,0.817298889160156,1.313018798828125,-7.516628358422256,14.524320276772103,-0.1661719345464938,-7.047925676618304,17.28239513578869,21.590823218936013,24.089090885965888,-16.995333145277343,2.8279013087606826,67.76799721659921,-5.789202412333252,-98.4630341880342,34.03501362805883,36.81453859286549,36.38323299487824,1577395968.0,-27.68745233183483,-51.13012167923201,9.046014
53792,1577395968.34,-1.615846700439453,-4.138018439331054,12.200432674865722,-2.0097279106326225,-2.8771296535584985,10.967575026944788,-0.6378267232259108,1.6751430948893236,17.801687410481772,-4.3087005615234375,0.6799697875976562,0.824737548828125,2.355808165015244,-1.4974082388528966,1.6191063857660062,-1.0359627859933034,30.45073009672619,-3.113156273251488,24.008793916346,-17.280171130952382,1.4595619658119638,67.76799721659921,-7.419963655244028,-58.57927350427353,34.17878216072124,36.694731482313486,36.35927157276784,1577395968.0,-27.68745233183483,-51.13012167923201,9.046014
53793,1577395968.35,-1.386003341064453,2.76685914855957,16.193961044006347,5.850436139660347,-2.5539124294374047,13.240869503263148,2.637441147867838,10.53967474161784,6.975107503255209,7.318496704101562,-1.3952255249023438,1.343536376953125,-3.213649842797256,9.519437464272103,2.977138612328506,0.7645743233816966,23.05021740141369,0.2285185314360119,24.008793916346,-17.280171130952382,1.4595619658119638,68.3480242071525,-5.870740474478792,6.647293447293441,34.03501362805883,36.71869290442388,36.57492437176146,1577395968.0,-27.68745233183483,-51.13012167923201,9.046014
53794,1577395968.36,-1.6757017419433593,-2.0598513983154296,13.380774093322753,-0.6330619560427777,1.0972451023008762,13.796324288419395,-6.884298854573568,3.914918747965495,1.92334200032552,2.2220611572265625,-3.653526306152344,2.198028564453125,1.394504454077744,-16.847750035727895,2.366787049828506,5.281175885881696,2.6949927920386907,-17.868405296688987,22.72404240242782,-16.140819188252223,2.18934294871795,68.3480242071525,-5.870740474478792,6.647293447293441,33.939167939617214,36.52700152754066,36.67077006020308,1577395968.0,-27.68745233183483,-51.13012167923201,9.046014
53795,1577395968.37,-0.2439691491699218,1.0382455499267578,6.795522427062988,-6.333656108874809,4.013382724371189,3.6903990808998666,4.358872141520181,-28.94549903767903,12.70922047932943,0.2079010009765625,-1.791954040527344,1.251983642578125,3.042453672827744,3.507474573647104,1.0850487685785062,-0.0594002859933033,-9.69514392671131,10.818118140811013,24.65116967330509,-16.330711178702252,2.736678685897437,71.0548168297346,-5.707664350187715,4.985470085470055,34.10689789439003,36.81453859286549,36.52700152754066,1577395968.0,-27.68745233183483,-51.13012167923201,9.046014
53796,1577395968.38,-0.9239224206542967,-4.808394904174804,8.00100296295166,-0.0237376335330126,-0.7546698818299826,8.81399063363424,-2.665715529378255,5.659094657389323,7.389304390462239,2.6798248291015625,-1.852989196777344,2.686309814453125,-2.465969178734756,-5.647798863852896,0.5052147842035063,1.3901846749441966,-6.155104864211309,6.881350562686013,23.527012098626685,-17.090279140502357,2.006897702991451,68.92805119770581,-4.484593418004632,-1.2463675213675307,34.08293647227963,36.742654326534286,36.550962949651066,1577395968.0,-27.68745233183483,-51.13012167923201,9.046014
53797,1577395968.39,0.1869871496582031,-1.5307328314208983,7.0241686856079095,-0.252383892077934,-3.7222828395936554,8.600906685880336,0.4108336039225256,-6.116786208089192,15.07708592122396,2.1610260009765625,-0.1440048217773437,1.587677001953125,6.124729063452744,4.453519495522103,2.855068299828506,0.9476797921316966,1.7794654482886905,11.001223609561013,23.527012098626685,-17.090279140502357,2.006897702991451,67.76799721659921,-7.419963655244028,-56.91745014245016,33.939167939617214,36.71869290442388,36.38323299487824,1577395968.0,-27.68745233183483,-51.13012167923201,9.046014
53798,1577395968.4,-1.2255918298339843,-0.0582988104248037,16.021578524475096,-0.2475954887576214,-3.001628139886624,19.5807154993569,-4.672056520589192,17.614540647379556,22.08970258382161,8.142471313476562,-0.5712509155273438,3.632354736328125,7.650607969702744,2.591947229897104,2.305751893578506,2.9313223702566966,18.53361583891369,8.468264625186013,25.29354543026418,-15.761035207352172,2.18934294871795,68.92805119770581,-8.07226815240834,-60.241096866096896,34.08293647227963,36.67077006020308,36.57492437176146,1577395968.0,-27.68745233183483,-51.13012167923201,9.046014
53799,1577395968.41,-0.5169081384277343,-0.8148665350341797,15.302120925598144,2.819376837902534,2.120766312017673,18.61944353280416,-2.664518428548177,7.193777921549478,11.813789058430988,10.370254516601562,2.419471740722656,2.869415283203125,-2.923732850609756,7.306913050209604,2.473598573266006,4.655565534319196,40.18583751860119,-6.851559593563987,24.97235755178464,-16.520603169152277,3.10156917735043,75.30834809379218,-5.463050163751097,-59.82564102564103,34.17878216072124,36.52700152754066,36.35927157276784,1577395968.0,-27.68745233183483,-51.13012167923201,9.046014
53800,1577395968.42,0.4910507604980468,0.8658630303955077,16.38310297515869,5.917473786144721,-4.751789553460842,8.47640819955221,-4.6002304707845045,-10.730412807210286,6.927223470052083,-0.3108978271484375,-2.463340759277344,2.289581298828125,12.624973204077744,-7.112642613852897,3.709560487328506,4.884447370256696,39.71281505766369,-0.9006318591889881,24.329981794825542,-16.900387150052328,2.5542334401709463,69.70142051844356,-5.136897915168943,-61.90292022792025,33.939167939617214,36.81453859286549,36.479078683319855,1577395968.0,-27.68745233183483,-51.13012167923201,9.046014
53801,1577395968.43,2.9068002355957026,-7.595245636596679,3.633979134826659,-2.3951943779177776,4.856141708746189,7.770118709806116,-1.1238496602376296,12.052810190836588,3.707022237141927,-12.456893920898438,-8.231163024902344,1.831817626953125,8.077854063452744,0.8829628548971036,-0.8375586532964938,8.790697370256696,3.91569591703869,-0.6564912341889881,24.329981794825542,-16.900387150052328,2.5542334401709463,69.70142051844356,-5.136897915168943,-61.90292022792025,34.03501362805883,36.71869290442388,36.52700152754066,1577395968.0,-27.68745233183483,-51.13012167923201,9.046014
53802,1577395968.44,0.8645462194824218,0.5258863946533203,0.7633313442993154,0.6143171088986275,-3.0590889797303733,12.886527657560022,5.366831040445963,-21.640789772542316,-3.454034928385416,1.6117095947265625,1.4429092407226562,2.503204345703125,10.549777891577744,21.451810511147105,-1.2953223251714938,5.159105573381696,-24.49616931733631,-0.8395967029389881,23.68760603786645,-17.280171130952382,2.5542334401709463,67.76799721659921,-5.789202412333252,-8.724572649572671,34.27462784916285,36.71869290442388,36.67077006020308,1577395968.0,-27.68745233183483,-51.13012167923201,9.046014
53803,1577395968.45,2.1382615026855465,0.7653065606689453,4.493497530822753,-2.450261016101372,0.8542336337950173,9.81716112923971,-2.6764894368489576,1.997163218180338,11.714429689534509,8.417129516601562,1.976966857910156,1.007843017578125,10.275119688452744,-2.1687949576028966,1.4665184951410062,4.167284284319196,-22.49726795014881,15.365237281436013,23.928496946726117,-16.045873193027212,3.5576822916666684,69.02472236279803,-4.64766954229571,-3.323646723646737,34.058975050169224,36.64680863809267,36.57492437176146,1577395968.0,-27.68745233183483,-51.13012167923201,9.046014
53804,1577395968.46,-2.1545420739746093,-0.3743334295654296,12.89714535797119,5.04359018018769,-4.711088125238186,14.90483965707174,4.361266343180338,9.435947776285806,7.549715901692708,9.454727172851562,11.818885803222656,1.496124267578125,4.904025938452744,25.480130823647105,-0.7460059189214938,7.997240339006696,-10.06135486421131,-4.837399437313988,24.16938785558577,-17.849847102302462,1.6420072115384623,68.73470886752138,-5.218435977314481,-8.309116809116826,34.27462784916285,36.86246143708629,36.52700152754066,1577395968.0,-27.68745233183483,-51.13012167923201,9.046014
53805,1577395968.47,-2.6453534143066406,-4.319977765502929,15.334442648010253,2.168153986340034,-3.631303176507717,8.708645760587366,-5.500450295003255,-3.490346986897786,11.11228797200521,5.0601959228515625,9.041786193847656,2.472686767578125,1.241916563452744,-6.563326207602897,1.5122948623285062,9.187425885881696,-15.55451892671131,-14.877682640438987,24.16938785558577,-17.849847102302462,1.6420072115384623,71.0548168297346,-7.664577841680645,-5.816381766381765,34.03501362805883,36.67077006020308,36.38323299487824,1577395968.0,-27.68745233183483,-51.13012167923201,9.046014
53806,1577395968.48,-2.025255184326172,-2.349549799194336,11.884398055725097,-5.917065020007621,-1.3711768093202163,4.312891512540491,-0.4247427754720045,-13.119826064046222,10.827377974446618,2.4662017822265625,4.311561584472656,2.228546142578125,7.620090391577744,6.284574183022103,1.8479882217035064,7.478441510881696,-23.94685291108631,-2.792721702938988,24.16938785558577,-17.849847102302462,1.6420072115384623,67.76799721659921,-8.07226815240834,-3.7391025641025832,34.08293647227963,36.67077006020308,36.479078683319855,1577395968.0,-27.68745233183483,-51.13012167923201,9.046014
53807,1577395968.49,-3.136164754638672,0.1966836663818358,13.777014468078612,0.7112822761349561,2.471516855230564,15.3776944849526,0.1642308329264323,-2.1148781331380206,11.348116835530602,13.422012329101562,5.181312561035156,2.182769775390625,6.643527891577744,-0.8717978872903966,-0.7612647079839938,6.547655378069196,-19.24714587983631,10.558718726748513,23.76790300748634,-15.476197221677133,2.463010817307693,80.2385775134953,-6.971504313443565,-4.362286324786336,33.91520651750682,36.71869290442388,36.43115583909905,1577395968.0,-27.68745233183483,-51.13012167923201,9.046014
53808,1577395968.5,-3.0451850915527343,5.711727190551757,12.861232333068848,-3.12782008592559,-0.801356814203029,5.366340243009241,-0.1565921895345046,1.4273432230631504,7.9160287556966145,6.0062408447265625,-0.4491806030273437,1.282501220703125,10.641330625952744,-4.945894566977897,-0.5018652939214938,6.746019635881696,-14.79157947358631,8.926028297061013,24.16938785558577,-15.571143216902144,3.466459668803423,80.33524867858752,-7.175349468807411,-4.985470085470089,33.939167939617214,36.57492437176146,36.33531015065744,1577395968.0,-27.68745233183483,-51.13012167923201,9.046014
53809,1577395968.51,0.2085349645996093,-0.5634753607177734,10.768700082092284,-1.056835649890434,0.7955756931211887,9.189880294278774,6.2095900248209634,1.5470533060709628,11.009337300618492,-3.8814544677734375,-13.632774353027344,2.625274658203125,4.537815000952744,3.812650354897104,-1.6615332626714938,6.196703229631696,-3.5916283017113093,8.498782203311013,24.16938785558577,-15.571143216902144,3.466459668803423,69.31473585807468,-5.29997403946002,-61.90292022792025,34.08293647227963,36.52700152754066,36.57492437176146,1577395968.0,-27.68745233183483,-51.13012167923201,9.046014
53810,1577395968.52,1.8473660009765625,-3.896204071655273,4.268442574768065,-1.1454211113162152,1.614392660894626,8.098124337247523,0.2504220926920569,-2.5637909444173173,8.835402193196614,2.3441314697265625,-1.2426376342773438,2.320098876953125,3.530734922827744,-2.412935582602896,2.397304627953506,6.379808698381696,5.380539667038691,-3.921872093563988,24.24968482520565,-16.045873193027212,4.105018028846155,70.86147449955017,-3.5061366722581666,-5.400925925925935,34.08293647227963,36.57492437176146,36.52700152754066,1577395968.0,-27.68745233183483,-51.13012167923201,9.046014
53811,1577395968.53,-1.3907917443847655,1.0526107598876953,5.0728943325805655,-1.005360314197075,-1.8643823513124047,8.250156142667443,-0.4403050862630208,1.3303780558268237,9.046091939290363,10.309219360351562,1.2598037719726562,3.571319580078125,2.508396055640244,6.681302698647103,-2.317661192358994,7.051195417131696,-0.3720238095238094,-1.846676781063988,24.811763612544866,-16.330711178702252,2.371788194444441,67.76799721659921,-4.158441169422477,-55.25562678062681,34.22670500494204,36.59888579387187,36.57492437176147,1577395968.0,-27.68745233183483,-51.13012167923201,9.046014
53812,1577395968.54,-0.8712499841308593,2.4244883111572264,11.834119820861815,2.1801249946408148,1.4731347629454072,8.327967696622522,-6.690368520100911,-23.714168410237622,16.523183723958336,18.45741271972656,3.212928771972656,0.855255126953125,3.561252500952744,-7.478853551352897,2.549892518578506,0.0321524483816966,-5.178542364211309,3.493899390811012,24.49057573406532,-16.330711178702252,2.736678685897437,67.76799721659921,-6.767659158079718,-53.59380341880342,34.08293647227963,36.86246143708629,36.28738730643664,1577395968.0,-27.68745233183483,-51.13012167923201,9.046014
53813,1577395968.55,-0.7419630944824218,0.7700949639892577,14.170860641174317,-3.7359473076052776,-1.826075124749904,14.835407808927208,-3.0392109883626297,6.977102671305338,9.311848323567707,4.3582916259765625,0.8325576782226562,0.244903564453125,4.049533750952744,9.672025354897103,-2.302402403296494,5.006517682756696,1.2301490420386905,10.543459937686013,24.49057573406532,-16.330711178702252,2.736678685897437,69.31473585807468,-7.419963655244028,-48.60833333333335,34.17878216072124,36.479078683319855,36.52700152754066,1577395968.0,-27.68745233183483,-51.13012167923201,9.046014
53814,1577395968.56,-2.7602750939941405,-0.6867767462158201,11.053610079650875,1.1913197089962837,-0.6648873195741227,21.27581027474752,-1.0065337788899733,8.399258457438151,7.76519405110677,7.501602172851562,10.048866271972656,0.626373291015625,-3.976589295922256,0.4251991830221036,-3.553623106421494,5.037035260881696,-6.216140020461309,0.0759306408110119,24.570872703685204,-16.045873193027212,2.6454560630341915,72.40821314102566,1.7122993050563151,-47.77742165242167,34.058975050169224,36.57492437176146,36.67077006020308,1577395968.0,-27.68745233183483,-51.13012167923201,9.046014
53815,1577395968.57,1.4200010046386715,-2.11731223815918,11.436682345275878,-2.026487322253716,-1.4418057582948258,11.386560317472131,-0.5528325642903644,-12.70562917683919,11.161369106038414,-6.6890716552734375,-7.956504821777344,1.496124267578125,3.774875547827744,3.446439417397104,-0.4103125595464938,3.892626081194196,-32.38496326264881,0.4268827892485118,24.16938785558577,-15.571143216902144,4.196240651709401,67.76799721659921,-8.64303458742711,-4.154558404558421,34.08293647227963,36.62284721598228,36.59888579387187,1577395968.0,-27.68745233183483,-51.13012167923201,9.046014
53816,1577395968.58,2.839762589111328,-0.4485536810302734,6.624337008361816,0.2408216499142525,4.7891040622618135,11.114818429044396,-2.9649907368977857,3.955620176188151,6.788359773763021,3.5037994384765625,6.325721740722656,1.435089111328125,3.286594297827744,-0.3682578482278963,3.221279237328506,3.5416739327566966,-31.02693103608631,6.698245093936012,24.49057573406532,-18.609415064102564,3.101569177350434,70.86147449955017,-8.561496525281571,-8.724572649572671,34.03501362805883,36.86246143708629,36.28738730643664,1577395968.0,-27.68745233183483,-51.13012167923201,9.046014
53817,1577395968.59,-1.5464148522949217,0.4540603448486328,9.037692281799316,-3.118243279284965,-0.9354321071717788,5.809267550138148,2.637441147867838,9.079211728922523,10.408392683919274,11.377334594726562,3.212928771972656,0.977325439453125,1.974338438452744,10.618070276772103,-1.9972266220464936,8.119310651506696,-24.61823962983631,-2.151852562313988,24.49057573406532,-18.609415064102564,3.101569177350434,67.76799721659921,-7.419963655244028,-54.42471509971512,33.891245095396414,36.38323299487824,36.52700152754066,1577395968.0,-27.68745233183483,-51.13012167923201,9.046014
53818,1577395968.6,-1.7187973718261718,-3.4903868902587885,6.66623553741455,-1.1849254387087935,-0.0878847194764667,2.489706948331508,0.2552104960123697,-2.3710577107747395,8.776744252522787,4.007339477539063,1.763343811035156,1.297760009765625,-2.969509217797256,-2.9317344107278966,-2.622836973608994,4.396166120256696,-17.53816150483631,-1.114254906063988,24.811763612544866,-18.229631083202516,3.284014423076928,68.54136653733696,-7.419963655244028,-57.74836182336184,34.17878216072124,36.790577170755085,36.52700152754066,1577395968.0,-27.68745233183483,-51.13012167923201,9.046014
53819,1577395968.61,-3.1241937463378906,2.9607894830322268,14.549144503479004,-6.558711064929497,-0.0950673244569352,13.10440000863424,-2.593889479573567,-15.540363942464191,13.324530305989589,6.7081451416015625,0.5884170532226562,0.641632080078125,0.784152891577744,2.530912073647104,-3.034824278296494,-3.4468514578683034,-0.6314232235863095,13.045901343936013,22.402854523948275,-16.900387150052328,2.9191239316239352,69.31473585807468,-6.767659158079718,-58.57927350427351,33.939167939617214,36.67077006020308,36.52700152754066,1577395968.0,-27.68745233183483,-51.13012167923201,9.046014
53820,1577395968.62,-2.7291504724121096,-0.2043451116943359,10.335349581604005,-3.3241446220584026,0.644740988531345,13.999831429532678,-0.3936181538899733,19.37188466593425,15.848018855794274,1.6422271728515625,-6.217002868652344,1.190948486328125,0.234836485327744,-5.251070348227897,0.7188378310785062,2.3514883858816966,8.79850841703869,2.669924781436012,24.008793916346,-16.140819188252223,4.013795405982902,69.12139352789026,-3.0984463615304736,-91.40028490028492,33.939167939617214,36.38323299487824,36.479078683319855,1577395968.0,-27.68745233183483,-51.13012167923201,9.046014
53821,1577395968.63,-1.0077194787597654,-0.3575740179443359,10.390416219787596,2.206461212902534,-3.9329725856874047,8.986373153165493,3.923127439371744,-6.97391040242513,8.47387774251302,4.1141510009765625,0.4663467407226562,1.740264892578125,6.857150938452744,4.636624964272103,2.275234315453506,3.6637442452566966,7.791428338913691,-6.668454124813988,24.008793916346,-16.140819188252223,4.013795405982902,55.394088084795335,-8.398420400990494,-7.062749287749304,33.93916793961722,36.67077006020308,36.479078683319855,1577395968.0,-27.68745233183483,-51.13012167923201,9.046014
53822,1577395968.64,-2.09708123413086,-0.7574056951904297,8.005791366271971,-1.196896447009575,1.0685146823790015,9.965601632169395,-4.464958076985677,4.705005295817057,4.56654063313802,-8.642196655273438,-4.630088806152344,1.953887939453125,-0.1771508193597561,-0.1088584341653948,0.7340966201410062,2.610887799944196,-6.65864490327381,-3.677731468563988,23.84819997710623,-15.191359236002096,3.831350160256412,69.21806469298247,-6.319199816279255,8.516844729344715,34.03501362805883,36.790577170755085,36.43115583909905,1577395968.0,-27.68745233183483,-51.13012167923201,9.046014
53823,1577395968.65,2.1837513342285155,-3.003166852416992,7.055293307189941,-1.916354045886528,-3.4349786403749047,18.318971224454558,-7.047104567464192,-17.549099135335286,6.08685868733724,-2.233505249023437,-1.1510848999023438,1.007843017578125,-5.258327577172256,1.5238319955221036,2.305751893578506,-1.6157967703683034,-41.49446033296131,0.7167997814360119,24.329981794825542,-16.520603169152277,3.2840144230769246,69.70142051844356,-6.278430785206486,8.72457264957264,34.08293647227963,36.81453859286549,36.479078683319855,1577395968.0,-27.68745233183483,-51.13012167923201,9.046014
53824,1577395968.66,-0.4355052819824208,3.044586541137696,5.65707953765869,-3.065570842761528,4.310263730230564,5.359157638028773,0.0397323465983069,-8.470286440022786,5.924052974446615,1.8558502197265625,3.457069396972656,1.679229736328125,1.211398985327744,-6.319185582602897,2.946621034203506,-1.0664803641183034,-52.69441150483631,13.076418922061013,21.921072706228955,-17.849847102302462,3.831350160256412,67.96133954678365,-6.033816598769869,7.478205128205117,34.17878216072124,36.57492437176146,36.57492437176146,1577395968.0,-27.68745233183483,-51.13012167923201,9.046014
53825,1577395968.67,-0.6545747338867183,-1.1775880865478516,6.065290920715332,5.553555133800971,1.4276449314024386,4.906653524259242,2.3740789652506504,-1.211067006429036,5.275224324544271,-1.9893646240234373,-1.196861267089844,0.916290283203125,-9.439235780297256,9.702542933022103,2.336269471703506,-2.5313241141183034,-43.20344470796131,10.543459937686013,21.921072706228955,-17.849847102302462,3.831350160256412,69.12139352789026,-6.033816598769869,6.647293447293441,34.058975050169224,36.71869290442388,36.479078683319855,1577395968.0,-27.68745233183483,-51.13012167923201,9.046014
53826,1577395968.68,-2.0324377893066403,-2.7230452581787103,10.79024789703369,-0.075212969226372,-3.0147962490174827,7.8000462305580704,-0.2882732808430983,-6.502252675374348,16.8643574605306,-3.271102905273437,-0.4186630249023437,1.587677001953125,-0.6654320693597562,-5.540987340415397,1.1460839248285062,-1.3563973563058034,-28.82966541108631,0.2437773204985118,24.97235755178464,-16.900387150052328,3.2840144230769246,74.7283211032389,-6.68612109593418,7.478205128205117,34.17878216072124,36.67077006020308,36.50304010543026,1577395968.0,-27.68745233183483,-51.13012167923201,9.046014
53827,1577395968.69,-0.9981426721191404,2.412517302856445,6.791931124572753,-7.664832231921684,0.25209191626572,19.116240377286587,-3.125402248128254,6.550934775797526,18.0626553914388,-6.6280364990234375,-1.7919540405273438,0.519561767578125,1.302951719702744,-3.786226598227896,3.923183534203506,-8.268628801618304,22.59245372953869,17.226809547061013,24.008793916346,-17.280171130952382,2.5542334401709463,69.70142051844356,-8.07226815240834,4.570014245014226,33.84332225117561,36.71869290442388,36.52700152754066,1577395968.0,-27.68745233183483,-51.13012167923201,9.046014
53828,1577395968.7,-1.8528726647949216,0.973602105102539,12.54519771392822,-1.7224237114138714,-5.2904849269959975,13.64070118050924,2.4913948465983067,8.353768625895182,11.737174605305992,1.5811920166015625,-2.219200134277344,2.136993408203125,6.185764219702744,-4.305025426352897,3.160244081078506,-4.270826067243304,44.29045177641369,-6.790524437313988,25.614733308743727,-16.520603169152277,2.5542334401709463,68.73470886752138,-2.9353702372393955,-4.154558404558413,34.08293647227963,36.57492437176146,36.57492437176146,1577395968.0,-27.68745233183483,-51.13012167923201,9.046014
53829,1577395968.71,1.6055516333007809,-2.3974338323974607,8.955092324523925,4.121822541027534,-1.9457852077577165,8.84750945687643,-5.476508278401693,-5.685829909261067,4.046998872884114,-9.374618530273438,1.687049865722656,1.251983642578125,-6.845241639672256,1.6153847298971036,2.855068299828506,-2.5618416922433034,41.57438732328869,-11.703854515438987,25.614733308743727,-16.520603169152277,2.5542334401709463,67.76799721659921,-3.5061366722581666,-75.19750712250713,34.130859316500434,36.57492437176146,36.57492437176146,1577395968.0,-27.68745233183483,-51.13012167923201,9.046014
53830,1577395968.72,2.679351077880859,-0.6688202337646485,2.0992958706665026,-2.473005931872856,0.2233614963438455,10.975954732755334,-4.148923457845052,-7.030174141438802,3.155158754475911,-7.513046264648437,0.2832412719726562,0.183868408203125,-5.670314881859756,6.055692347084603,1.1460839248285062,-7.810865129743304,20.34941173735119,0.6099882579985128,25.29354543026418,-15.00146724555207,4.3786858974359,67.76799721659921,-3.5061366722581666,-75.19750712250713,33.939167939617214,36.57492437176146,36.38323299487824,1577395968.0,-27.68745233183483,-51.13012167923201,9.046014
53831,1577395968.73,0.7975085729980469,-2.976830634155273,7.433577169494628,-2.069582952136528,-2.197176382074123,15.553668306974084,1.8258067850748692,8.77035971476237,5.758853059895833,-3.9119720458984375,4.494667053222656,3.144073486328125,1.089328672827744,-0.2156699576028963,5.876308534203506,-3.1416756766183034,-12.68586658296131,10.055178687686013,24.65116967330509,-15.00146724555207,2.9191239316239352,69.31473585807468,-5.9522785366243305,-61.90292022792025,33.747476562734,36.67077006020308,36.33531015065744,1577395968.0,-27.68745233183483,-51.13012167923201,9.046014
53832,1577395968.74,-1.0077194787597654,1.1316194146728515,11.611459066467283,-3.4462489067263715,-4.454908547601467,-1.8856965856040384,4.5599850809733065,1.2932679300944003,6.98707851155599,-2.264022827148437,6.875038146972656,1.129913330078125,3.744357969702744,5.185941370522103,5.876308534203506,-5.186353410993304,-16.31745837983631,0.0759306408110119,23.527012098626685,-17.090279140502357,3.466459668803423,70.08810517881243,-5.789202412333252,-59.410185185185206,34.03501362805883,36.71869290442388,36.52700152754066,1577395968.0,-27.68745233183483,-51.13012167923201,9.046014
53833,1577395968.75,-1.1286266625976562,-2.0586542974853512,10.634624789123531,2.9941535590939408,-0.3392758937928732,9.484367098477993,1.0393115397135415,-8.35895606282552,12.123838173421229,-3.8661956787109375,3.991127014160156,1.313018798828125,-7.760768983422256,10.572293909584603,4.091030213891006,-5.995069231305804,-5.33113025483631,2.990359351748512,24.329981794825542,-15.00146724555207,2.18934294871795,67.96133954678365,-8.316882338844954,-1.661823361823385,33.98709078383802,36.694731482313486,36.35927157276784,1577395968.0,-27.68745233183483,-51.13012167923201,9.046014
53834,1577395968.76,-3.768233992919922,-3.170760968627929,6.67222104156494,-3.982550078601371,-4.768548965081936,10.56415204720846,-5.900281972249348,1.9564617899576813,9.158619417317707,-7.696151733398437,2.724647521972656,0.977325439453125,-4.922634217797256,-1.4668906607278964,-1.2953223251714938,-4.087720598493304,10.20231701078869,0.0148954845610119,22.72404240242782,-16.900387150052328,2.18934294871795,69.31473585807468,-5.9522785366243305,1.2463675213675056,34.08293647227963,36.57492437176146,36.52700152754066,1577395968.0,-27.68745233183483,-51.13012167923201,9.046014
53835,1577395968.77,-2.267069552001953,0.7796717706298827,9.032903878479004,0.8944387031369087,3.951133481207126,11.78280069222799,4.533648862711588,5.643532346598307,9.137071602376302,-7.482528686523437,2.419471740722656,-0.121307373046875,-13.040309999047256,-7.417818395102897,0.5662499404535062,-3.0196053641183034,-7.009597051711309,-2.243405296688988,24.811763612544866,-15.950927197802198,3.466459668803423,69.31473585807468,-4.810745666586787,1.2463675213675056,34.08293647227963,36.67077006020308,36.479078683319855,1577395968.0,-27.68745233183483,-51.13012167923201,9.046014
53836,1577395968.78,-0.6198588098144531,3.772423845825196,10.775882687072754,-2.435895806140434,3.1706237399961887,5.2490243616615855,-2.431083766682942,-2.35788960164388,10.573592598470055,0.7572174072265625,11.361122131347656,-0.884246826171875,1.119846250952744,-10.561128941977897,7.768398377953506,-5.369458879743304,-13.47932361421131,-2.945309593563988,25.454139369503952,-16.710495159602303,3.466459668803423,68.15468187696808,-8.561496525281571,2.0772792022791817,34.08293647227963,36.52700152754066,36.81453859286549,1577395968.0,-27.68745233183483,-51.13012167923201,9.046014
53837,1577395968.79,-1.0268730920410154,-3.250966724243164,9.843341140441892,-0.4654678398318408,-2.7250978481385766,13.190591268399867,0.1750047403971356,2.2365833841959635,14.535996346028648,-10.213851928710938,-5.820274353027344,1.374053955078125,-3.152614686547256,4.331449183022103,0.7188378310785062,-7.658277239118304,17.20610119047619,10.573977515811013,24.008793916346,-16.140819188252223,2.9191239316239352,68.15468187696808,-8.561496525281571,2.0772792022791817,34.130859316500434,36.64680863809267,36.52700152754066,1577395968.0,-27.68745233183483,-51.13012167923201,9.046014
53838,1577395968.8,0.0529118566894531,-5.655942291870117,10.900381173400875,-2.546029082507621,-1.0671131984803728,5.569847384122522,-3.2882079610188795,-1.756944984944661,16.602192378743492,-9.710311889648438,2.541542053222656,1.404571533203125,-5.471950624047256,-15.627046910727897,2.244716737328506,-4.942212785993304,40.04850841703869,-3.891354515438988,24.49057573406532,-16.330711178702252,3.831350160256412,70.08810517881243,-7.909192028117261,-55.255626780626805,34.03501362805883,36.57492437176146,36.52700152754066,1577395968.0,-27.68745233183483,-51.13012167923201,9.046014
53839,1577395968.81,-0.5600037683105459,0.8993818536376952,7.107965743713378,-4.588283098620902,2.9551455905821262,6.527528048185022,1.7707401468912756,-1.5151306172688797,5.648719783528646,1.8253326416015625,2.572059631347656,1.129913330078125,-7.058864686547256,10.038236292397103,1.2986718154535062,-5.003247942243304,39.62126232328869,-4.562741234188988,24.65116967330509,-16.520603169152277,2.9191239316239352,67.96133954678365,-8.316882338844954,-59.82564102564103,34.03501362805883,36.67077006020308,36.57492437176146,1577395968.0,-27.68745233183483,-51.13012167923201,9.046014
53840,1577395968.82,-2.349669509277344,0.5761646295166015,12.096284902648923,4.327723883800971,-0.0136644680116227,17.26073409066549,-2.546005446370442,15.814100998942058,-2.438893424479166,0.4673004150390625,-0.7848739624023439,0.428009033203125,-3.274684999047256,4.117826136147103,-0.4408301376714938,-2.0125252859933034,15.02409435453869,-4.715329124813988,25.052654521404524,-17.18522513572737,3.740127537393163,68.92805119770581,-5.789202412333252,-61.07200854700856,34.058975050169224,36.67077006020308,36.52700152754066,1577395968.0,-27.68745233183483,-51.13012167923201,9.046014
53841,1577395968.83,-1.7642872033691406,-2.746987274780273,16.292123312072754,-4.190845623034965,0.9452132968809548,4.275781386808069,-2.959005232747395,-7.932788167317707,14.318123994954426,-3.118515014648437,0.6799697875976562,0.977325439453125,5.148166563452744,-5.388399449790394,3.679042909203506,-3.675733293805804,-8.59651111421131,3.1887236095610123,25.132951491024407,-17.849847102302462,3.831350160256412,68.34802420715252,-5.789202412333252,-61.07200854700856,33.747476562734,36.59888579387187,36.45511726120945,1577395968.0,-27.68745233183483,-51.13012167923201,9.046014
53842,1577395968.84,-2.6980258508300783,-2.246599127807617,14.42943442047119,6.233508405285346,-7.17232743187881,16.04208544564596,-0.850910670979817,17.97845929972331,18.66360000813802,-11.083602905273438,-9.360313415527344,1.129913330078125,-3.061061952172256,11.686185511147103,0.7493554092035062,-5.918775285993304,1.1385963076636905,13.839358375186013,24.49057573406532,-15.571143216902144,3.466459668803423,67.76799721659921,-5.789202412333252,-91.81574074074076,33.747476562734,36.67077006020308,36.57492437176146,1577395968.0,-27.68745233183483,-51.13012167923201,9.046014
53843,1577395968.85,0.7017405065917969,-5.162736749877929,9.28429505279541,0.8034590400509711,-3.0495121730897483,11.03580977425924,1.938334263102213,1.5733895243326816,2.0023506551106767,-6.6280364990234375,-0.1440048217773437,1.709747314453125,-5.380397889672256,-12.697359410727897,2.366787049828506,-3.4468514578683034,11.27043224516369,-4.745846702938988,24.329981794825542,-17.280171130952382,3.6489049145299135,70.08810517881243,-3.179984423676012,4.570014245014226,33.84332225117561,36.57492437176146,36.57492437176146,1577395968.0,-27.68745233183483,-51.13012167923201,9.046014
53844,1577395968.86,-0.096725747070312,0.5366603021240235,8.002200063781737,-6.692786357898247,2.114780807867282,7.331979805997522,-2.493333009847005,-4.993905629475911,1.84672754720052,0.0095367431640627,0.8325576782226562,1.847076416015625,2.798313047827744,-3.420015660727896,3.801113221703506,-2.2261483328683034,12.00285412016369,1.937502906436012,23.04523028090736,-15.9509271978022,3.466459668803419,67.96133954678365,-6.033816598769869,6.647293447293441,34.01105220594842,36.71869290442388,36.479078683319855,1577395968.0,-27.68745233183483,-51.13012167923201,9.046014
53845,1577395968.87,-0.2391807458496083,-3.869867853393554,10.129448238830566,0.7352242927365185,1.3414536716368144,9.353883107999474,-1.4865712117513017,-3.2365616109212243,4.109248116048176,-1.0433197021484375,2.053260803222656,1.343536376953125,-3.259426209984756,10.007718714272103,2.946621034203506,-2.1651131766183034,-18.39265369233631,-3.998166038876488,22.88463634166759,-15.191359236002096,4.196240651709401,68.34802420715252,-5.626126288042175,-0.8309116809116928,34.17878216072124,36.81453859286549,36.550962949651066,1577395968.0,-27.68745233183483,-51.13012167923201,9.046014
53846,1577395968.88,-1.2016498132324218,1.5793351251220702,1.8072032681274404,2.05562650831269,-0.092673122796779,4.87552890267721,2.302252915445963,-3.076150099690755,5.069322981770833,-6.2923431396484375,0.8325576782226562,-0.090789794921875,-6.814724061547256,-10.866304723227897,2.488857362328506,-2.1651131766183034,-38.19856189546131,4.409426734561012,23.045230280907365,-16.520603169152277,4.013795405982902,68.92805119770581,-8.235344276699415,-8.724572649572671,34.17878216072124,36.67077006020308,36.57492437176146,1577395968.0,-27.68745233183483,-51.13012167923201,9.046014
53847,1577395968.89,-1.386003341064453,-0.8412027532958984,3.7465066128540023,-4.176480413074027,-5.182745852288966,8.588935677579554,1.5576561991373694,-10.026517519124347,7.118759602864583,-6.0176849365234375,8.492469787597656,-1.738739013671875,2.248996641577744,2.927640589272104,-0.9596289657964938,-6.376538957868304,-37.98493884858631,8.407229468936013,24.811763612544866,-15.191359236002096,3.831350160256412,61.38770032051284,-7.990730090262799,-8.309116809116826,34.03501362805883,36.81453859286549,37.05415281396951,1577395968.0,-27.68745233183483,-51.13012167923201,9.046014
53848,1577395968.9,-0.0811634362792963,-0.7071274603271483,6.677009444885253,-3.082330254382621,-1.3544173976991227,9.826737935880336,-2.507698219807942,-6.720125026448567,14.095463240559898,-9.176254272460938,1.0309219360351562,0.290679931640625,-12.796169374047256,0.1505409798971036,0.4136620498285062,-6.925855364118304,-26.20515369233631,8.315676734561013,24.16938785558577,-16.140819188252223,3.831350160256408,61.38770032051284,-7.990730090262799,-8.309116809116826,33.93916793961722,36.52700152754066,36.479078683319855,1577395968.0,-27.68745233183483,-51.13012167923201,9.046014
53849,1577395968.91,0.7256825231933594,0.3247734552001953,10.483790084533693,0.4072186652951122,0.9308480869200174,15.800271077970176,-0.8090121419270827,3.7892231608072913,20.01752104695637,-5.4378509521484375,0.9851455688476562,0.122833251953125,-3.976589295922256,3.126004847084604,3.404384706078506,-4.484449114118304,19.46440197172619,1.083010718936012,24.65116967330509,-15.761035207352172,3.6489049145299135,67.1879702260459,-5.9522785366243305,-4.985470085470106,34.08293647227963,36.64680863809267,36.45511726120945,1577395968.0,-27.68745233183483,-51.13012167923201,9.046014
53850,1577395968.92,1.108754788818359,-3.496372394409179,10.75194067047119,4.287022455578315,0.6423467868711887,3.778984542325648,-0.8748526875813796,4.752889329020182,21.23497259114583,0.0858306884765625,2.816200256347656,1.007843017578125,-11.331325624047256,-2.748628941977896,2.641445252953506,-4.484449114118304,58.17594982328869,-0.3818330310639881,24.16938785558577,-16.330711178702252,2.371788194444441,67.76799721659921,-3.0169082993849345,-71.87386039886043,34.27462784916285,36.81453859286549,36.67077006020308,1577395968.0,-27.68745233183483,-51.13012167923201,9.046014
53851,1577395968.93,-0.7682993127441405,-2.153225263061523,10.814189913635254,-3.2547127739138717,1.7795925754454074,13.918428573087365,-2.7566951924641923,4.774437143961588,3.469996272786458,-6.5364837646484375,5.379676818847656,0.366973876953125,1.791232969702744,4.056790979897103,-0.5934180282964938,-2.5923592703683034,52.37760997953869,-3.158932640438988,23.366418159386907,-15.00146724555207,1.824452457264953,68.15468187696808,-6.930735282370796,-67.71930199430203,33.939167939617214,36.57492437176146,36.57492437176146,1577395968.0,-27.68745233183483,-51.13012167923201,9.046014
53852,1577395968.94,-1.529655440673828,-3.539468024291992,6.8194644436645495,-2.839318785876762,-4.247810103997951,5.802084945157679,-4.76303618367513,-0.0438936971028649,7.723295522054037,-6.0939788818359375,2.404212951660156,0.168609619140625,1.4250220322027438,1.7069374642721038,0.3221093154535062,0.0474112374441966,33.60929943266369,-7.324582054501487,23.52701209862668,-15.950927197802198,3.10156917735043,74.34163644287001,-6.441506909497564,-71.04294871794875,33.98709078383802,36.59888579387187,36.57492437176146,1577395968.0,-27.68745233183483,-51.13012167923201,9.046014
53853,1577395968.95,-2.635776607666016,0.3654748834228515,6.447166085510253,1.8114179389767524,-1.8045273098084975,13.60239395394674,-1.4446726826985672,9.285113071695962,0.9393251180013016,-4.0645599365234375,-1.4257431030273438,0.855255126953125,0.509494688452744,-3.877779332602896,1.8174706435785064,-2.1956307547433034,-3.2254173642113093,11.001223609561013,23.68760603786645,-16.140819188252223,3.2840144230769246,68.15468187696808,-6.115354660915408,-58.57927350427351,34.03501362805883,36.67077006020308,36.52700152754066,1577395968.0,-27.68745233183483,-51.13012167923201,9.046014
53854,1577395968.96,-0.3134009973144521,4.7109508966064455,9.811019418029783,-1.5404643852419966,1.0038712375547825,1.9115072474037729,-3.802961317952473,-9.332199037679036,2.3447214925130204,0.3604888916015625,2.358436584472656,-1.464080810546875,2.920383360327744,-12.941500035727897,2.397304627953506,-3.965650285993304,-8.90168689546131,0.5031767345610119,24.008793916346,-15.761035207352172,3.2840144230769246,69.31473585807468,-6.115354660915408,-58.57927350427351,34.08293647227963,36.52700152754066,36.28738730643664,1577395968.0,-27.68745233183483,-51.13012167923201,9.046014
53855,1577395968.97,-1.004128176269531,-4.756919568481445,4.6036308071899406,-7.70553366014434,-3.037541164788967,8.854692061856898,-2.768666200764973,-5.149528737386068,13.791399629720054,-2.248764038085937,0.924110412597656,1.557159423828125,3.164523985327744,1.0355507455221036,-0.1966895126714938,-4.057203020368304,-11.00739978608631,11.947268531436013,24.73146664292497,-16.615549164377292,3.3752370459401737,67.76799721659921,-5.9522785366243305,7.893660968660963,33.939167939617214,36.81453859286549,36.57492437176146,1577395968.0,-27.68745233183483,-51.13012167923201,9.046014
53856,1577395968.98,-2.2910115686035155,-4.920922382202148,15.607381637268064,1.156603784924018,-5.929736770257716,12.571690139249474,-0.3146094991048176,0.8192160013834642,9.200517946370445,-4.9190521240234375,-0.1440048217773437,1.618194580078125,-3.213649842797256,1.6611610970846034,2.565151307641006,0.8866446358816966,-23.13813709077381,-11.337643577938987,22.88463634166759,-15.950927197802198,2.736678685897437,68.25135304206029,-4.525362449077402,-29.28963675213677,34.08293647227963,36.59888579387187,36.550962949651066,1577395968.0,-27.68745233183483,-51.13012167923201,9.046014
53857,1577395968.99,-0.7874529260253905,3.288795110473633,9.760741183166504,0.283917279797065,5.184147336187595,6.9752437586342415,-5.830850124104818,-0.6173049947102861,15.991670955403649,2.0084381103515625,3.212928771972656,1.313018798828125,-9.134059999047256,-0.9175742544778964,1.2986718154535062,-0.9749276297433034,-6.185622442336309,10.268801734561013,22.88463634166759,-15.950927197802198,2.736678685897437,68.54136653733694,-8.07226815240834,-7.062749287749304,33.939167939617214,36.67077006020308,36.38323299487824,1577395968.0,-27.68745233183483,-51.13012167923201,9.046014
53858,1577395969.0,-0.7587225061035155,1.8881871392822265,13.68244350250244,-1.171757329577934,0.000700741949314,22.250250350431116,4.583927097574869,8.827820554606118,19.717048738606767,10.400772094726562,5.410194396972656,0.946807861328125,1.760715391577744,15.104154261147103,1.9090233779535064,-2.5313241141183034,6.967453729538691,10.421389625186013,24.008793916346,-15.00146724555207,2.18934294871795,70.08810517881243,-8.724572649572648,-8.724572649572671,34.08293647227963,36.67077006020308,36.71869290442388,1577395969.0,-27.687377289897185,-51.13015083317739,8.870952
53859,1577395969.01,-1.4015656518554689,-4.145201044311523,11.229583901672362,-0.2284418754763715,-9.746094216546778,5.735047298673304,-1.3632698262532543,5.265248484293619,10.903992427571618,-6.2313079833984375,-1.624107360839844,1.999664306640625,14.669650938452744,-5.006929723227897,1.9700585342035064,-1.1580330984933034,2.6339576357886907,3.890627906436012,23.767903007486343,-16.805441154827314,3.3752370459401737,70.08810517881243,-8.724572649572648,-8.724572649572671,34.17878216072124,36.81453859286549,36.479078683319855,1577395969.0,-27.687377289897185,-51.13015083317739,8.870952
53860,1577395969.02,-0.2104503259277333,-0.9800664495849608,7.64905531890869,-0.8353719963259808,-0.8660002590272486,5.112554867032679,-1.01491348470052,-1.7425797749837233,6.647101875813802,-2.660751342773437,-0.0829696655273437,1.160430908203125,-2.465969178734756,5.201200159584603,4.304653260766006,2.6566641671316966,-0.4940941220238093,-4.379635765438988,23.68760603786645,-17.659955111852437,2.9191239316239352,68.92805119770583,-8.072268152408338,-31.99009971509974,34.17878216072124,36.69473148231347,36.479078683319855,1577395969.0,-27.687377289897185,-51.13015083317739,8.870952
53861,1577395969.03,2.042493436279297,-0.3408146063232422,5.539763656311035,-0.989798003406059,0.0533731784727512,3.5180165613686167,-2.5914952779134106,-4.261279921468098,8.368532869466145,5.7621002197265625,-1.7309188842773438,2.777862548828125,2.065891172827744,-3.816744176352896,0.4441796279535062,0.3983633858816966,15.17668224516369,5.385989234561012,24.16938785558577,-16.710495159602303,3.831350160256412,68.15468187696808,-7.093811406661874,-61.90292022792025,33.939167939617214,36.57492437176146,36.57492437176146,1577395969.0,-27.687377289897185,-51.13015083317739,8.870952
53862,1577395969.04,-2.391568038330078,-2.0766108099365232,8.704898251037596,-1.5237049736209027,2.7348790378477514,11.519438509610804,-1.7080348653157549,-0.9644642354329424,16.676412630208336,6.4640045166015625,0.2222061157226562,2.716827392578125,-5.258327577172256,-3.084322301352896,0.5662499404535062,-1.829419817243304,20.48674083891369,10.940188453311013,24.16938785558577,-16.710495159602303,3.831350160256412,67.76799721659921,-5.29997403946002,-91.81574074074076,34.03501362805883,36.81453859286549,36.52700152754066,1577395969.0,-27.687377289897185,-51.13015083317739,8.870952
53863,1577395969.05,-1.635000313720703,1.0430339532470705,9.140642953186036,-2.656162358874809,-3.36794099389053,12.922440682462366,-1.1813105000813795,-8.566054506429037,11.787452840169276,1.0013580322265625,0.2222061157226562,1.557159423828125,-0.863796327172256,-4.060884801352897,3.068691346703506,-4.911695207868304,34.49430919828869,2.853030250186012,24.16938785558577,-17.470063121402408,2.736678685897437,55.78077274516421,-7.583039779535106,-74.36659544159546,33.939167939617214,36.81453859286549,36.52700152754066,1577395969.0,-27.687377289897185,-51.13015083317739,8.870952
53864,1577395969.06,-0.5216965417480468,-3.369479706420898,7.015788979797362,0.2839172797970654,0.9284538852598612,7.106924849942834,0.3198539408365884,8.893661100260417,4.559358028157552,-4.0340423583984375,-0.1440048217773437,2.167510986328125,-4.586940858422256,1.4017616830221038,1.4512597060785062,3.358568464006696,11.54509044828869,-7.248288109188987,23.68760603786645,-16.140819188252223,3.10156917735043,62.64442546671167,-5.259205008387251,-32.61328347578349,34.22670500494205,36.81453859286549,36.67077006020308,1577395969.0,-27.687377289897185,-51.13015083317739,8.870952
53865,1577395969.07,-0.0883460412597646,2.438853521118164,10.902775375061037,3.9350748115353458,-3.312874355706936,14.447547139981896,1.390062082926432,-12.799003041585284,9.773929243977864,2.7713775634765625,-0.9374618530273438,0.580596923828125,3.561252500952744,9.794095667397103,2.275234315453506,2.8702872140066966,-18.02644275483631,-9.048825218563987,23.68760603786645,-16.520603169152277,1.4595619658119638,69.31473585807468,-6.115354660915408,9.555484330484315,34.08293647227963,36.67077006020308,36.479078683319855,1577395969.0,-27.687377289897185,-51.13015083317739,8.870952
53866,1577395969.08,0.3210624426269531,-1.899439887084961,12.23395149810791,2.8744434760861277,-1.0479595851991228,4.504427645352991,-9.292865724690754,-23.30954832967122,16.542337337239587,2.0999908447265625,1.4123916625976562,2.136993408203125,5.239719297827744,-7.509371129477897,3.312831971703506,-3.965650285993304,-9.11530994233631,23.299807593936013,24.16938785558577,-15.191359236002096,3.831350160256412,68.54136653733694,-6.115354660915408,-7.8936609686609795,34.08293647227963,36.71869290442388,36.52700152754066,1577395969.0,-27.687377289897185,-51.13015083317739,8.870952
53867,1577395969.09,-2.9518112268066408,0.1092953057861328,7.366539523010253,-8.016779875964653,5.198512546148533,11.497890694669396,-1.4111538594563795,16.819665696207682,10.202491341145835,-2.599716186523437,1.3513565063476562,2.198028564453125,-8.523708436547256,1.1271034798971036,-0.7460059189214938,-3.843579973493304,10.90422130766369,11.672610328311013,24.16938785558577,-15.191359236002096,3.831350160256412,67.76799721659921,-5.9522785366243305,-8.724572649572671,34.08293647227963,36.81453859286549,36.57492437176146,1577395969.0,-27.687377289897185,-51.13015083317739,8.870952
53868,1577395969.1,2.275928098144531,-4.487571881713866,10.268311935119629,5.25427992628144,-4.700314217767482,10.099676925138146,2.5763890055338536,-3.2473355183919272,13.358049129231771,-0.9822845458984376,1.6565322875976562,0.717926025390625,1.4860571884527438,7.139066370522104,2.504116151391006,-0.8375985281808034,27.97880626860119,0.2590361095610118,22.643745432807933,-16.425657173927263,2.2805655715811954,69.31473585807468,-6.604583033788641,-8.309116809116826,33.98709078383802,36.64680863809267,36.52700152754066,1577395969.0,-27.687377289897185,-51.13015083317739,8.870952
53869,1577395969.11,-2.410721651611328,1.900158147583008,9.332179085998536,-7.1716266899294965,6.132251193609471,5.466896712735804,0.3437959574381506,17.434975522867838,9.041303535970052,-1.7147064208984375,5.532264709472656,0.794219970703125,2.645725157202744,-7.967134801352897,0.1390038467035061,2.4430411202566966,29.36735607328869,-7.889157249813988,24.16938785558577,-17.470063121402408,2.371788194444441,68.54136653733694,-8.561496525281571,-7.062749287749304,33.939167939617214,36.57492437176146,36.33531015065744,1577395969.0,-27.687377289897185,-51.13015083317739,8.870952
53870,1577395969.12,-2.085110225830078,-0.7454346868896484,13.445417538146971,1.969435248547065,-2.8124862087342795,13.331849166349084,-4.248282826741535,-22.75888194783528,7.348602962239584,-2.172470092773437,0.3747940063476562,-1.311492919921875,-1.840358827172256,14.249662073647103,-1.6615332626714938,-2.2261483328683034,23.93522716703869,-11.459713890438987,24.65116967330509,-17.659955111852437,3.2840144230769246,82.46201431061631,-7.419963655244028,-7.062749287749304,34.17878216072124,36.71869290442388,36.57492437176146,1577395969.0,-27.687377289897185,-51.13015083317739,8.870952
53871,1577395969.13,-0.6150704064941406,-3.455670966186523,7.752005990295409,-2.7686898369021526,0.1443528415586887,11.14354884896627,-4.408694337972005,-4.345076979573567,6.570487422688802,-0.5550384521484375,1.900672912597656,0.580596923828125,-7.425075624047256,-4.182955113852897,-0.8375586532964938,0.5814688546316966,20.33415294828869,3.677004859561012,24.65116967330509,-17.659955111852437,3.2840144230769246,80.14190634840307,-3.5061366722581666,-7.8936609686609795,34.27462784916285,36.81453859286549,36.479078683319855,1577395969.0,-27.687377289897185,-51.13015083317739,8.870952
53872,1577395969.14,-2.7925968164062502,0.8610746270751952,14.795747274475096,-0.8712850212283245,-2.2797763393495134,10.7425200708901,-1.6924725545247394,3.8610492106119785,6.985881410725911,2.5272369384765625,1.2445449829101562,0.077056884765625,5.514377500952744,-3.7099326529153966,1.8327294326410064,0.9781973702566966,-7.20796130952381,3.738040015811012,23.36641815938691,-16.330711178702252,2.554233440170939,74.92166343342332,-3.2615224858215504,-43.62286324786325,33.91520651750682,36.64680863809267,36.59888579387187,1577395969.0,-27.687377289897185,-51.13015083317739,8.870952
53873,1577395969.15,-0.0620098229980458,-6.924869171752929,6.303513985900878,-1.7008758964724653,-3.2195004909608422,6.872293087247523,2.2687340922037755,7.719305185953775,10.41078688557943,-0.2193450927734375,-0.6322860717773438,2.136993408203125,-2.938991639672256,5.124906214272103,0.4441796279535062,5.922045026506696,-39.23615955171131,-0.7785615466889881,23.366418159386907,-15.761035207352172,2.5542334401709463,68.15468187696808,-7.093811406661874,-63.5647435897436,33.939167939617214,36.57492437176146,36.57492437176146,1577395969.0,-27.687377289897185,-51.13015083317739,8.870952
53874,1577395969.16,-1.7259799768066404,-1.1596315740966796,11.302607052307128,2.307017682629096,-0.1022499294374039,17.627046944669395,-0.7958440327962233,-17.29052535603841,10.245586971028647,-1.7452239990234375,-1.7614364624023438,1.709747314453125,6.857150938452744,0.1200234017721036,-0.5323828720464938,1.7106192452566966,-29.53156970796131,-1.022702171688988,23.205824220147136,-17.090279140502357,2.006897702991451,71.24815915991904,-4.158441169422477,-91.81574074074076,34.08293647227963,36.57492437176146,36.52700152754066,1577395969.0,-27.687377289897185,-51.13015083317739,8.870952
53875,1577395969.17,-2.245521737060547,-1.5606603521728513,9.42914425323486,-2.914736138171684,1.544960812750095,7.291278377774867,-5.277789540608723,-3.574144045003255,12.103487459309898,6.7691802978515625,-0.6170272827148438,1.526641845703125,7.711643125952744,-7.997652379477897,3.251796815453506,1.8021719796316968,-20.71198962983631,9.139651343936013,24.008793916346,-17.090279140502357,2.5542334401709423,70.86147449955017,-4.810745666586787,-61.90292022792025,34.17878216072124,36.67077006020308,36.57492437176146,1577395969.0,-27.687377289897185,-51.13015083317739,8.870952
53876,1577395969.18,-1.7068263635253904,-4.183508270874023,10.78306529205322,1.2691312629513625,-2.8831151577088883,10.911311287931117,-0.5348760518391926,0.0686337809244788,13.182075307210289,0.9708404541015624,-2.432823181152344,1.740264892578125,-3.701931092797256,3.492215784584604,-0.8222998642339938,4.090990339006696,6.296067010788691,-0.1682099841889881,24.811763612544866,-16.330711178702252,2.736678685897437,67.76799721659921,-6.115354660915408,-53.59380341880342,34.17878216072124,36.67077006020308,36.52700152754066,1577395969.0,-27.687377289897185,-51.13015083317739,8.870952
53877,1577395969.19,-0.2990357873535146,0.006344634399414,18.286493294982908,1.0141487861447211,-4.392659304437404,7.566611568692835,1.6366648539225257,-19.66557340291341,10.00856100667318,6.6165924072265625,-0.8153915405273438,2.106475830078125,8.230441954077744,-16.512056676352895,4.655605409203506,2.6871817452566966,14.84098888578869,7.247561500186012,25.132951491024407,-17.470063121402408,2.371788194444441,80.14190634840307,-4.810745666586787,-2.908190883190908,33.939167939617214,36.67077006020308,36.57492437176146,1577395969.0,-27.687377289897185,-51.13015083317739,8.870952
53878,1577395969.2,-0.6126762048339833,-2.852332147827148,6.004238778381347,-8.20352760545684,-2.419837136468654,4.458937813810023,8.316487485758463,18.63207635294596,9.474654036458332,2.8324127197265625,-2.036094665527344,2.014923095703125,3.500217344702744,5.460599573647103,-1.9361914657964936,8.851732526506696,-0.2041771298363094,1.052493140811012,24.65116967330509,-14.621683264652017,4.013795405982902,80.14190634840307,-4.973821790877865,-4.570014245014259,33.939167939617214,36.57492437176146,36.33531015065744,1577395969.0,-27.687377289897185,-51.13015083317739,8.870952
53879,1577395969.21,-1.4662090966796877,0.1559822381591797,11.649766293029783,6.010847650890815,-2.738265957269436,17.837736690763148,-5.040763576253255,3.620431943766276,5.409299617513021,3.1375885009765625,-5.621910095214844,2.426910400390625,3.408664610327744,0.3946816048971036,0.4136620498285062,10.347093854631696,-1.7605736142113095,-12.039547874813987,24.570872703685204,-15.66608921212716,3.192791800213672,80.14190634840307,-5.136897915168943,-4.570014245014259,34.130859316500434,36.57492437176146,36.33531015065744,1577395969.0,-27.687377289897185,-51.13015083317739,8.870952
53880,1577395969.22,-0.7180210778808592,0.4157531182861328,10.093535213928222,-1.9402960624880905,-0.178864382562404,5.490838729337367,-3.589877370198567,-19.074205592854817,7.008626326497396,10.126113891601562,-3.348350524902344,2.930450439453125,15.188449766577744,-20.14364847322789,7.035976502953506,4.731859479631696,-12.65534900483631,4.226321265811012,24.65116967330509,-15.761035207352172,2.9191239316239352,68.73470886752138,-4.729207604441249,6.647293447293441,33.939167939617214,36.67077006020308,36.57492437176146,1577395969.0,-27.687377289897185,-51.13015083317739,8.870952
53881,1577395969.23,-0.773087716064453,-1.7964892156982422,7.100783138732909,-3.316962017077934,2.9168383640196263,3.1038196741615853,-1.9809738545735671,-2.475205482991536,8.816248579915364,3.1986236572265625,-4.843711853027344,1.892852783203125,6.429904844702744,-6.380220738852897,0.3831444717035062,1.3749258858816966,-18.78938220796131,10.268801734561013,24.16938785558577,-15.950927197802198,3.466459668803423,69.50807818825913,-7.338425593098489,-8.309116809116826,34.08293647227963,36.33531015065744,36.28738730643664,1577395969.0,-27.687377289897185,-51.13015083317739,8.870952
53882,1577395969.24,-1.169328090820312,-1.95091522277832,11.310986758117677,1.7850817207150342,-3.865934939203029,15.807453682950646,0.8417899027506512,2.577757120768229,10.256360878499352,1.5048980712890625,-4.920005798339844,2.899932861328125,3.134006407202744,-1.7262900747903966,3.129726502953506,2.7176993233816966,-11.77033923921131,4.424685523623513,24.089090885965888,-16.235765183477238,2.827901308760686,67.76799721659921,-3.179984423676012,-54.84017094017096,34.15482073861084,36.62284721598226,36.52700152754066,1577395969.0,-27.687377289897185,-51.13015083317739,8.870952
53883,1577395969.25,-1.8624494714355464,-0.2522291448974609,11.463018563537595,-4.626590325183402,5.73002531470322,11.81392531381002,-1.8708405782063795,-4.309163954671224,7.796318672688802,4.4498443603515625,-2.890586853027344,3.022003173828125,5.087131407202744,-14.101168004477897,-0.2577246689214938,7.295336042131696,-22.60407947358631,-3.921872093563988,24.008793916346,-17.280171130952382,2.18934294871795,68.15468187696808,-8.07226815240834,-59.410185185185206,34.08293647227963,36.71869290442388,36.38323299487824,1577395969.0,-27.687377289897185,-51.13015083317739,8.870952
53884,1577395969.26,-0.5121197351074208,0.0135272393798828,9.394428329162595,0.6358649238400337,3.539330795660251,17.519307869962365,-3.8149323262532544,-0.6149107930501299,5.670267598470052,4.0225982666015625,-2.554893493652344,1.587677001953125,5.270236875952744,11.777738245522103,1.2376366592035062,7.814134870256696,-38.41218494233631,-11.246090843563987,24.97235755178464,-16.140819188252223,3.6489049145299135,68.15468187696808,-8.07226815240834,-67.71930199430203,34.08293647227963,36.81453859286549,36.33531015065744,1577395969.0,-27.687377289897185,-51.13015083317739,8.870952
53885,1577395969.27,0.8142679846191406,-2.263358539428711,5.408082565002441,2.222023523693549,-2.156474953851468,7.37866673837057,-0.8856265950520832,-12.86604068806966,16.834429939778648,2.1305084228515625,-3.134727478027344,2.350616455078125,-2.267604920922256,-2.1382773794778966,0.2915917373285062,0.6119864327566966,-11.89240955171131,12.969607398623513,24.49057573406532,-15.191359236002096,2.371788194444441,63.12778129217276,-6.68612109593418,-78.10569800569802,34.03501362805883,36.59888579387187,36.50304010543026,1577395969.0,-27.687377289897185,-51.13015083317739,8.870952
53886,1577395969.28,-0.1027112512207031,-3.46405067199707,10.344926388244629,4.440251361828315,-2.685593520745998,12.819490011075647,2.577586106363932,12.660937412516276,17.066667500813804,4.159927368164063,-1.212120056152344,2.365875244140625,-1.474147889672256,9.183744104897103,0.0779686904535061,4.548754010881696,30.13029552641369,6.057375953311012,23.928496946726117,-16.045873193027212,2.2805655715811954,70.86147449955017,-3.179984423676012,-7.062749287749304,34.15482073861084,36.479078683319855,36.33531015065744,1577395969.0,-27.687377289897185,-51.13015083317739,8.870952
53887,1577395969.29,0.2899378210449218,0.485184966430664,11.465412765197753,-1.8253743828005904,-2.826851418695217,14.82822520394674,0.7292624247233069,3.7952086649576815,7.760405647786458,3.8089752197265625,-0.8459091186523438,0.611114501953125,2.676242735327744,-17.854830113852895,-3.462070372046494,6.715502057756696,24.72868419828869,-10.239010765438987,24.16938785558577,-17.470063121402408,2.006897702991451,69.31473585807468,-2.8538321750938573,7.893660968660963,34.08293647227963,36.52700152754066,36.52700152754066,1577395969.0,-27.687377289897185,-51.13015083317739,8.870952
53888,1577395969.3,-0.8568847741699218,2.2329521783447266,16.323247933654784,-4.830097466296684,4.769950448980564,10.130801546720178,-5.919435585530598,-3.720190346272786,1.4277422566731766,9.027481079101562,1.7480850219726562,0.611114501953125,1.547092344702744,8.939603479897103,-0.8680762314214938,7.905687604631696,2.7865455264136907,-15.976315452938987,24.97235755178464,-16.140819188252223,5.108466880341885,67.76799721659921,-7.419963655244028,-8.724572649572671,34.22670500494204,36.81453859286549,36.67077006020308,1577395969.0,-27.687377289897185,-51.13015083317739,8.870952
53889,1577395969.31,1.1075576879882811,-0.1480813726806641,6.635110915832518,2.9642260383419865,0.1084398166563455,6.660406240323693,1.0177637247721354,-11.606690614827473,7.383318886311849,2.5119781494140625,-2.631187438964844,0.885772705078125,2.477878477515244,3.309110315834604,1.3597069717035062,0.9019034249441964,-14.54743884858631,9.338015601748513,24.329981794825542,-17.280171130952382,3.2840144230769246,68.54136653733696,-6.441506909497563,-8.309116809116826,33.98709078383802,36.76661574864468,36.479078683319855,1577395969.0,-27.687377289897185,-51.13015083317739,8.870952
53890,1577395969.32,-1.7954118249511717,-5.40455111755371,10.512520504455566,-5.490897124499809,-0.4422265651795914,8.363880721524867,-1.7128232686360672,8.710504673258463,12.35727283528646,0.5435943603515625,0.4968643188476562,0.946807861328125,3.561252500952744,-4.579683629477897,0.7188378310785062,0.6119864327566966,-4.720778692336309,11.214846656436013,24.65116967330509,-15.761035207352172,2.9191239316239352,67.96133954678365,-3.4245986101126284,-8.309116809116826,34.08293647227963,36.52700152754066,36.52700152754066,1577395969.0,-27.687377289897185,-51.13015083317739,8.870952
53891,1577395969.33,-2.2814347619628905,-2.785294501342773,8.508573714904784,-5.46456090623809,-4.984027114495998,12.007855648282678,0.1043757914225256,3.1463800150553385,14.31094138997396,1.3065338134765625,0.6494522094726562,1.251983642578125,2.737277891577744,1.3712441048971036,-4.682773497046494,5.342211042131696,-1.943679082961309,-3.403073265438988,25.29354543026418,-15.761035207352172,2.9191239316239352,67.76799721659921,-3.5061366722581666,-7.8936609686609795,34.03501362805883,37.0062299697487,36.57492437176146,1577395969.0,-27.687377289897185,-51.13015083317739,8.870952
53892,1577395969.34,-1.7140089685058593,0.7030573175048828,13.909892660217285,1.8186005439572213,-0.0495774929139665,10.358250704435022,-2.7327531758626296,0.8431580179850253,13.322136104329427,7.562637329101562,-0.7543563842773438,0.855255126953125,-4.037624452172256,0.6083046517721036,-2.638095762671494,3.3890860421316966,1.0470435732886905,-0.4123506091889881,23.68760603786645,-15.00146724555207,3.6489049145299135,69.31473585807468,-8.724572649572648,-7.8936609686609795,33.891245095396414,36.71869290442388,36.57492437176146,1577395969.0,-27.687377289897185,-51.13015083317739,8.870952
53893,1577395969.35,-0.30262708984375,-0.0966060369873047,9.068816903381348,-0.8102328788943407,-1.3029420620057632,6.970455355313929,-2.334118599446614,-1.433727760823568,9.511764162190756,3.5953521728515625,-0.6780624389648438,0.748443603515625,4.369968321265244,-4.381319371665397,0.6578026748285063,3.3433096749441966,2.5271461123511907,-3.723507835751488,24.329981794825542,-15.761035207352172,4.013795405982902,68.73470886752138,-3.3430605479670894,-37.80648148148149,34.22670500494205,36.83850001497589,36.33531015065744,1577395969.0,-27.687377289897185,-51.13015083317739,8.870952
53894,1577395969.36,1.1614272253417968,-1.6169240911865237,7.254012044982909,-0.3744881767459027,-0.8085394191834977,12.065316488126427,0.3509785624186193,-2.5757619527180986,8.974265889485677,-5.0716400146484375,-1.975059509277344,0.275421142578125,-1.535183045922256,8.756498011147103,1.1460839248285062,1.1002676827566966,5.380539667038691,5.843752906436012,24.16938785558577,-15.571143216902144,3.466459668803423,68.92805119770581,-3.179984423676012,-75.19750712250713,34.17878216072124,36.81453859286549,36.52700152754066,1577395969.0,-27.687377289897185,-51.13015083317739,8.870952
53895,1577395969.37,0.6873752966308594,-0.1995567083740234,9.030509676818848,-1.6003194267459029,-2.027188064203029,12.266429427579553,-2.2347592305501296,1.1448274271647128,9.575210506184897,2.1915435791015625,-0.8764266967773438,1.862335205078125,4.476779844702744,-3.877779332602896,0.9019432998285062,3.1144278390066966,6.326584588913691,1.235598609561012,24.329981794825542,-15.761035207352172,2.18934294871795,68.54136653733694,-2.364603802220624,-73.53568376068378,34.08293647227963,36.71869290442388,36.479078683319855,1577395969.0,-27.687377289897185,-51.13015083317739,8.870952
53896,1577395969.38,1.1446678137207031,-2.126889044799805,10.24197571685791,-0.5732069145388715,-1.3520231960389664,17.38283837533346,-3.788596107991536,-3.777651186116536,8.042921443684897,2.8324127197265625,2.236366271972656,0.489044189453125,2.950900938452744,-3.481050816977896,-1.0511817001714938,1.1918204171316966,-0.5703880673363095,7.308596656436012,23.84819997710623,-16.330711178702252,3.466459668803423,68.54136653733694,-2.364603802220624,-73.53568376068378,34.03501362805883,36.57492437176146,36.479078683319855,1577395969.0,-27.687377289897185,-51.13015083317739,8.870952
53897,1577395969.39,0.2492363928222656,-6.187455060424804,8.97065463531494,-3.477373528308403,-5.596942739495998,11.57929355111471,0.7771464579264319,4.123214292399089,8.521761775716145,3.4732818603515625,2.785682678222656,1.465606689453125,6.277316954077744,-2.260347691977896,1.4512597060785062,5.983080182756696,-8.07771228608631,-10.086422874813987,24.329981794825542,-16.140819188252223,4.743576388888888,68.15468187696808,-3.179984423676012,-61.07200854700856,34.22670500494204,36.57492437176146,36.33531015065744,1577395969.0,-27.687377289897185,-51.13015083317739,8.870952
53898,1577395969.4,-0.2415749475097646,3.784394854125976,12.40633401763916,0.4036273628048775,4.145063815679783,11.792377498868616,1.926363254801432,-15.77738990681966,7.662243379720052,3.4122467041015625,1.839637756347656,-0.273895263671875,0.112766172827744,2.927640589272104,-0.2577246689214938,2.1683829171316966,-8.41340564546131,-0.961667015438988,24.49057573406532,-16.330711178702252,5.655802617521372,68.54136653733694,-6.60458303378864,0.4154558404558297,33.939167939617214,36.81453859286549,36.57492437176146,1577395969.0,-27.687377289897185,-51.13015083317739,8.870952
53899,1577395969.41,-2.446634676513672,-1.382292328491211,10.538856722717284,-1.4231485038943403,0.7740278781797825,8.031086690763148,-4.138149550374348,-0.2126849141438798,5.737305244954428,10.065078735351562,2.175331115722656,1.038360595703125,6.826633360327744,10.068753870522103,2.183681581078506,1.3138907296316966,-10.85481189546131,0.930422828311012,24.49057573406532,-17.090279140502357,3.831350160256412,68.92805119770581,-4.64766954229571,-7.062749287749304,34.08293647227963,36.57492437176146,36.57492437176146,1577395969.0,-27.687377289897185,-51.13015083317739,8.870952
53900,1577395969.42,-3.1194053430175783,0.8060079888916014,11.053610079650875,-2.2323886650271527,-0.3081512722108415,15.17299024300924,-2.1102607442220047,-3.16234135945638,13.623805513509115,-6.1702728271484375,-3.104209899902344,0.244903564453125,-0.0398217177972559,-0.3072226919778963,-1.7530859970464938,-0.4866463797433034,-11.86189197358631,10.299319312686013,25.132951491024407,-16.710495159602303,3.101569177350434,72.02152848065678,-4.810745666586787,6.231837606837594,33.891245095396414,36.81453859286549,36.479078683319855,1577395969.0,-27.687377289897185,-51.13015083317739,8.870952
53901,1577395969.43,-0.6533776330566405,-0.6329072088623047,6.449560287170409,-2.486174041003715,-0.188441189203029,13.707738826993616,-3.312149977620442,4.63317924601237,9.735622017415364,0.6961822509765625,-1.0290145874023438,0.428009033203125,1.699680235327744,2.591947229897104,2.824550721703506,0.1237051827566966,-9.90876697358631,1.784915015811012,24.811763612544866,-15.950927197802198,2.736678685897437,67.76799721659921,-8.07226815240834,-3.7391025641025832,34.08293647227963,36.52700152754066,36.81453859286549,1577395969.0,-27.687377289897185,-51.13015083317739,8.870952
53902,1577395969.44,-0.6174646081542968,-2.924158197631836,7.395269942932128,0.5257316474728463,-4.730241738519436,5.25860116830221,3.5041421488444,-7.292339223225912,4.712586934407551,-0.8296966552734375,0.5578994750976562,0.824737548828125,-2.267604920922256,-1.9551719107278964,0.0474511123285061,-1.5547616141183034,-11.95344470796131,-1.083737327938988,24.49057573406532,-17.090279140502357,4.196240651709401,67.76799721659921,-8.07226815240834,-6.231837606837628,34.08293647227963,36.67077006020308,36.57492437176146,1577395969.0,-27.687377289897185,-51.13015083317739,8.870952
53903,1577395969.45,-0.830548555908203,-2.916975592651367,10.950659408264158,-0.9586733818240282,-0.6098206813905295,9.38859903207174,-0.3876326497395832,1.4141751139322916,7.570066615804036,-2.569198608398437,-0.8153915405273438,0.183868408203125,2.004856016577744,-0.8870566763528962,0.4594384170160061,3.2059805733816966,-20.78828357514881,-6.286984398251487,24.49057573406532,-14.052007293301935,2.736678685897437,68.73470886752139,-7.746115903826183,-30.328276353276376,34.08293647227963,36.71869290442388,36.59888579387187,1577395969.0,-27.687377289897185,-51.13015083317739,8.870952
53904,1577395969.46,-1.929487117919922,0.0650025750732422,8.470266488342284,-2.9602259697146525,-2.103802517328029,4.719905794767054,-0.994562770589192,-11.96582086385091,8.878497823079426,4.1446685791015625,-2.768516540527344,0.428009033203125,1.547092344702744,2.530912073647104,-2.119296934546494,0.7340567452566966,-21.29182361421131,6.911868140811012,25.29354543026418,-14.241899283751962,3.6489049145299135,69.70142051844356,-8.724572649572648,-51.93198005698007,34.01105220594842,36.71869290442388,36.71869290442388,1577395969.0,-27.687377289897185,-51.13015083317739,8.870952
53905,1577395969.47,-1.9151219079589843,-2.814024921264648,6.224505331115722,-0.3936417900271527,0.0557673801329075,14.303895040372522,-6.630513478597005,5.562129490152994,9.946311763509115,-4.7664642333984375,-6.278038024902344,0.305938720703125,-2.664333436547256,-8.455416051352897,0.3831444717035062,-2.1651131766183034,-5.727858770461309,10.879153297061013,24.65116967330509,-15.38125122645212,4.013795405982902,69.70142051844356,-8.724572649572648,-61.90292022792025,34.03501362805883,36.81453859286549,36.52700152754066,1577395969.0,-27.687377289897185,-51.13015083317739,8.870952
53906,1577395969.48,0.1989581579589843,-0.9106346014404296,12.573928133850096,-2.03606412889434,-2.2187241970155287,5.129314278653773,0.0612801615397131,1.8391459086100248,10.884838814290369,0.4825592041015625,-5.881309509277344,-0.029754638671875,2.645725157202744,-9.828707066977897,1.4817772842035062,-0.8833748953683034,6.997971307663691,0.3505888439360119,24.65116967330509,-16.900387150052328,3.6489049145299135,67.76799721659921,-8.724572649572648,-58.57927350427351,34.27462784916285,36.52700152754066,36.52700152754066,1577395969.0,-27.687377289897185,-51.13015083317739,8.870952
53907,1577395969.49,-0.9047688073730462,-2.457288873901367,13.00488443267822,-1.726015013904106,-2.4808892788026387,14.040532857755334,1.7156735087076822,-1.2577539388020829,16.48727069905599,0.8487701416015625,-3.561973571777344,0.412750244140625,0.509494688452744,-4.259249059165397,-2.363437559546494,-0.1967293875558033,21.23442150297619,-1.694088890438988,23.68760603786645,-15.571143216902149,3.2840144230769246,68.54136653733696,-4.647669542295709,-75.19750712250715,34.058975050169224,36.71869290442388,36.479078683319855,1577395969.0,-27.687377289897185,-51.13015083317739,8.870952
53908,1577395969.5,2.035310831298828,-1.2075156072998046,9.444706564025878,0.9926009712033148,-1.4884926906678726,12.113200521329553,-2.771060402425129,0.2541844095865878,9.237628072102863,-1.5926361083984375,-5.576133728027344,-0.487518310546875,-3.213649842797256,-5.098482457602897,0.2610741592035062,2.4430411202566966,19.75431896391369,-8.102780296688987,23.68760603786645,-14.621683264652017,2.9191239316239352,55.394088084795335,-3.5061366722581666,1.2463675213675056,34.27462784916285,36.71869290442388,36.52700152754066,1577395969.0,-27.687377289897185,-51.13015083317739,8.870952
53909,1577395969.51,-1.8313248498535155,2.702215703735352,12.26507611968994,-1.3178036308474652,2.636716769781345,6.551470064786585,0.7436276346842444,3.074553965250651,3.9057409749348952,1.8863677978515625,-2.554893493652344,-0.121307373046875,-1.199489686547256,0.2115761361471036,-0.5629004501714938,2.9313223702566966,9.37834240141369,-9.994870140438987,25.29354543026418,-15.38125122645212,4.743576388888888,55.78077274516421,-7.419963655244028,-0.4154558404558628,34.08293647227963,36.67077006020308,36.479078683319855,1577395969.0,-27.687377289897185,-51.13015083317739,8.870952
53910,1577395969.52,-0.5839457849121084,1.3135787408447264,9.18134438140869,2.4339103706173773,2.2895575290586887,9.388599032071742,2.7691222391764314,-16.7877430074056,4.786807185872395,0.1163482666015625,-2.646446228027344,-2.684783935546875,-3.427272889672256,5.033353479897103,-0.4103125595464938,-1.7683846609933034,-11.61775134858631,0.0759306408110119,23.366418159386907,-14.621683264652017,3.2840144230769246,70.08810517881243,-6.767659158079718,8.72457264957264,33.84332225117561,36.57492437176146,36.52700152754066,1577395969.0,-27.687377289897185,-51.13015083317739,8.870952
53911,1577395969.53,-1.3584700219726562,-2.875077063598632,4.783195931701659,-4.943822045154106,-2.802909402093654,8.879831179288537,-2.9805530476888014,-2.766100984700521,8.35895606282552,-4.9648284912109375,-4.248619079589844,-0.457000732421875,1.0435523056402438,-8.073946324790397,-0.4713477157964938,-3.324781145368304,-9.63410877046131,7.598513648623513,24.41027876444543,-15.096413240777078,3.3752370459401737,69.02472236279803,-5.585357256969406,8.10138888888887,34.08293647227963,36.67077006020308,36.550962949651066,1577395969.0,-27.687377289897185,-51.13015083317739,8.870952
53912,1577395969.54,0.7615955480957032,-2.1939266912841795,10.122265633850096,2.6589653266720648,-1.8428345363709977,14.222492183927208,-2.189269399007161,4.053782444254558,13.511278035481771,0.0553131103515625,-2.707481384277344,-0.029754638671875,-7.699733827172256,5.338529261147103,-1.8141211532964936,0.7035391671316966,-1.5164329892113095,-2.640133812313988,24.49057573406532,-14.052007293301935,3.831350160256412,69.50807818825913,-4.892283728732327,-5.816381766381765,34.08293647227963,36.52700152754066,36.479078683319855,1577395969.0,-27.687377289897185,-51.13015083317739,8.870952
53913,1577395969.55,-0.4977545251464833,2.946424273071289,12.91629897125244,2.5991102851681585,2.9264151706602517,10.056581295255334,0.2504220926920569,4.060965049235026,7.777165059407552,6.2503814697265625,-0.1134872436523437,0.489044189453125,-0.2534447646722559,-6.899019566977897,1.4207421279535062,2.8397696358816966,-3.5000755673363093,-5.874997093563988,24.49057573406532,-14.052007293301935,3.831350160256412,69.50807818825913,-3.4245986101126284,-6.647293447293474,34.22670500494204,36.71869290442388,36.52700152754066,1577395969.0,-27.687377289897185,-51.13015083317739,8.870952
53914,1577395969.56,-0.0189141931152333,-1.310466278686523,11.731169149475097,-1.496171654529106,-0.5296149257752946,12.5429597193276,1.2128911600748693,-3.3419064839680988,10.182140627034508,5.6095123291015625,-2.432823181152344,-0.792694091796875,-0.9553490615472562,-0.8565390982278964,-0.5476416611089938,1.4054434640066966,-17.06513904389881,-6.622677757626488,23.366418159386907,-17.659955111852437,4.013795405982902,67.76799721659921,-6.033816598769869,-6.231837606837628,34.17878216072124,36.64680863809267,36.550962949651066,1577395969.0,-27.687377289897185,-51.13015083317739,8.870952
53915,1577395969.57,-0.5097255334472656,-3.243784119262695,6.842209359436034,1.4187688667111276,-3.631303176507717,6.553864266446741,0.5377262919108069,-20.649590285237625,8.555280598958333,-6.4601898193359375,-4.828453063964844,-0.991058349609375,3.591770079077744,1.2491737923971036,0.0779686904535061,-1.1885506766183034,-13.87605212983631,3.097170875186012,25.53443633912384,-15.855981202577189,4.287463274572653,68.54136653733694,-3.5061366722581666,-8.724572649572671,34.058975050169224,36.71869290442388,36.38323299487824,1577395969.0,-27.687377289897185,-51.13015083317739,8.870952
53916,1577395969.58,0.3426102575683593,-3.443699957885742,8.941924215393065,0.8728908881955024,-4.038317458734279,12.814701607755334,-4.89711147664388,8.200539719645182,17.01160086263021,-1.5926361083984375,-3.836631774902344,-0.243377685546875,-1.718288514672256,-11.842867223227897,-3.797763731421494,-2.1956307547433034,9.28678966703869,14.297122047061013,25.775327247983498,-17.090279140502357,3.466459668803423,68.3480242071525,-3.4245986101126284,-1.661823361823385,34.08293647227963,36.71869290442388,36.71869290442388,1577395969.0,-27.687377289897185,-51.13015083317739,8.870952
53917,1577395969.59,0.6730100866699219,1.4189236138916017,13.033614852600095,-2.1007075737185588,3.9918349094297834,9.496338106778774,1.665395273844401,12.232375315348309,20.30123394368489,3.6869049072265625,0.6799697875976562,-0.487518310546875,-1.138454530297256,-8.119722691977897,-3.523105528296494,-0.8528573172433034,30.55754162016369,0.1674833751860119,25.775327247983498,-17.090279140502357,3.466459668803423,70.08810517881243,-3.5061366722581666,-66.05747863247865,34.08293647227963,36.71869290442388,36.52700152754066,1577395969.0,-27.687377289897185,-51.13015083317739,8.870952
53918,1577395969.6,3.3257855261230467,3.9783251885986326,8.216481112365722,2.0149250800900336,-0.5870757656190455,11.624783382657675,1.8772821207682289,-2.6068865743001304,9.960676973470052,10.278701782226562,0.3137588500976562,-0.914764404296875,-0.1161156631097561,7.139066370522104,0.3221093154535062,-0.4713875906808033,35.07414318266369,-5.340939476376488,24.65116967330509,-15.38125122645212,3.2840144230769246,68.54136653733694,-5.29997403946002,-41.54558404558406,34.03501362805883,36.57492437176146,36.50304010543026,1577395969.0,-27.687377289897185,-51.13015083317739,8.870952
53919,1577395969.61,1.5887922216796877,-3.379056513061523,8.111136239318848,0.08280434034394,-1.768614284906154,7.928136019376429,-2.0551941060384107,3.17750463663737,6.649496077473958,-4.3392181396484375,2.068519592285156,-0.563812255859375,5.697482969702744,-2.290865270102896,3.709560487328506,4.853929792131696,20.54777599516369,-17.258053734188987,24.089090885965888,-15.855981202577183,4.105018028846152,68.54136653733694,-7.093811406661874,-7.062749287749304,33.98709078383802,36.57492437176146,36.57492437176146,1577395969.0,-27.687377289897185,-51.13015083317739,8.870952
53920,1577395969.62,1.1231199987792968,-2.1651962713623045,4.723340890197752,-2.6130667289919964,-5.000786526117092,6.192339815763148,-2.9721733418782543,-6.28438032430013,7.872933125813802,-12.762069702148438,2.419471740722656,-1.250457763671875,7.742160704077744,-13.185640660727897,-0.7460059189214938,1.8937247140066968,-1.974196661086309,-1.694088890438988,24.65116967330509,-15.761035207352172,3.2840144230769246,69.50807818825913,-7.093811406661874,-7.062749287749304,33.939167939617214,36.57492437176146,36.52700152754066,1577395969.0,-27.687377289897185,-51.13015083317739,8.870952
53921,1577395969.63,-0.1098938562011709,-2.035909381713867,8.870098165588377,-3.099089666003715,4.640663559332126,6.843562667325648,-1.2938379781087237,-1.9556637227376297,2.090936116536458,-2.416610717773437,1.3818740844726562,-1.006317138671875,1.425022032202744,2.744535120522104,-0.5934180282964938,-0.4561288016183034,-24.49616931733631,2.791995093936012,24.65116967330509,-15.761035207352172,3.2840144230769246,69.50807818825913,-5.381512101605559,-61.48746438746439,33.939167939617214,36.52700152754066,36.38323299487824,1577395969.0,-27.687377289897185,-51.13015083317739,8.870952
53922,1577395969.64,0.9674968908691406,3.16908502746582,10.383233614807128,5.998876642590034,-2.65925730248428,14.605564449552208,-1.1525800801595043,-15.423048061116535,12.081939644368491,8.172988891601562,2.633094787597656,-1.616668701171875,-1.077419374047256,5.674222620522103,1.9700585342035064,-4.820142473493304,-18.14851306733631,16.646975562686013,23.205824220147136,-17.090279140502357,4.926021634615379,70.08810517881243,-5.9522785366243305,-5.400925925925935,33.939167939617214,36.57492437176146,36.52700152754066,1577395969.0,-27.687377289897185,-51.13015083317739,8.870952
53923,1577395969.65,0.766383951416016,-1.446935773315429,8.928756106262206,-0.7623488456912159,-0.7486843776795923,7.949683834317836,1.1530361185709634,10.279903861490885,6.985881410725913,-2.889633178710937,4.815101623535156,-0.502777099609375,-4.937893006859756,8.375028284584605,-0.2729834579839938,-1.7378670828683034,-27.66999744233631,-1.4194306873139877,24.329981794825542,-16.140819188252223,3.6489049145299135,69.79809168353577,-5.422281132678329,-21.81143162393164,34.03501362805883,36.64680863809267,36.479078683319855,1577395969.0,-27.687377289897185,-51.13015083317739,8.870952
53924,1577395969.66,1.3816937780761718,-3.6017172674560545,7.969878341369628,1.2775109687619088,-6.545046596917873,12.182632369474083,-5.37595180867513,-7.440779726155599,8.074046065266927,-12.578964233398438,4.555702209472656,-0.945281982421875,-2.206569764672256,-7.356783238852897,2.641445252953506,-1.4326913016183034,-24.46565173921131,-1.327877952938988,23.68760603786645,-16.520603169152277,2.5542334401709463,68.73470886752138,-5.381512101605559,-48.1928774928775,34.08293647227963,36.81453859286549,36.33531015065744,1577395969.0,-27.687377289897185,-51.13015083317739,8.870952
53925,1577395969.67,0.9100360510253906,-0.1756146917724609,6.796719527893066,-3.5324401664919964,-0.5188410183045915,2.1102259851967413,0.7843290629069006,7.645084934488931,13.489730220540368,-5.3157806396484375,4.342079162597656,-0.975799560546875,3.317111875952744,5.246976526772103,2.855068299828506,2.4125235421316966,-20.65095447358631,-6.729489281063988,24.329981794825542,-16.140819188252223,2.18934294871795,68.73470886752138,-5.381512101605559,-48.1928774928775,34.17878216072124,36.81453859286549,36.479078683319855,1577395969.0,-27.687377289897185,-51.13015083317739,8.870952
53926,1577395969.68,0.7184999182128906,1.0837353814697264,10.14620765045166,1.777899115734565,3.0916150852110325,10.896946077970178,-2.153356374104817,-12.040041115315754,9.254387483723958,-0.4940032958984375,6.905555725097656,-0.487518310546875,-4.953151795922256,14.066556604897103,-0.1356543564214938,-5.430494035993304,-19.79646228608631,0.2285185314360119,24.329981794825542,-16.140819188252223,2.18934294871795,69.70142051844356,-8.398420400990494,5.400925925925918,33.939167939617214,36.81453859286549,36.57492437176146,1577395969.0,-27.687377289897185,-51.13015083317739,8.870952
53927,1577395969.69,0.5724536169433594,-1.2542025396728511,7.079235323791503,0.9794328620724562,-3.174010659417873,3.5838571070229146,0.1271207071940105,0.7701348673502606,9.207700551350912,-2.233505249023437,6.463050842285156,-0.609588623046875,-2.496486756859756,0.7303749642721034,2.107387635766006,-5.369458879743304,-4.93440173921131,4.134768531436013,23.848199977106223,-16.140819188252227,4.196240651709401,68.54136653733696,-8.398420400990494,-8.724572649572671,34.130859316500434,36.69473148231347,36.52700152754066,1577395969.0,-27.687377289897185,-51.13015083317739,8.870952
53928,1577395969.7,-0.2846705773925771,-1.882680475463867,13.268246615295409,-2.723200005359184,3.62312785376572,13.41085782113424,-0.6617687398274733,0.6635928934733066,10.245586971028647,-6.5364837646484375,5.410194396972656,-1.219940185546875,-8.859401795922256,19.437650354897105,-1.7836035751714938,-5.277906145368304,5.624680292038691,2.151125953311012,24.16938785558577,-16.330711178702252,2.736678685897437,68.15468187696808,-8.07226815240834,-8.724572649572671,34.03501362805883,36.52700152754066,36.57492437176146,1577395969.0,-27.687377289897185,-51.13015083317739,8.870952
53929,1577395969.71,0.4072537023925781,-2.205897699584961,10.680114620666505,3.408350446300971,-6.765313149652248,11.478737081388148,3.913550632731119,1.520717087809244,8.143477913411457,-6.3838958740234375,7.027626037597656,-1.097869873046875,-4.068142030297256,10.495999964272103,4.167324159203506,-3.1721932547433034,3.2443091982886907,-6.241208031063988,24.329981794825542,-16.140819188252223,2.18934294871795,67.76799721659921,-6.767659158079718,-55.255626780626805,34.03501362805883,36.71869290442388,36.38323299487824,1577395969.0,-27.687377289897185,-51.13015083317739,8.870952
53930,1577395969.72,-2.439452071533203,0.743758745727539,11.228386800842284,-4.710387383288872,-0.1429513576600602,5.529145955899867,-2.332921498616536,-6.0377775533040365,10.09714646809896,-4.4002532958984375,5.532264709472656,-1.769256591796875,-6.692653749047256,-12.178560582602897,-0.9596289657964938,-5.338941301618304,3.2137916201636907,-4.532223656063988,24.329981794825542,-16.140819188252223,2.18934294871795,68.54136653733694,-6.441506909497563,-80.18297720797722,34.22670500494204,36.57492437176146,36.52700152754066,1577395969.0,-27.687377289897185,-51.13015083317739,8.870952
53931,1577395969.73,-1.1669338891601555,-1.4325705633544918,9.183738583068846,1.758745502453315,-2.3097038601014668,7.788075222257288,-0.1589863911946613,0.8275957071940103,7.657454976399739,-3.393173217773437,4.830360412597656,-0.777435302734375,-3.976589295922256,10.328153284584603,2.565151307641006,-5.766187395368304,12.10966564360119,1.433962867373512,24.008793916346,-16.330711178702252,3.466459668803419,68.73470886752138,-7.338425593098489,-87.24572649572652,34.058975050169224,36.52700152754066,36.45511726120945,1577395969.0,-27.687377289897185,-51.13015083317739,8.870952
53932,1577395969.74,-3.117011141357422,-1.583405267944336,7.503009017639159,-6.486885015124809,-2.084648904046779,9.218610714200649,-2.1749041890462237,2.8806236307779947,8.55767480061849,-12.212753295898438,2.785682678222656,-1.219940185546875,-7.547145936547256,-7.143160191977897,-2.210849668921494,-4.972730364118304,5.899338495163691,0.960940406436012,23.205824220147136,-15.950927197802198,2.006897702991451,68.73470886752138,-7.338425593098489,-87.24572649572652,34.17878216072124,36.67077006020308,36.52700152754066,1577395969.0,-27.687377289897185,-51.13015083317739,8.870952
53933,1577395969.75,-1.910333504638672,-0.4701014959716796,12.95460619781494,2.749944989758002,3.920008859625095,12.28797724252096,-1.4638262959798172,-1.1440293599446612,8.655837068684896,-6.8111419677734375,2.297401428222656,-1.158905029296875,-10.446315858422256,13.151029261147103,1.9700585342035064,-3.843579973493304,-4.385085332961309,-3.982907249813988,23.84819997710623,-16.330711178702252,3.101569177350434,69.31473585807468,-3.5061366722581666,11.217307692307685,34.27462784916285,36.71869290442388,36.52700152754066,1577395969.0,-27.687377289897185,-51.13015083317739,8.870952
53934,1577395969.76,0.1965639562988281,-2.191532489624024,7.651449520568847,-0.9826153984255906,-2.07746629906631,5.675192257169398,-0.2870761800130202,-3.368242702229817,12.666124849446618,-1.3484954833984375,0.7410049438476562,-0.395965576171875,-6.204372499047256,-7.677217809165397,1.2071190810785062,-6.239209856305804,2.4661109561011902,1.205081031436012,23.84819997710623,-16.330711178702252,3.101569177350434,68.92805119770581,-6.115354660915408,-8.309116809116826,34.17878216072124,36.71869290442388,36.57492437176146,1577395969.0,-27.687377289897185,-51.13015083317739,8.870952
53935,1577395969.77,-3.1433473596191406,-0.8040926275634765,13.736313039855956,2.144211969738471,3.671011886968845,14.82104259896627,0.9231927591959632,-2.659559010823567,5.849832722981771,-2.981185913085937,-0.6017684936523438,-0.868988037109375,-13.986354920922256,8.054593714272103,-0.5323828720464938,-5.369458879743304,-1.913161504836309,2.029055640811012,23.68760603786645,-16.90038715005233,3.4664596688034197,68.92805119770581,-5.463050163751098,-7.8936609686609795,34.08293647227963,36.57492437176146,36.52700152754066,1577395969.0,-27.687377289897185,-51.13015083317739,8.870952
53936,1577395969.78,-1.2782642663574215,-3.982395331420898,7.3258380947875965,-2.2467538749880904,-8.141979104242091,6.798072835782679,2.290281907145182,3.02427573038737,10.56401579182943,-8.947372436523438,-3.531455993652344,-1.433563232421875,4.171604063452744,-4.701753941977897,0.8409081435785062,-5.613599504743304,-1.6385033017113095,4.531497047061012,24.16938785558577,-16.330711178702252,2.371788194444441,69.70142051844356,-6.767659158079718,-7.8936609686609795,34.03501362805883,36.67077006020308,36.28738730643664,1577395969.0,-27.687377289897185,-51.13015083317739,8.870952
53937,1577395969.79,-3.0068778649902344,-4.296035748901367,10.634624789123531,-4.942624944324028,-3.595390151605373,4.111778573087367,0.7077146097819007,12.25631733194987,5.835467513020833,-8.672714233398438,-4.538536071777344,-0.609588623046875,-12.796169374047256,-7.448335973227897,-1.3868750595464938,-0.9749276297433034,-16.19538806733631,-7.492428734188988,22.88463634166759,-15.191359236002096,3.101569177350434,68.3480242071525,-6.523044971643102,10.801851851851836,34.08293647227963,36.86246143708629,36.71869290442388,1577395969.0,-27.687377289897185,-51.13015083317739,8.870952
53938,1577395969.8,-1.6804901452636714,1.5146916802978516,8.74081127593994,-0.6965083000369189,1.3869435031797823,12.103623714688927,1.1350796061197912,-10.316215920003254,7.933985268147786,1.3523101806640625,-5.591392517089844,-1.067352294921875,-4.235988709984756,-1.6957724966653966,1.2834130263910062,-3.828321184430804,-21.36811755952381,0.5336943126860128,23.205824220147136,-16.140819188252227,3.284014423076928,67.1879702260459,-7.990730090262801,9.970940170940162,33.86728367328601,36.50304010543026,36.67077006020308,1577395969.0,-27.687377289897185,-51.13015083317739,8.870952
53939,1577395969.81,-3.540784835205078,-7.056550263061522,9.569205050354002,-2.4981450493044965,-3.746224856195217,14.366144283536585,0.6765899881998694,11.140619358317055,9.826601680501303,-5.4073333740234375,-9.543418884277344,-0.762176513671875,-7.974392030297256,-9.004732457602897,-2.577060606421494,0.0016348702566966,-38.32063220796131,-6.119137718563988,23.527012098626685,-16.330711178702252,4.926021634615379,80.52859100877194,-3.5061366722581666,-5.400925925925935,33.891245095396414,36.52700152754066,36.479078683319855,1577395969.0,-27.687377289897185,-51.13015083317739,8.870952
53940,1577395969.82,-2.1282058557128902,-0.817260736694336,9.317813876037595,0.1642071967892525,3.666223483648532,8.497956014493615,-7.614530360921224,-24.26722899373372,16.448963472493492,-10.747909545898438,-8.719444274902344,-0.914764404296875,2.065891172827744,-12.392183629477897,0.2610741592035062,-6.834302629743304,-31.30158923921131,7.796877906436012,23.527012098626685,-16.330711178702252,4.196240651709401,80.52859100877194,-3.5061366722581666,-5.400925925925935,34.08293647227963,36.57492437176146,36.81453859286549,1577395969.0,-27.687377289897185,-51.13015083317739,8.870952
53941,1577395969.83,-3.969346932373047,3.89692233215332,11.024879659729002,-6.338444512195122,0.36701359595322,8.213046016935023,-0.3553109273274733,4.999492100016275,17.157647163899743,-3.393173217773437,-11.374473571777344,-3.203582763671875,-6.784206483422256,-15.779634801352897,1.1460839248285062,-8.116040910993304,9.28678966703869,12.282961890811013,23.68760603786645,-15.00146724555207,2.9191239316239352,65.25454692420155,-3.4245986101126284,-67.30384615384617,34.08293647227963,36.57492437176146,36.52700152754066,1577395969.0,-27.687377289897185,-51.13015083317739,8.870952
53942,1577395969.84,-1.907939302978516,-5.368638092651366,12.346478976135252,-3.767071929187309,-3.9808566188905297,17.797035262540494,0.4204104105631506,8.20772232462565,28.700093367513016,-5.2547454833984375,-12.122154235839844,-0.762176513671875,-7.730251405297256,-16.725679723227895,-5.110019590796494,-6.193433489118304,74.41130138578869,-4.959469749813988,24.49057573406532,-16.140819188252227,2.189342948717949,71.24815915991904,-3.5061366722581666,-68.55021367521368,33.98709078383802,36.71869290442388,36.479078683319855,1577395969.0,-27.687377289897185,-51.13015083317739,8.870952
53943,1577395969.85,-0.390015450439452,-2.8666973577880857,12.542803512268064,-1.8696671135134812,-3.630106075677639,9.215019411710411,-2.347286708577474,2.8028120768229163,22.406934303792312,-5.8650970458984375,-11.557579040527344,-1.586151123046875,-4.434352967797256,-8.318086949790397,-0.8528174423589938,-6.284986223493304,133.5696265811012,-7.049923851376487,24.329981794825542,-17.280171130952382,2.18934294871795,68.15468187696808,-4.484593418004632,-8.724572649572671,33.939167939617214,36.57492437176147,36.479078683319855,1577395969.0,-27.687377289897185,-51.13015083317739,8.870952
53944,1577395969.86,-0.4019864587402333,-2.612911981811523,9.607512276916504,2.127452558117377,1.5689028293516574,20.16968910775533,0.4347756205240881,4.666698069254557,9.256781685384114,-4.2476654052734375,-7.956504821777344,-1.525115966796875,-11.392360780297256,-3.114839879477896,-5.079502012671494,0.9781973702566966,148.1417701357887,-24.795895531063987,24.97235755178464,-18.039739092752487,4.3786858974359,68.54136653733694,-6.767659158079718,-8.724572649572671,34.17878216072124,36.81453859286549,36.57492437176146,1577395969.0,-27.687377289897185,-51.13015083317739,8.870952
53945,1577395969.87,2.954684268798828,2.0893000787353517,17.09657506988525,10.677146686535346,-1.98169823266006,18.012513411954554,2.579980308024088,-19.94090659383137,-2.05342695719401,3.5037994384765625,-6.064414978027344,-3.386688232421875,-0.619655702172256,8.664945276772103,3.373867127953506,-7.231031145368304,118.96696544828868,-5.234127952938988,24.49057573406532,-15.950927197802198,4.196240651709401,58.680907697930735,-5.707664350187715,-54.84017094017094,34.22670500494204,36.67077006020308,36.52700152754066,1577395969.0,-27.687377289897185,-51.13015083317739,8.870952
53946,1577395969.88,1.1446678137207031,-3.250966724243164,10.360488699035644,-2.398785680408012,3.170623739996189,8.733784878019005,-6.095409407552083,-0.8279947408040357,-4.999492100016275,-2.660751342773437,-5.377769470214844,-2.425384521484375,2.477878477515244,-12.819429723227897,-3.355258848608994,-1.5089852469308034,20.92924572172619,-0.5496797107514881,23.848199977106223,-15.950927197802198,4.196240651709401,69.4114070231669,-1.9976825225656996,-0.2077279202279314,34.15482073861084,36.64680863809267,36.45511726120945,1577395969.0,-27.687377289897185,-51.13015083317739,8.870952
53947,1577395969.89,-1.1824961999511718,-0.0439336004638662,15.971300289611817,0.2695520698361278,-2.0182098079774438,12.44120614877096,-4.737897066243489,-0.0397038441975904,5.466760457356772,-0.5550384521484375,-5.637168884277344,-3.661346435546875,5.872959043921494,-6.258150426352896,-3.896945860327744,-0.1890999930245535,-2.93550037202381,-0.1834687732514877,24.49057573406532,-16.710495159602303,3.101569177350434,74.77665668578499,1.1619173855739278,-26.06985398860401,34.17878216072124,36.67077006020307,36.50304010543026,1577395969.0,-27.687377289897185,-51.13015083317739,8.870952
53948,1577395969.9,0.5963956335449219,-6.110840607299804,6.820661544494628,2.937889820080268,-7.207043355951075,16.14862741952291,-3.380384724934895,0.7485870524088548,15.933013014729818,-0.0972747802734375,-3.745079040527344,-1.342010498046875,9.268039610327744,0.3031288705221033,-4.438632872046494,1.1307852608816964,-26.80024646577381,0.1827421642485127,24.329981794825542,-16.140819188252223,3.2840144230769246,80.14190634840307,4.321517293713555,-51.93198005698008,33.939167939617214,36.69473148231347,36.550962949651066,1577395969.0,-27.687377289897185,-51.13015083317739,8.870952
53949,1577395969.91,0.3617638708496093,-0.3312377996826171,15.62414104888916,7.526377301769721,0.1443528415586887,16.990189303067833,-5.603400966389974,-8.599573329671223,16.006036165364588,3.5037994384765625,1.0461807250976562,-2.715301513671875,2.462619688452744,-0.1851523794778963,2.275234315453506,4.182543073381696,-3.957839239211309,-13.016110374813987,24.65116967330509,-16.520603169152277,4.013795405982902,80.14190634840307,4.64766954229571,-41.96103988603991,34.22670500494204,36.81453859286549,36.52700152754066,1577395969.0,-27.687377289897185,-51.13015083317739,8.870952
53950,1577395969.92,2.272336795654297,-0.5251681341552734,11.180502767639158,-2.3353393364138717,-1.2371015163514665,5.787719735196742,-3.664097621663411,-9.286709206136068,13.717179378255212,5.6095123291015625,0.1001358032226562,-2.135467529296875,4.781955625952744,-4.579683629477897,-0.2882422470464938,1.1613028390066966,-0.5398704892113095,1.968020484561012,24.329981794825542,-15.38125122645212,4.013795405982902,70.86147449955017,-4.484593418004633,11.217307692307685,34.08293647227963,36.81453859286549,36.479078683319855,1577395969.0,-27.687377289897185,-51.13015083317739,8.870952
53951,1577395969.93,-0.2176329309082021,-0.4222174627685546,10.265917733459473,-0.5372938896365277,2.43560383032822,16.197708553556115,-1.4422784810384108,11.619459690348307,7.908846150716146,1.2454986572265625,0.5578994750976562,-1.586151123046875,-1.718288514672256,-3.694673863852896,-4.469150450171494,2.7176993233816966,-14.02864002046131,-4.349118187313988,23.84819997710623,-16.330711178702252,2.736678685897437,71.24815915991904,-7.093811406661874,-41.96103988603991,34.03501362805883,36.71869290442388,36.67077006020308,1577395969.0,-27.687377289897185,-51.13015083317739,8.870952
53952,1577395969.94,0.2061407629394531,-1.880286273803711,15.174031136779783,2.211249616222846,-1.462156472406154,12.70935673470846,1.3852736796061194,-16.88111687215169,10.322201424153649,1.1234283447265625,1.1682510375976562,-1.952362060546875,6.704563047827744,8.329251917397103,-1.6615332626714938,2.6871817452566966,-21.93269275483631,-0.3818330310639881,23.84819997710623,-16.330711178702252,2.736678685897437,70.86147449955017,-7.419963655244028,-51.10106837606839,34.17878216072124,36.52700152754066,36.52700152754066,1577395969.0,-27.687377289897185,-51.13015083317739,8.870952
53953,1577395969.95,-0.3385401147460927,-2.472851184692382,8.883266274719237,0.5724185798458931,-1.590246261224514,5.749412508634242,1.4152012003580727,2.903368546549479,7.520985481770834,1.3675689697265625,-1.2273788452148438,-1.815032958984375,2.325290586890244,-6.593843785727897,-2.409213926733994,5.372728620256696,-36.23017810639881,0.3048124767485118,25.614733308743727,-17.280171130952382,3.2840144230769246,80.14190634840307,-8.07226815240834,-61.90292022792025,34.01105220594842,36.62284721598228,36.59888579387187,1577395969.0,-27.687377289897185,-51.13015083317739,8.870952
53954,1577395969.96,2.485420743408203,-1.506790814819336,6.411253060607909,0.1426593818478462,-2.798120998773342,10.489931795743615,-1.032869997151692,-1.5414668355305985,11.11947057698568,3.7174224853515625,-2.158164978027344,-0.701141357421875,2.676242735327744,7.352689417397103,-2.271884825171494,5.098070417131696,-25.47273181733631,1.174563453311012,23.205824220147136,-15.950927197802198,2.371788194444441,80.14190634840307,-8.07226815240834,-61.90292022792025,33.939167939617214,36.479078683319855,36.57492437176146,1577395969.0,-27.687377289897185,-51.13015083317739,8.870952
53955,1577395969.97,0.1223437048339843,-1.133295355834961,12.538015108947754,-0.6905227958865277,-6.006351223382716,11.411699434903772,-0.5588180684407545,9.16540298868815,13.731544588216147,8.356094360351562,-0.7238388061523438,-0.609588623046875,8.932346250952744,-2.870699254477896,-2.577060606421494,4.976000104631696,-11.00739978608631,8.071536109561013,23.527012098626685,-17.090279140502357,3.466459668803423,68.15468187696808,-6.115354660915408,-61.07200854700856,33.939167939617214,36.71869290442388,36.52700152754066,1577395969.0,-27.687377289897185,-51.13015083317739,8.870952
53956,1577395969.98,0.4383783239746093,-2.4836250921630856,10.941082601623537,1.0057690803341743,1.172662454595798,11.015459060147911,-2.4849533040364578,-5.230931593831378,10.790267848714196,4.3888092041015625,-1.3647079467773438,-1.433563232421875,2.203220274390244,-2.2603476919778966,-1.8446387314214936,6.913866315569196,-12.83845447358631,-8.331662132626487,23.527012098626685,-15.950927197802198,2.736678685897437,68.63803770242916,-4.851514697659557,-54.63244301994305,34.41839638182526,36.742654326534286,36.50304010543026,1577395969.0,-27.687377289897185,-51.13015083317739,8.870952
53957,1577395969.99,0.5257666845703125,-1.7031153509521482,9.663776015930177,2.5224958320431585,-5.553847109613185,9.335926595548305,-4.13096694539388,1.7433778422037751,7.96391278889974,5.411148071289063,-1.2578964233398438,-0.670623779296875,5.819553282202744,-0.7039512076028964,-2.210849668921494,6.654466901506696,-18.57575916108631,4.562014625186012,24.49057573406532,-15.571143216902144,3.831350160256412,67.96133954678365,-6.196892723060947,-8.309116809116826,34.10689789439003,36.57492437176146,36.479078683319855,1577395969.0,-27.687377289897185,-51.13015083317739,8.870952
53958,1577395970.0,0.1798045446777343,-2.8571205511474607,8.965866231994628,-0.4894098564334027,0.2113904880430637,14.04292705941549,-2.4430547749837235,-2.7744806905110675,7.310295735677084,6.7081451416015625,0.0085830688476562,-0.182342529296875,6.765598204077744,-11.079927770102897,-4.621738340796494,8.027757917131696,-22.17683337983631,0.7778349376860119,23.84819997710623,-15.191359236002096,3.466459668803423,67.96133954678365,-5.055359853023404,-8.309116809116826,34.08293647227963,36.67077006020308,36.57492437176146,1577395970.0,-27.68731006063029,-51.130177492234886,7.8690734
53959,1577395970.01,0.3066972326660156,0.3535038751220703,12.051992171936034,1.15540668409394,-1.3328695827577164,8.59132987923971,-3.2977847676595045,-2.887008168538411,9.002996309407552,9.332656860351562,1.2598037719726562,0.336456298828125,8.627170469702744,-6.471773473227897,-0.9901465439214938,7.478441510881696,-19.24714587983631,6.454104468936012,24.49057573406532,-17.090279140502357,3.101569177350434,67.76799721659921,-4.64766954229571,-8.724572649572671,34.08293647227963,36.57492437176146,36.67077006020308,1577395970.0,-27.68731006063029,-51.130177492234886,7.8690734
53960,1577395970.02,1.3026851232910155,-2.3160309759521485,11.38400990875244,-1.4183601005740278,0.1228050266172825,3.8532047937904914,2.2543688822428383,11.181320786539713,13.477759212239588,8.111953735351562,1.2292861938476562,-0.579071044921875,8.047336485327744,5.765775354897103,-0.9291113876714938,10.163988385881696,-10.64118884858631,-0.4428681873139881,24.811763612544866,-16.330711178702252,4.196240651709401,69.31473585807468,-5.29997403946002,-2.0772792022792146,34.03501362805883,36.67077006020308,36.38323299487824,1577395970.0,-27.68731006063029,-51.130177492234886,7.8690734
53961,1577395970.03,0.1319205114746099,-1.60615018371582,10.997346340637206,1.868878778820502,-0.3943425319764669,11.059751790860805,0.0313526407877605,-4.6886449178059895,9.22805126546224,8.752822875976562,1.473426818847656,0.428009033203125,7.650607969702744,1.3559853158346034,-3.324741270483994,9.584154401506696,-5.956740606398809,-3.281002952938988,23.84819997710623,-16.710495159602303,4.196240651709401,68.92805119770583,-4.484593418004632,-5.400925925925943,34.17878216072124,36.62284721598228,36.59888579387187,1577395970.0,-27.68731006063029,-51.130177492234886,7.8690734
53962,1577395970.04,0.9603142858886718,1.1292252130126952,8.858127157287596,-1.7870671562380902,0.0246427585508762,5.519569149259241,-3.360034010823567,3.452837827555338,4.008691646321614,6.7996978759765625,1.4429092407226562,-1.403045654296875,8.596652891577744,3.202298792397104,-2.119296934546494,9.675707135881696,-17.04988025483631,-1.999264671688988,23.205824220147136,-16.710495159602303,3.466459668803423,67.96133954678365,-7.175349468807411,-6.647293447293474,34.22670500494204,36.71869290442388,36.57492437176146,1577395970.0,-27.68731006063029,-51.130177492234886,7.8690734
53963,1577395970.05,0.9962273107910156,-2.0095731634521483,4.953184249572753,-0.6019373344607465,-3.3296337673280294,11.260864730313928,1.7683459452311194,-1.421756752522786,7.99503741048177,3.3817291259765625,0.6799697875976562,-0.975799560546875,4.812473204077744,5.979398401772103,-3.156894590796494,9.614671979631696,-20.16267322358631,-6.393795921688988,24.16938785558577,-14.811575255102042,2.736678685897437,68.15468187696808,-3.9953650451314,-8.724572649572671,34.17878216072124,36.71869290442388,36.52700152754066,1577395970.0,-27.68731006063029,-51.130177492234886,7.8690734
53964,1577395970.06,0.6801926916503906,-0.3025073797607421,8.024944979553222,4.94782211378144,-0.696011941156154,7.944895430997523,-1.9546376363118485,-10.909977931722004,7.631118758138021,6.5860748291015625,2.465248107910156,-0.472259521484375,4.598850157202744,2.042630823647104,-2.332919981421494,5.830492292131696,-28.40241931733631,7.430666968936012,23.60730906824657,-17.185225135727368,2.4630108173076937,80.14190634840307,-3.5061366722581666,-4.570014245014259,34.01105220594842,36.67077006020308,36.67077006020308,1577395970.0,-27.68731006063029,-51.130177492234886,7.8690734
53965,1577395970.07,-0.8497021691894531,0.7269993341064452,9.607512276916504,-2.839318785876762,0.8554307346250954,7.292475478604944,-0.4175601704915358,12.08992031656901,10.88962721761068,9.271621704101562,3.426551818847656,-1.311492919921875,6.521457579077744,3.7668739877096034,-3.187412168921494,6.761278424944196,-22.64985584077381,-1.861935570126488,23.84819997710623,-17.470063121402408,2.371788194444441,67.76799721659921,-3.5061366722581666,-64.81111111111113,33.891245095396414,36.59888579387187,36.50304010543026,1577395970.0,-27.68731006063029,-51.130177492234886,7.8690734
53966,1577395970.08,1.3745111730957031,-1.643260309448242,11.814966207580566,1.260751557140815,-3.1764048610780296,12.268823629239709,-2.5675532613118484,-17.31446737263997,9.237628072102863,4.9076080322265625,3.548622131347656,-2.471160888671875,3.988498594702744,8.756498011147103,-3.065341856421494,4.853929792131696,-15.85969470796131,-1.572018577938988,24.008793916346,-17.659955111852437,2.9191239316239352,68.54136653733694,-6.115354660915408,-68.55021367521368,33.939167939617214,36.57492437176146,36.33531015065744,1577395970.0,-27.68731006063029,-51.130177492234886,7.8690734
53967,1577395970.09,-2.3532608117675777,-2.931340802612304,8.666591024475096,-0.9586733818240276,-2.221118398675685,7.348739217618617,-1.578747975667317,8.7631771097819,11.44508200276693,2.3136138916015625,4.708290100097656,-1.403045654296875,6.918186094702744,-3.511568395102896,-3.584140684546494,5.220140729631696,-4.079909551711309,4.714602515811012,24.811763612544866,-15.571143216902144,2.736678685897437,67.76799721659921,-6.115354660915408,-68.55021367521368,33.939167939617214,36.81453859286549,36.52700152754066,1577395970.0,-27.68731006063029,-51.130177492234886,7.8690734
53968,1577395970.1,-0.9777919580078124,-1.1105504400634765,7.373722127990722,-4.650532341784965,0.7644510715391575,5.37352284798971,-4.205187196858724,-1.0458670918782549,7.2959305257161455,1.8253326416015625,2.923011779785156,-2.196502685546875,4.781955625952744,-5.647798863852897,-3.187412168921494,5.616869245256696,-11.06843494233631,-11.947995140438987,24.73146664292498,-16.995333145277343,4.652353766025639,68.3480242071525,-6.033816598769869,-64.81111111111112,34.01105220594842,36.71869290442388,36.67077006020308,1577395970.0,-27.68731006063029,-51.130177492234886,7.8690734
53969,1577395970.11,-2.0731392175292966,-0.2881421697998046,9.052057491760252,0.0229492988400342,-1.9194489894959976,8.909758700040493,-1.3058089864095053,-0.9381280171712232,9.833784285481771,6.8607330322265625,0.3442764282226562,-1.280975341796875,3.530734922827744,11.854032190834603,-3.263706114233994,4.106249128069196,-6.94856189546131,2.654665992373512,24.811763612544866,-16.710495159602303,4.56113114316239,69.89476284862799,-4.810745666586787,-71.45840455840458,34.08293647227963,36.694731482313486,36.479078683319855,1577395970.0,-27.68731006063029,-51.130177492234886,7.8690734
53970,1577395970.12,-1.0484209069824215,-0.4844667059326171,11.822148812561034,3.1928722968869083,-0.0376064846131852,8.22741122689596,-0.5851542867024733,-8.8964543355306,3.848280135091145,5.2127838134765625,1.3513565063476562,-2.745819091796875,5.697482969702744,-10.927339879477897,-1.4784277939214938,2.7482169015066966,-3.1948997860863093,-3.128415062313988,25.614733308743727,-15.38125122645212,2.9191239316239352,67.76799721659921,-5.9522785366243305,-47.77742165242167,34.27462784916285,36.81453859286549,36.38323299487824,1577395970.0,-27.68731006063029,-51.130177492234886,7.8690734
53971,1577395970.13,0.1989581579589843,-2.196320892944336,8.829396737365721,-5.634549224109184,-1.23470731469131,2.943408162931117,0.1714134379069006,-2.72180825398763,12.417127876790367,0.9098052978515624,2.846717834472656,-2.745819091796875,8.871311094702744,2.073148401772104,-3.645175840796494,2.0157950265066966,-3.0728294735863093,2.822512672061012,24.329981794825542,-16.520603169152277,2.9191239316239352,70.86147449955017,-7.093811406661874,4.570014245014226,33.891245095396414,36.57492437176146,36.33531015065744,1577395970.0,-27.68731006063029,-51.130177492234886,7.8690734
53972,1577395970.14,-1.3441048120117185,-0.0020350714111328,8.009382668762207,0.7771228217892528,-0.719953957757717,12.662669802335412,-0.1170878621419271,3.646768162027995,4.155935048421224,0.0705718994140625,-0.9374618530273438,-3.600311279296875,-4.205471131859756,0.6845985970846034,-5.415195372046494,4.564012799944196,-17.58393787202381,-8.972531273251487,24.49057573406532,-17.47006312140241,3.6489049145299135,80.91527566914081,1.8753754293473928,-8.724572649572671,34.15482073861084,36.64680863809267,36.59888579387187,1577395970.0,-27.68731006063029,-51.130177492234886,7.8690734
53973,1577395970.15,0.6059724401855469,-0.2474407415771484,10.399993026428222,-5.5004739311404345,3.620733652105564,-3.398832034822789,-1.339327809651692,-6.329870155843099,7.966306990559896,7.318496704101562,0.1001358032226562,-2.532196044921875,7.131809141577744,-10.774751988852897,0.2915917373285062,1.2223379952566966,-13.66242908296131,2.273196265811012,23.84819997710623,-18.22963108320252,2.736678685897437,80.33524867858752,2.119989615784009,-4.985470085470089,34.08293647227963,36.57492437176146,36.52700152754066,1577395970.0,-27.68731006063029,-51.130177492234886,7.8690734
53974,1577395970.16,-1.711614766845703,-0.1588552801513671,6.650673226623534,-0.7719256523318402,-1.3376579860780289,8.94327752328268,0.9806535990397132,5.540581675211588,6.321490450032552,4.5719146728515625,1.2903213500976562,-2.593231201171875,-5.410915467797256,13.273099573647103,-5.384677793921494,1.8021719796316968,-21.38337634858631,-5.691891624813988,24.65116967330509,-16.520603169152277,4.013795405982902,67.96133954678365,-8.316882338844954,-4.985470085470089,34.17878216072124,36.52700152754066,36.52700152754066,1577395970.0,-27.68731006063029,-51.130177492234886,7.8690734
53975,1577395970.17,0.3450044592285156,-3.3287782781982416,9.705674544982909,1.9167628120236275,-4.36392888451553,12.309525057462364,-2.1749041890462237,-14.249889247639972,9.53450907796224,-2.355575561523437,0.9241104125976562,-3.585052490234375,0.204318907202744,3.660062464272104,-1.7836035751714938,0.7645743233816966,-26.05256580171131,-4.989987327938988,24.41027876444543,-15.855981202577183,2.8279013087606826,69.31473585807468,-7.909192028117261,-0.4154558404558628,34.15482073861084,36.81453859286549,36.52700152754066,1577395970.0,-27.68731006063029,-51.130177492234886,7.8690734
53976,1577395970.18,-0.0380678063964833,-0.1540668768310546,9.585964461975095,-0.8617082145877001,-1.186823281488186,9.234173024991662,-0.8341512593587234,1.9373081766764315,10.121088484700524,-2.691268920898437,2.327919006347656,-3.752899169921875,-5.075222108422256,-0.1393760122903964,-3.355258848608994,-0.6850106375558034,-22.72614978608631,-1.846676781063988,22.88463634166759,-15.571143216902144,3.466459668803423,67.86466838169143,-5.259205008387251,-55.04789886039889,34.08293647227963,36.76661574864468,36.45511726120945,1577395970.0,-27.68731006063029,-51.130177492234886,7.8690734
53977,1577395970.19,-0.7587225061035155,3.18823864074707,13.929046273498534,-1.0496530449099652,1.9543692966368136,10.542604232267053,0.3126713358561194,-4.15832925008138,10.389239070638023,3.3512115478515625,2.053260803222656,-2.715301513671875,5.911106016577744,0.0284706673971036,0.9629784560785062,-1.7073495047433034,-13.14363025483631,-2.182370140438988,22.88463634166759,-15.571143216902144,3.466459668803423,68.54136653733694,-8.07226815240834,-63.5647435897436,34.08293647227963,36.57492437176146,36.52700152754066,1577395970.0,-27.68731006063029,-51.130177492234886,7.8690734
53978,1577395970.2,-0.8257601525878905,2.704609905395508,7.613142294006347,-1.4135716972537151,-4.773337368402248,-1.4331924718345073,3.669342063395181,0.0387062601725253,12.67091325276693,0.7266998291015625,7.302284240722656,-4.729461669921875,-3.427272889672256,4.606107386147103,-0.5323828720464938,-3.2027108328683034,-10.85481189546131,-4.440670921688988,24.329981794825542,-17.659955111852437,4.013795405982902,68.54136653733694,-8.07226815240834,-63.5647435897436,34.08293647227963,36.57492437176146,36.38323299487824,1577395970.0,-27.68731006063029,-51.130177492234886,7.8690734
53979,1577395970.21,-1.5763423730468749,-1.475666193237304,6.645884823303222,2.61108129346894,-1.5339825222108414,14.524161593106896,-1.799014528401692,-11.041659023030595,4.331908870442708,-14.638900756835938,-3.790855407714844,-2.532196044921875,-5.777126405297256,-2.290865270102896,-1.5699805282964938,-6.437574114118304,-10.54963611421131,0.4421415783110119,24.329981794825542,-16.140819188252223,4.56113114316239,67.18797022604589,-6.359968847352024,-78.105698005698,33.98709078383802,36.81453859286549,36.479078683319855,1577395970.0,-27.68731006063029,-51.130177492234886,7.8690734
53980,1577395970.22,-1.3165714929199217,-2.9911958441162105,6.722499276428222,-6.107404051990043,-4.069442080316311,1.8121478785072889,-0.9550584431966144,4.542199582926432,5.848635622151693,-8.337020874023438,-3.531455993652344,-1.494598388671875,-2.252346131859756,-7.845064488852897,0.3678856826410062,-4.133496965680804,-5.468459356398809,-1.739865257626488,24.97235755178464,-18.79930705455259,5.108466880341885,60.22764633940623,-4.810745666586787,-88.07663817663818,34.03501362805883,36.57492437176146,36.52700152754066,1577395970.0,-27.68731006063029,-51.130177492234886,7.8690734
53981,1577395970.23,0.0050278234863281,-2.428558453979492,5.800731637268066,4.682065729504096,0.2975817478086887,15.819424691251427,-2.328133095296223,-11.611479018147785,9.323819331868489,-6.5670013427734375,-2.799034118652344,-1.219940185546875,-8.462673280297256,-4.671236363852897,0.8103905654535062,-5.857740129743304,-4.934401739211309,-2.212887718563988,24.97235755178464,-18.79930705455259,5.108466880341885,55.394088084795335,-7.909192028117261,-71.87386039886043,34.08293647227963,36.71869290442388,36.38323299487824,1577395970.0,-27.68731006063029,-51.130177492234886,7.8690734
53982,1577395970.24,-0.7228094812011718,3.4492066217041017,10.90516957672119,-1.7918555595584027,1.30554064673447,7.003974178556116,-1.818168141682942,-7.75920854695638,16.88470817464193,0.4825592041015625,-3.470420837402344,-0.548553466796875,-4.892116639672256,-5.281587926352897,5.082851502953506,-9.763990129743304,7.547287713913691,6.820315406436012,24.65116967330509,-15.00146724555207,2.5542334401709463,67.76799721659921,-7.419963655244028,4.570014245014226,34.17878216072124,36.81453859286549,36.57492437176146,1577395970.0,-27.68731006063029,-51.130177492234886,7.8690734
