,timestamp,acc_x_dashboard,acc_y_dashboard,acc_z_dashboard,acc_x_above_suspension,acc_y_above_suspension,acc_z_above_suspension,acc_x_below_suspension,acc_y_below_suspension,acc_z_below_suspension,gyro_x_dashboard,gyro_y_dashboard,gyro_z_dashboard,gyro_x_above_suspension,gyro_y_above_suspension,gyro_z_above_suspension,gyro_x_below_suspension,gyro_y_below_suspension,gyro_z_below_suspension,mag_x_dashboard,mag_y_dashboard,mag_z_dashboard,mag_x_above_suspension,mag_y_above_suspension,mag_z_above_suspension,temp_dashboard,temp_above_suspension,temp_below_suspension,timestamp_gps,latitude,longitude,speed
61328,1577399618.68,-2.4662028954482658,4.500281588819549,11.54530756657298,-2.749302642971132,3.467125177299685,16.60775938422971,2.573270425787204,-0.5485641559879951,10.485406170654295,5.022560677877286,1.651298709032012,3.1820157679115857,-2.602367866330031,-8.991892744855184,2.0078333412728657,-11.776621748761432,-42.56271734470275,-3.728727015053354,-29.52948050213675,-11.96340625,-1.4277922309172344,4.226156355663567,2.29121464473027,-36.997621744241336,27.18204690448378,34.72989486926049,41.03174888429628,1577399618.0,-27.686665916779507,-51.12507562835812,7.503947
61329,1577399618.69,-1.331351308534203,-0.417408621141387,9.895702622725324,4.66793410019293,-3.604149425971799,9.305444320753145,7.319775217046969,6.162383097429974,1.197100830078125,-4.010642447122714,-18.185127072217988,-0.1749178258384145,7.895679008669969,0.209157059832317,-1.4559117759146345,-7.519419600323933,-20.086521055640244,12.933870641196648,-29.17688969017094,-9.918379540598291,-2.329555745180745,-9.230503971189066,3.849240603146854,-41.64370740437448,27.229969748704587,34.753856291370894,41.12759457273789,1577399618.0,-27.686665916779507,-51.12507562835812,7.503947
61330,1577399618.7,1.019754721739233,-3.467621536180449,7.592480625655011,3.7533490660132425,-2.4309906124952354,6.501834176710174,-8.560964394769437,-7.020091243390339,5.468356591796875,-1.996482290872713,-14.004218869092988,0.5575040491615855,-0.9544186475800304,-12.119944502667684,2.2977503334603657,-10.418589522198932,-3.729099180640244,2.618929234946646,-28.47170806623932,-11.554400908119655,-2.0289679070929103,-9.230503971189066,2.016268887362638,-36.92387435281065,27.08620121604217,34.8017791355917,41.12759457273789,1577399618.0,-27.686665916779507,-51.12507562835812,7.503947
61331,1577399618.71,-1.4247251732802977,1.347118002393768,7.047799747969464,-2.483546258693788,2.575285058891482,13.368404538038302,1.212166781988376,10.165488273211222,8.473079675292968,-1.5539774080602136,-7.565009884717988,2.1596769007240857,-1.3206295850800305,-16.758616377667682,2.3893030678353657,4.290883134051067,13.910060975609756,3.595491734946646,-28.73615117521368,-10.83864155982906,-1.6532331094831136,-5.943380837912087,3.48264625999001,-36.03890565564243,27.08620121604217,34.562164914487674,41.07967172851709,1577399618.0,-27.686665916779507,-51.12507562835812,7.503947
61332,1577399618.72,0.2392449805282958,2.867436056592987,6.771269456221417,-2.5266418885766004,1.040601794731326,7.597181436231659,-0.7786118984315454,-7.439076533917682,10.378864196777345,13.048683724752289,-17.727363400342988,2.8463224085365857,2.967090141482469,-3.208811690167683,-0.8608190024771343,-2.743418623761433,6.845241639672256,0.6505454458841466,-28.64800347222222,-11.758903579059828,-1.8786739880489929,-9.435949167018878,3.116051916833167,-38.25132739856297,27.373738281367,34.72989486926049,41.07967172851709,1577399618.0,-27.686665916779507,-51.12507562835812,7.503947
61333,1577399618.73,-0.4095836693740469,-0.7071070220202932,10.262015476729228,2.1612049620093363,1.129187256157107,6.638303671339081,-0.8037510158631852,10.299563566179971,5.396530541992187,-5.353415884622714,-9.853828244092988,-0.5106111852134145,-1.5037350538300305,-4.429514815167683,-1.4864293540396345,5.328480790301067,-5.804294493140244,-1.2873207650533538,-28.47170806623932,-8.282358173076922,-3.8324949356199385,-14.777524258593967,-3.665943431568431,-2.852579511834319,27.229969748704587,34.753856291370894,41.12759457273789,1577399618.0,-27.686665916779507,-51.12507562835812,7.503947
61334,1577399618.74,2.654994455625953,-1.4110023101062306,9.378555064131572,1.6847588316382427,-0.6880118039014858,8.199323153760956,-2.182811172113185,-4.108742024640339,2.456450903320313,-1.5082010408727131,-8.175361447217988,1.8392423304115848,-3.884106147580032,-4.032786299542683,1.9620569740853653,-2.758677412823933,2.038723084984756,4.907747594321647,-29.17688969017094,-11.554400908119655,-2.0289679070929103,-14.777524258593967,-2.5661604020979016,0.6872952768385466,27.3258154371462,34.753856291370894,41.03174888429628,1577399618.0,-27.686665916779507,-51.12507562835812,7.503947
61335,1577399618.75,1.917580344297827,0.7892690155773624,10.77916303532298,1.6536342100562114,1.6391522097703883,10.232000363233617,0.299975949468845,-10.003266511945023,9.66539210205078,-0.0280985018102137,-7.183540158155488,-0.5411287633384144,0.0831790086699695,-0.8284405964176829,-0.5709020102896342,-5.261118819073933,5.700832459984756,-7.634977015053353,-29.000594284188036,-10.531887553418802,-2.4798496642246657,-8.819613579529443,-2.749457573676323,-3.8850429918639056,27.229969748704587,34.753856291370894,41.27136310540031,1577399618.0,-27.686665916779507,-51.12507562835812,7.503947
61336,1577399618.76,3.832941672422828,-0.0870087920398245,8.044984739424542,2.364712103122618,-0.4641539486768768,3.70181533515744,2.427224124517673,3.787335050554973,4.997895965576172,-1.0504373689977131,-10.281074337842988,1.3204435022865857,-1.9309811475800305,-2.3085431354801838,-1.2880650962271345,3.909413407488567,21.41738519435976,3.671785680259146,-29.353185096153844,-11.349898237179486,-1.578086149961158,-7.484219806635671,-3.390997674200799,-3.6638008175718513,27.038278371821367,34.58612633659808,41.031748884296285,1577399618.0,-27.686665916779507,-51.12507562835812,7.503947
61337,1577399618.77,0.940746066954077,4.366206295850799,9.93640405094798,-2.9599923890648823,4.8737186526414815,10.67492767036252,0.4603874606993137,4.235050761004192,4.817133740234374,7.708107552877286,-2.346504025342988,-1.5787264195884143,2.158374321169969,-9.586985518292684,0.6498011147103658,-2.209361006573933,37.95791253810975,-7.909635218178353,-27.76652644230769,-10.736390224358974,-2.329555745180745,-2.450812508805297,-4.032537774725275,-4.032537774725275,27.08620121604217,34.70593344715009,41.65474585916674,1577399618.0,-27.686665916779507,-51.12507562835812,7.503947
61338,1577399618.78,0.6294998511337645,4.229736801221893,9.270815989424545,-1.9879465150414437,2.371777917778201,6.485074765089081,-5.987197610101467,2.54474438893388,11.264718811035156,5.724464974752286,-0.5764844940929879,0.4659513147865854,1.3954348680449695,5.732838700457317,-2.0662633384146343,15.368763993426068,48.57802972560975,-5.651334436928353,-29.353185096153844,-10.122882211538462,-2.479849664224669,-2.450812508805297,-4.032537774725275,-4.032537774725275,27.038278371821367,34.70593344715009,41.07967172851709,1577399618.0,-27.686665916779507,-51.12507562835812,7.503947
61339,1577399618.79,0.2440333838486088,-1.9161788603991996,7.512274870039776,1.055083795017149,-1.1261507077100794,9.48740364692502,5.109927084722751,-6.70645082590987,12.363657373046877,-3.4613260408727133,7.586967654344512,-0.4800936070884145,-0.0388913038300304,2.986256669207317,-0.5098668540396342,8.166615555926068,25.41518792873476,-13.280728968178352,-29.353185096153844,-10.122882211538462,-2.479849664224669,-2.450812508805297,-4.032537774725275,-4.032537774725275,27.229969748704587,34.8017791355917,41.07967172851709,1577399618.0,-27.686665916779507,-51.12507562835812,7.503947
61340,1577399618.8,2.1258758887314206,-4.4444558135242,7.781622556807354,-0.6663471986351936,-0.0703077755811732,8.778719955518769,0.0007007419493139,2.15448951832841,0.0167594116210937,-15.363181509622711,9.524833865282012,0.7711270960365855,-2.3887448194550305,-3.605540205792683,1.2906702553353655,3.924672196551067,18.18252191310976,5.029817906821647,-29.52948050213675,-11.145395566239314,-2.630143583268586,-4.916154858763031,1.0997830294705304,-4.032537774725275,27.08620121604217,34.753856291370894,41.12759457273789,1577399618.0,-27.686665916779507,-51.12507562835812,7.503947
61341,1577399618.81,1.9738440833114992,5.637527377393768,10.26081837589915,-0.0127301454125374,5.814639905082888,13.064340927198458,-1.0838726101014664,-1.5517346515934638,8.614337573242187,6.197487435689786,-10.754096798780488,-2.6468416539634143,1.3343997117949695,-3.575022627667683,-0.0521031821646341,1.7579241496760671,17.419582459984756,-2.416471155678354,-29.00059428418804,-10.122882211538462,-2.479849664224669,-7.792387600380388,0.0,-3.737548209002536,27.253931170814987,34.70593344715009,41.03174888429628,1577399618.0,-27.686665916779507,-51.12507562835812,7.503947
61342,1577399618.82,4.429097885801734,-0.7741446685046682,6.09849878971751,3.584557848972227,2.9822993411180443,6.401277706983612,1.28638703345322,-3.702924843243854,4.7955859252929685,21.257912240377287,-11.623847775342988,-2.0975252477134143,-5.425243842892531,4.893605302019816,-3.1038609946646343,7.983510087176068,44.22927484279725,-11.251310022865852,-28.64800347222222,-9.304871527777776,-2.479849664224669,-9.230503971189066,-1.832971715784216,-3.8850429918639056,27.18204690448378,34.8497019798125,41.031748884296285,1577399618.0,-27.686665916779507,-51.12507562835812,7.503947
61343,1577399618.83,3.2104492407822027,-0.896248953172637,10.68339496891673,3.583360748142149,1.9503984255907008,11.024481112745336,1.0062654392149388,9.64355231129716,-3.404554760742187,-7.367576040872714,2.2616502715320124,-2.8909822789634143,0.3578372117949695,4.451100419207317,0.1004847084603658,12.011830399676068,49.24941644435975,-6.048062952553353,-27.9428218482906,-11.349898237179486,-3.0810253404003385,-7.9978327962102,-3.849240603146853,-1.8201160318047327,27.18204690448378,34.70593344715009,40.79213466319226,1577399618.0,-27.686665916779507,-51.12507562835812,7.503947
61344,1577399618.84,4.424309482481421,-2.8547059111804494,9.663465061690168,4.670328301853086,-3.1779815304639865,5.738083847120331,2.004647531500095,-5.861297639874714,6.011840368652344,-9.412253775247711,14.346611209032012,0.1302579554115854,-7.271557319455031,10.981862137957316,0.5277308022103658,6.274525712176067,54.34585199123475,5.060335484946647,-28.47170806623932,-10.736390224358974,-3.531907097532104,9.875899240983376,0.3665943431568428,1.867253539729502,27.229969748704587,34.70593344715009,41.07967172851709,1577399618.0,-27.686665916779507,-51.12507562835812,7.503947
61345,1577399618.85,1.420783499815406,3.3486705902843936,11.650652439619854,0.2458436338843365,2.70457194853992,8.498598361280488,2.53137189673447,-2.1143720417301823,17.978060266113282,-6.711448111185214,5.420219607469512,-1.8839022008384143,-6.813793647580031,-4.246409346417683,0.4056604897103658,9.600941727801068,45.25161370998475,-10.747769983803352,-29.353185096153844,-10.122882211538462,-3.0810253404003385,-4.299819271273597,2.016268887362638,0.8347900596999165,27.206008326594183,34.94554766825411,41.03174888429628,1577399618.0,-27.686665916779507,-51.12507562835812,7.503947
61346,1577399618.86,0.9622938818954831,-2.6176799468249805,8.183848435713605,-0.4939646791039447,0.3570572207567165,12.991317776563694,-1.9745156276795923,5.962467258806926,19.47323920288086,-10.938132681497711,5.649101443407012,1.0763028772865857,-0.2067379835175304,6.388966630144816,0.2530725990853656,4.824940751238567,-4.934543516577744,-13.509610804115852,-29.353185096153844,-10.122882211538462,-3.0810253404003385,-4.0943740754437865,2.0162688873626373,0.9822848425612852,27.08620121604217,34.7778177134813,41.05571030640668,1577399618.0,-27.686665916779507,-51.12507562835812,7.503947
61347,1577399618.87,0.5313375830673583,-2.7349958281726368,10.338629929854228,0.7366549742163678,-2.3112805294874232,8.412407101514862,4.920785153570407,20.031993314715127,15.923835241699216,-13.440574087747711,7.144462771532012,-1.9144197789634143,-2.1751217725800305,4.176442216082317,-1.3033238852896345,-0.8055524128239329,-36.35239019626525,11.713167516196648,-28.64800347222222,-10.940892895299145,-2.780437502312504,10.286789632642996,1.832971715784216,0.6872952768385466,27.18204690448378,34.70593344715009,40.88798035163387,1577399618.0,-27.686665916779507,-51.12507562835812,7.503947
61348,1577399618.88,-0.3257866112685782,2.953627316358612,16.54440063297923,5.091707794040587,5.407625622856326,14.419459066846896,-1.8308635280702164,-12.8667316974919,9.952696301269532,-13.593161978372711,13.827812380907012,-1.1209627477134143,-9.804516303830033,14.796559403582316,-2.9817906821646343,-21.13025944407393,-32.23251714939025,18.884798375571645,-29.17688969017094,-12.372411591880342,-3.531907097532104,9.875899240983376,5.132320804195805,3.3422013683431966,27.3258154371462,34.70593344715009,41.12759457273789,1577399618.0,-27.686665916779507,-51.12507562835812,7.503947
61349,1577399618.89,-0.0779867394424067,-0.8723069365710749,6.240953788496808,0.8767157713355083,0.7652686038133576,9.6909107880383,3.943950876226657,-0.173871596173542,6.208164904785156,-3.003562368997712,10.089409060594512,0.7100919397865857,-4.479198921017531,-0.1112775104801828,0.0241907631478655,-6.451304365948932,-35.13168707126525,0.2843345083841463,-29.70577590811965,-10.327384882478633,-2.3295557451807483,9.875899240983376,3.665943431568432,3.3422013683431966,27.229969748704583,34.89762482403331,41.00778746218589,1577399618.0,-27.686665916779507,-51.12507562835812,7.503947
61350,1577399618.9,-0.1103084618545156,1.701459848096893,12.39285495426829,-0.1755358583031624,4.191371179496951,14.644514022901584,-11.905664114007717,2.05872145192216,11.575965026855467,-0.1043924471227134,5.282890505907012,0.5269864710365855,-1.1985592725800305,-3.269846846417683,2.4503382240853657,-12.737925459698932,-23.901218321265244,15.192171422446648,-29.70577590811965,-9.71387686965812,-2.780437502312504,9.875899240983376,2.1995660589410586,3.0472118026204567,27.18204690448378,34.8017791355917,41.03174888429628,1577399618.0,-27.686665916779507,-51.12507562835812,7.503947
61351,1577399618.91,0.2200913672470458,2.1587523651867366,11.878101597334698,5.295214935153868,-4.513946056831174,11.232776657178928,2.026195346441501,-21.30629254954268,10.606313354492189,-1.5387186189977131,-8.114326290967988,-1.3345857945884143,4.691333305544969,12.294117997332316,-3.0428258384146343,-10.266001631573932,-11.877292540015244,2.344271031821646,-29.353185096153844,-10.940892895299145,-2.780437502312504,9.875899240983376,2.1995660589410586,3.0472118026204567,27.18204690448378,34.562164914487674,41.07967172851709,1577399618.0,-27.686665916779507,-51.12507562835812,7.503947
61352,1577399618.92,1.1466474097275146,-3.048636245653105,7.3315126446979795,1.73743126816168,-1.899477843940548,0.5881560761242369,-4.588983840570217,1.0986465861995036,4.007893579101562,-13.806785025247711,-3.292548947217988,1.2899259241615857,-5.532055366330031,5.488698075457317,1.9315393959603653,-10.845835615948932,-11.968845274390244,-13.189176233803352,-29.70577590811965,-10.531887553418803,-3.381613178488186,-5.7379356420822765,3.2993490884115886,-39.431285661453934,27.229969748704587,34.94554766825411,41.12759457273789,1577399618.0,-27.686665916779507,-51.12507562835812,7.503947
61353,1577399618.93,1.2639632910751708,3.340290884473846,10.783951438643292,-0.6220544679223041,3.110389129936404,12.00370959174924,1.270824722662205,2.3939096843440337,10.605116253662109,4.381691537252286,-4.131782345655488,-3.3792635289634143,-1.1680416944550305,-3.1782941120426838,-0.8455602134146338,2.963368485613568,11.438137147484756,6.509920445884147,-29.6176282051282,-10.634138888888888,-3.156172299922304,1.7608140057058326,4.490780703671328,-39.357538270023255,26.990355527600563,34.8257405577021,41.0796717285171,1577399618.0,-27.686665916779507,-51.12507562835812,7.503947
61354,1577399618.94,-1.0057398827529531,1.1986774994640803,9.122375486494857,0.9234027037085554,-1.2123419674757043,6.652668881300018,-6.003957021722561,-6.095929402570026,8.456320263671875,0.1397481778772865,3.634941287157013,1.9918302210365848,-8.278637397580031,7.350270341082317,-3.3480016196646343,-2.880747725323933,6.311184022484756,-15.416959436928352,-30.23466212606837,-9.918379540598291,-3.8324949356199385,-9.8468395586785,1.832971715784216,-35.59642130705832,27.038278371821367,34.89762482403331,40.93590319585468,1577399618.0,-27.686665916779507,-51.12507562835812,7.503947
61355,1577399618.95,1.0748213599228271,-2.8834363311023243,8.969146580244855,-1.839506012111756,-2.2155124630811733,7.447543832471894,9.350058224859469,21.43260128590653,-0.7015010864257812,-22.56532994712272,10.776054568407012,-2.7383943883384143,3.440112602419969,-3.178294112042683,1.5348108803353655,0.9034319621760672,20.13564691310976,3.870149938071646,-29.70577590811965,-10.940892895299145,-3.982788854663856,-7.176052012890954,2.016268887362638,-34.26896826130599,27.038278371821367,34.8017791355917,41.03174888429628,1577399618.0,-27.686665916779507,-51.12507562835812,7.503947
61356,1577399618.96,-0.3317721154189692,-1.4002284026355276,7.908515244795636,5.278455523532774,-1.9689096920850797,8.055671054151581,-8.297602212152249,-10.343243147687213,10.998962426757812,-4.010642447122714,15.33843249809451,0.1149991663490854,-0.8628659132050305,1.4603777629573171,-2.4935094321646343,-2.911265303448933,28.34487542873476,16.718050328696645,-28.20726495726496,-10.83864155982906,-2.705290542790545,-7.381497208720765,1.832971715784216,-37.07136913567202,27.110162638152573,34.8017791355917,41.07967172851709,1577399618.0,-27.686665916779507,-51.12507562835812,7.503947
61357,1577399618.97,0.0261610327743895,6.724494931104706,7.2548981915729795,-4.276803302150819,2.509444513237185,12.486141226270725,0.7476916599180639,-6.182120662335651,12.075156072998046,3.5271993497522867,-9.884345822217988,-4.020132669588414,-0.6187252882050309,1.1704607707698171,-1.2728063071646345,-1.7668561237614329,7.623439881859758,-17.064908655678355,-28.1191172542735,-10.736390224358974,-2.930731421356421,-12.723072300295856,2.749457573676324,-17.897047363693996,27.08620121604217,34.753856291370894,41.07967172851709,1577399618.0,-27.686665916779507,-51.12507562835812,7.503947
61358,1577399618.98,-0.4766213158584219,2.821946225050018,9.926827244307354,0.4278029600562116,-2.917013549506956,6.561689218214081,-3.648062588128811,14.62349176442216,14.26944189453125,4.442726693502286,-4.086005978467988,-2.0670076695884143,3.165454399294969,16.566578934832318,-6.033548494664634,-0.0731305378239328,-13.799899961890244,-6.048062952553353,-28.1191172542735,-10.736390224358974,-2.930731421356421,-12.928517496125668,2.016268887362638,-2.115105597527472,27.18204690448378,34.70593344715009,41.22344026117951,1577399618.0,-27.686665916779507,-51.12507562835812,7.503947
61359,1577399618.99,0.816247580625952,-4.652751357957793,7.288417014815167,1.9553036192358988,-6.271290075385862,4.272832431104705,-2.2187241970155287,-5.238805208234089,12.835315100097656,-4.102195181497714,0.6747362090320121,-2.8604647008384143,-12.795238960080033,4.206959794207317,-3.9583531821646334,-10.143931319073932,-23.718112852515244,4.205843297446647,-29.00059428418804,-11.758903579059828,-3.0810253404003385,-9.641394362848688,-2.3828632305194803,-2.70508472897295,26.990355527600563,34.70593344715009,41.07967172851709,1577399618.0,-27.686665916779507,-51.12507562835812,7.503947
61360,1577399619.0,-0.1905142174697504,-0.8052692900867,10.55530518009837,0.8419998472632428,-0.1732584469678919,11.943854550245334,-1.1149972316834975,-6.095929402570026,11.473014355468749,-9.198630728372716,12.683403201219512,-1.0904451695884143,-4.463940131955031,-2.567942549542683,1.2296350990853655,-19.17713444407393,-40.13656988376525,6.586214391196647,-29.000594284188036,-11.554400908119655,-3.081025340400345,-9.641394362848688,-3.1160519168331664,-2.70508472897295,27.110162638152573,34.70593344715009,40.93590319585468,1577399619.0,-27.68672939072541,-51.12504952851886,7.340994
61361,1577399619.01,-0.3305750145888907,1.7445554779797057,9.230114561201887,-2.418902813869569,3.389313623344607,8.284317312696503,1.0733030856993129,3.0918194682795828,11.653776580810549,-9.412253775247711,-3.689277462842988,-5.301870950838414,-1.3511471632050307,3.962819169207317,-4.141458650914634,-8.419688155011432,-36.96274175876525,11.331697789634148,-28.64800347222222,-12.167908920940173,-2.479849664224669,-7.997832796210199,-3.48264625999001,-2.70508472897295,27.038278371821367,34.8497019798125,41.07967172851709,1577399619.0,-27.68672939072541,-51.12504952851886,7.340994
61362,1577399619.02,-2.0232755883193594,5.072495785596893,13.982604856612042,-1.7772567689476937,-0.3671887814405482,22.2939883271008,-0.5068700100038103,-7.403163509015338,13.256694592285156,12.865578256002289,-2.590644650342988,-3.8370272008384143,1.2428469774199695,-10.929758955792684,-3.0428258384146343,-11.151011397198932,-36.81015386814025,-1.8061195931783536,-28.64800347222222,-12.167908920940173,-2.479849664224669,-9.641394362848688,-3.1160519168331664,-3.8850429918639056,27.038278371821367,34.70593344715009,41.12759457273789,1577399619.0,-27.68672939072541,-51.12504952851886,7.340994
61363,1577399619.03,-1.7263945824599842,0.3966199433117369,13.321805198408915,-2.404537603908631,0.4612049929735132,15.530368637159397,-1.538770925531154,-7.927493672589557,10.881646545410156,-5.353415884622714,-8.877265744092988,-4.325308450838414,2.982348930544969,9.120289872332316,-5.056985994664634,-7.855112959698933,-41.17416754001525,-13.891080530678352,-28.64800347222222,-12.167908920940173,-2.479849664224669,-3.067148096294731,-3.849240603146853,-3.5900534261411665,27.18204690448378,34.70593344715009,40.93590319585468,1577399619.0,-27.68672939072541,-51.12504952851886,7.340994
61364,1577399619.04,-0.6813255578017817,-3.77407934868045,9.876549009444073,2.344361389011289,-2.460918133247189,6.599996444776581,-6.636026260003812,12.76439417531083,0.7541735229492187,-12.158835806497711,5.481254763719512,-3.0435701695884143,0.0526614305449695,0.2549334270198162,-1.3948766196646345,0.4304095012385676,0.3449974990472562,6.082674352134146,-28.29541266025641,-10.940892895299145,-2.780437502312507,-4.813432260848126,-2.2912146447302697,-2.483842554680896,27.134124060262977,34.873663401922904,41.03174888429628,1577399619.0,-27.68672939072541,-51.12504952851886,7.340994
61365,1577399619.05,2.109116477110327,4.373388900831268,13.199700913740948,-2.4284796205101937,7.232007287895388,11.204046237257051,11.691587448492282,-20.877730452374717,9.076418493652342,7.952248177877286,-6.588447384717988,-1.9449373570884143,0.4493899461699695,-5.619700362042683,-4.599222322789634,-5.688364912823933,15.496975038109756,-9.099820765053352,-27.590231036324784,-10.122882211538462,-3.0810253404003385,-9.8468395586785,-2.5661604020979016,-4.032537774725275,27.373738281367,34.8017791355917,40.93590319585468,1577399619.0,-27.68672939072541,-51.12504952851886,7.340994
61366,1577399619.06,1.2591748877548583,5.604008554151581,8.875772715498762,2.4509033628882424,4.833017224418826,8.271149203565644,5.495393552007907,17.35527585866044,4.094084838867187,13.292824349752289,-9.335029415967988,-4.722036966463414,-0.3745846632050305,12.965504716082316,-6.704935213414634,5.999867509051067,8.935695741234756,-13.646939905678352,-29.00059428418804,-10.531887553418803,-3.0810253404003385,-12.723072300295856,-1.832971715784216,-4.032537774725275,27.3258154371462,34.70593344715009,41.12759457273789,1577399619.0,-27.68672939072541,-51.12504952851886,7.340994
61367,1577399619.07,-0.1845287133193594,-0.0774319853991995,8.246097678877668,1.198735894626524,1.234532129203982,9.010957516553924,-3.377517800531155,1.4649594402034098,14.099453576660157,11.065041146627289,-8.602607540967988,-5.515493997713414,-0.1304440382050304,2.803151200457317,-2.1272984946646343,5.297963212176067,20.04409417873476,3.626009313071646,-29.00059428418804,-10.531887553418803,-3.0810253404003385,-12.312181908636234,-1.832971715784216,-2.852579511834319,27.229969748704587,34.61008775870848,41.07967172851709,1577399619.0,-27.68672939072541,-51.12504952851886,7.340994
61368,1577399619.08,-1.8832147912002184,-0.8878692473620906,10.59241530583079,-1.7174017274437885,-1.0555217587354702,15.184406497266815,-3.697143722162015,-4.028536269025105,16.882713006591796,-7.672751822122712,13.217460818407012,-3.4708162633384143,-4.158764350705031,-2.949412276105183,-2.3104039634146343,-1.1412457721989329,-21.108859922827747,-15.050748499428352,-29.353185096153844,-10.327384882478633,-1.7283800690050724,2.377149593195266,-1.0081344436813184,-2.483842554680896,27.038278371821367,34.63404918081888,41.07967172851709,1577399619.0,-27.68672939072541,-51.12504952851886,7.340994
61369,1577399619.09,-0.0073577904677969,-0.9513155913562308,6.802394077803448,1.045506988376524,-1.140515917671017,5.673440402296112,-1.3208985744569353,3.229486063738567,10.17056865234375,-3.797019400247713,1.101982302782012,-1.1514803258384143,-2.7244381788300305,8.754078934832316,-5.179056307164634,-12.127573897198932,-34.52133550876525,2.222200719321646,-29.17688969017094,-9.918379540598291,-2.0289679070929103,11.314015611792057,0.9164858578921083,-2.70508472897295,27.229969748704587,34.70593344715009,41.12759457273789,1577399619.0,-27.68672939072541,-51.12504952851886,7.340994
61370,1577399619.1,-1.1972760155654532,1.0095355683117369,15.54123013737376,-3.31912263808832,-1.497251965034298,10.26073078315549,4.911208346929782,1.7570520427424725,10.876858142089842,-15.241111197122711,-6.741035275342988,-5.454458841463414,1.6395754930449695,-14.500315596417684,-2.6766149009146343,-33.276255537823936,-13.464206602515244,7.532259313071647,-29.88207131410256,-11.145395566239314,-2.930731421356421,9.875899240983376,-2.5661604020979016,-1.0826421174978862,27.08620121604217,34.70593344715009,41.12759457273789,1577399619.0,-27.68672939072541,-51.12504952851886,7.340994
61371,1577399619.11,1.2352328711532958,1.840323544385956,12.01816239445384,0.4206203550757428,6.406007715141482,16.342002999952363,-1.1054204250428727,-6.016920747784869,10.062829577636718,1.9402852872522869,-6.786811642530488,-2.5858064977134143,-5.104809272580031,-10.716135908917684,0.0699671303353658,-4.864390303448933,-10.259860899390244,5.975862828696647,-29.17688969017094,-11.349898237179485,-2.630143583268583,9.875899240983376,-4.032537774725275,-4.032537774725275,26.96639410549016,34.70593344715009,41.31928594962111,1577399619.0,-27.68672939072541,-51.12504952851886,7.340994
61372,1577399619.12,-4.206787502381859,-3.374247671434356,13.077596629072978,2.926152392429258,-0.8041305844190646,11.92589803779416,1.377366696539157,11.985081534929972,6.414066247558593,-20.91738072837272,-0.2102735565929878,-4.020132669588414,-0.7255368116425305,3.8712664348323167,-5.713113924352134,2.642933915301068,-2.111667540015244,-9.221891077553352,-29.88207131410256,-11.554400908119655,-3.231319259444269,9.875899240983376,-4.032537774725275,-4.032537774725275,27.038278371821367,34.8017791355917,41.05571030640668,1577399619.0,-27.68672939072541,-51.12504952851886,7.340994
61373,1577399619.13,2.2575569800400146,-2.229819277879668,4.45847065251048,3.126068231052305,2.096444726860232,9.657391964796112,-5.144438625726467,5.73621520192216,5.793968017578124,-0.6231912752477134,2.0785448027820124,0.0387052210365854,-4.982738960080031,-6.230051924542683,-0.3572789634146341,5.725209305926067,29.13833245998476,16.534944859946645,-29.17688969017094,-9.918379540598291,-4.433670611795614,10.286789632642996,-4.032537774725275,-3.4425586432797965,26.990355527600563,34.8017791355917,41.12759457273789,1577399619.0,-27.68672939072541,-51.12504952851886,7.340994
61374,1577399619.14,7.105815341856421,5.580066537550018,4.1232824200886045,4.143603936618711,4.962304114067263,6.6071790497570495,9.785802927007904,-32.68593304026534,16.800113049316405,27.208839974752287,-16.659248165967988,-5.393423685213414,-5.013256538205031,-0.9199933307926828,-2.4935094321646343,-3.338511397198933,21.50893792873476,-6.933072718178353,-29.00059428418804,-10.122882211538462,-2.780437502312504,1.6580914077909268,1.832971715784216,-4.032537774725275,27.18204690448378,34.94554766825411,41.65474585916674,1577399619.0,-27.68672939072541,-51.12504952851886,7.340994
61375,1577399619.15,0.5624622046493896,-1.5702167205066222,5.90696265690501,1.6727878233374611,-0.9513739865186732,9.343751547315645,3.68058869360947,-0.2181643268864327,37.34236329345703,10.729347787252289,-5.749213986280488,-3.5318514195884143,2.616137993044969,-1.4693097370426829,-3.4395543540396343,1.2696428996760671,-38.67172613376525,-28.936246546303355,-28.64800347222222,-10.122882211538462,-2.6301435832685867,1.6580914077909268,1.832971715784216,-4.032537774725275,27.206008326594183,34.61008775870848,40.79213466319226,1577399619.0,-27.68672939072541,-51.12504952851886,7.340994
61376,1577399619.16,2.307835214903296,-2.450085830614043,7.465587937666729,-2.9408387757836323,-1.2721970089796115,7.285935220411347,-2.6616515041444355,6.460461204119427,15.923835241699216,-0.7757791658727134,3.3297655059070124,-1.8533846227134143,3.6384768602324695,-13.645823408917682,-0.4183141196646343,-16.140635420636432,-82.02194586032775,-3.988126429115853,-28.64800347222222,-10.122882211538462,-3.982788854663856,10.389512230557902,1.008134443681319,-39.0625487043005,27.373738281367,34.753856291370894,41.36720879384191,1577399619.0,-27.68672939072541,-51.12504952851886,7.340994
61377,1577399619.17,1.840965891172827,4.857017636182831,25.42449459049876,-0.8866137513695687,2.335864892875857,18.353132394483616,8.856852682867281,14.345764371844036,5.456385583496093,-9.900535025247711,-11.044013790967988,-3.3182283727134143,5.332202446169969,5.732838700457317,-2.0967809165396343,-27.93567936594893,-104.52865972751523,26.727815953696645,-28.47170806623932,-9.918379540598291,-2.630143583268586,11.519460807621863,3.2993490884115886,-41.79120218723584,27.038278371821367,34.94554766825411,40.93590319585468,1577399619.0,-27.68672939072541,-51.12504952851886,7.340994
61378,1577399619.18,-0.1773461083388907,-0.6448577788562307,15.342511399580792,2.0869847105444927,-4.935325549018674,6.872935434034393,9.443432089605562,17.345699052019818,1.369483349609375,-20.18495885337272,-0.7595899628429879,-3.1961580602134143,-2.7549557569550305,5.885426591082317,-4.110941072789634,-36.083872725323936,-63.54355230564025,34.87600931307165,-30.23466212606837,-10.327384882478633,-2.329555745180745,-11.490401125316987,1.832971715784216,-32.3515360841082,27.18204690448378,34.753856291370894,41.07967172851709,1577399619.0,-27.68672939072541,-51.12504952851886,7.340994
61379,1577399619.19,-2.595489785096704,-0.029547952196075,13.929932420088605,-4.261240991359803,1.1974220034715606,16.01280027168088,7.0983115634825165,-3.892066774396198,9.891644158935549,-8.695090689310213,5.664360232469512,-2.1127840367759143,5.255908500857469,-15.415842940167684,-0.9676305259146344,-7.794077803448932,-22.695773985327747,5.472322789634148,-29.00059428418803,-9.71387686965812,-2.0289679070929103,-8.922336177444349,3.3909976742008,-34.195220869875314,27.206008326594183,34.8497019798125,41.03174888429628,1577399619.0,-27.68672939072541,-51.12504952851886,7.340994
61380,1577399619.2,-2.030458193299828,5.244878305128143,9.155894309737045,-5.552912787014101,1.2393205325242946,12.518462948682831,1.844236020269626,-13.209102534894244,14.518438867187498,6.548439584127286,-10.769355587842988,0.2218106897865854,8.963794243044969,10.768239091082316,-5.423196932164634,-4.955943037823933,-21.887058165015244,-15.172818811928352,-30.41095753205128,-12.167908920940173,-3.381613178488186,-9.025058775359255,5.865509490509491,-36.1864004385038,27.373738281367,34.46631922604607,41.12759457273789,1577399619.0,-27.68672939072541,-51.12504952851886,7.340994
61381,1577399619.21,0.097987082579077,-2.517123477098418,9.40728548405345,1.0790258116187117,-6.213829235542112,3.758079074171112,5.552854391851657,8.274068961687785,9.907206469726562,-2.2711404939977133,-23.220527462842988,-4.172720560213414,10.123462211794967,-2.049143721417683,1.3517054115853655,8.776967118426068,-30.370944883765244,-14.715055140053352,-28.824298878205127,-9.918379540598291,-2.0289679070929103,6.9996664993660165,1.0997830294705304,-40.61124392434488,27.08620121604217,34.8017791355917,40.93590319585468,1577399619.0,-27.68672939072541,-51.12504952851886,7.340994
61382,1577399619.22,0.3493782568954833,-0.350370974657012,9.577273801924544,2.532306219333555,0.5521846560594508,18.621282980421118,-4.490821572503811,1.5032666667659098,19.97482445068359,18.175636849752287,-5.367744259717988,0.6185392054115855,-0.3135495069550305,-21.64142887766768,2.7249964272103657,-6.390269209698933,-56.09726324314025,5.365511266196647,-27.9428218482906,-10.940892895299145,-1.8786739880489929,6.9996664993660165,1.0997830294705304,-40.61124392434488,27.08620121604217,34.753856291370894,41.03174888429628,1577399619.0,-27.68672939072541,-51.12504952851886,7.340994
61383,1577399619.23,-2.0807364281631093,-0.4868404692859182,10.578050095869854,-3.028227136379335,-0.6784349972608608,14.413473562696506,-0.3021657680604522,-5.560825331525105,20.408174951171876,-5.109275259622712,-6.252754025342988,-0.4037996617759145,35.63615752429497,-26.814158369855186,-2.7834264243521343,-22.56458561594893,-89.04098882907775,-2.3706947884908534,-27.9428218482906,-10.940892895299145,-1.8786739880489929,6.9996664993660165,1.0997830294705304,-41.201223055790365,27.18204690448378,34.753856291370894,41.07967172851709,1577399619.0,-27.68672939072541,-51.12504952851886,7.340994
61384,1577399619.24,-0.5747835839248282,2.611256478956268,14.41116695378001,-1.015900641018006,-0.8077218869092982,21.20941497505002,2.323076352300876,19.890735416765907,10.97502041015625,7.189308724752286,-16.506660275342988,0.4354337366615854,44.85246611804497,-31.10187809641768,-2.2188512290396343,-25.86048405344893,-110.08285894626523,9.912630406821648,-29.52948050213675,-8.691363514957265,-2.630143583268586,7.41055689102564,-1.832971715784216,-38.25132739856297,27.18204690448378,34.8017791355917,41.22344026117951,1577399619.0,-27.68672939072541,-51.12504952851886,7.340994
61385,1577399619.25,-4.225941115663109,0.2505736420422057,14.435108970381572,-5.469115728908632,0.0613733157274195,10.220029354932834,2.8737427341368136,8.860648368426066,7.769184387207031,4.442726693502286,-8.511054806592988,-0.7852693883384145,59.56193877429497,-130.4671124714177,-4.538187166539634,-15.972788740948932,-92.07748785251523,30.573030797446645,-29.353185096153844,-10.531887553418803,-1.8786739880489929,-3.2725932921245406,3.2993490884115886,-4.032537774725275,27.229969748704587,34.89762482403331,41.12759457273789,1577399619.0,-27.68672939072541,-51.12504952851886,7.340994
61386,1577399619.26,-0.9542645470595942,-0.5514839141101375,10.515800852705793,-7.746001507717225,-2.2346660763624238,5.481904269483612,3.704530710211032,-1.9300185138981516,5.686228942871093,2.703224740377288,-12.508857540967988,-0.5106111852134144,2.860278618044969,-20.42072575266768,-2.3714391196646343,-9.167368819073932,-42.05917730564025,15.558382359946648,-28.912446581196583,-9.611625534188033,-3.00587838087838,1.041755820301493,-1.649674544205794,-1.525126466081995,27.301854015035797,34.753856291370894,41.22344026117951,1577399619.0,-27.68672939072541,-51.12504952851886,7.340994
61387,1577399619.27,-0.6274560204482657,-0.4413506377429495,9.364189854170636,2.291688952487852,-2.0910139767530485,7.217700473096895,4.632283853521579,-4.818622816876667,1.061828436279297,15.184914193502289,-14.034736447217988,-1.0294100133384143,-1.5647702100800305,-2.5679425495426838,-7.986673494664634,-2.484019209698933,22.699123475609756,3.1224692740091475,-28.47170806623932,-9.918379540598291,-2.930731421356421,-0.293637952592279,-1.7413231299950045,0.3185583196851225,27.3258154371462,34.63404918081888,40.98382604007548,1577399619.0,-27.68672939072541,-51.12504952851886,7.340994
61388,1577399619.28,0.7563925391220457,-0.3168521514148245,8.303558518721417,-4.396513385158632,4.526559411918826,11.546417074659397,-0.0807021144959977,-11.298529610089558,1.85790048828125,7.921730599752286,-19.314277462842988,-0.5716463414634145,-13.588695991330033,32.038991044207314,0.3141077553353658,22.876088212176068,46.01455316310975,-29.973844202553355,-29.00059428418804,-9.304871527777776,-2.479849664224669,-2.861702900464919,-1.099783029470529,-45.33107697590871,27.038278371821367,34.70593344715009,40.93590319585468,1577399619.0,-27.68672939072541,-51.12504952851886,7.340994
61389,1577399619.29,4.242350156309547,4.021441256788299,10.161459007002666,-2.318346344143006,1.713372461235232,7.121932406690643,3.036548447027439,28.46437156178544,8.06367119140625,23.088966927877287,-33.87116222846799,-2.9825350133384143,2.310962211794969,13.301198075457316,-4.721292635289634,36.914174149676064,61.79214105373475,-14.226773890053352,-29.17688969017094,-9.918379540598291,-2.930731421356421,-7.381497208720765,-1.099783029470529,-48.280972633136095,27.229969748704587,34.70593344715009,40.93590319585468,1577399619.0,-27.68672939072541,-51.12504952851886,7.340994
61390,1577399619.3,1.111931485655249,-2.883436331102325,10.021398209883523,3.9041837706030864,-3.458103124702268,1.615268588331268,-4.110143508538967,-17.78442190745284,15.665261462402343,10.378395638814789,-7.885444455030488,-1.4566561070884143,21.07927275866997,-11.631663252667684,-3.4395543540396343,19.854847977801068,45.89248285060975,-12.914518030678352,-27.9428218482906,-9.304871527777776,-3.982788854663856,-15.393859846083402,-3.1160519168331664,-46.953519587383774,27.206008326594183,34.8017791355917,40.93590319585468,1577399619.0,-27.68672939072541,-51.12504952851886,7.340994
61391,1577399619.31,1.8194180762314207,-1.5881732329577931,10.795922446944072,-1.3163729493676155,-1.7929358700635958,9.522119570997283,3.582426425543064,7.088939139910442,17.093402752685545,1.1773458341272869,-1.919257931592988,0.7711270960365855,10.306567680544967,-6.214793135480184,-2.0815221274771343,21.899525712176068,18.716579530297253,-10.030606897865855,-27.590231036324784,-8.486860844017095,-3.982788854663856,-14.26391126901944,-34.0016253277972,-2.188852988958157,27.08620121604217,34.8257405577021,41.00778746218588,1577399619.0,-27.68672939072541,-51.12504952851886,7.340994
61392,1577399619.32,0.0812276709579833,1.5937207733898615,7.712190708662823,-1.647969879299256,-0.2594497067335169,11.752318417432834,-10.038186819085842,-18.904908284405963,26.307487841796878,11.278664193502289,4.397880740282012,-1.2125154820884143,14.060229789919967,-2.476389815167683,-4.568704744664634,-11.944468428448932,-43.58505621189025,-10.473111780678352,-28.824298878205127,-9.509374198717948,-2.930731421356421,-6.55971642540152,-4.032537774725275,-2.5575899461115803,26.89450983915896,34.46631922604607,41.07967172851709,1577399619.0,-27.68672939072541,-51.12504952851886,7.340994
61393,1577399619.33,-3.0958779320693592,2.034253878858612,17.186046677901103,-3.862606414943788,1.1148220461961695,17.73063996284299,7.8488937839415005,2.1592779216487226,17.793706738281248,11.858498177877289,-8.938300900342988,-2.0670076695884143,7.865161430544969,-46.269114424542686,0.1615198647103658,-3.185923506573933,-87.71347418064025,-34.18526998380335,-27.76652644230769,-9.509374198717948,-2.329555745180745,9.875899240983376,-4.032537774725275,-4.032537774725275,26.990355527600563,34.753856291370894,40.88798035163387,1577399619.0,-27.68672939072541,-51.12504952851886,7.340994
61394,1577399619.34,-0.1450243859267818,0.1512142731457218,10.54213707096751,2.364712103122617,6.666975696098513,18.932529196241425,11.586242575445407,29.479513065691688,17.228675146484374,9.523903451314789,-10.784614376905488,-0.8310457555259144,2.951831352419969,-21.24470036204268,-2.4324742759146343,-22.10682194407393,-101.66000738376523,11.133333531821648,-29.353185096153844,-10.531887553418803,-3.081025340400345,9.875899240983376,-4.032537774725275,-4.032537774725275,27.038278371821367,34.94554766825411,41.07967172851709,1577399619.0,-27.68672939072541,-51.12504952851886,7.340994
61395,1577399619.35,-2.174110292909203,-1.4469153350085744,7.283628611494854,0.9605128294409776,-1.3152926388624235,25.700937289503145,0.3394802768614236,-8.824122194318074,2.201468426513672,14.299904427877289,2.4752733184070124,-0.7242342320884145,38.88627959460747,-25.07465641673018,0.8176477943978657,-4.406626631573932,-67.81601324314025,23.630281774009145,-29.00059428418804,-10.122882211538462,-3.381613178488186,-5.943380837912087,-3.849240603146853,-2.7050847289729503,27.373738281367,34.70593344715009,40.91194177374428,1577399619.0,-27.68672939072541,-51.12504952851886,7.340994
61396,1577399619.36,-2.6170376000381093,1.3351469940929868,12.814234446455792,-6.110761773830507,4.5720492434617945,16.483260897901584,4.0947855808165015,1.4817188518245037,0.7350199096679687,1.4825216153772869,-12.875068478467988,1.6256192835365857,17.02043486804497,-84.62971012766768,-2.2798863852896343,4.718129227801067,4.327541444359756,7.867952672446647,-28.824298878205127,-10.736390224358974,-2.630143583268586,-9.8468395586785,-0.7331886863136862,-3.737548209002536,27.229969748704587,34.753856291370894,41.07967172851709,1577399619.0,-27.68672939072541,-51.12504952851886,7.340994
61397,1577399619.37,0.069256662657202,5.699776620557831,9.414468089033916,-0.2449677064476936,5.371712597953982,9.95427297065549,4.001411716070408,1.4745362468440348,13.95580147705078,19.640480599752287,-20.657050900342988,1.4119962366615857,-15.633373725705033,-9.464915205792684,-7.834085604039634,4.992787430926067,0.024562928734756,-0.4328285775533537,-27.76652644230769,-10.736390224358974,-2.630143583268586,2.068981799450549,2.1995660589410586,-4.032537774725275,27.08620121604217,34.70593344715009,40.74421181897145,1577399619.0,-27.68672939072541,-51.12504952851886,7.340994
61398,1577399619.38,0.8653287146591552,1.02030947578244,9.48270283634837,5.484356866306211,3.166652868950076,10.12665549018674,0.55854972876572,1.9773185954768475,15.346832641601562,21.822487435689787,-31.216132931592988,-0.8157869664634143,-18.86823700695503,36.250416825457314,-1.0286656821646345,1.9105120403010671,-3.423923399390244,-11.602262171303352,-28.912446581196576,-8.180106837606838,-3.0058783808783867,-16.010195433572836,4.032537774725275,-41.79120218723584,27.253931170814987,34.753856291370894,40.93590319585468,1577399619.0,-27.68672939072541,-51.12504952851886,7.340994
61399,1577399619.39,-1.082354335877953,-3.932096658250762,13.618686204268291,-1.2361671937523822,-1.7725851559522676,13.034413406446506,1.2911754367735324,2.702761698504192,10.86488713378906,-8.283103384622713,-10.250556759717988,0.9542325647865856,36.41435576648247,-55.30231754954268,-0.6929723227896343,3.131215165301067,-6.460422422827744,-6.7499672494283525,-28.1191172542735,-9.918379540598291,-3.531907097532104,4.328878953578471,2.749457573676324,-41.053728272929,27.038278371821367,34.8257405577021,41.22344026117951,1577399619.0,-27.68672939072541,-51.12504952851886,7.340994
61400,1577399619.4,0.2488217871689208,-5.292003201219512,13.053654612471416,-0.2258140931664436,-6.350298730171017,6.987857113721893,2.284769125738376,4.026755216570598,9.0021982421875,-6.482566275247714,-6.405341915967988,2.8158048304115857,-21.67585419445503,-4.124339033917683,-3.6226598227896334,19.885365555926068,-3.484958555640244,3.107210484946646,-28.1191172542735,-9.918379540598291,-3.531907097532104,-4.0943740754437865,5.865509490509491,-40.61124392434488,27.3258154371462,34.753856291370894,41.03174888429628,1577399619.0,-27.68672939072541,-51.12504952851886,7.340994
61401,1577399619.41,1.6458384558700927,2.8291288300304878,14.202871409346416,1.4118198423804302,3.6861946292039818,21.43207572944455,1.9136678684141573,14.736019242449505,10.326191760253906,11.400734506002289,-22.945869259717988,0.6948331507240856,-23.07966278820503,69.42302424733232,-2.0357457602896343,32.306019852801064,14.306789491234756,8.173128453696647,-30.23466212606837,-9.71387686965812,-2.630143583268586,-7.176052012890954,4.949023632617384,-41.64370740437448,27.27789259292539,34.70593344715009,40.88798035163387,1577399619.0,-27.68672939072541,-51.12504952851886,7.340994
61402,1577399619.42,0.9335634619736084,6.470709555128144,10.266803880049542,1.1771880796851175,6.536491705619999,13.403120462110566,4.124713101568454,-17.80477262156417,2.655169641113281,41.55210169350229,-19.649970822217988,2.8768399866615857,-6.981640327267532,34.053151200457314,-4.004129549352134,19.900624344988568,59.64065179592225,-1.5467201791158551,-28.47170806623932,-9.100368856837608,-2.329555745180745,-9.64139436284869,3.849240603146854,-38.69381174714708,27.18204690448378,34.8497019798125,41.12759457273789,1577399619.0,-27.68672939072541,-51.12504952851886,7.340994
61403,1577399619.43,1.505777658750952,0.3870431366711119,4.532690903975324,0.3320348936499616,-1.1237565060499233,0.0015766693859557,-2.0152170559022475,-0.7903785236637765,10.656591589355468,21.257912240377287,-15.346992306592988,-1.0599275914634143,14.243335258669967,2.192799637957317,-1.3643590415396345,34.655873368426064,66.52236566310975,-34.21578756192835,-28.47170806623932,-9.100368856837608,-2.329555745180745,-8.819613579529443,4.949023632617384,-40.46374914148351,27.3258154371462,34.70593344715009,40.93590319585468,1577399619.0,-27.68672939072541,-51.12504952851886,7.340994
61404,1577399619.44,3.464234616758765,-5.687046475145293,6.634799961592511,4.339928472751524,-4.545070678413205,-1.078208279344512,-2.980080324945217,16.67771678883622,5.370194323730469,9.447609506002289,-23.434150509717988,-1.7313143102134143,22.57463408679497,-6.230051924542683,-1.4253941977896345,44.81822688405106,80.56045160060975,-9.527066858803352,-28.47170806623932,-9.100368856837608,-2.329555745180745,-6.765161621231332,4.949023632617384,-40.46374914148351,27.08620121604217,34.562164914487674,41.22344026117951,1577399619.0,-27.68672939072541,-51.12504952851886,7.340994
61405,1577399619.45,4.229182047178687,3.286421347120333,5.74774824650462,5.144380230564024,-0.0320005490186732,-0.0032117339343558,5.466663132086032,-7.525267793683307,3.4763808105468748,31.054054818502287,-24.136054806592988,-1.3040682164634143,9.574145805544967,-22.52643864329268,1.5348108803353655,37.31090266530106,96.03286370998477,-1.5924965463033538,-28.64800347222222,-8.077855502136753,-3.531907097532104,-6.765161621231332,4.949023632617384,-40.46374914148351,27.15808548237338,34.753856291370894,41.03174888429628,1577399619.0,-27.68672939072541,-51.12504952851886,7.340994
61406,1577399619.46,2.590351010801734,3.679070419385956,10.889296311690169,1.3902720274390246,7.749154846489139,10.041661331251191,4.51017956885361,3.62931774098466,11.994950317382813,13.872658334127289,-33.56598644721799,-4.661001810213414,13.220996391482467,-0.9199933307926802,-4.675516268102134,35.63243586842606,75.37246331935975,-14.669278772865852,-27.41393563034188,-9.100368856837608,-4.13308277370778,-9.025058775359255,1.832971715784216,-19.37199519230769,27.229969748704587,34.753856291370894,41.00778746218589,1577399619.0,-27.68672939072541,-51.12504952851886,7.340994
61407,1577399619.47,1.2304444678329831,-1.4493095366687307,4.740986448408917,4.052624273532774,-2.730265820014768,2.110868331983612,-9.303166909417875,-13.788499336652055,20.06340991210937,26.140724740377287,-8.938300900342988,-1.0294100133384143,2.860278618044969,-12.486155440167684,3.9456995522103657,18.084828446551068,30.66421136623476,1.4897788443216462,-27.41393563034188,-9.100368856837608,-4.13308277370778,-9.641394362848688,-0.916485857892108,2.30973788831361,27.18204690448378,34.8017791355917,41.07967172851709,1577399619.0,-27.68672939072541,-51.12504952851886,7.340994
61408,1577399619.48,1.9918005957626708,-5.088496060106231,8.198213645674542,-0.9129499696312874,-1.4302143185499232,12.178486312940649,-2.968109316644436,-4.376892610577839,12.27028350830078,-12.799704947122711,14.163505740282012,1.9613126429115848,11.130542289919967,-22.89264958079268,0.9244593178353658,6.854359696551067,-0.921481993140244,-13.524869593178352,-27.41393563034188,-9.100368856837608,-4.13308277370778,-9.435949167018876,1.832971715784216,-3.147569077557058,27.229969748704587,34.70593344715009,40.93590319585468,1577399619.0,-27.68672939072541,-51.12504952851886,7.340994
61409,1577399619.49,2.3617047522568115,2.6351984955578307,10.115969175459698,2.521532311862852,1.7720304019090602,9.115105288770724,7.032471017828219,0.1601195354182548,6.992265948486327,6.838356576314787,4.611503787157011,0.4506925257240854,4.950732719607468,3.001515458269817,-2.6003209556021343,14.117543290301068,11.865383241234758,2.908846227134146,-28.824298878205127,-9.50937419871795,-4.433670611795614,-3.06714809629473,2.0162688873626373,-3.590053426141166,27.229969748704587,34.70593344715009,41.07967172851709,1577399619.0,-27.68672939072541,-51.12504952851886,7.340994
61410,1577399619.5,0.030949436094702,11.92709513862424,13.350535618330792,1.3830894224585553,4.375724707328982,9.908783139112522,-10.181838918695217,-5.377668904523151,7.611167077636718,25.286232552877287,-18.612373165967988,-4.935660013338414,4.019946586794969,-11.692698408917684,-1.3948766196646345,-0.4088238971989328,26.08657464748476,-29.851773890053355,-28.47170806623932,-10.327384882478633,-3.531907097532104,-1.629031725486053,1.832971715784216,-1.6726212489433638,27.373738281367,34.70593344715009,40.74421181897145,1577399619.0,-27.68672939072541,-51.12504952851886,7.340994
61411,1577399619.51,2.640629245665015,-0.6544345854968557,6.160748032881573,-1.0398426576195683,-1.9162372555616416,8.759566342237518,9.287808981695406,10.495888102312785,9.100360510253903,1.5740743497522869,-17.055976681592988,-4.722036966463414,8.017749321169969,-1.0115460651676829,-3.9583531821646334,25.958363602801068,22.30239495998476,-14.013150843178352,-28.824298878205127,-8.282358173076922,-4.13308277370778,-1.629031725486053,1.832971715784216,-1.6726212489433638,27.18204690448378,34.562164914487674,41.03174888429628,1577399619.0,-27.68672939072541,-51.12504952851886,7.340994
61412,1577399619.52,3.811393857481421,-5.469174124071075,-0.5765354387981131,4.988757122653867,-4.1524216061475805,8.998986508253143,0.7381148532774388,-1.4631491901676823,14.54238088378906,2.2454610685022867,-6.924140744092988,-2.9825350133384143,-1.9614987257050305,-7.084544112042683,-0.8455602134146342,8.929555009051068,7.501369569359756,8.264681188071647,-28.824298878205127,-8.282358173076922,-4.13308277370778,-0.8072509421668069,-4.032537774725275,-4.032537774725275,27.18204690448378,34.61008775870848,41.03174888429628,1577399619.0,-27.68672939072541,-51.12504952851886,7.340994
61413,1577399619.53,-0.185725814149438,-1.121303909227325,10.094421360518291,1.1424721556128523,0.1810833987352325,11.745135812452364,2.5948182407286104,5.360325541277629,5.8226984375,0.0939718106897867,9.64690417778201,-1.0141512242759143,-1.0917477491425305,-6.092722822980184,-2.5392857993521343,4.092518876238567,-3.347629454077744,3.4734214224466475,-27.854674145299143,-8.998117521367522,-4.809405409405411,-5.737935642082276,-2.199566058941059,-2.5575899461115803,27.15808548237338,34.753856291370894,41.24740168328991,1577399619.0,-27.68672939072541,-51.12504952851886,7.340994
61414,1577399619.54,1.4722588355087645,4.045383273389862,8.13596440251048,-0.0701909852562874,1.531413135063357,6.705341317823456,-6.844321804437405,-8.154942830304401,6.265625744628906,-1.5692361971227131,-6.680000119092988,-1.0294100133384143,3.409595024294969,-4.612620283917683,-5.880960604039634,0.2320452434260671,27.58193597560976,9.149690953696648,-27.23764022435897,-10.940892895299145,-3.381613178488186,-6.55971642540152,-2.5661604020979016,-2.2626003803888417,27.18204690448378,34.61008775870848,41.03174888429628,1577399619.0,-27.68672939072541,-51.12504952851886,7.340994
61415,1577399619.55,0.212908762266577,6.772378964307831,13.374477634932354,-0.0630083802758186,4.248832019340701,10.607890023878149,2.9383861789610326,-12.553091280011431,10.108319409179687,19.274269662252287,-28.133857540967988,-5.851187357088414,3.8063235399199695,-5.802805830792683,-5.423196932164634,1.1475725871760671,22.94326410060976,-17.492154749428355,-30.058366720085463,-9.71387686965812,-3.982788854663856,9.875899240983376,0.7331886863136862,-2.2626003803888417,27.229969748704587,34.70593344715009,41.07967172851709,1577399619.0,-27.68672939072541,-51.12504952851886,7.340994
61416,1577399619.56,2.4610641211532966,0.4014083466320494,9.098433469893292,4.335140069431211,-0.929826171577267,9.67893977973752,2.993452817144626,6.768116117449504,6.375759020996093,-3.797019400247713,-15.285957150342988,-5.271353372713414,0.8461184617949695,2.528492997332317,-4.751810213414634,15.216176102801068,28.43642816310976,-8.519986780678353,-30.058366720085463,-9.71387686965812,-3.982788854663856,9.875899240983376,0.7331886863136862,-2.2626003803888417,27.229969748704587,34.70593344715009,40.93590319585468,1577399619.0,-27.68672939072541,-51.12504952851886,7.340994
61417,1577399619.57,2.2204468543075926,-1.665984786912872,7.842674699141338,0.9880461485327744,1.5625377566453884,6.989054214551973,-2.574263143548733,-3.1462729572575263,8.372523205566406,-12.647117056497716,6.183159060594511,-0.8920809117759144,-5.867748725705031,-10.044749190167684,-0.9981481040396344,8.029286454363568,26.30019769435976,-11.571744593178355,-27.41393563034188,-8.895866185897436,-3.2313192594442626,2.06898179945055,-0.9164858578921076,-2.70508472897295,27.206008326594183,34.825740557702105,41.07967172851709,1577399619.0,-27.68672939072541,-51.12504952851886,7.340994
61418,1577399619.58,3.030884116270484,9.769919442823456,15.007323167158916,3.375065203708555,3.257632532036013,9.693304989698456,7.846499582281345,18.382388370867474,4.192247106933594,14.971291146627289,-29.324043087842988,-6.766714700838414,0.8766360399199695,13.484303544207316,-11.191019197789634,10.424916337176068,17.663723084984756,-7.390836390053353,-27.23764022435897,-9.71387686965812,-4.2833766927516965,9.875899240983376,3.2993490884115886,-1.0826421174978862,27.18204690448378,34.753856291370894,41.12759457273789,1577399619.0,-27.68672939072541,-51.12504952851886,7.340994
61419,1577399619.59,3.375649155332984,-0.675982400438262,6.536637693526105,8.34542785019293,1.809140527641482,-0.5538781157702933,-1.0862668117616228,-4.84855033762862,-1.446097802734375,0.5364766935022866,-4.482734494092988,-3.8980623570884143,-9.987621772580033,1.3688250285823171,-3.7447301352896334,4.382435868426067,47.90664300685975,0.8794272818216463,-27.061344818376067,-11.145395566239314,-4.13308277370778,9.875899240983376,3.2993490884115886,-1.0826421174978862,27.229969748704587,34.753856291370894,41.07967172851709,1577399619.0,-27.68672939072541,-51.12504952851886,7.340994
61420,1577399619.6,3.558805582334937,1.6787149323254087,5.465232450606183,-1.6216336610375373,-0.1134034054639857,6.056512667921112,-0.9306437038514664,-8.777435261945026,0.995987890625,-3.842795767435212,0.7510301543445124,-6.919302591463414,-1.4121823194550305,-24.99836247141768,-2.8292027915396343,-0.1036481159489328,60.02212152248475,-15.905240686928352,-27.061344818376067,-11.145395566239314,-4.13308277370778,9.875899240983376,3.2993490884115886,1.2772744082840235,27.134124060262977,34.70593344715009,40.93590319585468,1577399619.0,-27.68672939072541,-51.12504952851886,7.340994
61421,1577399619.61,2.623869834043921,-5.411713284227325,0.9461768170612608,3.1547986509741808,0.7377352847215602,3.215792398145724,0.0102775485899392,6.156397593279583,7.187393383789062,-3.3697733064977133,7.846367068407012,-3.6844393102134143,-1.961498725705032,1.2620135051448171,-7.406839510289634,13.980214188738568,55.23086175685975,-11.144498499428355,-28.47170806623932,-8.282358173076922,-2.930731421356421,10.286789632642998,2.5661604020979025,1.8672535397295016,27.3258154371462,34.72989486926049,40.93590319585468,1577399619.0,-27.68672939072541,-51.12504952851886,7.340994
61422,1577399619.62,2.4610641211532966,-0.1947478667468558,12.83338805973704,0.3487943052710553,0.7245671755907007,3.990316635206268,-0.3560353054139665,-13.76695152171065,11.82975040283203,-8.496726431497713,-10.189521603467988,-5.698599466463414,-6.203442085080031,-27.80597965891768,-2.1883336509146343,3.711049149676067,35.82168206935975,-8.214810999428353,-28.64800347222222,-10.122882211538462,-3.982788854663856,13.368467570090166,5.682212318931068,-3.8850429918639056,27.18204690448378,34.562164914487674,41.03174888429628,1577399619.0,-27.68672939072541,-51.12504952851886,7.340994
61423,1577399619.63,-0.2419895531631094,7.366140976026581,14.471021995283916,-3.8362701966820696,6.717253930961794,15.19518040473752,-2.110985122308497,3.3300425334651296,11.35091007080078,-1.6302713533727131,-0.6985548065929879,-3.8370272008384143,-4.677563178830031,-10.990794112042684,-4.416116854039634,-2.606089522198933,11.987453553734756,-10.900357874428352,-26.708754006410253,-7.873352831196582,-3.8324949356199385,11.519460807621863,3.665943431568432,-33.53149434699915,27.3258154371462,34.70593344715009,41.07967172851709,1577399619.0,-27.68672939072541,-51.12504952851886,7.340994
61424,1577399619.64,0.5744332129501712,-2.0765903716296688,8.171877427412824,-1.7509205506859749,-3.963279674995236,9.286290707471894,5.114715488043063,9.724955167742474,11.724405529785155,-18.948996939310213,5.221855349657012,-3.5165926305259143,4.172534477419969,6.526295731707317,-6.094583650914634,-4.528696944073933,5.731350038109756,0.3301108755716463,-26.708754006410253,-7.873352831196582,-3.8324949356199385,11.519460807621863,3.665943431568432,-33.53149434699915,27.134124060262977,34.70593344715009,41.03174888429628,1577399619.0,-27.68672939072541,-51.12504952851886,7.340994
61425,1577399619.65,-1.7575192040420156,0.4756285980968932,13.65220502751048,4.172334356540587,-1.784556164253049,8.219673867872284,-0.936629208001858,-5.424355836896198,9.866505041503906,-21.98549596274772,6.747734255907012,-3.3182283727134143,-11.345653999142533,-6.184275557355184,-5.041727205602134,-10.281260420636432,4.754787538109756,-1.8518959603658536,-29.00059428418804,-10.122882211538462,-4.583964530839531,9.97862183889828,4.124186360514486,-34.04772608701394,27.18204690448378,34.753856291370894,41.12759457273789,1577399619.0,-27.68672939072541,-51.12504952851886,7.340994
61426,1577399619.66,-2.312973989198265,0.6120980927257994,7.587692222334698,-3.5800906190453508,6.190529565727419,16.96449543159299,3.5034177707579075,0.995695914812785,10.484209069824216,-25.70864049399772,24.75310534965701,0.0692227991615854,-8.278637397580031,-15.873606612042684,-1.9441930259146345,-8.801157881573932,-1.898044493140244,-5.346158655678353,-28.64800347222222,-9.304871527777776,-4.2833766927516965,10.081344436813186,4.949023632617384,-32.20404130124683,27.08620121604217,34.8017791355917,41.03174888429628,1577399619.0,-27.68672939072541,-51.12504952851886,7.340994
61427,1577399619.67,-0.6106966088271719,5.007852340772675,8.344259946944073,-2.845070709377382,2.831464636528201,8.462685336378144,3.6111568454649383,1.86718531910966,7.0102224609375,-23.11464635337272,-13.119209103467988,-4.691519388338414,-2.9685788038300305,-3.391917158917683,-6.582864900914634,-11.669810225323932,-5.590671446265244,-7.482389124428353,-27.76652644230769,-9.918379540598291,-1.4277922309172344,10.081344436813186,4.949023632617384,-32.20404130124683,27.18204690448378,34.8017791355917,40.93590319585468,1577399619.0,-27.68672939072541,-51.12504952851886,7.340994
61428,1577399619.68,0.2835377112411869,2.777653494337128,6.387000089766339,0.5678637571753526,1.5541580508348414,6.428811026075409,2.542145804205173,2.1975851482112234,6.666654522705078,1.8945089200647869,-12.157905392530488,-3.7759920445884143,-10.903149116330033,-7.908518721417684,-5.819925447789634,-8.846934248761432,-0.5857886337652438,-6.414273890053353,-27.76652644230769,-7.873352831196582,-4.13308277370778,10.184067034728091,0.4582429289460545,-17.675805189401945,27.229969748704583,34.8257405577021,40.959864617965074,1577399619.0,-27.68672939072541,-51.12504952851886,7.340994
61429,1577399619.69,3.3157941138290776,-0.1468638335437307,7.202225755049541,0.3056986753882428,1.6032391848680445,7.229671481397674,-4.339986867913967,-1.8534040607731512,-0.2657563842773437,-8.710349478372713,-15.652168087842988,-3.7759920445884143,-12.459545600705033,-11.326487471417684,-2.3714391196646343,-13.928111006573932,16.168361756859756,0.6658042349466463,-28.1191172542735,-9.100368856837608,-3.231319259444269,-9.641394362848688,5.315617975774226,-3.8850429918639056,27.229969748704587,34.70593344715009,40.93590319585468,1577399619.0,-27.68672939072541,-51.12504952851886,7.340994
61430,1577399619.7,3.373254953672828,-0.072643582078887,7.836689194990948,5.189870062106992,-5.035882018745236,2.4819695893078304,-6.341539455804592,-5.008961848859089,8.085219006347655,-18.53700963462272,-10.952461056592988,-3.0740877477134143,-9.621410835080033,-6.443674971417683,-6.247171541539634,-11.883433272198932,25.17104730373476,0.2690757193216463,-29.00059428418804,-10.122882211538462,-4.884552368927366,-9.641394362848688,2.749457573676324,-3.8850429918639056,27.229969748704587,34.753856291370894,40.88798035163387,1577399619.0,-27.68672939072541,-51.12504952851886,7.340994
61431,1577399619.71,2.1067222754501707,0.3200054901867369,8.463970029951886,1.7350370665015238,-1.5283765866163297,4.064536886671112,9.804956540289156,-4.628283784894245,8.760383874511719,-12.402976431497711,-4.787910275342988,-3.5623689977134143,-13.588695991330033,-14.073069502667684,-5.636819979039634,-13.592417647198932,9.881740663109756,-11.480191858803352,-27.76652644230769,-9.509374198717948,-3.231319259444269,-5.121600054592842,4.949023632617384,-2.70508472897295,27.18204690448378,34.993470512474914,40.88798035163387,1577399619.0,-27.68672939072541,-51.12504952851886,7.340994
61432,1577399619.72,1.1825604346298582,2.1168538361340024,11.797895841719464,-0.2306024964867561,4.720489746391482,11.942657449415256,-5.539481899652248,3.477285935564739,12.38520518798828,-19.84926549399772,-5.657661251905488,-5.759634622713414,-17.76960419445503,-5.848582197980184,-5.896219393102134,-10.479624678448932,-2.676242735327744,-8.352140100990852,-29.00059428418804,-6.850839476495726,-3.0810253404003385,-5.121600054592842,3.4826462599900108,-2.5575899461115803,27.229969748704587,34.65801060292928,41.031748884296285,1577399619.0,-27.68672939072541,-51.12504952851886,7.340994
61433,1577399619.73,3.0260957129501715,2.5130942108898617,13.611503599287822,3.99755763534918,0.5785208743211695,8.4650795380383,3.5991858371641574,-3.81425522044112,5.149927770996094,-14.630759634622711,-7.229316525342988,-6.064810403963414,-13.069897163205033,2.833668778582317,-6.247171541539634,-17.742808272198932,-1.6844214462652438,-8.428434046303353,-29.17688969017094,-8.282358173076922,-3.8324949356199385,-2.2453673129754868,3.1160519168331664,-1.8201160318047327,27.373738281367,34.70593344715009,40.93590319585468,1577399619.0,-27.68672939072541,-51.12504952851886,7.340994
61434,1577399619.74,0.6773838843368896,-1.1787647490710744,14.171746787764386,2.9081958799780865,0.0134892825242945,4.562530831983612,-7.512304067620999,14.652222184344035,6.545747338867187,-34.65029088462271,-4.513252072217988,-4.966177591463414,-16.88459442883003,-5.802805830792683,-6.460794588414634,-13.165171553448932,-0.4942358993902439,3.015657750571646,-28.47170806623932,-9.100368856837608,-3.8324949356199385,-3.2725932921245406,5.132320804195805,-2.852579511834319,27.229969748704587,34.70593344715009,41.03174888429628,1577399619.0,-27.68672939072541,-51.12504952851886,7.340994
61435,1577399619.75,1.9415223608993892,1.42253535468869,4.988786320235089,-2.193847857814881,2.757244385063357,10.86167539985471,-1.0814784084413105,-11.569074397687212,10.685322009277344,-4.559958853372714,11.188041873094512,-3.4555574742759143,-15.114574897580033,-9.373362471417684,-4.141458650914634,-22.56458561594893,1.916652772484756,-0.0361000619283536,-29.17688969017094,-8.486860844017095,-3.2313192594442626,-3.2725932921245406,4.765726461038961,2.1622431054522404,27.15808548237338,34.70593344715009,41.22344026117951,1577399619.0,-27.68672939072541,-51.12504952851886,7.340994
61436,1577399619.76,2.489794541075172,-3.6615518706531054,8.612410532881572,0.5020232115210558,-0.6401277706983616,5.049750869825409,-0.2111861049745141,4.93894604909013,6.654683514404296,-16.889060415872713,6.198417849657012,-4.050650247713414,-12.535839546017533,5.290333817644817,-5.713113924352134,-16.00330631907393,-9.618991758765244,-5.3156410775533525,-29.353185096153844,-8.077855502136753,-3.381613178488186,-2.450812508805297,2.932754745254745,1.4247691911453937,27.08620121604217,34.825740557702105,40.93590319585467,1577399619.0,-27.68672939072541,-51.12504952851886,7.340994
61437,1577399619.77,0.3086768286728271,-0.6711939971179495,3.419387132002667,-2.691841803127382,1.7732275027391384,8.946314071729706,-0.7750205959413102,-6.507732088116901,11.884817041015625,-15.363181509622711,2.1395799590320124,-2.5247713414634143,-12.093334663205033,-8.122141768292684,-1.8831578696646345,-20.06214420969893,-3.637546446265244,-4.125455530678353,-29.00059428418804,-9.71387686965812,-4.583964530839531,-1.629031725486053,1.832971715784216,3.0472118026204567,27.08620121604217,34.753856291370894,40.93590319585468,1577399619.0,-27.68672939072541,-51.12504952851886,7.340994
61438,1577399619.78,1.0029953101181397,2.965598324659393,6.625223154951885,1.7326428648413676,-0.5252060910108607,6.959126693800019,4.04450734595322,-9.775817354230185,5.104437939453125,-11.151755728372711,-3.719795040967988,-5.759634622713414,-12.276440131955033,7.258717606707317,-7.559427400914634,-21.03870670969893,-7.086032774390244,-12.670377405678352,-28.47170806623932,-9.100368856837608,-2.0289679070929103,-1.629031725486053,1.832971715784216,3.0472118026204567,27.18204690448378,34.8017791355917,41.03174888429628,1577399619.0,-27.68672939072541,-51.12504952851886,7.340994
61439,1577399619.79,1.8289948828720457,-2.804427676317168,9.225326157881574,-0.3120053529320686,-1.1668521359327355,5.908072164991425,-1.0527479885194353,22.318455900164345,7.548917834472656,-20.18495885337272,1.3613817168445124,-2.9672762242759143,-18.41047333508003,4.908864091082317,-3.5005895102896343,1.6358538371760671,-0.7078589462652439,-5.895475061928353,-28.119117254273505,-8.895866185897436,-3.081025340400342,-6.148826033741899,2.932754745254746,0.6872952768385466,27.15808548237338,34.70593344715009,41.55890017072513,1577399619.0,-27.68672939072541,-51.12504952851886,7.340994
61440,1577399619.8,2.2862873999618896,1.282474557569549,13.264344358565166,1.2825329527319926,0.3786050356981232,11.266295480421116,2.7360761386778294,-4.73961416209151,8.63109698486328,-18.78115025962272,1.315605349657012,-3.6539217320884143,-14.229565131955033,-3.3766583698551838,-3.0886022056021343,-13.378794600323932,13.238674256859758,0.6200278677591466,-28.47170806623932,-9.918379540598291,-2.329555745180745,10.492234828472808,2.199566058941059,-0.3451682031910397,27.18204690448378,34.65801060292928,40.959864617965074,1577399619.0,-27.68672939072541,-51.12504952851886,7.340994
61441,1577399619.81,1.295087912657202,-1.087785085985137,11.133504881026104,2.039100677341368,2.438815564262576,9.71485280463986,2.442786435308689,12.437585648699503,9.727641345214844,-17.713035025247713,3.848564334032013,-3.4708162633384143,-20.39411591320503,7.930104325457317,-4.477152010289634,-1.2938336628239329,13.147121522484756,-6.078580530678353,-28.47170806623932,-9.918379540598291,-2.329555745180745,11.10857041596224,1.832971715784216,2.457232671174979,27.3258154371462,34.8017791355917,41.07967172851709,1577399619.0,-27.68672939072541,-51.12504952851886,7.340994
61442,1577399619.82,2.379661264707983,2.048619088819549,11.90204361393626,3.693494024509336,8.141803918754762,10.43311330268674,5.741996323004001,6.646011832781536,-1.850717883300781,-12.738669790872711,1.559745974657012,-1.7007967320884143,-14.382153022580033,1.7045183879573171,-3.0428258384146343,5.389515946551067,48.76113519435975,-3.362516077553354,-30.76354834401709,-7.66885016025641,-2.780437502312504,10.286789632642996,3.2993490884115886,2.457232671174979,26.990355527600563,34.94554766825411,41.03174888429628,1577399619.0,-27.68672939072541,-51.12504952851886,7.340994
61443,1577399619.83,3.683304068663062,1.2429702301769718,8.933233555342511,2.309645464939024,-2.6213296444776577,3.691041427686738,-4.4249810268495136,-9.161704628400104,9.4618849609375,-3.446067251810214,-0.7595899628429876,-4.874624857088414,-11.925487983517533,6.480519364519816,-1.9899693931021345,-0.4393414753239328,33.76174554592225,-21.20004049161585,-28.91244658119658,-8.79361485042735,-3.156172299922304,10.492234828472808,3.2993490884115886,2.014748322590871,27.110162638152573,34.8017791355917,41.03174888429628,1577399619.0,-27.68672939072541,-51.12504952851886,7.340994
61444,1577399619.84,2.8944146216415776,-4.638386147996855,7.168706931807354,-0.2856691346703499,2.750061780082888,11.994132785108617,-0.0280296779725602,13.464698160906536,29.36727756347656,-15.180076040872711,16.147148318407012,-2.7689119664634143,-10.842113960080033,-5.589182783917683,-0.2046910727896341,-6.664927412823933,-27.776950743140244,-2.935269983803354,-29.52948050213675,-8.282358173076922,-3.531907097532104,9.875899240983376,1.832971715784216,3.637190934065935,27.038278371821367,34.753856291370894,40.88798035163387,1577399619.0,-27.68672939072541,-51.12504952851886,7.340994
61445,1577399619.85,2.626264035704078,-3.146798513719512,13.060837217451883,8.434013311618711,-0.0343947506788294,14.936606625440646,-3.018387551507717,-7.822148799542682,12.85207451171875,-28.63832799399772,1.071464724657012,-3.9590975133384143,-11.391430366330033,24.16545588795732,-3.7447301352896334,-31.50623600657393,-62.01767339939025,11.713167516196648,-29.52948050213675,-8.282358173076922,-3.531907097532104,10.081344436813186,4.949023632617384,3.1947065854818257,27.08620121604217,34.70593344715009,40.88798035163387,1577399619.0,-27.68672939072541,-51.12504952851886,7.340994
61446,1577399619.86,1.7380152197861083,1.6392106049328306,9.543754978682356,6.310356439060118,1.1028510378953882,7.3158627411633,-2.5610950344178733,2.3915154826838787,19.40739865722656,-6.787742056497714,10.501396365282012,-2.8604647008384143,-18.68513153820503,18.88591487233232,-4.446634432164634,-38.159068037823936,-105.01694097751523,12.384554234946648,-28.64800347222222,-8.895866185897434,-2.479849664224669,10.081344436813186,4.949023632617384,3.784685716927304,27.08620121604217,34.8017791355917,41.03174888429628,1577399619.0,-27.68672939072541,-51.12504952851886,7.340994
61447,1577399619.87,-0.3605025353408443,1.9205293000011896,10.596006608321026,1.308869170993712,5.259185119926638,15.142507968214082,2.787551474371188,7.767695310564739,15.830461376953124,-5.658591665872712,9.295952029344512,-1.9449373570884143,-16.47260712414253,1.5671892863948171,-1.4406529868521345,-45.65113346751144,-130.57541265720275,22.95889505525915,-29.6176282051282,-7.975604166666667,-2.1041148666148723,12.341241590941108,5.498915147352647,-2.410095163250211,27.08620121604217,34.8017791355917,41.07967172851709,1577399619.0,-27.68672939072541,-51.12504952851886,7.340994
61448,1577399619.88,0.2583985938095458,-0.9561039946765432,14.068796116377666,6.734130132907773,0.008700879203982,14.939000827100802,1.942398288336032,1.3644029704768474,-0.2609679809570312,-22.04653111899772,-1.675117306592988,-5.027212747713414,-7.820873725705031,14.460866044207316,-1.0286656821646345,-31.44520085032393,-87.77450933689025,11.713167516196648,-29.17688969017094,-9.509374198717948,-2.329555745180745,12.341241590941108,5.498915147352647,-1.9676108146661029,27.18204690448378,34.70593344715009,41.03174888429628,1577399619.0,-27.68672939072541,-51.12504952851886,7.340994
61449,1577399619.89,1.4818356421493897,-3.551418594285918,12.77113881657298,2.5347004209937114,-3.608937829292112,10.68929288032346,-0.9881045436952164,-5.811019405011432,-0.8667010009765624,-8.405173697122713,11.569511599657012,0.8931974085365855,-10.903149116330033,9.059254716082316,2.8165491615853657,-33.886607100323936,-46.72836675876525,21.875521031821645,-29.17688969017094,-9.509374198717948,-2.329555745180745,12.341241590941108,5.498915147352647,-1.9676108146661029,27.229969748704587,34.8017791355917,40.93590319585468,1577399619.0,-27.68672939072541,-51.12504952851886,7.340994
61450,1577399619.9,0.1434769141220463,1.134034054639862,10.886902110030013,1.0119881651343363,2.422056152641482,14.13694327094846,-1.5052521022889664,-15.751744697980184,7.989450939941406,-4.224265493997712,6.824028201219512,-1.3803621617759143,-8.675365913205031,2.620045731707317,2.1146448647103657,-21.31336491282393,-9.222263243140244,-1.9281899056783536,-30.322809829059825,-8.998117521367522,-2.8555844618344626,-8.203277992040011,4.765726461038961,-39.13629609573119,27.15808548237338,34.70593344715009,40.79213466319226,1577399619.0,-27.68672939072541,-51.12504952851886,7.340994
61451,1577399619.91,-0.0265114037490469,0.3654953217297057,8.610016331221416,-3.0066793214379284,0.2062225161668732,12.09947765815549,1.9759171115782208,1.3620087688166922,21.626823596191404,-0.7452615877477134,9.463798709032012,-0.2359529820884145,-6.813793647580031,7.441823075457316,-0.6319371665396342,-8.816416670636432,-31.591648008765247,-7.543424280678352,-29.52948050213675,-9.509374198717948,-3.531907097532104,-9.8468395586785,5.4989151473526485,-36.48139000422654,27.421661125587804,34.8017791355917,40.959864617965074,1577399619.0,-27.68672939072541,-51.12504952851886,7.340994
61452,1577399619.92,-0.1246736718154531,-1.7366137358874807,12.969857554365948,-0.0989214051781624,-1.286562218940548,11.936671945264864,4.027747934332126,15.404001505633095,19.615694201660155,-8.344138540872713,4.123222537157012,-0.8768221227134145,-2.7549557569550305,9.791676591082316,-0.6319371665396342,-23.11390202219893,-91.55868902439023,-11.846402796303352,-29.00059428418804,-8.895866185897434,-3.0810253404003385,-7.792387600380388,-4.032537774725275,-34.71145260989011,27.229969748704587,34.70593344715009,41.07967172851709,1577399619.0,-27.68672939072541,-51.12504952851886,7.340994
61453,1577399619.93,0.1817841406845458,-2.3495293608874808,13.048866209151104,0.7246839659155866,-1.724701122749142,14.42903587348752,-0.7486843776795915,15.008958231707316,24.67464230957031,-7.153952993997714,11.416923709032012,-0.2359529820884145,-3.731518256955032,8.387867997332316,3.2437952553353657,-29.88880436594893,-150.48813238376525,17.358919469321645,-29.00059428418804,-8.895866185897434,-3.0810253404003385,-11.079510733657369,-3.299349088411588,-38.84130653000845,27.18204690448378,34.753856291370894,41.03174888429628,1577399619.0,-27.68672939072541,-51.12504952851886,7.340994
61454,1577399619.94,-0.3880358544326411,-3.4628331328601374,12.789095329024152,0.5523014463843366,-4.844345885932737,13.145743783643772,3.7835393649961886,2.527984977312786,14.559140295410156,-7.520163931497713,5.054008669969512,0.2370694788490854,2.310962211794969,2.711598466082317,3.0912073647103657,-48.199351240948936,-150.42709722751525,24.133821813071645,-28.912446581196583,-8.998117521367522,-2.2544087856587867,8.232337674344885,-3.299349088411588,-38.84130653000845,27.253931170814987,34.70593344715009,41.03174888429628,1577399619.0,-27.68672939072541,-51.12504952851886,7.340994
61455,1577399619.95,-2.5428173485732657,-0.0606725737781058,15.241954929854227,1.2298605162085556,0.2995963809129669,24.31110322578244,11.017619681158298,1.6624810771663017,2.1416133850097654,-7.764304556497714,7.998954959032012,1.5340665491615857,0.0374026414824726,-13.81367008860518,2.9233606850228657,-25.891001631573936,-114.14169683689023,24.62210306307165,-30.23466212606837,-9.100368856837608,-1.7283800690050757,-16.010195433572836,0.3665943431568428,1.277274408284024,27.08620121604217,34.873663401922904,41.10363315062749,1577399619.0,-27.68672939072541,-51.12504952851886,7.340994
61456,1577399619.96,-1.4989454247451406,-0.7789330718249807,12.807051841475324,-1.8059871888695689,-0.0367889523389857,14.996461666944551,6.093943967046969,7.177524601336224,1.2904746948242187,3.923927865377287,7.083427615282012,2.3275235804115857,87.66862822741997,-73.21613590891768,4.800191739710366,-20.58094303782393,-14.990085508765244,33.59427103182165,-30.23466212606837,-8.282358173076922,-2.630143583268586,-9.8468395586785,-2.5661604020979016,-4.032537774725275,27.3258154371462,34.753856291370894,40.74421181897145,1577399619.0,-27.68672939072541,-51.12504952851886,7.340994
61457,1577399619.97,-0.8118095482802969,2.094108920362518,14.933102915694072,-4.453974225002382,1.1243988528367943,7.071654171827362,0.2927933444883762,-25.218418062237998,10.75714805908203,-2.1185526033727133,-5.459296994092988,0.3743985804115854,5.057544243044969,-25.42560856516768,2.0230921303353657,-7.824595381573933,38.59878167873475,4.297396031821647,-30.23466212606837,-8.282358173076922,-2.630143583268586,-9.8468395586785,-2.5661604020979016,-4.032537774725275,27.18204690448378,34.753856291370894,41.07967172851709,1577399619.0,-27.68672939072541,-51.12504952851886,7.340994
61458,1577399619.98,0.3828970801376714,-1.1715821440906062,8.964358176924542,3.74856066269293,0.1786891970750763,16.934567910841036,9.43864368628525,9.571726261492472,16.178817718505858,9.493385873189789,-1.4462354706554876,1.6256192835365857,-8.110790717892531,17.009083817644814,-0.8608190024771343,24.630848954363564,29.397731874047256,-20.07089010099085,-29.88207131410256,-7.464347489316241,-2.780437502312504,-11.490401125316987,1.832971715784216,-4.032537774725275,27.229969748704587,34.8497019798125,40.98382604007548,1577399619.0,-27.68672939072541,-51.12504952851886,7.340994
61459,1577399619.99,-1.5875308861709216,-3.1731347319812304,13.941903428389384,0.2793624571265241,-2.050312548530392,21.652342282178925,-16.064392397699123,-26.884782417706745,18.20311522216797,24.279152474752287,-2.010810665967988,3.8534024866615857,-11.421947944455033,14.888112137957316,3.5489710365853657,9.326283524676068,14.825588319359756,11.896272984946648,-29.17688969017094,-8.282358173076922,-2.0289679070929103,-9.8468395586785,1.0997830294705304,8.947003117075232,27.373738281367,34.8017791355917,40.88798035163387,1577399619.0,-27.68672939072541,-51.12504952851886,7.340994
61460,1577399620.0,-1.8556814721084216,0.9281327118664244,12.730437388350325,-1.7365553407250374,-2.943349767768674,16.085823422315645,-7.806790871820217,-15.6248520099919,10.05564697265625,12.682472787252289,12.271415896532012,5.287728658536586,13.297290336794967,-8.732493330792684,1.1380823647103655,11.706654618426068,2.740627381859756,-20.391324671303355,-28.824298878205127,-9.509374198717948,-2.0289679070929103,-8.203277992040011,0.3665943431568428,9.241992682797973,27.229969748704587,34.70593344715009,41.12759457273789,1577399620.0,-27.68679348451665,-51.12502748990835,7.4862437
61461,1577399620.01,0.8042765723251708,-4.008711111375762,12.69452436344798,-0.9512571961937872,-5.330368822944455,5.642315780714081,4.355753561773533,16.73757183034013,10.46984385986328,-7.031882681497714,-9.090888790967988,0.6490567835365855,52.78703643054497,-4.154856612042683,4.556051114710366,27.972523759051068,-3.362888243140244,-20.269254358803355,-28.824298878205127,-9.509374198717948,-2.0289679070929103,-8.203277992040011,0.3665943431568428,9.241992682797973,27.08620121604217,34.753856291370894,41.07967172851709,1577399620.0,-27.68679348451665,-51.12502748990835,7.4862437
61462,1577399620.02,-0.923139925477563,1.739767074659393,11.516577146651104,0.1967624998511333,2.6758415286180446,12.638173031690648,-0.6720699245545925,-1.2237290241520575,7.279570147705078,23.409401498189787,8.380424685594512,2.8920987757240857,13.358325493044967,-11.540110518292684,1.0007532631478655,17.382924149676068,15.924221131859758,14.246126500571645,-29.17688969017094,-9.304871527777776,-2.179261826136828,-8.408723187869821,-2.5661604020979016,-47.69099350169061,27.134124060262977,34.70593344715009,41.10363315062749,1577399620.0,-27.68679348451665,-51.12502748990835,7.4862437
61463,1577399620.03,1.7044963965439208,-2.4141728057117,5.531072996260479,1.8643239561499612,-0.6856176022413295,7.457120639112518,0.7764220798399387,8.94205122487138,5.353434912109375,13.994728646627289,-11.715400509717988,1.3204435022865857,10.001391899294967,18.51970393483232,3.0301722084603657,32.061879227801064,22.18032464748476,6.036897984946647,-29.70577590811965,-8.486860844017095,-3.982788854663856,-10.668620341997745,-4.032537774725275,-1.0826421174978862,27.18204690448378,34.753856291370894,41.07967172851709,1577399620.0,-27.68679348451665,-51.12502748990835,7.4862437
61464,1577399620.04,4.816958554747046,-2.505152468797637,5.497554173018292,2.81003361191168,-3.4916219479444552,1.2705035492687682,0.1395644382383762,-13.10375766184737,7.486668591308593,25.621925912252287,-15.987861447217988,0.2218106897865854,14.456958305544967,9.089772294207316,1.2906702553353655,20.617787430926068,25.26260003810976,12.628694859946648,-29.70577590811965,-9.71387686965812,-3.0810253404003385,-10.668620341997745,-4.032537774725275,-1.0826421174978862,27.08620121604217,34.8017791355917,41.03174888429628,1577399620.0,-27.68679348451665,-51.12502748990835,7.4862437
61465,1577399620.05,-0.2192446373916255,1.8211699311047056,10.506224046065167,-0.6088863587914436,0.0517965090867945,3.849058737257049,0.4196860324766575,-20.188200374249718,15.06671104736328,22.387062631002287,3.848564334032013,2.5106290491615857,11.679858696169967,-8.549387862042684,6.783834317835366,10.272328446551068,18.54873285060976,-11.510709436928352,-29.70577590811965,-9.71387686965812,-3.0810253404003385,9.875899240983376,-1.466377372627372,-3.737548209002536,27.15808548237338,34.70593344715009,41.12759457273789,1577399620.0,-27.68679348451665,-51.12502748990835,7.4862437
61466,1577399620.06,1.8289948828720457,4.011864450147674,13.42236166813548,-0.0091388429223041,5.590782049858278,11.833721273878144,4.832199692144625,15.208874070330364,2.858676782226562,22.387062631002287,-5.611884884717988,3.2735685022865857,10.443896782107467,10.325734208269818,2.8928431068978657,27.362172196551068,38.93447503810975,1.9628013052591484,-29.70577590811965,-8.486860844017095,-2.780437502312504,-4.094374075443786,1.832971715784216,-3.737548209002536,26.990355527600563,34.8017791355917,41.34324737173151,1577399620.0,-27.68679348451665,-51.12502748990835,7.4862437
61467,1577399620.07,-1.542041054627953,2.5226710175304867,13.676147044112042,0.8659418638648053,-1.1548811276319544,6.971097702100799,-2.0104286525819357,-20.525782808331748,13.555969799804688,5.693947396627286,3.940117068407013,2.1444181116615857,8.139819633669969,4.359547684832317,1.6263636147103655,31.176869462176068,71.28310785060975,-8.794644983803353,-28.29541266025641,-10.122882211538462,-2.780437502312504,-8.203277992040011,1.832971715784216,-38.25132739856297,27.18204690448378,34.753856291370894,41.03174888429628,1577399620.0,-27.68679348451665,-51.12502748990835,7.4862437
61468,1577399620.08,0.1099580908798583,-1.0470836577624807,6.646770969893292,-0.7118370301781624,3.372554211723513,10.081165658643773,7.963815463629,2.176037333269816,8.722076647949219,5.114113412252286,18.06975574028201,4.616341939786586,5.789966118044969,4.390065262957317,6.722799161585366,45.092885087176064,72.32070550685975,-20.360807093178355,-28.47170806623932,-10.327384882478633,-3.531907097532104,-8.203277992040011,1.832971715784216,-38.25132739856297,27.18204690448378,34.753856291370894,41.03174888429628,1577399620.0,-27.68679348451665,-51.12502748990835,7.4862437
61469,1577399620.09,0.5445056921982182,-0.2366463957995906,9.625157835127666,3.190711675876524,0.7221729739305445,11.809779257276585,-2.831639822015529,13.222883793230752,14.930241552734374,11.736427865377289,0.1864549590320123,2.0223477991615857,8.719653618044969,20.16765315358232,1.7484339272103655,32.092396805926064,67.22426995998475,5.670687047446647,-28.29541266025641,-9.71387686965812,-3.982788854663856,9.875899240983376,4.032537774725275,0.9822848425612848,27.110162638152573,34.753856291370894,41.03174888429628,1577399620.0,-27.68679348451665,-51.12502748990835,7.4862437
61470,1577399620.1,1.036514133360327,2.948838913038299,5.976394505049542,1.007199761814024,0.7090048647996857,9.67893977973752,3.156258530035251,1.5691072124202057,14.501679455566403,28.673683724752287,5.527031130907012,3.5787442835365857,11.618823539919967,7.869069169207316,6.692281583460366,11.111561844988568,26.529079530297253,-9.923795374428352,-28.64800347222222,-9.71387686965812,-2.780437502312504,-6.55971642540152,4.399132117882118,0.6872952768385466,27.18204690448378,34.65801060292928,40.959864617965074,1577399620.0,-27.68679348451665,-51.12502748990835,7.4862437
61471,1577399620.11,1.1825604346298582,-0.6520403838366995,9.275604392744857,1.7422196714819926,1.9264564089891385,9.185734237745333,1.9280330783750947,17.06078905446122,14.128183996582033,4.625832162252286,-4.055488400342988,0.6185392054115855,11.283130180544967,8.784596512957316,1.8094690834603653,18.969838212176068,14.154201600609756,16.779085484946645,-29.17688969017094,-9.918379540598291,-3.231319259444269,9.875899240983376,-4.032537774725275,0.6872952768385466,26.990355527600563,34.562164914487674,41.03174888429628,1577399620.0,-27.68679348451665,-51.12502748990835,7.4862437
61472,1577399620.12,-0.5819661889052969,1.1771296845226744,12.378489744307354,-1.2098309754906624,3.5569077395555446,5.264031918409393,-3.7103118312928736,-29.164062398175496,10.728417639160156,9.722267709127289,4.794609255907012,4.067025533536586,11.679858696169967,3.901784012957317,6.173482755335366,13.476674149676068,-2.416843321265244,-6.749967249428353,-28.64800347222222,-9.304871527777776,-2.780437502312504,9.875899240983376,-4.032537774725275,0.6872952768385466,27.229969748704587,34.8017791355917,40.88798035163387,1577399620.0,-27.68679348451665,-51.12502748990835,7.4862437
61473,1577399620.13,0.9263808569931404,-1.2242545806140437,7.3686227704304015,2.0989557188452745,-1.9748951962354704,10.021310617139862,-1.6309476894471708,3.356378751726848,6.5505357421875,7.891213021627287,7.586967654344512,4.234872213224086,12.168139946169967,6.785695145769816,4.876485685022866,14.361683915301068,16.93130120998476,9.287020055259145,-27.41393563034188,-9.918379540598291,-2.329555745180745,-6.148826033741898,4.949023632617385,-34.71145260989011,27.062239793931766,34.72989486926049,40.93590319585468,1577399620.0,-27.68679348451665,-51.12502748990835,7.4862437
61474,1577399620.14,0.2344565772079833,3.406131430128143,16.11105013249095,-1.178706353908631,0.324735498344607,3.894548568800018,2.399690805425876,-18.174676778058306,6.426037255859375,16.405617318502287,7.602226443407012,3.5482267054115857,10.733813774294967,2.772633622332317,8.553853849085366,11.218373368426068,13.757473084984756,-2.965787561928354,-29.00059428418804,-9.71387686965812,-2.479849664224669,-9.025058775359255,4.765726461038961,-39.431285661453934,27.18204690448378,34.70593344715009,40.79213466319226,1577399620.0,-27.68679348451665,-51.12502748990835,7.4862437
61475,1577399620.15,2.743579917051734,5.527394101026581,11.696142271162822,-1.5282597962914437,6.8249930056688255,14.01483898628049,5.976628085699313,10.261256339617471,11.693280908203125,15.764748177877289,-3.475654415967988,3.4871915491615857,6.278247368044969,3.321950028582317,8.553853849085366,23.547474930926068,12.628322694359756,-13.463834436928352,-28.1191172542735,-9.918379540598291,-2.329555745180745,-9.025058775359255,7.698481206293707,-34.71145260989011,27.229969748704587,34.70593344715009,41.03174888429628,1577399620.0,-27.68679348451665,-51.12502748990835,7.4862437
61476,1577399620.16,1.9415223608993892,-1.2745328154773243,8.143147007490947,3.992769232028868,2.5824676638719506,10.066800448682834,2.445180636968845,17.908336442156536,3.876212487792969,22.387062631002287,9.463798709032012,4.646859517911586,8.261889946169969,24.25700862233232,1.5958460365853655,26.019398759051068,28.10073480373476,5.975862828696647,-27.590231036324784,-8.895866185897434,-3.982788854663856,9.875899240983376,-4.032537774725275,-34.71145260989011,27.18204690448378,35.08931620091653,40.93590319585468,1577399620.0,-27.68679348451665,-51.12502748990835,7.4862437
61477,1577399620.17,0.2069232581161869,-0.3898753020495906,7.625999448897198,1.9600920225562115,-2.493239855659299,4.210583187940643,4.803469272222751,-11.363173054913776,6.227318518066406,7.967506966939788,17.154228396532012,5.776009908536586,8.689136039919969,0.8500262004573171,5.257955411585366,21.563832352801068,55.71914300685975,-8.275846155678353,-28.383560363247867,-8.998117521367522,-2.2544087856587893,-9.025058775359255,4.765726461038961,-39.431285661453934,27.18204690448378,34.753856291370894,41.07967172851709,1577399620.0,-27.68679348451665,-51.12502748990835,7.4862437
61478,1577399620.18,0.6510476660751708,3.070943197706268,5.938087278487042,-1.7305698365746478,3.0577166934129663,8.202914456251191,-5.7561571498963895,1.2770146098811457,9.756371765136718,10.729347787252289,0.4000780059070121,2.2359708460365857,8.872241508669969,9.730641434832316,4.983297208460366,27.423207352801068,54.19326410060975,0.3148520865091462,-28.47170806623932,-9.100368856837608,-2.630143583268586,-13.955743475274724,3.48264625999001,-17.749552580832628,27.038278371821367,34.753856291370894,41.07967172851709,1577399620.0,-27.68679348451665,-51.12502748990835,7.4862437
61479,1577399620.19,-0.1845287133193594,2.3622595063000182,9.773598338057356,-0.7692978700219124,-0.3576119747999232,4.7301249481945495,11.155286276617282,-7.458230147198932,21.10009923095703,20.617043099752287,-1.247871212842988,2.9989102991615857,7.224292289919969,2.803151200457317,6.936422208460366,13.812367509051068,3.473049256859756,-13.158658655678352,-27.9428218482906,-10.531887553418803,-2.479849664224669,-9.8468395586785,1.832971715784216,-3.4425586432797965,27.229969748704587,34.8017791355917,41.03174888429628,1577399620.0,-27.68679348451665,-51.12502748990835,7.4862437
61480,1577399620.2,-0.6801284569717032,0.9975645600109556,9.380949265791733,-0.4029850160180061,-0.4797162594678919,14.821684945753146,-3.705523427972561,8.654747025652629,13.582306018066406,-0.0433572908727134,6.351005740282012,2.8463224085365857,4.142016899294969,0.6058855754573171,4.220357755335366,12.255971024676068,-16.027683165015244,4.175325719321647,-27.23764022435897,-10.122882211538462,-4.583964530839531,-6.354271229571711,2.016268887362638,-3.8850429918639056,27.18204690448378,34.70593344715009,40.93590319585468,1577399620.0,-27.68679348451665,-51.12502748990835,7.4862437
61481,1577399620.21,0.2775522070907963,1.213042709425019,10.660650053145243,4.622444268649962,-1.351205663764767,9.087571969678924,-1.251466726312404,-3.572440852765338,12.222399475097657,0.2618184903772866,5.176078982469512,2.2970060022865857,8.475512993044969,9.089772294207316,1.0770472084603655,9.356801102801068,-16.638034727515244,14.825960484946648,-28.47170806623932,-9.304871527777776,-3.531907097532104,-9.435949167018876,3.2993490884115886,-2.852579511834319,27.253931170814987,34.70593344715009,41.12759457273789,1577399620.0,-27.68679348451665,-51.12502748990835,7.4862437
61482,1577399620.22,0.088410275938452,1.5242889252453309,6.610857944990948,3.395415917819883,0.486344110405154,12.751897610548069,0.0844978000547826,-0.8765697834294014,6.68461103515625,1.8182149747522869,0.1559373809070121,1.4119962366615857,2.799243461794969,8.189503739519816,3.6252649818978657,5.236928055926068,-1.1351050400152438,-2.446988733803354,-28.64800347222222,-9.71387686965812,-3.381613178488186,-8.408723187869821,-2.3828632305194803,-2.70508472897295,27.038278371821367,34.8257405577021,41.03174888429628,1577399620.0,-27.68679348451665,-51.12502748990835,7.4862437
61483,1577399620.23,0.2991000220322021,-2.033494741746856,5.701061314131573,0.2745740538062116,-0.508446679389767,5.122774020460175,6.505746652593844,11.83424683034013,10.273519323730468,9.844338021627289,5.160820193407012,3.0294278772865857,1.4259524461699695,8.570973466082316,-2.1272984946646343,14.666859696551068,8.935695741234756,9.729524938071648,-28.29541266025641,-9.304871527777776,-2.780437502312504,9.875899240983376,-3.665943431568431,-3.8850429918639056,27.229969748704587,34.753856291370894,41.07967172851709,1577399620.0,-27.68679348451665,-51.12502748990835,7.4862437
61484,1577399620.24,-0.9387022362685782,-0.2617855132312308,12.941127134444072,0.911431695407774,-1.7127301144483609,11.069970944288302,-11.991855373773342,-10.427040205792682,8.279149340820313,-8.435691275247713,0.4916307402820121,-1.4261385289634143,1.4259524461699695,-2.079661299542683,7.943502286585366,-2.667124678448933,14.428859803734756,18.365999547446645,-28.824298878205127,-8.691363514957265,-2.630143583268586,10.286789632642996,-3.299349088411588,0.0973161453930689,27.3258154371462,34.753856291370894,41.07967172851709,1577399620.0,-27.68679348451665,-51.12502748990835,7.4862437
61485,1577399620.25,-0.3030416954970943,3.3486705902843936,7.86063121159251,-1.1380049256859748,3.47670198394031,7.133903414991424,4.26716810034775,0.6581134807307548,7.587225061035156,7.204567513814787,2.5515672637195124,1.4730313929115857,-0.0388913038300304,4.374806473894817,0.1157434975228658,6.015126298113568,14.505153749047258,-2.141812952553354,-28.03096955128205,-9.407122863247864,-3.156172299922304,-3.2725932921245406,-2.0162688873626373,-2.4100951632502112,27.253931170814987,34.65801060292928,40.959864617965074,1577399620.0,-27.68679348451665,-51.12502748990835,7.4862437
61486,1577399620.26,-1.0560181176162344,6.113973507764862,9.134346494795636,1.2825329527319926,2.498670605766482,6.968703500440643,-2.7262949489686545,-7.64497787669112,7.436390356445312,10.424172006002289,-6.954658322217988,-2.1890779820884143,-1.6868405225800305,2.955739091082317,-0.4183141196646341,4.351918290301067,22.97378167873476,-2.294400843178354,-28.29541266025641,-9.71387686965812,-1.8786739880489929,-5.7379356420822765,-3.299349088411588,-2.852579511834319,27.229969748704587,34.46631922604607,40.93590319585468,1577399620.0,-27.68679348451665,-51.12502748990835,7.4862437
61487,1577399620.27,-0.4766213158584219,0.2457852387218932,6.445658030440167,-0.7190196351586311,-0.2450844967725794,6.468315353467987,-1.6082027736756852,-9.332890047101277,11.654973681640625,3.0999532560022867,1.254570193407012,0.2828458460365854,-5.196362006955031,0.3922625285823171,-1.2728063071646345,1.6968889934260671,11.407619569359756,-12.761930140053352,-28.29541266025641,-9.71387686965812,-1.8786739880489929,-9.641394362848688,2.382863230519481,-1.525126466081995,27.373738281367,34.70593344715009,40.88798035163387,1577399620.0,-27.68679348451665,-51.12502748990835,7.4862437
61488,1577399620.28,-0.9578558495498282,-1.645634072801543,6.771269456221417,-1.4157323182640995,1.9599752322313255,9.74837162788205,3.2903338230040013,11.020218265887005,6.885723974609375,-8.252585806497713,5.252372927782012,-1.3040682164634143,-3.670483100705032,-3.025706221417683,1.6873987709603655,4.046742509051067,7.653957459984756,-0.7074867806783537,-27.9428218482906,-9.304871527777776,-3.982788854663856,-6.148826033741899,-3.665943431568431,-0.1976734203296699,27.08620121604217,34.993470512474914,41.12759457273789,1577399620.0,-27.68679348451665,-51.12502748990835,7.4862437
61489,1577399620.29,-0.804626943299828,3.1343895417004086,7.940836967207745,-1.3510888734398812,1.7037956545946071,8.68893739326291,-1.0491566860292008,0.9633741924006768,10.882843646240234,-0.1806863924352131,-1.3546827362804876,-0.6479402867759144,-5.593090522580031,-1.9118146198551829,-2.0052281821646343,-5.367930342511432,2.206569764672256,4.480501500571647,-29.61762820512821,-9.407122863247864,-3.456760138010145,2.5825947890250776,-0.8248372721028965,1.0560322339919697,27.062239793931766,34.562164914487674,41.05571030640668,1577399620.0,-27.68679348451665,-51.12502748990835,7.4862437
61490,1577399620.3,0.4451463233017333,0.8299704438000182,12.095973948408917,0.231478423923399,-1.0974202877882044,11.067576742628146,-0.7103771511170914,2.290959012957316,12.42351241455078,-5.872214712747714,-6.985175900342988,-2.7078768102134143,-4.982738960080031,0.8500262004573171,0.4056604897103658,-6.695444990948933,-2.874606993140244,-0.3717934213033537,-28.1191172542735,-8.691363514957265,-3.531907097532104,9.875899240983376,1.832971715784216,1.867253539729502,27.18204690448378,34.70593344715009,41.07967172851709,1577399620.0,-27.68679348451665,-51.12502748990835,7.4862437
61491,1577399620.31,-0.5771777855849844,-0.8723069365710745,10.908449924971416,-2.0525899598656623,0.3175528933641383,7.042923751905487,-3.5834191433045923,4.79768815114091,12.58392392578125,-13.867820181497711,4.153740115282012,2.1139005335365857,-7.820873725705031,0.9720965129573172,-1.1507359946646345,-5.413706709698933,-10.015720274390244,4.755159703696647,-28.1191172542735,-8.691363514957265,-3.531907097532104,10.69768002430262,1.832971715784216,-3.737548209002536,27.229969748704587,34.70593344715009,41.03174888429628,1577399620.0,-27.68679348451665,-51.12502748990835,7.4862437
61492,1577399620.32,-1.992150966737328,2.436479757764862,11.856553782393291,-4.221736663967226,1.8713897708055445,10.006945407178929,3.443562729254001,-5.904393269757526,10.924742175292968,-14.768088736185211,6.183159060594512,-0.7700105992759144,-5.776195991330031,-5.589182783917683,0.0089319740853658,-16.979868819073932,-21.673435118140244,-1.4399086556783538,-28.73615117521368,-9.407122863247864,-2.705290542790545,10.90312522013243,2.382863230519481,-1.525126466081995,27.134124060262977,34.70593344715009,41.12759457273789,1577399620.0,-27.68679348451665,-51.12502748990835,7.4862437
61493,1577399620.33,-0.1677693016982657,-1.0494778594226368,4.314818552901104,-1.6527582826195686,-0.3863423947217987,8.473459243848847,-1.203582693109279,6.677136454363567,7.846995941162109,-7.092917837747714,11.813652224657012,2.9989102991615857,-5.913525092892531,-3.590281416730183,-0.6929723227896342,-6.069834639386433,-15.600437071265244,1.8254722036966464,-29.00059428418804,-9.71387686965812,-2.179261826136828,10.800402622217526,3.757592017357643,-1.5988738575126793,27.3258154371462,34.72989486926049,41.05571030640668,1577399620.0,-27.68679348451665,-51.12502748990835,7.4862437
61494,1577399620.34,-1.905959706971703,3.5904849579601743,8.586074314619854,-2.7923982728539447,4.330234875786013,7.720482821729706,5.574402206793063,-20.621550874737995,4.2521021484375,-7.550681509622714,-1.583564572217988,-1.7618318883384143,-5.684643256955031,-13.249094893292684,-0.0215856040396341,-17.590220381573932,2.252346131859756,-4.705289515053353,-27.061344818376067,-9.918379540598291,-4.13308277370778,1.6580914077909268,2.1995660589410586,0.6872952768385466,27.18204690448378,34.70593344715009,41.07967172851709,1577399620.0,-27.68679348451665,-51.12502748990835,7.4862437
61495,1577399620.35,-0.668157448670922,2.967992526319549,9.45038111393626,0.059095904392149,-0.2618439083936732,8.240024581983612,0.8626133396055637,16.76869645192216,6.265625744628906,-5.933249868997714,-4.543769650342988,-0.4800936070884145,-6.569653022580031,-5.345042158917683,-4.416116854039634,-8.373911787823932,-10.595554258765244,-9.343961390053352,-27.061344818376067,-9.918379540598291,-4.13308277370778,0.8363106244716829,1.832971715784216,-34.71145260989011,27.08620121604217,34.70593344715009,40.93590319585468,1577399620.0,-27.68679348451665,-51.12502748990835,7.4862437
61496,1577399620.36,-0.3521228295302969,-0.3982550078601375,9.249268174483136,-0.2401793031273811,-0.3863423947217981,7.878500131300018,2.95275138892197,15.705670914812783,4.812345336914063,-7.550681509622712,-10.464179806592988,0.0692227991615855,-10.506420600705033,-3.636057783917683,-0.5709020102896342,-1.5684918659489329,13.543850038109756,6.403108922446647,-28.55985576923077,-10.225133547008546,-3.306466218966221,-1.629031725486053,2.932754745254746,-39.431285661453934,27.206008326594183,34.46631922604607,41.03174888429628,1577399620.0,-27.68679348451665,-51.12502748990835,7.4862437
61497,1577399620.37,-0.1797403099990469,1.172341281202362,11.150264292647195,2.97643062729254,1.8306883425828888,11.51768665473752,-0.1980179958436544,-10.840039992169634,10.224438189697263,-24.33534947837272,-7.473457150342988,0.1912931116615854,-10.430126655392533,-3.9870099323551833,-2.5850621665396343,-8.312876631573932,17.35854730373476,-1.4856850228658525,-28.1191172542735,-9.918379540598291,-2.930731421356421,2.9934851806847,3.574294845779222,-41.12747566435968,27.08620121604217,34.63404918081888,41.031748884296285,1577399620.0,-27.68679348451665,-51.12502748990835,7.4862437
61498,1577399620.38,0.6486534644150146,-4.3917833770007615,3.1416597394245422,-0.7645094667015999,-2.126927001655392,1.155581869581268,-3.0950020046327174,9.159923575945598,3.2417490478515623,-14.783347525247711,-3.323066525342988,2.4801114710365857,-7.820873725705031,-5.100901533917683,-1.2117711509146345,5.236928055926067,29.47402581935976,-2.691129358803354,-27.23764022435897,-10.122882211538462,-3.982788854663856,10.081344436813186,3.48264625999001,-39.28379087859256,27.18204690448378,34.753856291370894,41.07967172851709,1577399620.0,-27.68679348451665,-51.12502748990835,7.4862437
61499,1577399620.39,2.5161307593368902,1.7948337128429868,10.968304966475324,0.5594840513648054,1.7492854861375755,7.983845004346893,-2.798120998773342,-10.101428780011432,5.865794067382812,-8.161033072122713,-11.196601681592988,-2.7078768102134143,-3.914623725705032,-19.62726872141768,3.3963831459603657,-5.383189131573933,34.44839105373475,0.4521811880716463,-27.23764022435897,-10.122882211538462,-3.982788854663856,-8.203277992040011,4.765726461038961,-37.07136913567202,27.18204690448378,34.753856291370894,41.07967172851709,1577399620.0,-27.68679348451665,-51.12502748990835,7.4862437
61500,1577399620.4,2.4646554236435305,2.0737582062511906,11.438765592696026,0.7438375791968366,1.299175574028201,13.121801767042207,1.5928448459532198,-11.664842464093462,21.976377038574217,-5.887473501810215,-11.028755001905488,-0.8920809117759144,-9.011059272580033,-0.8894757526676829,-3.4090367759146343,-5.627329756573933,1.3368187881097562,-24.236539515053355,-28.912446581196583,-9.202620192307691,-3.607054057054063,9.875899240983376,8.065075549450551,-34.12147347844463,27.15808548237338,34.70593344715009,40.88798035163387,1577399620.0,-27.68679348451665,-51.12502748990835,7.4862437
61501,1577399620.41,2.2168555518173583,-2.454874233934356,9.74486791813548,3.5426593199194927,1.975537543022342,10.544443679884004,5.156614017095797,24.585764872332312,2.60489140625,-3.5528787752477133,4.733574099657012,0.8016446741615855,-10.506420600705033,1.4603777629573171,0.2072962318978655,10.546986649676068,-1.3639868759527438,-6.917813929115853,-28.29541266025641,-8.077855502136753,-4.583964530839531,1.34992361404621,4.490780703671328,-36.997621744241336,27.229969748704587,34.8497019798125,41.05571030640668,1577399620.0,-27.68679348451665,-51.12502748990835,7.4862437
61502,1577399620.42,-1.108690554139672,0.964045736768768,14.126256956221416,1.232254717868711,-4.748577819526487,8.797873568800018,-5.465261648187405,-13.38387925608565,7.764395983886718,-26.19692174399772,12.942802615282012,1.8087247522865848,-10.903149116330033,-4.337962080792683,-1.7000524009146345,-19.90955631907393,13.910060975609756,9.180208531821648,-29.00059428418804,-8.895866185897434,-3.0810253404003385,-13.133962691955478,4.399132117882118,-33.53149434699915,27.18204690448378,34.70593344715009,41.03174888429628,1577399620.0,-27.68679348451665,-51.12502748990835,7.4862437
61503,1577399620.43,-1.2786788720107656,-4.319957327196074,7.262080796553448,-0.9919586244164436,-1.8683532223585169,7.04052955024533,1.4204623264219698,-1.6810215412419014,18.748993200683596,-25.98329869712272,6.198417849657012,1.5645841272865857,-10.720043647580033,-6.107981612042683,-2.0052281821646343,-19.02454655344893,5.120998475609756,-0.3717934213033537,-29.00059428418804,-8.895866185897434,-3.0810253404003385,-13.133962691955478,3.2993490884115886,-34.71145260989011,27.3258154371462,34.70593344715009,41.03174888429628,1577399620.0,-27.68679348451665,-51.12502748990835,7.4862437
61504,1577399620.44,2.2312207617782955,5.434020236280487,11.650652439619854,-3.3275023438988662,4.96469831572742,13.455792898634003,-3.3380134731385764,-2.3346385944645576,11.872846032714843,-0.8368143221227134,-15.255439572217988,-2.2806307164634143,-6.188183296017532,-3.3003644245426838,1.0923059975228655,-13.546641280011432,2.237087342797256,7.4864829458841475,-29.00059428418804,-8.895866185897434,-3.0810253404003385,-9.435949167018876,2.749457573676324,-19.077005626584956,27.08620121604217,34.53820349237728,41.12759457273789,1577399620.0,-27.68679348451665,-51.12502748990835,7.4862437
61505,1577399620.45,0.0608769568466556,-0.5754259307117,10.21652564518626,4.849893426364805,-6.529863854682736,2.5657666474132994,13.800879111089936,1.0555509563166912,17.178396911621093,-6.314719595560212,-4.177558712842988,-0.1138826695884145,-4.128246772580031,-0.2486066120426829,-0.9065953696646342,-5.566294600323933,-14.196628477515244,-18.163541468178355,-29.00059428418804,-8.895866185897434,-3.3816131784881795,-6.55971642540152,1.832971715784216,-3.4425586432797965,27.18204690448378,34.94554766825411,41.12759457273789,1577399620.0,-27.68679348451665,-51.12502748990835,7.4862437
61506,1577399620.46,2.365296054747046,-0.2019304717273245,6.263698704268292,-1.5282597962914437,-0.2019888668897669,4.39733091743283,-2.4126545314881853,17.53962938649247,6.490680700683593,-10.632956900247711,3.909599490282013,-0.0833650914634145,-9.865551460080033,-11.540110518292684,-0.4793492759146341,0.2320452434260671,-13.220065977515244,1.1235679068216462,-29.17688969017094,-8.691363514957265,-3.8324949356199385,-5.7379356420822765,1.832971715784216,-3.4425586432797965,27.18204690448378,34.61008775870848,41.22344026117951,1577399620.0,-27.68679348451665,-51.12502748990835,7.4862437
61507,1577399620.47,1.4052211890243895,2.843494039991424,7.214196763350323,-1.2912338319359749,2.785974804985232,16.30608997505002,-7.512304067620999,-14.071015132550494,12.885593334960936,2.3064962247522867,3.1161424590320124,0.5269864710365855,-3.1211666944550305,-14.408762862042684,-0.0826207602896341,-20.94715397532393,-20.544284727515244,7.623812047446647,-28.1191172542735,-9.509374198717948,-2.930731421356421,-3.2725932921245406,1.832971715784216,-3.147569077557058,27.08620121604217,34.753856291370894,40.93590319585468,1577399620.0,-27.68679348451665,-51.12502748990835,7.4862437
61508,1577399620.48,-1.2044586205459218,0.4241532624035343,12.91000251286204,-1.7652857606469134,-1.1261507077100794,8.141862313917207,6.699676987066501,10.713760453387,8.990227233886719,-10.159934439310211,-0.2865675019054876,0.8474210413490856,-4.036694038205031,3.276173661394817,-1.1507359946646345,-14.90467350657393,-34.71969976657775,1.6423667349466466,-28.1191172542735,-9.509374198717948,-2.930731421356421,-4.505264467103409,1.832971715784216,-0.6401577689137781,27.27789259292539,34.8497019798125,41.05571030640668,1577399620.0,-27.68679348451665,-51.12502748990835,7.4862437
61509,1577399620.49,2.061232443907202,2.2138190033703307,11.401655466963604,0.2075364073218366,4.081237903129763,16.952524423292207,-8.465196328363186,-7.096705696515339,13.261482995605467,-10.816062368997711,-5.886543087842988,0.8321622522865855,-9.590893256955033,-12.577708174542684,0.5582483803353658,-26.65394108469893,-24.603122618140244,20.227571813071645,-28.64800347222222,-9.71387686965812,-1.578086149961158,-5.7379356420822765,1.832971715784216,0.3923057111158077,27.18204690448378,34.562164914487674,41.03174888429628,1577399620.0,-27.68679348451665,-51.12502748990835,7.4862437
61510,1577399620.5,0.605557834532202,-4.317563125535918,4.659583591963605,0.4278029600562116,0.9352569216844508,11.936671945264864,4.748402634039158,-16.118057551984087,10.563217724609377,-3.949607290872713,2.6888963652820124,1.3814786585365857,-6.417065131955031,11.836354325457316,-3.5616246665396343,-24.05994694407393,-25.427097227515244,2.710481969321646,-29.00059428418804,-10.122882211538462,-3.0810253404003385,-4.916154858763031,-4.032537774725275,-1.6726212489433638,27.229969748704587,34.94554766825411,41.03174888429628,1577399620.0,-27.68679348451665,-51.12502748990835,7.4862437
61511,1577399620.51,0.3158594336532958,-1.597750039598418,8.961963975264387,1.4788574888648052,-2.1508690182569543,7.026164340284393,9.129791672125092,5.341171927996379,6.53138212890625,-4.498923697122714,5.618583865282012,2.0223477991615857,-7.027416694455031,-6.413157393292683,2.6944788490853657,-3.369028975323933,-21.459812071265244,-3.637174280678354,-29.353185096153844,-8.486860844017095,-3.0810253404003385,-6.354271229571711,-3.849240603146853,-2.115105597527472,27.18204690448378,34.70593344715009,40.79213466319226,1577399620.0,-27.68679348451665,-51.12502748990835,7.4862437
61512,1577399620.52,2.093554166319312,1.816381527784393,8.131175999190166,3.211062389987852,1.876178174125857,9.874067215040254,-3.9341696865174822,3.084636863299114,4.065354418945312,2.2302022794397875,-8.022773556592988,0.5727628382240855,-4.692821967892531,-6.321604658917684,0.0547083412728658,1.0560198528010671,26.57485589748476,6.769319859946647,-29.52948050213675,-9.509374198717948,-3.8324949356199385,1.0417558203014932,-0.1832971715784212,-2.262600380388842,27.15808548237338,34.63404918081888,41.03174888429628,1577399620.0,-27.68679348451665,-51.12502748990835,7.4862437
61513,1577399620.53,1.6374587500595457,0.0949505341320494,7.578115415694073,0.3200638853491803,-0.8675769284132044,8.764354745557831,-3.5666597316834983,-11.921022041730184,10.838550915527344,-1.0809549471227131,-6.649482540967988,0.3133634241615854,-2.9990963819550305,-5.680735518292683,2.1146448647103657,2.093617509051067,26.91054925685976,-8.947232874428353,-29.353185096153844,-8.895866185897434,-3.982788854663856,10.081344436813186,0.1832971715784216,-0.6401577689137783,27.08620121604217,34.94554766825411,41.12759457273789,1577399620.0,-27.68679348451665,-51.12502748990835,7.4862437
61514,1577399620.54,0.6318940527939207,1.1029094330578306,9.117587083174543,-1.4205207215844122,-0.5563307125928919,8.184957943800018,4.856141708746189,3.54073227955888,14.020444921875,1.3299337247522869,-0.1187208222179878,-0.2969881383384145,2.860278618044969,-4.887278487042683,1.0465296303353655,5.725209305926067,11.773830506859756,-13.341764124428352,-28.29541266025641,-9.304871527777776,-3.0810253404003385,10.081344436813186,0.1832971715784216,-0.6401577689137783,27.038278371821367,34.753856291370894,41.07967172851709,1577399620.0,-27.68679348451665,-51.12502748990835,7.4862437
61515,1577399620.55,1.7332268164657958,-3.2305955718249804,12.213289829756572,-0.8123934999047249,0.908920703422732,8.718864914014862,-5.853122317132717,9.82311743580888,15.195997937011718,-15.729392447122711,3.2992479277820124,1.5645841272865857,-4.921703803830031,0.4227801067073171,-1.5779820884146345,5.145375321551067,10.583644959984756,7.959505406821647,-28.47170806623932,-9.918379540598291,-4.433670611795614,10.69768002430262,-2.9327547452547447,3.0472118026204567,27.038278371821367,34.61008775870848,40.93590319585468,1577399620.0,-27.68679348451665,-51.12502748990835,7.4862437
61516,1577399620.56,1.1478445105575927,-0.8830808440417776,9.491082542158916,-0.1120895143090222,0.6886541506883576,9.628661544874236,-1.0419740810487328,3.379123667498333,11.512518682861328,-8.603537954935213,12.469780154344512,1.8850186975990857,-5.959301460080031,1.4451189738948171,2.4808558022103657,-8.328135420636432,-11.511081602515244,-4.217008265053353,-29.70577590811965,-10.531887553418803,-1.8786739880489929,1.658091407790928,1.6496745442057943,2.899717019759088,26.990355527600563,34.72989486926049,40.98382604007548,1577399620.0,-27.68679348451665,-51.12502748990835,7.4862437
61517,1577399620.57,0.969476486875952,4.593655453565643,11.684171262862042,-1.4516453431664436,2.1275693484422638,8.991803903272675,-1.768614284906154,-3.1295135456364327,11.906364855957031,7.341896615377286,-3.933418087842988,0.3743985804115854,2.646655571169969,-6.657298018292683,2.4198206459603657,-8.160288740948932,-18.774265196265244,1.3982261099466462,-28.1191172542735,-9.509374198717948,-2.630143583268586,-2.0399221171456747,1.832971715784216,3.0472118026204567,27.18204690448378,34.8017791355917,40.79213466319226,1577399620.0,-27.68679348451665,-51.12502748990835,7.4862437
61518,1577399620.58,0.4930303565048583,2.611256478956268,10.436792197920637,-0.2353908998070686,-1.8515938107374232,11.405159176710178,1.396520309820407,5.010772098894817,7.445967163085937,2.4590841153772867,-3.902900509717988,-0.3275057164634145,1.3649172899199695,1.5519304973323171,0.4056604897103658,-8.221323897198932,-22.955173399390244,-1.2873207650533538,-29.353185096153844,-9.71387686965812,-0.9769104737854758,-2.0399221171456747,1.832971715784216,3.0472118026204567,27.18204690448378,34.8017791355917,41.03174888429628,1577399620.0,-27.68679348451665,-51.12502748990835,7.4862437
61519,1577399620.59,1.0820039649032958,-4.401360183641387,8.600439524580791,-0.4628400575219124,-1.7055475094678918,8.702105502393769,-0.7702321926209977,4.493624540301068,8.564059338378906,-3.3392557283727133,6.381523318407012,1.7171720179115857,-0.0694088819550304,2.467457841082317,-0.1436559165396341,-8.465464522198932,-18.835300352515244,12.994905797446648,-29.00059428418804,-9.71387686965812,-2.780437502312504,1.247201016131305,1.832971715784216,0.9822848425612848,26.990355527600563,34.8017791355917,41.03174888429628,1577399620.0,-27.68679348451665,-51.12502748990835,7.4862437
61520,1577399620.6,0.5516882971786864,-1.6025384429187306,6.11765240299876,0.7893274107398053,-3.122914892280392,8.953496676710174,-0.1441484584901392,-2.505824013165729,7.736862664794922,0.4907003263147867,9.631645388719512,1.1831144007240857,-2.7091793897675305,1.7655535442073171,0.7718714272103657,-7.870371748761432,-11.556857969702744,3.824373570884146,-27.76652644230769,-11.145395566239314,-2.630143583268586,4.739769345238096,2.3828632305194803,-36.48139000422654,27.110162638152573,34.8257405577021,41.00778746218588,1577399620.0,-27.68679348451665,-51.12502748990835,7.4862437
61521,1577399620.61,-0.4263430809951407,-1.3391762603015431,10.307505308272198,-3.417284906154726,6.202500574028201,14.713945871046114,-5.78129626732803,6.112104862566692,11.915941662597657,-4.437888540872714,-5.428779415967988,1.6866544397865857,-2.4802975538300305,-1.8660382526676829,4.220357755335366,-0.5614117878239329,-1.1045874618902438,11.377474156821648,-29.353185096153844,-8.895866185897434,-1.8786739880489929,9.875899240983376,1.832971715784216,-41.4962126215131,27.08620121604217,34.753856291370894,40.88798035163387,1577399620.0,-27.68679348451665,-51.12502748990835,7.4862437
61522,1577399620.62,-0.1534040917373282,5.048553768995331,12.55326646549876,-1.8442944154320688,2.709360351860232,12.535222360303928,4.693335995855564,-15.526689741925496,10.36210478515625,8.715187631002287,-7.351386837842988,0.4659513147865854,2.433032524294969,10.920826981707316,0.1920374428353658,-3.277476240948933,3.198391053734756,-2.904752405678354,-27.9428218482906,-9.71387686965812,-3.682201016576021,9.875899240983376,1.832971715784216,-41.4962126215131,27.18204690448378,34.8017791355917,41.03174888429628,1577399620.0,-27.68679348451665,-51.12502748990835,7.4862437
61523,1577399620.63,-0.2180475365615474,-2.001173019334747,11.310675803877666,3.46125646347418,-5.928919237983518,4.476339572217987,3.505811972418064,4.615728824969036,7.496245397949218,-7.169211783060212,3.985893435594512,1.9613126429115857,3.226489555544969,3.382985184832317,0.6498011147103658,1.5443011028010671,4.785305116234756,-4.522184046303353,-27.67837873931624,-9.611625534188036,-3.156172299922304,9.875899240983376,3.2993490884115886,-38.54631696428571,27.253931170814987,34.562164914487674,41.27136310540031,1577399620.0,-27.68679348451665,-51.12502748990835,7.4862437
61524,1577399620.64,0.078833469297827,2.9703867279797054,9.945980857588603,-3.343064654689881,2.841041443168826,11.238762161329316,-0.4063135402772485,1.6122028423030204,10.664971295166016,4.259621224752286,4.916679568407012,2.1749356897865857,2.585620414919969,-8.457835127667684,2.2519739662728657,4.351918290301068,10.812526795922256,-1.7756020150533536,-27.590231036324784,-10.122882211538462,-3.682201016576021,2.171704397365453,4.857375046828173,-34.93269478418216,26.84658699493815,34.753856291370894,40.98382604007548,1577399620.0,-27.68679348451665,-51.12502748990835,7.4862437
61525,1577399620.65,1.5560558936142332,1.9241206024914244,9.024213218428448,6.279231817478086,-4.303256310737424,6.932790475538299,6.505746652593844,9.327517692156537,9.011775048828124,7.372414193502286,-12.539375119092988,-0.2664705602134145,8.933276664919969,12.019459794207316,-0.9676305259146342,6.915394852801067,6.250148866234756,0.9099448599466464,-27.23764022435897,-8.895866185897434,-1.8786739880489929,-7.381497208720765,4.765726461038961,-35.00644217561285,27.3258154371462,34.70593344715009,40.93590319585468,1577399620.0,-27.68679348451665,-51.12502748990835,7.4862437
61526,1577399620.66,0.1698131323837645,-3.2473549834460744,8.001889109541729,-3.398131292873476,-2.136503808296017,5.6135853607922055,-2.5227878078553734,5.2070966350276295,18.00200228271484,1.4214864591272869,-1.064765744092988,1.8392423304115848,-0.0083737257050304,-10.227854658917684,0.9244593178353658,3.436390946551067,-4.278415586890244,12.811800328696648,-29.70577590811965,-9.304871527777776,-2.780437502312504,-7.176052012890954,5.315617975774226,-31.90905173552409,27.18204690448378,34.70593344715009,41.07967172851709,1577399620.0,-27.68679348451665,-51.12502748990835,7.4862437
61527,1577399620.67,-2.001727773377953,3.88018335883908,16.08471391422923,-3.7237427186547256,2.383748926078982,19.406581124952364,-7.6320141506288115,-6.847708723859088,12.969390393066403,2.3064962247522867,1.437675662157012,1.3509610804115857,5.820483696169969,-2.476389815167683,-1.9747106040396345,-3.185923506573933,-3.729099180640244,-5.407193811928353,-29.70577590811965,-9.304871527777776,-2.479849664224669,-13.133962691955478,2.566160402097902,-4.032537774725275,26.990355527600563,34.70593344715009,41.03174888429628,1577399620.0,-27.68679348451665,-51.12502748990835,7.4862437
61528,1577399620.68,0.1482653174423583,-7.1858167144031055,7.321935838057354,4.933690484470274,-5.430925292671017,4.509858395460174,8.409136972418063,24.82757924000809,8.17141026611328,-14.905417837747711,-3.506171994092988,0.4964688929115854,1.9752688524199693,6.282155106707317,3.7320765053353657,15.460316727801068,-1.1961401962652438,6.860872594321647,-28.824298878205127,-9.509374198717948,-2.0289679070929103,-8.614168383699631,-0.7331886863136862,-3.737548209002536,27.373738281367,34.70593344715009,40.93590319585468,1577399620.0,-27.68679348451665,-51.12502748990835,7.4862437
61529,1577399620.69,2.2384033667587646,-0.7310490386218557,7.039420042158917,1.1293040464819928,2.8865312747117944,7.672598788526581,5.931138254156345,-3.3641453083317447,9.85692823486328,6.853615365377286,10.104667849657012,2.3885587366615857,5.789966118044969,-10.227854658917684,5.257955411585366,2.490346024676067,12.994533631859756,17.633577672446645,-28.824298878205127,-8.691363514957265,-1.4277922309172344,-6.55971642540152,3.2993490884115886,-2.852579511834319,27.229969748704587,34.8017791355917,41.03174888429628,1577399620.0,-27.68679348451665,-51.12502748990835,7.4862437
