,timestamp,acc_x_dashboard,acc_y_dashboard,acc_z_dashboard,acc_x_above_suspension,acc_y_above_suspension,acc_z_above_suspension,acc_x_below_suspension,acc_y_below_suspension,acc_z_below_suspension,gyro_x_dashboard,gyro_y_dashboard,gyro_z_dashboard,gyro_x_above_suspension,gyro_y_above_suspension,gyro_z_above_suspension,gyro_x_below_suspension,gyro_y_below_suspension,gyro_z_below_suspension,mag_x_dashboard,mag_y_dashboard,mag_z_dashboard,mag_x_above_suspension,mag_y_above_suspension,mag_z_above_suspension,temp_dashboard,temp_above_suspension,temp_below_suspension,timestamp_gps,latitude,longitude,speed
63525,1577396065.67,-0.7659051110839843,-0.0367509954833974,11.802995199279785,-1.128661699695121,-2.103802517328029,12.994266732267052,-1.0472352071126294,1.204682468668619,9.16340782063802,-1.2264251708984375,0.7715225219726562,0.489044189453125,-0.3449974990472559,-2.748628941977896,-0.5629004501714938,-1.2190682547433034,-10.88532947358631,8.773440406436013,-3.613363632894883,-18.039739092752487,1.4595619658119638,30.646269821187605,-3.5061366722581666,-97.63212250712247,33.12447958786354,36.86246143708629,37.58130410039836,1577396065.0,-27.6878000481926,-51.13224754618141,5.2382483
63526,1577396065.68,-0.7994239343261718,0.6719326959228514,10.558010335998532,-0.6785517875857464,1.911273666754001,8.82835584359518,3.9757998758951816,-1.4265451558430984,14.20320231526693,-1.0738372802734375,-0.2660751342773437,1.038360595703125,-2.786403749047256,-6.258150426352897,2.336269471703506,-1.6157967703683034,-9.66462634858631,7.369631812686012,-5.058709086052835,-16.710495159602303,-0.5473357371794875,31.419639141925344,-2.2015276779295467,-115.08126780626785,33.17240243208434,36.910384281307095,37.43753556773595,1577396065.0,-27.6878000481926,-51.13224754618141,5.2382483
63527,1577396065.69,-0.7970297326660151,2.437656420288086,10.316195968322752,-0.9347313652224652,3.2831512180235323,9.247341134122523,-1.4183364644368484,9.177373996988932,10.264740584309898,-1.9741058349609373,-2.066612243652344,1.770782470703125,-2.755886170922256,0.3336464486471036,1.8479882217035064,-0.0594002859933033,-4.964919317336309,-2.151852562313988,-4.73752120757329,-16.710495159602303,0.1824452457264983,30.646269821187605,1.7122993050563151,-113.41944444444444,33.12447958786354,37.24584419085272,37.24584419085272,1577396065.0,-27.6878000481926,-51.13224754618141,5.2382483
63528,1577396065.7,-0.8329427575683592,0.4732139581298828,13.565127621154785,-0.5193373771853564,0.5789004428770487,8.12446055550924,-3.4917151021321606,2.098916788736979,9.823010378011068,-2.965927124023437,-0.5407333374023438,1.007843017578125,0.6926001572027439,-0.7497275747903966,2.656704042016006,-1.7836434500558034,6.082443963913691,-3.250485374813988,-5.3798969645323815,-16.710495159602303,1.2771167200854732,31.419639141925344,-2.6907560508027792,-97.2166666666667,33.22032527630515,37.12603708030071,37.53338125617755,1577396065.0,-27.6878000481926,-51.13224754618141,5.2382483
63529,1577396065.71,-0.945470235595703,-3.2282218084716794,8.094376827697753,-1.030499431628715,-2.747842763910061,12.290371444181115,0.3988625956217443,-3.3778195088704424,13.674083748372398,-3.9119720458984375,0.0696182250976562,2.320098876953125,-2.633815858422256,-3.816744176352896,0.8409081435785062,-2.5923592703683034,-0.3567650204613095,2.059573218936012,-4.255739389853973,-18.41952307365253,0.7297809829059857,30.646269821187605,-3.179984423676012,-93.47756410256412,33.02863389942193,37.341689879294336,37.58130410039836,1577396065.0,-27.6878000481926,-51.13224754618141,5.2382483
63530,1577396065.72,0.5485116003417968,1.490749663696289,10.35689739654541,0.6813547553830024,0.6231931735899388,12.86258564095846,-2.2036346089680983,-4.230155299886067,12.4482524983724,-1.9588470458984373,-2.707481384277344,1.618194580078125,-3.061061952172256,0.9134804330221036,3.740078065453506,-2.3787362234933034,5.929856073288691,7.217043922061012,-5.219303025292609,-16.900387150052328,0.3648904914529966,32.19300846266308,2.364603802220625,-93.47756410256412,33.31617096474676,37.0062299697487,37.341689879294336,1577396065.0,-27.6878000481926,-51.13224754618141,5.2382483
63531,1577396065.73,-0.1829170068359374,1.8043900811767577,10.3245756741333,2.105904743175971,3.78952486914658,11.605629769376428,0.0828279764811199,6.357004441324869,12.227985945638023,-1.1348724365234373,-1.593589782714844,1.557159423828125,-2.237087342797256,-1.6805137076028966,0.6272850967035062,-1.2648446219308034,13.02519298735119,1.891726539248512,-5.540490903772153,-18.41952307365253,-1.094671474358975,33.06304894849305,-0.2038451553638465,-89.94618945868947,33.19636385419474,37.00622996974871,37.36565130140474,1577396065.0,-27.6878000481926,-51.13224754618141,5.2382483
63532,1577396065.74,0.2899378210449218,0.8634688287353515,10.718421847229004,-0.0177521293826214,-0.5356004299256852,7.8012433313881475,-2.354469313557942,-2.252544728597005,9.97025378011068,-1.6536712646484375,-1.2731552124023438,0.885772705078125,5.789035704077744,-2.748628941977896,3.434902284203506,-0.3035409109933034,13.92546154203869,-0.046139671688988,-3.934551511374428,-19.179091035452643,0.0,31.61298147210978,-3.0984463615304736,-5.816381766381765,33.22032527630515,36.910384281307095,37.725072633060776,1577396065.0,-27.6878000481926,-51.13224754618141,5.2382483
63533,1577396065.75,0.4982333654785156,-0.7550114935302734,8.640254806213377,-5.282601580066215,1.4683463596250947,8.356698116544397,-2.5771300679524733,2.0881428812662755,7.813078084309896,-4.7969818115234375,-1.0290145874023438,0.855255126953125,-7.119899842797256,1.859525354897104,-0.8375586532964938,1.3138907296316966,8.67643810453869,-1.602536156063988,-4.73752120757329,-17.470063121402408,0.5473357371794949,31.61298147210978,-3.0984463615304736,-5.816381766381765,33.12447958786354,37.10207565819032,37.725072633060776,1577396065.0,-27.6878000481926,-51.13224754618141,5.2382483
63534,1577396065.76,0.0169988317871093,1.1388020196533202,6.779960116271972,2.805011627941596,1.7939577854063449,19.140182393888143,-1.4853741109212233,-3.85187143758138,6.498661372884115,-3.484725952148437,1.0461807250976562,1.007843017578125,-1.138454530297256,-1.6194785513528964,0.7188378310785062,-1.2495858328683034,-1.5469505673363095,3.371829078311012,-4.73752120757329,-16.330711178702252,1.6420072115384623,31.80632380229421,1.7122993050563151,-6.231837606837628,33.02863389942193,37.0062299697487,37.58130410039836,1577396065.0,-27.6878000481926,-51.13224754618141,5.2382483
63535,1577396065.77,0.544920297851563,2.782421459350586,7.192959902648925,-2.9578317680544965,0.8578249362852517,7.87666068368307,-0.859290376790364,3.965196982828776,8.012993922932942,3.2291412353515625,4.220008850097656,1.877593994140625,3.454440977515244,3.049710901772104,2.717739198266006,-0.6392342703683034,-13.08259509858631,1.250857398623512,-4.898115146813063,-18.41952307365253,0.3648904914529966,55.49075924988755,2.4869108954389327,-79.9752492877493,33.10051816575314,36.93434570341749,37.22188276874233,1577396065.0,-27.6878000481926,-51.13224754618141,5.2382483
63536,1577396065.78,1.2140996618652344,-0.1277306585693349,10.78306529205322,4.670094721203315,1.0972451023008762,13.05412177377096,-1.6314204121907545,-0.7777165059407548,11.792241243489586,1.0623931884765625,4.281044006347656,1.984405517578125,-3.762966249047256,5.857328089272103,5.143886659203506,-0.9138924734933034,-2.3404075985863093,-2.060299827938988,-4.898115146813063,-18.039739092752487,1.094671474358975,55.58743041497977,2.9353702372393964,-81.42934472934473,33.12447958786354,37.05415281396951,37.341689879294336,1577396065.0,-27.6878000481926,-51.13224754618141,5.2382483
63537,1577396065.79,0.8046911779785156,-1.5905878729248046,11.108676717834472,2.429121967297065,3.096403488531345,8.742164583829554,-1.214829323323567,-3.0976979146321613,10.664572261555993,1.2454986572265625,3.396034240722656,2.075958251953125,6.399387266577744,7.993558558022103,3.007656190453506,-0.3950936453683034,-1.6690208798363095,2.944582984561012,-3.45276969365511,-18.609415064102564,-0.1824452457264983,30.83961215137204,-5.544588225896636,-7.47820512820515,33.02863389942193,37.341689879294336,37.38961272351514,1577396065.0,-27.6878000481926,-51.13224754618141,5.2382483
63538,1577396065.8,-1.3213598962402342,-0.2306813299560546,12.25310511138916,-1.2052761528201217,3.426803317632908,8.768500802091273,-2.4550257832845044,1.5757837259928378,12.330936617024742,0.8182525634765625,2.968788146972656,1.709747314453125,-3.274684999047256,-1.8941367544778964,-0.0441016220464938,0.5509512765066966,3.2137916201636907,3.036135718936012,-6.02227272149147,-18.22963108320252,0.1824452457264983,30.646269821187605,-6.115354660915408,-2.0772792022792146,33.12447958786354,37.19792134663192,37.43753556773595,1577396065.0,-27.6878000481926,-51.13224754618141,5.2382483
63539,1577396065.81,-0.5623979699707021,1.8690335260009765,12.480554269104005,2.378843732433784,2.564890719976657,13.300724544767052,0.987836204020182,1.951673386637369,11.02370251057943,1.7337799072265625,3.792762756347656,1.160430908203125,-2.633815858422256,10.129789026772103,0.5357323623285062,1.0392325265066966,2.0846412295386907,6.270999000186012,-3.934551511374428,-17.280171130952382,1.094671474358975,32.19300846266308,-3.3430605479670894,-2.908190883190908,33.12447958786354,37.0062299697487,37.58130410039836,1577396065.0,-27.6878000481926,-51.13224754618141,5.2382483
63540,1577396065.82,0.6538564733886719,2.4843433526611327,9.455480471496582,-0.7396039299197313,1.0110538425352515,9.276071554044398,-2.659730025227864,3.602475431315104,6.966727797444661,0.1773834228515627,4.815101623535156,1.526641845703125,2.996677305640244,3.446439417397104,2.656704042016006,1.2375967843191966,-6.73493884858631,0.747317359561012,-3.613363632894883,-18.98919904500261,1.0946714743589747,32.38635079284752,-3.016908299384934,-86.83027065527065,33.12447958786354,36.93434570341749,37.341689879294336,1577396065.0,-27.6878000481926,-51.13224754618141,5.2382483
63541,1577396065.83,0.7927201696777344,-1.782124005737305,7.194157003479003,0.8872560981564399,-3.130915029535061,12.431629342130334,1.9024212381998693,5.724935203043619,11.73238620198568,-1.8672943115234373,5.196571350097656,1.862335205078125,4.537815000952744,12.967923792397103,4.228359315453506,3.6637442452566966,-8.13874744233631,-3.799801781063988,-3.613363632894883,-19.179091035452643,0.7297809829059857,31.419639141925344,-2.690756050802779,-86.83027065527065,33.12447958786354,37.05415281396951,37.38961272351514,1577396065.0,-27.6878000481926,-51.13224754618141,5.2382483
63542,1577396065.84,0.4192247106933593,-0.2785653631591797,9.02811547515869,-0.9754327934451212,1.89930265845322,5.574635787442835,-1.6625450337727858,-4.237337904866536,11.768299226888024,1.6727447509765625,5.318641662597656,2.899932861328125,3.134006407202744,-4.121919957602897,3.099208924828506,2.8397696358816966,-6.338210332961309,-1.266842796688988,-5.701084843011927,-18.609415064102564,1.6420072115384623,31.419639141925344,-3.3430605479670894,-86.83027065527065,33.17240243208434,37.19792134663192,37.24584419085272,1577396065.0,-27.6878000481926,-51.13224754618141,5.2382483
63543,1577396065.85,-1.2674903588867186,1.9935320123291012,12.184870364074706,-0.3457577568240277,4.31265793189072,9.853074154142051,-0.3433399190266921,-5.95876889851888,10.190520332845056,7.1048736572265625,5.425453186035156,2.686309814453125,-1.687770936547256,9.244779261147103,0.1695214248285061,1.6190665108816966,-8.23030017671131,4.897707984561012,-4.8178181771931765,-17.944793097527473,1.185894097222224,31.419639141925344,-3.5061366722581666,-101.78668091168092,33.26824812052595,37.10207565819032,37.58130410039836,1577396065.0,-27.6878000481926,-51.13224754618141,5.2382483
63544,1577396065.86,-1.3883975427246091,1.9073407525634765,10.22282210357666,-0.8114299797244189,-0.2782237514588883,12.576478542569786,-0.0296995015462238,-3.067770393880208,9.06883685506185,2.1610260009765625,2.846717834472656,3.174591064453125,4.171604063452744,3.171781214272104,2.595668885766006,0.8408682686941966,-3.0117943173363093,10.970706031436013,-4.576927268333519,-18.41952307365253,0.3648904914529966,26.392738557130023,-3.179984423676012,-105.52578347578346,33.17240243208434,37.12603708030071,37.43753556773594,1577396065.0,-27.6878000481926,-51.13224754618141,5.2382483
63545,1577396065.87,-2.1569362756347656,-1.2123040106201173,10.84770873687744,-3.036840422839653,-1.6704520168397476,6.252194857267054,-0.372070338948567,8.741629294840495,9.287906306966146,-2.477645874023437,0.7715225219726562,2.686309814453125,2.523654844702744,3.080228479897104,3.068691346703506,3.5111563546316966,-4.232497442336309,5.904788062686012,-4.576927268333519,-18.41952307365253,0.3648904914529966,31.03295448155648,-1.8753754293473912,-101.78668091168092,33.02863389942193,37.0062299697487,37.43753556773595,1577396065.0,-27.6878000481926,-51.13224754618141,5.2382483
63546,1577396065.88,-0.7467514978027343,-2.7805060980224607,6.9140354092407215,0.7675460151486274,0.4627816623594699,10.829908431485803,1.047691245524088,1.5278996927897128,11.164960408528648,-4.6443939208984375,0.1611709594726562,3.296661376953125,0.845188047827744,7.016996058022103,1.7259179092035062,4.243578229631696,-2.8286888485863093,-1.144772484188988,-3.934551511374428,-18.79930705455259,-0.3648904914529891,30.646269821187605,-1.8753754293473912,-100.12485754985757,33.31617096474676,37.10207565819032,37.43753556773595,1577396065.0,-27.6878000481926,-51.13224754618141,5.2382483
63547,1577396065.89,-0.0356736047363276,3.820307879028321,9.663776015930177,1.107522650890815,1.0804856906797824,9.769277096036586,-2.7016285542805982,2.52628178507487,12.3333308186849,3.9310455322265625,1.748085021972656,3.968048095703125,1.699680235327744,-0.5513633169778964,4.350429627953506,3.8163321358816966,3.4579322451636907,-1.999264671688988,-4.33603635947386,-17.944793097527473,1.0034488514957294,30.646269821187605,-3.5061366722581666,-111.7576210826211,33.17240243208434,37.05415281396951,37.341689879294336,1577396065.0,-27.6878000481926,-51.13224754618141,5.2382483
63548,1577396065.9,1.877293521728516,2.264076799926757,6.779960116271972,-1.3465340507693409,2.2285053867247044,11.957577413419395,-1.7714812093098953,-0.4952007100423173,8.804277571614584,8.539199829101562,2.633094787597656,3.815460205078125,2.416843321265244,5.643705042397103,4.548793885766006,2.1836417061941966,0.6045386904761906,0.823611304873512,-5.219303025292609,-16.900387150052328,-0.3648904914529891,30.646269821187605,-3.5061366722581666,-113.41944444444444,33.17240243208434,37.10207565819032,37.29376703507353,1577396065.0,-27.6878000481926,-51.13224754618141,5.2382483
63549,1577396065.91,1.467885037841797,-2.074216608276368,13.170084347229002,3.056402802258002,-0.8923364772889665,10.406134737638146,-1.5332581441243485,-0.6388528096516923,8.67259648030599,-4.9800872802734375,2.236366271972656,4.395294189453125,5.117648985327744,-3.206392613852896,5.388027284203506,2.4430411202566966,-3.0117943173363093,9.536379859561013,-5.219303025292609,-16.900387150052328,-0.3648904914529891,31.80632380229421,-3.179984423676012,-2.0772792022792146,33.22032527630515,37.19792134663192,37.62922694461916,1577396065.0,-27.6878000481926,-51.13224754618141,5.2382483
63550,1577396065.92,1.8341978918457031,-0.8699331732177734,6.959525240783691,-2.5603942924685588,2.9192325656797826,9.44127146859518,-3.127796449788411,5.150326804606119,12.500924934895837,-4.2171478271484375,4.677772521972656,4.090118408203125,6.063693907202744,5.246976526772103,3.434902284203506,3.9078848702566966,-7.162184942336309,7.064456031436012,-3.613363632894883,-19.179091035452643,-1.094671474358975,31.419639141925344,-3.5061366722581666,-2.0772792022792146,33.02863389942193,37.0062299697487,37.24584419085272,1577396065.0,-27.6878000481926,-51.13224754618141,5.2382483
63551,1577396065.93,-0.394803853759765,0.9424774835205078,10.309013363342284,0.3617288337521436,0.8123351047422825,11.677455819181114,-1.6553624287923172,-1.7533536824544274,7.365362373860678,5.502700805664063,6.920814514160156,4.761505126953125,1.913303282202744,7.902005823647104,1.4360009170160062,3.923143659319196,-5.88044666108631,7.384890601748513,-3.934551511374428,-17.47006312140241,1.6420072115384623,30.646269821187605,-0.5707664350187711,-0.8309116809117011,33.148441009973936,37.269805612963125,37.36565130140474,1577396065.0,-27.6878000481926,-51.13224754618141,5.2382483
63552,1577396065.94,-1.2375628381347654,3.578493511352539,10.560404537658693,-4.250700664538871,1.7795925754454074,8.936094918302212,-1.511710329182942,4.264472190348307,9.548874287923176,8.325576782226562,10.506629943847656,3.968048095703125,4.720920469702744,7.291654261147103,4.655605409203506,4.274095807756696,-16.95832752046131,4.989260718936012,-3.2921757544153376,-19.55887501635269,-0.7297809829059857,30.646269821187605,1.7122993050563151,1.2463675213675056,33.22032527630515,37.05415281396951,37.53338125617755,1577396065.0,-27.6878000481926,-51.13224754618141,5.2382483
63553,1577396065.95,-0.0500388146972646,-1.6073472845458985,6.9499484341430655,-0.9945864067263714,-3.085425197992092,9.247341134122523,2.2160616556803383,3.462414634195964,10.626265034993493,-1.4705657958984375,7.058143615722656,3.723907470703125,2.432102110327744,13.639310511147103,5.143886659203506,3.3890860421316966,-13.60139392671131,-5.325680687313988,-3.2921757544153376,-19.55887501635269,-0.7297809829059857,30.646269821187605,1.7122993050563151,1.2463675213675056,33.12447958786354,37.10207565819032,37.341689879294336,1577396065.0,-27.6878000481926,-51.13224754618141,5.2382483
63554,1577396065.96,0.1965639562988281,-1.5498864447021483,7.000226669006347,2.18970180128144,-0.7965684108827165,9.96320743050924,-0.8724584859212233,-10.079189955647784,7.116365401204427,0.8182525634765625,8.278846740722656,4.761505126953125,4.629367735327744,8.481839808022103,4.045253846703506,3.8773672921316966,-18.14851306733631,-0.5344209216889881,-4.416333329093746,-17.090279140502357,-0.1824452457264983,30.646269821187605,-2.690756050802779,-0.4154558404558628,33.31617096474676,37.10207565819032,37.43753556773595,1577396065.0,-27.6878000481926,-51.13224754618141,5.2382483
63555,1577396065.97,0.922007059326172,3.3713950677490234,9.30943417022705,1.4690471015744089,5.133869101324314,6.819620650724087,0.1762018412272136,1.9001980509440104,5.819905202229818,4.831314086914063,7.393836975097656,4.227447509765625,0.997775938452744,7.337430628334603,4.152065370141006,4.228319440569196,-30.90486072358631,9.521121070498513,-4.496630298713631,-17.944793097527473,0.6385583600427402,27.55279253823664,-3.098446361530473,-1.2463675213675387,33.17240243208435,37.22188276874232,37.43753556773594,1577396065.0,-27.6878000481926,-51.13224754618141,5.2382483
63556,1577396065.98,-1.910333504638672,1.5745467218017577,6.945160030822753,-0.9275487602419964,0.6279815769102512,7.473237703946741,2.0652269510904944,-1.596533473714192,5.404511214192708,5.1212310791015625,9.530067443847656,2.991485595703125,8.474582579077744,12.357572229897103,3.007656190453506,2.4430411202566966,-31.60676502046131,5.782717750186012,-3.934551511374428,-20.3184429781528,0.0,31.03295448155648,-2.2015276779295467,-4.570014245014259,33.31617096474676,37.05415281396951,37.43753556773595,1577396065.0,-27.6878000481926,-51.13224754618141,5.2382483
63557,1577396065.99,-2.0994754357910157,-2.313636774291992,7.778342208557128,-2.6537681572146528,-2.0918315090272475,4.581042098477991,-1.2435597432454422,-2.1041042256673173,13.726756184895835,-5.5294036865234375,2.633094787597656,2.930450439453125,1.608127500952744,3.141263636147104,2.885585877953506,3.5721915108816966,-23.91633533296131,6.606692359561012,-3.934551511374428,-20.3184429781528,0.0,31.22629681174091,-2.119989615784008,6.647293447293441,33.12447958786354,36.81453859286549,37.38961272351514,1577396065.0,-27.6878000481926,-51.13224754618141,5.2382483
63558,1577396066.0,-1.271081661376953,0.6180631585693358,8.2942926663208,-4.552370073718559,1.26723342017197,5.921795028165492,-2.2682780537923173,-2.934892201741536,10.83216637776693,1.4591217041015627,4.845619201660156,2.625274658203125,4.232639219702744,5.063871058022103,2.336269471703506,2.2904532296316966,-5.148024786086309,10.116213843936013,-4.737521207573291,-18.03973909275249,0.912226228632484,30.646269821187605,-2.2015276779295467,-7.8936609686609795,33.17240243208434,37.0062299697487,37.58130410039836,1577396066.0,-27.687842775309004,-51.13222548380943,5.2515526
63559,1577396066.01,2.4327483068847657,2.3574506646728515,10.153390255432129,1.670160041027534,0.99908283423447,13.5389476099526,1.105152085367838,5.410097684733072,15.335659700520836,7.0133209228515625,6.142616271972656,3.174591064453125,2.218479063452744,6.910184534584603,3.144985292016006,2.2294180733816966,17.48075939360119,5.660647437686013,-3.613363632894883,-18.79930705455259,0.0,31.03295448155648,-2.5276799265117016,-101.78668091168092,33.12447958786354,37.05415281396951,37.43753556773594,1577396066.0,-27.687842775309004,-51.13222548380943,5.2515526
63560,1577396066.02,0.6682216833496094,2.055781255493164,12.868414938049316,-0.6306677543826215,0.9152857761290012,10.667102718595178,-4.16927417195638,5.732117808024088,11.718020992024742,2.1610260009765625,8.278846740722656,2.136993408203125,5.331272032202744,10.709623011147103,2.885585877953506,1.6190665108816966,34.03654552641369,-10.635739281063987,-3.773957572134656,-17.470063121402408,1.2771167200854732,31.03295448155648,-2.2015276779295467,-106.77215099715102,33.22032527630515,37.0062299697487,37.341689879294336,1577396066.0,-27.687842775309004,-51.13222548380943,5.2515526
63561,1577396066.03,1.0967837805175782,-1.2051214056396484,7.701727755432128,-0.1733752372927777,0.9104973728086888,13.140313033536584,-1.2746843648274735,-0.0666386128743486,5.215369283040364,-3.7288665771484375,8.339881896972656,1.923370361328125,0.814670469702744,10.251859339272103,3.038173768578506,2.9923575265066966,23.93522716703869,-14.145260765438987,-3.773957572134656,-17.470063121402408,1.2771167200854732,31.80632380229421,-2.038451553638469,-103.44850427350433,33.12447958786354,37.19792134663192,37.43753556773595,1577396066.0,-27.687842775309004,-51.13222548380943,5.2515526
63562,1577396066.04,0.7484274389648442,1.2501323968505855,8.458295480041503,2.9845767524533144,0.6303757785704075,9.589711971524869,-1.6745160420735672,-10.787873647054036,3.960807613118489,1.1539459228515625,10.720252990722656,2.426910400390625,2.096408750952744,13.547757776772103,3.129726502953506,1.7106192452566966,10.29386974516369,-4.867917015438988,-4.737521207573291,-19.748767006802723,0.1824452457264982,30.646269821187605,-2.8538321750938573,-100.12485754985757,33.26824812052595,37.05415281396951,37.43753556773595,1577396066.0,-27.687842775309004,-51.13222548380943,5.2515526
63563,1577396066.05,-2.695631649169922,3.681444182739258,11.688073519592283,-0.7240416191287157,4.111544992437596,7.335571108487757,-0.0428676106770833,-3.080938503011067,8.491834254964195,7.257461547851562,10.842323303222656,1.313018798828125,-0.772243592797256,9.000638636147105,1.1155663467035062,0.4288809640066966,-9.80195545014881,12.389773414248513,-4.576927268333519,-18.79930705455259,0.0,31.03295448155648,-3.3430605479670894,-101.78668091168092,33.17240243208434,37.22188276874232,37.29376703507353,1577396066.0,-27.687842775309004,-51.13222548380943,5.2515526
63564,1577396066.06,-1.4410699792480468,-0.903451996459961,8.66419682281494,0.4874244209103462,-2.158869155511623,6.345568722013148,2.0843805643717443,3.122437998453776,8.236851778157552,-2.538681030273437,6.386756896972656,0.824737548828125,0.936740782202744,3.110746058022104,0.2915917373285062,0.7950919015066966,-2.0047142392113093,7.461184547061012,-4.0951454506142,-18.609415064102564,-0.9122262286324764,32.96637778340082,-3.3430605479670894,-113.41944444444444,33.22032527630515,37.10207565819032,37.341689879294336,1577396066.0,-27.687842775309004,-51.13222548380943,5.2515526
63565,1577396066.07,-2.391568038330078,-0.3001131781005859,5.683415755920409,-4.85164528123809,1.3797608981993137,7.78687812142721,-0.831757057698567,8.104771653238931,8.033344637044271,-4.4307708740234375,3.121376037597656,1.709747314453125,2.096408750952744,-1.1311973013528964,0.6883202529535062,3.2975333077566966,-1.6995384579613095,1.418704078311012,-4.0951454506142,-18.609415064102564,-0.9122262286324764,32.96637778340082,-3.3430605479670894,-113.41944444444444,33.17240243208434,37.10207565819032,37.43753556773595,1577396066.0,-27.687842775309004,-51.13222548380943,5.2515526
63566,1577396066.08,-1.788229219970703,1.2692860101318355,9.976219332580566,-1.8289656852908247,-0.8863509731385758,8.622454500821743,-2.246730238850911,3.2660900980631515,10.39761877644857,1.3065338134765625,4.998207092285156,1.740264892578125,0.7841528915777439,6.376126917397103,3.083950135766006,2.3057120186941966,7.36418224516369,-8.163815452938987,-3.934551511374428,-19.179091035452643,-0.1824452457264945,31.22629681174091,-2.8538321750938564,-87.66118233618235,33.19636385419474,37.14999850241112,37.48545841195675,1577396066.0,-27.687842775309004,-51.13222548380943,5.2515526
63567,1577396066.09,-0.6366182214355468,2.1108478936767576,10.763911678771972,-0.8126270805544964,4.315052133550876,10.724563558438929,-5.754235670979817,-10.21087104695638,8.919199251302084,-0.8602142333984375,4.403114318847656,2.442169189453125,1.516574766577744,5.185941370522103,2.244716737328506,1.6801016671316966,6.204514276413691,2.151125953311012,-3.2921757544153376,-19.179091035452643,1.094671474358975,31.22629681174091,-3.4245986101126284,-86.41481481481483,33.12447958786354,37.0062299697487,37.43753556773595,1577396066.0,-27.687842775309004,-51.13222548380943,5.2515526
63568,1577396066.1,0.3976768957519531,3.5425804864501957,7.313867086486815,0.7076909736447211,5.770726742925877,12.450782955411585,-3.51805132039388,-6.3945136006673176,4.238535005696615,-0.1888275146484375,5.806922912597656,1.007843017578125,-3.396755311547256,11.228421839272103,3.465419862328506,-2.0430428641183034,1.1385963076636905,13.839358375186013,-4.73752120757329,-18.609415064102564,0.1824452457264983,32.77303545321639,-3.4245986101126284,-3.323646723646737,33.31617096474676,37.0062299697487,37.62922694461916,1577396066.0,-27.687842775309004,-51.13222548380943,5.2515526
63569,1577396066.11,-1.8432958581542969,-0.9178172064208984,8.755176485900877,0.1570245918087837,0.88416115454697,7.928136019376429,0.1738076395670569,7.872534092203775,10.597534615071618,-1.8978118896484373,6.295204162597656,1.496124267578125,4.751438047827744,9.824613245522103,2.427822206078506,-2.0125252859933034,-5.086989629836309,15.212649390811013,-4.255739389853973,-19.179091035452643,1.4595619658119638,31.22629681174091,-3.4245986101126284,-6.647293447293474,33.12447958786354,37.0062299697487,37.53338125617755,1577396066.0,-27.687842775309004,-51.13222548380943,5.2515526
63570,1577396066.12,-1.2112266198730468,0.140419927368164,11.915522677307129,-1.3070297233767627,-0.7283336635682641,7.0135509851967415,0.6718015848795572,5.763242429606119,15.66366532796224,-0.3719329833984375,7.302284240722656,1.496124267578125,-2.588039491234756,4.773954065834603,2.732997987328506,-1.6005379813058034,28.29924083891369,0.442141578311012,-4.255739389853973,-19.179091035452643,1.4595619658119638,32.19300846266308,1.7122993050563151,-81.84480056980057,33.22032527630515,37.03019139185911,37.43753556773594,1577396066.0,-27.687842775309004,-51.13222548380943,5.2515526
63571,1577396066.13,-2.0037073693847653,1.435683025512695,12.030444356994629,2.18970180128144,2.0501373630430635,10.375010116056115,-2.038434694417317,4.5445937845865885,4.197833577473958,1.2760162353515625,5.623817443847656,1.511383056640625,-2.298122499047256,9.336331995522103,-0.1356543564214938,-2.2566659109933034,43.37492443266369,-8.713131859188987,-3.773957572134656,-18.98919904500261,-1.2771167200854694,22.912576613810188,-3.179984423676012,-83.50662393162395,33.148441009973936,37.0062299697487,37.43753556773595,1577396066.0,-27.687842775309004,-51.13222548380943,5.2515526
63572,1577396066.14,-1.3692439294433592,3.3462559503173828,11.64018948638916,-1.286679009265434,-0.6361568996522478,14.91681066537252,-1.7176116719563796,-3.535836818440755,5.746882051595052,-2.447128295898437,0.3747940063476562,1.679229736328125,3.530734922827744,-2.748628941977896,1.6038475967035062,-1.920972551618304,29.21476818266369,-5.691891624813988,-3.773957572134656,-18.22963108320252,0.1824452457264983,31.03295448155648,-3.179984423676012,-81.01388888888891,33.17240243208434,36.86246143708629,37.43753556773595,1577396066.0,-27.687842775309004,-51.13222548380943,5.2515526
63573,1577396066.15,0.0696712683105468,1.3830105889892577,10.814189913635254,-4.284219487781058,1.6838245090391573,6.000803682950648,-2.816550233968098,3.3020031229654947,0.7453947835286455,-6.0176849365234375,3.609657287597656,1.251983642578125,3.805393125952744,1.2186562142721036,3.618007752953506,-0.7613045828683034,-4.446120489211309,-1.694088890438988,-5.540490903772153,-18.79930705455259,-0.3648904914529891,31.80632380229421,-3.179984423676012,-7.8936609686609795,32.98071105520113,37.10207565819032,37.53338125617755,1577396066.0,-27.687842775309004,-51.13222548380943,5.2515526
63574,1577396066.16,-1.929487117919922,2.064160961303711,6.119160458068847,0.9542937446408152,3.7440350376036102,8.488379207852992,-1.6338146138509109,-5.458380751546224,3.052208083089192,-3.7899017333984375,4.509925842285156,0.519561767578125,-1.809841249047256,6.864408167397103,1.8174706435785064,0.1389639718191966,-48.80342029389881,7.491702125186013,-5.299599994912494,-18.70436105932757,0.2736678685897474,30.646269821187605,-6.767659158079718,-87.66118233618238,33.17240243208434,37.29376703507353,37.341689879294336,1577396066.0,-27.687842775309004,-51.13222548380943,5.2515526
63575,1577396066.17,-3.3612197106933595,-1.3200430853271483,8.020156576232909,-1.5213107719607466,-3.7103118312928736,5.387888057950648,0.2576046976725257,9.86211567179362,12.888785603841148,-1.7452239990234375,1.931190490722656,0.641632080078125,2.767795469702744,1.6459023080221036,2.061611268578506,0.5814688546316966,-52.14509509858631,15.121096656436013,-3.934551511374428,-19.179091035452643,-1.4595619658119638,31.999666132478648,-3.0984463615304736,-97.2166666666667,33.17240243208434,37.19792134663192,37.43753556773595,1577396066.0,-27.687842775309004,-51.13222548380943,5.2515526
63576,1577396066.18,-2.3963564416503904,-0.3743334295654296,7.512585824279784,-1.0328936332888714,-1.0862668117616228,6.465278805020961,0.5496973002115881,-0.8016585225423174,19.15441134847005,1.1539459228515625,1.992225646972656,2.411651611328125,-5.105739686547256,-11.995455113852897,1.6038475967035062,-2.8059823172433034,-2.8592064267113093,0.6862822033110119,-2.81039393669602,-19.36898302590267,0.1824452457264983,30.646269821187605,-3.179984423676012,-99.29394586894593,33.17240243208434,37.24584419085272,37.19792134663192,1577396066.0,-27.687842775309004,-51.13222548380943,5.2515526
63577,1577396066.19,-2.4155100549316404,2.094088482055664,12.88996275299072,-2.828544878406059,-0.2746324489686539,10.683862130216273,0.0732511698404944,3.5869131205240885,11.363679146321616,1.5506744384765625,0.6494522094726562,2.686309814453125,-4.220729920922256,3.507474573647104,3.648525331078506,-1.982007707868304,26.59025646391369,0.2285185314360119,-4.0951454506142,-17.849847102302462,-0.9122262286324764,30.646269821187605,-3.179984423676012,-99.29394586894593,32.98071105520113,37.0062299697487,37.341689879294336,1577396066.0,-27.687842775309004,-51.13222548380943,5.2515526
63578,1577396066.2,-1.2710816613769529,0.0015562310791015,10.200077187805174,-0.7192532158084026,-4.462091152581936,15.113135201505331,-0.2763022725423171,9.39524634806315,9.66140176595052,-2.965927124023437,-1.0900497436523438,3.266143798828125,-3.427272889672256,1.0355507455221036,2.458339784203506,-1.2495858328683034,30.49650646391369,-4.898434593563988,-3.934551511374428,-17.849847102302462,0.1824452457264984,30.646269821187605,-1.7122993050563138,-108.43397435897435,33.19636385419474,37.19792134663192,37.53338125617755,1577396066.0,-27.687842775309004,-51.13222548380943,5.2515526
63579,1577396066.21,-2.755486690673828,4.904881231079101,13.217968380432128,-0.6845372917361375,5.02852422827744,9.981163942960412,-4.199201692708333,-2.685895229085286,5.496687978108724,1.3065338134765625,-0.3881454467773437,2.686309814453125,0.6926001572027439,-2.6265586294778966,4.182582948266006,-0.6087166922433034,-1.9436790829613104,0.335330054873512,-4.898115146813063,-18.039739092752487,0.3648904914529966,31.419639141925344,-2.60921798865724,-107.18760683760684,33.02863389942193,37.03019139185911,37.22188276874232,1577396066.0,-27.687842775309004,-51.13222548380943,5.2515526
63580,1577396066.22,-0.763510909423828,0.1188721124267578,7.424000362854003,-0.6929169975466839,-0.4781395900819352,0.6282151575600228,2.251974680582682,-9.885259621175129,6.024609444173177,-5.8040618896484375,-3.317832946777344,1.740264892578125,-4.525905702172256,-4.274507848227897,3.251796815453506,-3.5994393484933034,-21.29182361421131,10.360354468936013,-3.613363632894883,-18.039739092752487,1.094671474358975,17.30564903846156,-3.4245986101126284,-97.2166666666667,33.17240243208434,36.910384281307095,37.58130410039836,1577396066.0,-27.687842775309004,-51.13222548380943,5.2515526
63581,1577396066.23,-1.1417947717285155,0.0853532891845703,4.1918281216430655,-2.644191350574028,0.9655640109922824,7.061435018399867,-0.7144411763509108,0.0506772684733066,7.772376656087239,-6.4754486083984375,-2.860069274902344,2.777862548828125,-6.509548280297256,-5.647798863852897,2.366787049828506,-3.2637459891183034,-11.89240955171131,18.691653297061013,-4.576927268333519,-19.55887501635269,0.7297809829059857,15.56556806680164,-2.8538321750938573,-111.7576210826211,33.12447958786354,37.24584419085272,37.58130410039836,1577396066.0,-27.687842775309004,-51.13222548380943,5.2515526
63582,1577396066.24,-1.3692439294433592,0.8263587030029296,6.908049905090331,-3.486950334949028,-0.0196499721620138,10.714986751798303,-0.1326501729329425,11.188503391520182,11.288261794026694,-4.5528411865234375,-3.928184509277344,3.281402587890625,-2.603298280297256,-6.624361363852897,3.831630799828506,-2.4702889578683034,0.1620338076636904,-3.113156273251488,-3.6936606025147696,-19.27403703067765,1.0034488514957294,23.879288264732367,-3.4245986101126284,-7.47820512820515,33.24428669841555,37.0062299697487,37.461496989846346,1577396066.0,-27.687842775309004,-51.13222548380943,5.2515526
63583,1577396066.25,-0.8473079675292968,2.218586968383789,13.021643844299316,0.6957199653439399,0.1323818332579075,12.98947832894674,-0.5205108418782546,-10.411983986409505,10.188126131184898,1.8863677978515625,-1.975059509277344,4.792022705078125,-1.168972108422256,3.415921839272104,5.388027284203506,-4.270826067243304,6.296067010788691,-5.386715843563988,-4.255739389853973,-19.179091035452643,0.0,31.419639141925344,-3.5061366722581666,-5.400925925925935,33.12447958786354,37.0062299697487,37.43753556773595,1577396066.0,-27.687842775309004,-51.13222548380943,5.2515526
63584,1577396066.26,-0.4522646936035145,1.3063961358642575,13.58667543609619,1.2966645820431588,0.3598309909727512,11.543380526212363,-6.60178305867513,-3.0881211079915363,16.152082466634116,-3.301620483398437,-1.1816024780273438,3.693389892578125,-1.718288514672256,-1.7415488638528964,8.134609315453506,-5.338941301618304,19.84587169828869,7.064456031436012,-4.0951454506142,-18.609415064102564,-0.5473357371794875,22.13920729307244,-3.5061366722581666,-8.724572649572671,33.17240243208434,37.24584419085272,37.58130410039836,1577396066.0,-27.687842775309004,-51.13222548380943,5.2515526
63585,1577396066.27,0.1498770239257812,0.0566228692626953,9.396822530822751,-0.9179719536013714,3.3214584445860327,8.74455878548971,-3.570723756917317,-5.360218483479818,15.69718415120443,-6.4907073974609375,-2.280235290527344,3.525543212890625,-5.624538514672256,-3.297945348227896,5.479580018578506,-7.261548723493304,39.89592052641369,17.531985328311013,-4.576927268333519,-19.55887501635269,1.094671474358975,22.13920729307244,-3.5061366722581666,-8.724572649572671,33.07655674364273,37.10207565819032,37.38961272351514,1577396066.0,-27.687842775309004,-51.13222548380943,5.2515526
63586,1577396066.28,-0.6749254479980468,-0.7574056951904297,11.221204195861816,0.2264564399533155,-0.943811812982326,12.89969576669088,1.427172208658854,8.64226992594401,11.536061665852865,-5.2852630615234375,-1.2426376342773438,3.449249267578125,-0.6959496474847561,-1.1159385122903966,3.938442323266006,-6.559644426618304,54.98686290922619,11.123293922061013,-3.934551511374428,-18.039739092752487,0.7297809829059857,27.939477198605505,-3.424598610112628,-4.570014245014259,33.02863389942193,37.03019139185911,37.269805612963125,1577396066.0,-27.687842775309004,-51.13222548380943,5.2515526
63587,1577396066.29,-0.7778761193847655,-0.0367509954833974,10.49097268951416,-2.4191363945193403,0.9727466159727512,7.755753499845179,-2.4741793965657544,8.775148118082681,3.793213496907552,-4.0645599365234375,-0.4186630249023437,3.815460205078125,-4.556423280297256,-2.565523473227896,4.319912049828506,-2.9890877859933034,40.93351818266369,-19.394284202938987,-2.9709878759357924,-18.41952307365253,0.3648904914529966,30.83961215137204,-3.261522485821551,0.0,33.12447958786354,37.05415281396951,37.58130410039836,1577396066.0,-27.687842775309004,-51.13222548380943,5.2515526
63588,1577396066.3,-0.8257601525878905,1.452442437133789,9.126277743225096,-2.4598378227419966,1.6503056857969698,15.19214385629049,0.6430711649576819,-1.2804988545735672,7.662243379720052,-4.0645599365234375,0.9546279907226562,3.479766845703125,-2.877956483422256,0.9745155892721036,4.014736268578506,-3.4468514578683034,27.26164318266369,-17.502194359188987,-3.773957572134656,-18.22963108320252,-0.5473357371794875,31.22629681174091,-3.4245986101126284,-1.661823361823385,33.31617096474676,37.10207565819032,37.24584419085272,1577396066.0,-27.687842775309004,-51.13222548380943,5.2515526
63589,1577396066.31,0.2588131994628906,2.562154906616211,8.999385055236816,1.919157013683784,4.415608603277438,7.442113082364711,-6.362362892659505,-14.09187193806966,1.4947799031575515,-4.3697357177734375,1.4429092407226562,2.930450439453125,-1.809841249047256,3.965238245522104,5.632167909203506,-5.644117082868304,15.57341076078869,1.083010718936012,-3.934551511374428,-19.938658997252745,0.7297809829059857,31.22629681174091,-3.4245986101126284,-1.661823361823385,33.17240243208434,37.0062299697487,37.43753556773595,1577396066.0,-27.687842775309004,-51.13222548380943,5.2515526
63590,1577396066.32,-0.6509834313964843,-0.5395333441162109,9.17655597808838,-0.6234851494021532,0.4352483432676735,8.178330092862756,-2.0875158284505204,-0.2665544514973951,5.544572011311849,-8.520126342773438,0.3442764282226562,2.167510986328125,-3.000026795922256,1.4322792611471036,4.487758729516006,-6.590162004743304,-5.33113025483631,18.157595679873516,-4.255739389853973,-18.41952307365253,0.3648904914529966,30.646269821187605,-3.179984423676012,-3.739102564102583,33.17240243208434,36.958307125527895,37.413574145625546,1577396066.0,-27.687842775309004,-51.13222548380943,5.2515526
63591,1577396066.33,-0.7132326745605467,-1.9856311468505856,8.381681026916503,-0.5540533012576215,-1.1604870632264663,12.98229572396627,2.9415047587076817,15.981695115152997,8.739634126790364,-6.9637298583984375,1.0461807250976562,2.808380126953125,-12.613063905297256,5.735257776772103,1.6954003310785062,-2.0430428641183034,-24.58772205171131,-8.102780296688987,-3.613363632894883,-18.79930705455259,1.4595619658119638,30.646269821187605,-3.3430605479670894,-2.0772792022792146,33.17240243208434,37.0062299697487,37.58130410039836,1577396066.0,-27.687842775309004,-51.13222548380943,5.2515526
63592,1577396066.34,-2.0779276208496094,2.4556129327392577,11.09670570953369,0.3150419013790962,0.3933498142149387,12.886527657560022,4.073962143961587,-5.781597975667318,7.712521614583333,-4.4002532958984375,2.388954162597656,2.198028564453125,-4.953151795922256,0.7914101205221036,4.136806581078506,-2.8670174734933034,-30.32502673921131,-11.642819359188987,-4.255739389853973,-18.79930705455259,-0.3648904914529891,30.83961215137204,-2.6092179886572406,-8.309116809116826,33.41201665318837,37.05415281396951,37.725072633060776,1577396066.0,-27.687842775309004,-51.13222548380943,5.2515526
63593,1577396066.35,-0.7156268762207025,1.634401763305664,9.588358663635251,-1.230415270251762,3.8733219272520487,6.092980446866664,-2.13899116414388,-5.839058815511068,9.499793153889977,-0.4329681396484375,1.0766983032226562,2.610015869140625,-3.930812928734756,0.7761513314596034,3.755336854516006,-2.8517586844308034,-36.39802478608631,4.668826148623512,-3.45276969365511,-19.748767006802723,0.912226228632484,30.742940986279823,-2.4869108954389323,-97.4243945868946,33.22032527630515,37.07811423607991,37.48545841195675,1577396066.0,-27.687842775309004,-51.13222548380943,5.2515526
63594,1577396066.36,-2.1306000573730466,1.3877989923095702,11.819754610900878,3.2120259101681583,-1.6345389919374038,11.236922713712366,-1.7343710835774733,1.1783462504069004,8.787518159993489,-6.4449310302734375,-4.355430603027344,2.381134033203125,-5.532985780297256,2.256253870522104,3.251796815453506,-4.148755754743304,-33.55989002046131,14.785403297061013,-3.45276969365511,-18.22963108320252,-0.1824452457264983,31.61298147210978,-2.772294112948318,-98.87849002849003,33.17240243208434,37.0062299697487,37.43753556773595,1577396066.0,-27.687842775309004,-51.13222548380943,5.2515526
63595,1577396066.37,-1.864843673095703,1.375827984008789,7.986637752990721,-3.106272270984184,-0.2722382473084977,6.446125191739711,1.4618881327311193,8.157444089762368,9.735622017415364,-8.825302124023438,-4.202842712402344,2.381134033203125,-0.955349061547256,-16.664644566977895,4.136806581078506,-2.2871834891183034,-27.12068103608631,9.017581031436013,-4.416333329093746,-18.98919904500261,1.2771167200854732,31.419639141925344,-3.5061366722581666,-101.78668091168092,33.17240243208434,37.05415281396951,37.58130410039836,1577396066.0,-27.687842775309004,-51.13222548380943,5.2515526
63596,1577396066.38,0.1869871496582031,0.140419927368164,7.311472884826659,-3.008110002917778,2.35898937720322,4.030375716642054,-1.1262438618977857,2.4592441385904946,15.565503059895835,-8.367538452148438,-3.897666931152344,2.198028564453125,-5.227809999047256,3.537992151772104,3.679042909203506,-3.0806405203683034,-9.84773181733631,3.860110328311012,-3.131581815175565,-17.470063121402408,0.912226228632484,31.419639141925344,-3.5061366722581666,-101.78668091168092,33.17240243208434,37.10207565819032,37.58130410039836,1577396066.0,-27.687842775309004,-51.13222548380943,5.2515526
63597,1577396066.39,0.5604826086425782,1.5075090753173828,8.903616988830565,1.5444644538693306,1.4204623264219698,9.610062685636194,-0.5492412618001301,-2.187901283772786,12.137006282552086,-3.072738647460937,-3.317832946777344,2.945709228515625,-3.289943788109756,-0.9175742544778964,5.571132752953506,-4.850660051618304,11.57560802641369,2.410525367373512,-4.73752120757329,-18.22963108320252,0.5473357371794949,30.646269821187605,-3.179984423676012,-98.4630341880342,33.17240243208434,37.10207565819032,37.341689879294336,1577396066.0,-27.687842775309004,-51.13222548380943,5.2515526
63598,1577396066.4,0.2037465612792968,-2.045486188354492,8.719263460998533,0.3198303046994087,-1.864382351312404,9.628019198087369,-1.2531365498860672,5.928442344156901,10.542467976888023,-4.4307708740234375,-1.6698837280273438,2.533721923828125,-2.145534608422256,-1.7110312857278964,2.916103456078506,-4.423413957868304,24.60661388578869,-2.334958031063988,-5.3798969645323815,-20.128550987702774,-0.9122262286324764,33.73974710413857,-3.179984423676012,-108.43397435897435,33.02863389942193,37.19792134663192,37.341689879294336,1577396066.0,-27.687842775309004,-51.13222548380943,5.2515526
63599,1577396066.41,-0.1625662927246084,-0.3264493963623046,9.925941097717285,-0.6139083427615277,1.9160620700743136,12.946382699063928,-3.6042425801595046,-3.650758498128255,13.123417366536462,-7.513046264648437,0.4968643188476562,2.564239501953125,-7.180934999047256,-3.145357457602896,3.038173768578506,-4.118238176618304,29.58097912016369,1.144045875186012,-4.255739389853973,-19.179091035452643,0.7297809829059857,33.93308943432301,-3.0984463615304736,-113.83490028490029,33.17240243208434,36.81453859286549,37.58130410039836,1577396066.0,-27.687842775309004,-51.13222548380943,5.2515526
63600,1577396066.42,-0.0452504113769526,3.039798137817383,10.499352395324706,-0.5037750663943402,3.371736679449313,13.18819706673971,-1.8684463765462236,2.3682644755045565,13.2910114827474,-0.3871917724609375,0.4510879516601562,2.564239501953125,-4.525905702172256,6.620267542397103,4.258876893578506,-4.392896379743304,31.74772716703869,-0.5039033435639881,-4.175442420234086,-18.51446906887755,0.456113114316242,33.93308943432301,-3.4245986101126284,-108.01851851851852,33.12447958786354,37.0062299697487,37.53338125617755,1577396066.0,-27.687842775309004,-51.13222548380943,5.2515526
63601,1577396066.43,-0.5600037683105459,-0.2737769598388672,12.01607914703369,1.520522437267768,0.376590402593845,12.218545394376427,-0.2320095418294269,2.0426530497233077,7.096014687093099,-2.752304077148437,1.4734268188476562,2.472686767578125,0.494235899390244,-1.1311973013528964,4.304653260766006,-3.034864153180804,16.93144298735119,2.532595679873512,-4.0951454506142,-18.609415064102564,1.2771167200854732,34.223102929599655,-3.3838295790398587,-86.62254273504274,33.31617096474676,37.03019139185911,37.43753556773594,1577396066.0,-27.687842775309004,-51.13222548380943,5.2515526
63602,1577396066.44,-1.1394005700683592,-2.086187616577148,8.733628670959472,-1.7990381645388716,0.0916804050352512,9.125236849454556,-0.0775835347493483,1.3531229715983066,7.413246407063802,-6.5364837646484375,0.8325576782226562,2.350616455078125,-1.504665467797256,-1.4058555044778964,3.495937440453506,-0.6087166922433034,-13.41828845796131,-0.961667015438988,-4.0951454506142,-18.609415064102564,1.2771167200854732,33.73974710413857,-3.5061366722581666,-2.0772792022792146,33.12447958786354,37.0062299697487,37.43753556773595,1577396066.0,-27.687842775309004,-51.13222548380943,5.2515526
63603,1577396066.45,-0.6342240197753906,-0.3551798162841796,7.376116329650878,-0.3840649833865277,0.2856107395079075,10.64076650033346,0.0469149515787756,-3.796804799397786,7.17861464436849,-6.5059661865234375,-1.3036727905273438,1.679229736328125,0.234836485327744,3.049710901772104,2.488857362328506,-0.3950936453683034,-24.43513416108631,-1.846676781063988,-4.576927268333519,-18.79930705455259,0.0,32.19300846266308,-3.3430605479670894,-2.0772792022792146,33.17240243208434,37.10207565819032,37.58130410039836,1577396066.0,-27.687842775309004,-51.13222548380943,5.2515526
63604,1577396066.46,-0.0620098229980463,1.724184325561524,9.824187527160644,2.680513141613471,2.1459054294493134,8.114883748868616,-0.6833165547688795,-5.034607057698568,8.880892024739584,0.4825592041015625,-2.844810485839844,2.808380126953125,-2.481227967797256,-3.145357457602896,2.488857362328506,-0.0594002859933033,-25.19807361421131,6.820315406436012,-4.33603635947386,-19.08414504022763,1.7332298344017076,30.646269821187605,-3.5061366722581666,-86.83027065527065,33.24428669841555,37.0062299697487,37.43753556773595,1577396066.0,-27.687842775309004,-51.13222548380943,5.2515526
63605,1577396066.47,-1.816959639892578,1.2776657159423828,10.335349581604005,-1.4614557304568403,2.0968242954161105,10.443244863370568,-0.7790846211751301,2.0510327555338543,12.31896560872396,1.2149810791015625,-0.3576278686523437,2.045440673828125,1.013034727515244,-4.518648473227897,2.794033143578506,-0.3950936453683034,-5.43794177827381,8.269900367373513,-4.0951454506142,-19.748767006802723,1.6420072115384623,31.419639141925344,-3.5876747344037057,-75.19750712250713,33.17240243208434,37.173959924521526,37.43753556773594,1577396066.0,-27.687842775309004,-51.13222548380943,5.2515526
63606,1577396066.48,-0.1242590661621084,0.331956060180664,6.437589278869628,-1.1454211113162152,0.0964688083555637,13.102005806974084,-2.725570570882161,1.4895924662272129,7.058904561360677,-1.0738372802734375,-1.975059509277344,2.899932861328125,-1.413112733422256,1.2491737923971036,1.7259179092035062,-0.8833748953683034,-5.971999395461309,10.329836890811013,-4.0951454506142,-19.748767006802723,1.6420072115384623,33.73974710413857,-2.8538321750938573,-80.18297720797722,33.22032527630515,37.05415281396951,37.341689879294336,1577396066.0,-27.687842775309004,-51.13222548380943,5.2515526
63607,1577396066.49,0.8645462194824218,1.5745467218017577,10.10071781890869,1.4379224799923775,-2.996839736566311,11.078905404142052,1.832989390055338,10.273918357340497,10.513737556966149,-0.0362396240234375,-0.9374618530273438,3.235626220703125,3.561252500952744,-1.4058555044778964,5.540615174828506,1.4054434640066966,-3.835768926711309,-5.325680687313988,-5.3798969645323815,-20.128550987702774,-0.1824452457264983,32.19300846266308,-3.179984423676012,-7.8936609686609795,32.98071105520113,37.0062299697487,37.24584419085272,1577396066.0,-27.687842775309004,-51.13222548380943,5.2515526
63608,1577396066.5,0.4766855505371094,-0.8459911566162108,10.942279702453613,0.2779317756466749,2.472713956060642,10.621612887052208,1.471464939371744,-3.570552742513021,11.405577675374351,-1.0585784912109373,-1.914024353027344,3.586578369140625,-1.840358827172256,-0.8717978872903964,3.251796815453506,1.8174307686941968,-5.621047247023809,-1.037960960751488,-5.299599994912494,-18.894253049777603,1.0034488514957294,32.19300846266308,-3.3430605479670894,-8.309116809116826,33.19636385419474,36.93434570341749,37.50941983406716,1577396066.0,-27.687842775309004,-51.13222548380943,5.2515526
63609,1577396066.51,-3.222356014404297,1.8498799127197263,16.023972726135252,2.4530639838986272,0.8027582981016576,10.84427364144674,-1.7271884785970046,1.6476097757975252,12.771469722493492,5.3653717041015625,-0.6933212280273438,2.564239501953125,4.537815000952744,-1.8025840201028964,1.0545311904535062,0.3983633858816966,2.0541236514136907,4.562014625186012,-4.576927268333519,-19.179091035452643,1.4595619658119638,32.38635079284752,-3.4245986101126284,-84.75299145299148,33.17240243208434,36.86246143708629,37.24584419085272,1577396066.0,-27.687842775309004,-51.13222548380943,5.2515526
63610,1577396066.52,-2.025255184326172,-1.717480560913086,9.042480685119628,-5.126978472156059,0.1682948581602512,6.704698971036585,-2.150962172444661,-4.067349586995443,12.043632417805991,1.7032623291015625,-2.463340759277344,2.716827392578125,8.627170469702744,-8.669039098227897,0.4136620498285062,0.7035391671316966,4.617600213913691,8.742922828311013,-4.576927268333519,-19.179091035452643,1.4595619658119638,30.83961215137204,-2.772294112948318,-88.07663817663818,33.31617096474676,37.19792134663192,37.43753556773595,1577396066.0,-27.687842775309004,-51.13222548380943,5.2515526
63611,1577396066.53,0.8453926062011718,-0.0487220037841787,9.40400513580322,-0.1278854057498089,-0.7941742092225602,12.062922286466272,-0.6306441182454421,0.1225033182779941,6.785965572102865,-3.301620483398437,-4.538536071777344,2.106475830078125,-2.328640077172256,4.453519495522103,1.9395409560785064,1.3138907296316966,-1.4553978329613095,11.062258765811013,-4.576927268333519,-18.79930705455259,0.3648904914529966,31.61298147210978,-3.261522485821551,-98.04757834757837,33.02863389942193,37.0062299697487,37.58130410039836,1577396066.0,-27.687842775309004,-51.13222548380943,5.2515526
63612,1577396066.54,0.9124302526855468,1.5853206292724609,9.80742811553955,0.6119229072384712,1.871769339361423,10.843076540616662,0.2779554117838543,5.077303653971353,10.02053201497396,1.2302398681640625,-0.9832382202148438,2.823638916015625,2.996677305640244,-2.4739707388528966,3.663784120141006,2.9008047921316966,-7.78779529389881,-4.593258812313988,-4.0148484809943135,-18.514469068877556,0.8210036057692349,31.22629681174091,-3.0169082993849345,-103.03304843304844,33.17240243208434,37.0062299697487,37.38961272351514,1577396066.0,-27.687842775309004,-51.13222548380943,5.2515526
63613,1577396066.55,1.668997977294922,1.873821929321289,11.228386800842284,1.6869194526486275,2.39729660376572,11.19622128548971,-2.299402675374348,-2.74096186726888,6.532180196126302,3.5037994384765625,0.5273818969726562,2.289581298828125,3.103488829077744,2.378324183022104,1.5428124404535062,3.1449454171316966,-13.72346423921131,-0.4123506091889881,-4.73752120757329,-18.22963108320252,-0.1824452457264983,30.83961215137204,-3.0984463615304736,-110.51125356125358,32.98071105520113,37.0062299697487,37.58130410039836,1577396066.0,-27.687842775309004,-51.13222548380943,5.2515526
63614,1577396066.56,-0.0907402429199209,0.0781706842041015,7.237252633361815,-1.04007623826934,1.5401724094297824,9.101294832852991,-2.141385365804036,5.207787644449869,11.423534187825524,-0.6771087646484375,1.0766983032226562,1.374053955078125,2.584690000952744,-3.725191441977896,1.0240136123285062,1.8326895577566968,-14.08967517671131,-1.266842796688988,-4.73752120757329,-18.22963108320252,-0.1824452457264983,31.22629681174091,-3.4245986101126284,-97.2166666666667,33.17240243208434,37.10207565819032,37.58130410039836,1577396066.0,-27.687842775309004,-51.13222548380943,5.2515526
63615,1577396066.57,-1.0376469995117186,-0.8890867864990234,8.07761741607666,-0.6210909477419965,-1.2969565578553728,8.344727108243616,1.4642823343912756,-9.925961049397785,7.647878169759115,0.4978179931640625,0.969886779785156,1.419830322265625,4.629367735327744,2.836087854897104,0.6883202529535062,1.3749258858816966,-14.33381580171131,1.327151343936012,-4.898115146813064,-19.36898302590267,-0.7297809829059819,30.83961215137204,-3.0984463615304736,-114.66581196581198,33.17240243208434,37.19792134663192,37.43753556773595,1577396066.0,-27.687842775309004,-51.13222548380943,5.2515526
63616,1577396066.58,0.1845929479980468,2.407728899536133,11.221204195861816,0.5891779914669868,0.5848859470274393,8.641608114102992,1.2380302775065104,2.347913761393229,9.79667415974935,4.8160552978515625,-0.0524520874023437,1.892852783203125,-0.512844178734756,-2.1382773794778966,0.7951317763910062,1.7411368233816966,-11.93818591889881,8.590334937686013,-4.576927268333519,-18.41952307365253,-0.3648904914529891,22.71923428362575,-3.2615224858215512,-61.48746438746441,32.98071105520113,36.958307125527895,37.389612723515135,1577396066.0,-27.687842775309004,-51.13222548380943,5.2515526
63617,1577396066.59,0.4431667272949218,1.703833611450195,10.996149239807128,-2.51490446092559,3.8745190280821262,11.943212203458458,-0.6402209248860671,4.156733115641276,15.718731966145835,2.8934478759765625,0.4358291625976562,1.404571533203125,2.859348204077744,5.491117151772103,1.7259179092035062,1.4054434640066966,0.5587623232886905,3.310793922061012,-3.773957572134656,-18.22963108320252,1.2771167200854732,22.13920729307244,-3.5061366722581666,-8.724572649572671,33.12447958786354,37.0062299697487,37.53338125617755,1577396066.0,-27.687842775309004,-51.13222548380943,5.2515526
63618,1577396066.6,0.2157175695800781,1.5769409234619138,11.060792684631346,2.007742475109565,-1.1245740383241227,9.877016170743616,0.0660685648600256,-2.597309767659505,11.785058638509115,0.7877349853515625,-0.6933212280273438,1.648712158203125,-1.199489686547256,9.549955042397103,0.5052147842035062,1.7106192452566966,5.411057245163691,1.601809547061012,-3.773957572134656,-18.22963108320252,1.2771167200854732,31.419639141925344,-3.179984423676012,-8.724572649572671,33.02863389942193,37.05415281396951,37.38961272351514,1577396066.0,-27.687842775309004,-51.13222548380943,5.2515526
63619,1577396066.61,1.1973402502441406,0.993952819213867,8.3709071194458,1.9766178535275336,-1.96254461937881,10.578517257169397,-2.1653273824055983,3.670710178629557,6.261635408528646,-2.294540405273437,1.1529922485351562,1.679229736328125,1.974338438452744,-10.774751988852897,1.8479882217035064,1.2833731515066966,3.94621349516369,1.968020484561012,-4.97841211643295,-19.27403703067765,0.6385583600427402,31.419639141925344,-3.179984423676012,-8.724572649572671,33.26824812052595,37.0062299697487,37.43753556773595,1577396066.0,-27.687842775309004,-51.13222548380943,5.2515526
63620,1577396066.62,-0.3995922570800771,0.5091269830322266,8.886857577209472,-0.3816707817263721,1.8514186252500957,10.357053603604944,1.6618039713541664,2.8040091776529947,7.813078084309896,0.7877349853515625,2.419471740722656,1.465606689453125,1.6233862900152438,7.123807581459603,2.488857362328506,2.9465811593191966,-4.949660528273809,-7.904416038876487,-4.576927268333519,-19.938658997252745,0.7297809829059857,31.22629681174091,-2.8538321750938564,-3.739102564102575,33.17240243208434,37.03019139185911,37.48545841195675,1577396066.0,-27.687842775309004,-51.13222548380943,5.2515526
63621,1577396066.63,-0.2056619226074209,-0.6688202337646485,8.087194222717285,1.44271088331269,3.3238526462461886,5.146073690274867,-1.3967886494954422,-4.105656813557943,9.819419075520836,3.7479400634765625,2.297401428222656,1.221466064453125,-0.0703392959222559,-4.762789098227897,0.0779686904535061,3.2059805733816966,-6.673903692336309,-2.304440452938988,-4.0951454506142,-18.609415064102564,-0.1824452457264983,31.03295448155648,-2.364603802220624,-2.0772792022792146,32.98071105520113,37.05415281396951,37.38961272351514,1577396066.0,-27.687842775309004,-51.13222548380943,5.2515526
63622,1577396066.64,0.6323086584472657,2.663908477172852,10.366474203186034,-0.6330619560427777,1.997464926519626,4.456543612149867,3.508930552164713,-3.12403413289388,8.976660091145833,4.8160552978515625,1.870155334472656,0.153350830078125,4.537815000952744,1.7679726205221036,0.3221093154535062,0.0931876046316966,-11.92292712983631,2.029055640811012,-4.0951454506142,-18.609415064102564,-0.1824452457264983,31.80632380229421,-3.5061366722581666,-4.570014245014259,33.12447958786354,36.910384281307095,37.43753556773595,1577396066.0,-27.687842775309004,-51.13222548380943,5.2515526
63623,1577396066.65,-0.0284909997558593,0.446877739868164,8.76595039337158,-0.1195056999392626,-0.6265800930116228,8.468028493741665,-1.0197018880208333,-3.2269848042805984,8.300298122151693,-0.7839202880859375,1.763343811035156,-0.334930419921875,-2.710109803734756,-2.1993125357278966,-1.4936865829839938,-1.2038094656808034,-5.941481817336309,10.558718726748513,-4.0951454506142,-18.98919904500261,0.7297809829059857,31.51631030701756,-3.1392153926032424,-3.115918803418822,33.17240243208434,36.93434570341749,37.341689879294336,1577396066.0,-27.687842775309004,-51.13222548380943,5.2515526
63624,1577396066.66,0.0864306799316406,2.146760918579101,8.206904305725097,-4.502091838855278,-1.2945623561952164,7.540275350431116,1.093181077067057,11.91155229288737,9.647036555989583,-2.111434936523437,1.4123916625976562,0.031280517578125,4.324191954077744,10.801175745522103,1.0545311904535062,0.2152579171316966,-5.575270879836309,4.867190406436012,-4.898115146813063,-20.3184429781528,-0.7297809829059857,32.19300846266308,-2.5276799265117016,-5.400925925925935,33.02863389942193,37.0062299697487,37.38961272351514,1577396066.0,-27.687842775309004,-51.13222548380943,5.2515526
63625,1577396066.67,0.9172186560058594,1.8091784844970704,7.186974398498534,2.814588434582221,4.870506918707126,7.552246358731898,-0.965832350667317,7.721699387613931,10.542467976888023,-2.233505249023437,1.6565322875976562,1.160430908203125,-10.263210389672256,-1.7720664419778964,1.6648827529535062,1.3749258858816966,1.5048072451636905,-11.612301781063987,-5.540490903772153,-18.039739092752487,-0.3648904914529891,32.19300846266308,-2.5276799265117016,-5.400925925925935,33.02863389942193,37.0062299697487,37.24584419085272,1577396066.0,-27.687842775309004,-51.13222548380943,5.2515526
63626,1577396066.68,0.0505176550292968,4.928823247680664,10.00494975250244,0.2144854316525337,8.459415207281346,8.351909713224085,1.7132793070475256,-2.8079995137532547,7.997431612141927,1.8863677978515625,3.151893615722656,0.946807861328125,-7.608181092797256,-2.016207066977896,1.9090233779535064,0.0931876046316966,-1.2722923642113095,-8.652096702938987,-5.540490903772153,-18.039739092752487,-0.3648904914529891,29.486215840080988,-2.2015276779295467,-5.400925925925935,32.98071105520113,37.0062299697487,37.38961272351514,1577396066.0,-27.687842775309004,-51.13222548380943,5.2515526
63627,1577396066.69,-0.59591679321289,-0.1397016668701169,7.189368600158691,-1.0304994316287155,-0.4937019008729517,5.7374415003334605,-2.0360404927571607,-3.710613539632161,9.275935298665363,-2.920150756835937,1.702308654785156,-0.594329833984375,3.790134336890244,-1.3905967154153966,0.8103905654535062,-2.516065325055804,1.0928199404761898,1.754397437686012,-4.255739389853973,-19.55887501635269,0.5473357371794911,30.06624283063429,-2.364603802220624,-54.84017094017095,33.19636385419474,37.03019139185911,37.46149698984635,1577396066.0,-27.687842775309004,-51.13222548380943,5.2515526
63628,1577396066.7,0.998621512451172,1.2537236993408205,8.958683627014159,0.5496736640744088,-2.259425625238185,13.22650429330221,-1.176522096761067,-11.64020943806966,9.721256807454427,-3.545761108398437,3.853797912597656,0.519561767578125,-9.744411561547256,6.559232386147103,-2.546543028296494,-3.5994393484933034,15.23771740141369,12.893313453311013,-4.0951454506142,-17.849847102302462,-0.1824452457264983,30.646269821187605,-3.5061366722581666,-114.25035612535616,33.12447958786354,37.19792134663192,37.43753556773595,1577396066.0,-27.687842775309004,-51.13222548380943,5.2515526
63629,1577396066.71,1.4176068029785156,2.3430854547119138,12.339296371154784,6.779386383800971,1.1882247653868137,10.157137764981895,-0.5779716817220045,3.2900321146647133,11.334948726399745,6.6471099853515625,3.457069396972656,-0.029754638671875,-1.077419374047256,7.200101526772103,2.946621034203506,-1.0054452078683034,14.93254162016369,17.287844703311013,-4.576927268333519,-18.41952307365253,-0.7297809829059857,31.419639141925344,-3.5061366722581666,-115.08126780626785,33.17240243208434,36.81453859286549,37.58130410039836,1577396066.0,-27.687842775309004,-51.13222548380943,5.2515526
63630,1577396066.72,-1.520078634033203,0.839526812133789,6.739258688049316,-2.155774211902153,3.60397424048447,8.653579122403773,1.0309318339029945,13.728751352945965,10.829772176106774,0.1773834228515625,4.311561584472656,1.068878173828125,3.805393125952744,-4.152437535727897,3.373867127953506,-1.6768319266183034,16.00065685453869,2.364749000186012,-5.3798969645323815,-19.36898302590267,-0.5473357371794875,31.03295448155648,-2.2015276779295467,-113.41944444444444,33.17240243208434,37.10207565819032,37.43753556773595,1577396066.0,-27.687842775309004,-51.13222548380943,5.2515526
63631,1577396066.73,-1.10707884765625,-0.5227739324951172,11.453441756896972,-1.5141281669802775,-2.6257384792420915,12.879345052579552,-1.5823392781575516,0.1009555033365892,9.647036555989583,-3.8967132568359375,2.892494201660156,1.282501220703125,-3.350978944359756,7.032254847084603,1.6191063857660062,-0.3035409109933034,19.78483654203869,-20.965939476376487,-5.058709086052836,-19.55887501635269,0.1824452457264982,26.97276554768333,-2.6907560508027792,-107.18760683760684,33.29220954263636,37.07811423607991,37.413574145625546,1577396066.0,-27.687842775309004,-51.13222548380943,5.2515526
63632,1577396066.74,1.4008473913574218,3.044586541137696,10.615471175842284,1.126676264172065,2.564890719976657,9.675903231290492,-5.919435585530598,-11.513316750081378,1.308032173665364,-2.355575561523437,4.647254943847656,1.190948486328125,1.455539610327744,0.4557167611471036,2.580410096703506,-0.8833748953683034,7.364182245163691,-4.349118187313988,-4.416333329093746,-20.88811894950288,0.912226228632484,25.23268457602341,-3.179984423676012,-114.25035612535616,33.12447958786354,37.0062299697487,37.53338125617755,1577396066.0,-27.687842775309004,-51.13222548380943,5.2515526
63633,1577396066.75,-1.0292672937011718,4.916852239379883,12.473371664123531,0.02534350050019,3.56566701392197,8.809202230313929,1.5097721659342445,-1.287681459554036,9.055668745930989,0.1468658447265625,5.288124084472656,1.099395751953125,1.211398985327744,-0.7039512076028964,3.618007752953506,-2.8059823172433034,-11.40412830171131,21.194094703311013,-4.416333329093746,-19.748767006802723,0.1824452457264983,30.646269821187605,-3.5061366722581666,-115.08126780626785,33.17240243208434,37.0062299697487,37.43753556773595,1577396066.0,-27.687842775309004,-51.13222548380943,5.2515526
63634,1577396066.76,-0.2726995690917959,2.220981170043945,7.677785738830566,0.5592504707150338,0.7141728366758763,8.811596431974085,1.4666765360514318,7.889293503824869,7.128336409505208,-0.3414154052734375,4.158973693847656,0.763702392578125,2.248996641577744,5.735257776772103,2.397304627953506,-3.965650285993304,-7.101149786086309,15.578860328311013,-4.0951454506142,-19.748767006802723,0.5473357371794949,33.15972011358526,-3.261522485821551,-108.01851851851852,33.17240243208434,37.05415281396951,37.38961272351514,1577396066.0,-27.687842775309004,-51.13222548380943,5.2515526
63635,1577396066.77,-1.3979743493652343,-1.2865242620849606,10.68849432647705,-0.6570039726443402,-1.5938375637147475,5.758989315274866,0.4706886454264318,6.586847800699869,11.203267635091148,-5.5446624755859375,0.3747940063476562,1.679229736328125,-5.594020936547256,0.6388222298971036,2.519374940453506,-1.7073495047433034,-0.3567650204613095,3.371829078311012,-4.496630298713631,-19.843713002027734,0.4561131143162458,33.15972011358526,-2.772294112948318,-88.07663817663818,33.12447958786354,37.0062299697487,37.341689879294336,1577396066.0,-27.687842775309004,-51.13222548380943,5.2515526
63636,1577396066.78,0.5844246252441406,-3.496372394409179,7.85974506500244,-1.4219514030642622,-2.935787594232326,13.88251554818502,0.3677379740397135,0.2517902079264321,11.91075422566732,-7.329940795898437,2.480506896972656,1.953887939453125,-3.000026795922256,3.095487268959604,2.214199159203506,-3.202710832868304,11.46879650297619,-11.032467796688987,-4.576927268333519,-19.179091035452643,-0.7297809829059857,31.419639141925344,-3.2615224858215504,-46.11559829059829,33.12447958786354,36.93434570341749,37.55734267828795,1577396066.0,-27.687842775309004,-51.13222548380943,5.2515526
63637,1577396066.79,-1.165736788330078,2.0605696588134763,11.259511422424316,-2.984167986316215,3.0054238254454075,9.776459701017057,0.6334943583170569,-7.143898720296224,6.656678682454427,-1.1043548583984375,2.327919006347656,2.014923095703125,-1.199489686547256,-2.748628941977896,4.838710877953506,-2.7754647391183034,1.3522193545386905,0.8083525158110119,-4.898115146813063,-21.078010939952904,0.0,33.73974710413857,-4.973821790877865,1.2463675213675056,33.17240243208434,37.0062299697487,37.38961272351514,1577396066.0,-27.687842775309004,-51.13222548380943,5.2515526
63638,1577396066.8,-0.9191340173339844,5.77397643371582,11.92031108062744,2.069991718273628,4.152246420660251,10.360644906095178,-1.6577566304524731,1.7745024637858064,6.690197505696615,5.7315826416015625,3.945350646972656,1.557159423828125,-3.305202577172256,7.078031214272103,2.244716737328506,-2.5008065359933034,-10.91584705171131,9.414309547061013,-4.255739389853973,-19.55887501635269,-0.7297809829059857,33.73974710413857,-3.179984423676012,-5.400925925925935,33.12447958786354,37.05415281396951,37.341689879294336,1577396066.0,-27.687842775309004,-51.13222548380943,5.2515526
63639,1577396066.81,-3.0655358056640627,1.4344859246826174,7.389284438781737,-3.634193737048637,1.3498333774473612,6.910600313810024,-0.0009690816243488,4.754086429850259,8.874906520589192,-6.6280364990234375,-2.570152282714844,1.221466064453125,0.982517149390244,0.5320107064596042,1.7869530654535062,-1.0664803641183034,-24.92341541108631,-0.351315452938988,-4.576927268333519,-19.55887501635269,-0.1824452457264945,32.289679627755305,-3.3022915168943205,-86.62254273504274,33.26824812052595,37.05415281396951,37.38961272351514,1577396066.0,-27.687842775309004,-51.13222548380943,5.2515526
63640,1577396066.82,-1.8816030847167968,-2.0981586248779296,7.277954061584472,1.4283456733517526,-6.576171218499904,7.382258040860804,-3.8532395528157535,-7.850188210042318,3.2018456868489578,-11.785507202148438,0.2527236938476562,1.282501220703125,-8.493190858422256,-11.598726598227897,3.129726502953506,-2.3787362234933034,-29.74519275483631,3.066653297061012,-4.0951454506142,-18.98919904500261,0.5473357371794949,30.646269821187605,-6.60458303378864,-8.724572649572671,33.02863389942193,37.19792134663192,37.43753556773595,1577396066.0,-27.687842775309004,-51.13222548380943,5.2515526
63641,1577396066.83,-1.3883975427246091,-0.8819041815185547,8.738417074279784,-4.561946880359184,3.587214828863376,7.401411654142054,-0.6426151265462233,-1.3978147359212234,9.014967317708331,-3.6067962646484375,-2.371788024902344,1.770782470703125,-1.107936952172256,-5.861421910727897,2.122646424828506,-1.7073495047433034,-17.90437244233631,10.177249000186013,-4.0951454506142,-20.508334968602828,-0.9122262286324764,32.57969312303195,-3.179984423676012,-7.8936609686609795,33.17240243208434,37.0062299697487,37.38961272351514,1577396066.0,-27.687842775309004,-51.13222548380943,5.2515526
63642,1577396066.84,0.570059415283203,0.5234921929931641,5.482302816467285,4.552778839855658,1.276810226812595,13.839419918302209,-1.818168141682942,7.094418552652994,16.83921834309896,0.4215240478515625,-3.195762634277344,2.686309814453125,-3.061061952172256,5.338529261147103,2.458339784203506,-2.1651131766183034,-3.5305931454613093,6.240481422061012,-4.576927268333519,-19.55887501635269,-0.3648904914529891,30.646269821187605,-3.5061366722581666,-7.8936609686609795,33.17240243208434,37.05415281396951,37.43753556773595,1577396066.0,-27.687842775309004,-51.13222548380943,5.2515526
63643,1577396066.85,-0.1709459985351562,1.5134945794677737,10.089943911437988,-1.8864265251345744,0.4208831333067361,10.73054906258932,-1.7224000752766926,-1.8311652364095048,13.984132863362634,2.4967193603515625,0.924110412597656,1.740264892578125,0.5552710556402439,-3.9082969107278966,3.694301698266006,-1.7531258719308034,7.86772228422619,3.905886695498512,-4.014848480994315,-18.70436105932757,-0.4561131143162382,31.032954481556477,-3.179984423676012,-47.77742165242168,33.17240243208434,37.05415281396951,37.50941983406716,1577396066.0,-27.687842775309004,-51.13222548380943,5.2515526
63644,1577396066.86,-1.4650119958496093,-1.8395848455810544,11.510902596740722,2.5799566718869085,-0.8707886623475602,15.297488729337363,0.1618366312662756,5.789578647867838,13.65493013509115,-2.111434936523437,0.8935928344726562,1.343536376953125,1.150363829077744,4.117826136147103,3.892665956078506,-1.5242440359933034,22.50090099516369,-2.914792015438988,-5.058709086052835,-19.748767006802723,0.912226228632484,30.646269821187605,-2.5276799265117016,-100.12485754985757,33.12447958786354,37.0062299697487,37.38961272351514,1577396066.0,-27.687842775309004,-51.13222548380943,5.2515526
63645,1577396066.87,-2.247915938720703,1.6607379815673826,11.618641671447753,-3.180492522449028,0.8602191379454075,10.578517257169397,-0.937101930745442,0.8742826395670567,8.064469258626302,-4.2476654052734375,-0.6628036499023438,1.740264892578125,-2.206569764672256,-6.837984410727897,3.587490174828506,-0.2730233328683034,13.62028576078869,-8.499508812313987,-2.9709878759357924,-19.179091035452643,0.0,26.006053896761152,-3.5061366722581666,-101.78668091168092,32.88486536675951,36.910384281307095,37.24584419085272,1577396066.0,-27.687842775309004,-51.13222548380943,5.2515526
63646,1577396066.88,-0.777876119384765,1.1016918939208984,10.756729073791504,-0.6977054008669964,1.327088461675876,7.705475264981898,1.552867795817057,-4.220578493245442,9.436346809895833,-2.126693725585937,-1.0137557983398438,1.343536376953125,-2.725368592797256,6.406644495522103,0.5967675185785062,-1.0664803641183034,12.33854747953869,-3.189450218563988,-4.416333329093746,-17.470063121402408,-0.5473357371794875,26.199396226945588,-3.261522485821551,-101.3712250712251,33.22032527630515,37.0062299697487,37.341689879294336,1577396066.0,-27.687842775309004,-51.13222548380943,5.2515526
63647,1577396066.89,-1.673307540283203,1.4285004205322265,11.23078100250244,-0.3122389335818407,2.8438152133848607,9.82913213754049,-3.954993123372396,1.3818533915201825,6.238890492757162,-0.9212493896484376,-1.1816024780273438,2.198028564453125,2.325290586890244,-4.411836949790397,3.083950135766006,-1.3258797781808034,3.1985328311011902,4.180544898623512,-4.255739389853973,-18.41952307365253,0.3648904914529966,28.519504189158816,-3.4245986101126284,-111.34216524216524,33.12447958786354,37.03019139185911,37.29376703507353,1577396066.0,-27.687842775309004,-51.13222548380943,5.2515526
63648,1577396066.9,-0.9957484704589844,0.5234921929931641,9.241199422912596,-0.6641865776248089,-3.736648049554592,8.442889376310022,1.5313199808756506,-2.9372864034016923,10.006166805013024,-2.935409545898437,-0.9679794311523438,1.221466064453125,-5.288845155297256,7.505277308022103,2.031093690453506,-2.9890877859933034,-3.4390404110863093,4.623049781436012,-5.540490903772153,-20.698226959052853,1.094671474358975,21.75252263270357,-2.8538321750938573,-100.95576923076926,33.22032527630515,37.19792134663192,37.19792134663192,1577396066.0,-27.687842775309004,-51.13222548380943,5.2515526
63649,1577396066.91,-0.4235342736816396,1.7445350396728514,8.352950606994629,-0.5133518730349652,1.2241377902891577,11.13157784066549,-1.7511304951985671,3.201446653238932,8.071651863606771,-2.538681030273437,-0.8153915405273438,1.435089111328125,-4.312282655297256,-9.828707066977897,0.8103905654535062,-3.1111580984933034,-0.3872825985863095,6.881350562686012,-4.0951454506142,-18.22963108320252,0.912226228632484,31.03295448155648,-2.690756050802779,-107.60306267806268,33.31617096474676,36.81453859286549,37.38961272351514,1577396066.0,-27.687842775309004,-51.13222548380943,5.2515526
63650,1577396066.92,-1.9558233361816404,1.9923349114990232,10.869256551818848,-0.9706443901248089,5.373289267339939,7.494785518888148,1.028537632242838,7.910841318766275,8.411628499348959,-1.2874603271484375,-0.2813339233398437,1.068878173828125,-5.136257264672256,-3.053804723227896,1.8785057998285064,-1.829419817243304,-3.774733770461309,2.822512672061012,-4.255739389853973,-18.79930705455259,0.3648904914529966,31.03295448155648,-2.690756050802779,-107.60306267806268,33.148441009973936,37.19792134663192,37.38961272351514,1577396066.0,-27.687842775309004,-51.13222548380943,5.2515526
63651,1577396066.93,-0.6821080529785155,0.1643619439697265,10.112688827209473,-1.8469221977419965,-1.7542490749452164,12.359803292325646,-1.5823392781575516,-0.868696169026693,11.573171791585288,-3.301620483398437,-2.371788024902344,1.465606689453125,0.845188047827744,-1.6042197622903962,3.053432557641006,-1.6920907156808034,0.1162574404761904,-5.157834007626488,-4.416333329093746,-18.22963108320252,-0.5473357371794875,25.2326845760234,-2.772294112948318,-54.00925925925928,33.17240243208434,37.05415281396951,37.43753556773595,1577396066.0,-27.687842775309004,-51.13222548380943,5.2515526
63652,1577396066.94,0.3114856359863281,-2.325607782592773,11.331337472229002,0.7531808051876899,0.0868920017149387,5.584212594083461,-0.2356008443196608,-0.0642444112141923,10.003772603352868,-7.513046264648437,-2.829551696777344,1.465606689453125,-1.382595155297256,1.7374550423971036,3.740078065453506,-1.7989022391183034,-10.45808337983631,-0.5649384998139881,-4.255739389853973,-19.55887501635269,0.0,30.83961215137204,-3.4245986101126284,-8.309116809116826,33.22032527630515,37.0062299697487,37.341689879294336,1577396066.0,-27.687842775309004,-51.13222548380943,5.2515526
63653,1577396066.95,0.6777984899902344,-2.304059967651367,5.862980880432128,0.7699402168087837,0.1682948581602512,13.760411263517051,0.3222481424967444,-2.3674664082845047,7.348602962239584,-6.1702728271484375,-1.5478134155273438,1.740264892578125,1.425022032202744,-5.525728551352897,1.6648827529535062,-1.5547616141183034,-8.59651111421131,1.601809547061012,-4.898115146813063,-18.79930705455259,-1.094671474358975,30.83961215137204,-3.4245986101126284,0.0,33.17240243208434,37.0062299697487,37.38961272351514,1577396066.0,-27.687842775309004,-51.13222548380943,5.2515526
63654,1577396066.96,-0.975397756347656,4.941991356811523,9.1753588772583,-2.316185723132622,3.066475967779392,7.376272536710413,-3.5168542195638013,2.64120346476237,9.614714833577477,4.2972564697265625,-0.2660751342773437,1.923370361328125,-1.2452660537347562,-3.4657920279153966,1.9090233779535064,-2.0125252859933034,-1.1197044735863095,7.461184547061012,-4.255739389853973,-18.79930705455259,0.3648904914529966,30.646269821187605,-3.5061366722581666,-0.4154558404558628,33.19636385419474,37.07811423607991,37.55734267828795,1577396066.0,-27.687842775309004,-51.13222548380943,5.2515526
63655,1577396066.97,-0.3134009973144521,-1.813248627319336,7.198945406799315,-0.0800013725466839,0.0653441867735325,7.95926064095846,1.514560569254557,4.379393870035807,7.662243379720052,-3.149032592773437,-1.3952255249023438,1.282501220703125,-4.342800233422256,4.239896448647103,2.244716737328506,-2.0125252859933034,-2.5540306454613093,4.745120093936012,-3.45276969365511,-19.36898302590267,0.912226228632484,31.61298147210978,-3.4245986101126284,-5.816381766381765,33.02863389942193,37.0062299697487,37.341689879294336,1577396066.0,-27.687842775309004,-51.13222548380943,5.2515526
63656,1577396066.98,-0.1649604943847646,-1.114141742553711,8.379286825256347,2.4051799506955023,-3.5115930934999047,8.689492147306117,3.9015796244303376,2.418542710367838,7.669425984700521,-9.466171264648438,-2.127647399902344,1.221466064453125,-0.711208436547256,-0.5818808951028964,3.801113221703506,-2.6228768484933034,-3.1948997860863093,1.144045875186012,-5.058709086052835,-19.748767006802723,1.2771167200854732,30.83961215137204,-2.9353702372393955,-6.647293447293474,33.17240243208434,37.10207565819032,37.341689879294336,1577396066.0,-27.687842775309004,-51.13222548380943,5.2515526
63657,1577396066.99,-0.1553836877441406,0.7736862664794927,9.69250643585205,-2.7782666435427776,-0.6313684963319353,6.958484347013147,-3.953796022542317,1.252566501871744,11.679713765462242,-4.9343109130859375,-1.3647079467773438,1.877593994140625,0.051731016577744,-7.814546910727897,4.258876893578506,-3.2942635672433034,0.8334205264136905,-3.372555687313988,-4.33603635947386,-19.463929021127683,-0.2736678685897437,30.83961215137204,-2.9353702372393955,-6.647293447293474,33.26824812052595,37.19792134663192,37.341689879294336,1577396066.0,-27.687842775309004,-51.13222548380943,5.2515526
63658,1577396067.0,-0.8640673791503906,3.832278887329101,13.20360317047119,0.6203026130490185,3.8266349948790017,13.579649038175257,-2.380805531819661,-2.183112880452474,12.526064052327476,5.0296783447265625,2.358436584472656,2.625274658203125,-3.762966249047256,-2.870699254477896,2.321010682641006,-3.736768450055804,11.39250255766369,1.876467750186012,-3.773957572134656,-18.609415064102564,-0.5473357371794875,31.032954481556477,-2.527679926511702,-7.4782051282051505,33.12447958786354,37.173959924521526,37.36565130140474,1577396067.0,-27.68788547887132,-51.13220283595428,5.219931
63659,1577396067.01,0.1486799230957031,0.4780023614501953,9.734404964904783,-0.4678620414919965,4.425185409918064,6.640055526212366,-3.8987293843587234,5.013857309977213,8.579222615559896,-6.0787200927734375,-0.9069442749023438,1.526641845703125,0.845188047827744,-6.563326207602897,3.556972596703506,-4.270826067243304,17.95378185453869,10.421389625186013,-3.773957572134656,-18.609415064102564,-0.5473357371794875,31.80632380229421,-2.2015276779295467,-7.8936609686609795,32.98071105520113,37.24584419085272,37.38961272351514,1577396067.0,-27.68788547887132,-51.13220283595428,5.219931
63660,1577396067.02,-0.1051054528808584,-1.1692083807373046,7.778342208557128,-1.2794964042849652,-0.696011941156154,9.589711971524869,2.733209214274088,4.527834372965494,6.991866914876302,-9.649276733398438,-3.165245056152344,1.526641845703125,-6.082302186547256,7.230619104897103,3.038173768578506,-2.6533944266183034,13.74235607328869,4.592532203311012,-3.773957572134656,-18.609415064102564,-0.5473357371794875,31.999666132478648,-2.119989615784008,-8.309116809116826,33.17240243208434,36.81453859286549,37.53338125617755,1577396067.0,-27.68788547887132,-51.13220283595428,5.219931
63661,1577396067.03,-1.3907917443847655,-1.334408295288086,9.310631271057128,0.2982824897580025,-3.00402234154678,15.970259395841271,-1.1238496602376296,3.953225974527995,6.740475740559896,-8.489608764648438,-2.127647399902344,1.953887939453125,-1.504665467797256,0.2115761361471036,1.9395409560785064,-2.5923592703683034,9.22575451078869,-1.022702171688988,-4.73752120757329,-18.98919904500261,0.912226228632484,30.83961215137204,-2.119989615784008,-6.647293447293474,33.17240243208434,37.0062299697487,37.24584419085272,1577396067.0,-27.68788547887132,-51.13220283595428,5.219931
63662,1577396067.04,0.2624045019531255,2.436459319458008,9.105927029113769,-1.880441020984184,3.870927725591892,9.501126510099084,-2.371228725179036,-3.0438283772786456,6.127560115559896,-0.4024505615234373,-0.1592636108398437,2.182769775390625,-3.824001405297256,-1.3448203482278966,1.1918602920160062,-1.9667489188058036,-7.36054920014881,-4.516964867001488,-4.496630298713631,-18.894253049777603,0.6385583600427366,30.742940986279823,-2.813063144021087,-54.2169871794872,33.148441009973936,37.12603708030071,37.38961272351514,1577396067.0,-27.68788547887132,-51.13220283595428,5.219931
63663,1577396067.05,0.1319205114746093,2.036627642211914,9.279506649475096,1.7731107124142524,1.07569728735947,11.500284896329552,-2.10068393758138,0.0243410502115878,10.470641927083337,2.9239654541015625,3.151893615722656,1.679229736328125,-3.579860780297256,-2.840181676352896,3.373867127953506,-3.752027239118304,-5.758376348586309,6.301516578311012,-4.255739389853973,-18.039739092752487,1.094671474358975,30.646269821187605,-3.179984423676012,-101.78668091168092,33.12447958786354,37.05415281396951,37.58130410039836,1577396067.0,-27.68788547887132,-51.13220283595428,5.219931
63664,1577396067.06,0.8908824377441407,-1.918593500366211,9.811019418029783,-1.6051078300662152,0.5705207370665012,7.245788546231898,0.3030945292154944,0.9580796976725252,10.83216637776693,-9.801864624023438,-1.852989196777344,1.679229736328125,-0.955349061547256,-2.168794957602896,2.397304627953506,-4.026685442243304,-4.903884161086309,10.482424781436013,-4.255739389853973,-18.039739092752487,1.094671474358975,30.646269821187605,-2.8538321750938573,-101.78668091168092,33.41201665318837,36.86246143708629,37.24584419085272,1577396067.0,-27.68788547887132,-51.13220283595428,5.219931
63665,1577396067.07,0.0361524450683593,-2.2226571112060545,9.34175589263916,-0.2260476738162152,-4.17239275170303,14.21530957894674,1.1578245218912755,0.6468334818522129,10.65978385823568,-8.977890014648438,1.1377334594726562,2.503204345703125,-2.145534608422256,8.817533167397103,2.488857362328506,-3.721509660993304,3.2443091982886907,7.003420875186012,-5.058709086052835,-18.98919904500261,-0.5473357371794875,31.419639141925344,-3.5061366722581666,-101.78668091168092,33.12447958786354,36.86246143708629,37.58130410039836,1577396067.0,-27.68788547887132,-51.13220283595428,5.219931
63666,1577396067.08,-0.0117315881347651,0.9652223992919922,10.155784457092285,-0.5085634697146527,0.337086075201267,9.106083236173305,-0.1242704671223956,5.985903184000651,9.551268489583334,-0.9059906005859376,1.4429092407226562,2.945709228515625,-1.245266053734756,-3.252168981040396,3.022914979516006,-1.0969979422433034,0.4977271670386907,-3.128415062313988,-4.657224237953405,-18.894253049777603,-0.4561131143162344,30.646269821187605,-3.179984423676012,-99.29394586894588,33.14844100997394,37.03019139185911,37.29376703507353,1577396067.0,-27.68788547887132,-51.13220283595428,5.219931
63667,1577396067.09,-3.1888371911621096,6.346190630493164,11.589911251525878,3.398773639660346,7.777067734136814,9.577740963224086,-2.814156032307942,-6.59083813680013,8.270370601399739,9.881973266601562,12.246131896972656,2.533721923828125,-9.408718202172256,3.965238245522104,1.6038475967035062,-2.5618416922433034,-16.74470447358631,4.500979468936012,-3.773957572134656,-18.609415064102564,-1.2771167200854656,30.646269821187605,-3.5061366722581666,-100.95576923076926,33.41201665318837,37.19792134663192,37.43753556773595,1577396067.0,-27.68788547887132,-51.13220283595428,5.219931
63668,1577396067.1,-3.5982456750488283,-0.7286752752685547,7.570046664123534,-4.140567388171684,2.6127747531797825,11.16988506722799,-3.0703356099446606,-0.3850674336751298,9.963071175130212,-7.940292358398437,-1.4867782592773438,1.831817626953125,2.493137266577744,-4.213472691977897,4.228359315453506,-2.5923592703683034,-14.33381580171131,6.362551734561012,-3.773957572134656,-18.609415064102564,-1.2771167200854656,30.646269821187605,-3.5061366722581666,-114.25035612535616,33.17240243208434,37.10207565819032,37.53338125617755,1577396067.0,-27.68788547887132,-51.13220283595428,5.219931
63669,1577396067.11,0.6155492468261718,-2.4022222357177734,6.344215414123535,-1.5679977043337938,-3.0315556606385767,7.970034548429163,1.4175954020182284,-0.7118759602864579,12.878011696370445,-15.783309936523438,-2.676963806152344,3.052520751953125,-2.801662538109756,2.210477503334604,4.258876893578506,-2.5618416922433034,3.5647437686011902,9.246462867373513,-4.576927268333519,-16.520603169152277,0.0,31.709652637201994,-3.383829579039859,-102.40986467236468,33.12447958786354,36.93434570341749,37.269805612963125,1577396067.0,-27.68788547887132,-51.13220283595428,5.219931
63670,1577396067.12,0.4455609289550781,-2.290891858520508,9.454283370666502,-2.790237651843559,0.61601056860947,10.025456673673302,-2.0815303243001297,3.199052451578776,15.685213142903647,-3.347396850585937,-1.975059509277344,3.464508056640625,6.399387266577744,-11.629244176352897,4.197841737328506,-2.3177010672433034,28.05510021391369,6.576174781436012,-4.255739389853973,-18.98919904500262,0.1824452457264982,32.57969312303195,-3.5061366722581666,-8.724572649572671,33.22032527630515,37.0062299697487,37.43753556773595,1577396067.0,-27.68788547887132,-51.13220283595428,5.219931
63671,1577396067.13,0.7232883215332031,2.374210076293945,10.086352608947752,-4.368016545886528,5.3517414523985325,11.167490865567832,-2.026463686116536,1.836751706949869,9.319030928548177,8.234024047851562,0.8020401000976562,4.395294189453125,2.493137266577744,-8.150240270102897,3.770595643578506,-0.1204354422433033,32.35807872953869,-2.975827171688988,-3.773957572134656,-19.748767006802723,-0.1824452457264983,32.19300846266308,-3.5061366722581666,-8.724572649572671,33.17240243208434,37.0062299697487,37.341689879294336,1577396067.0,-27.68788547887132,-51.13220283595428,5.219931
63672,1577396067.14,-0.9382876306152342,4.119583086547851,12.983336617736816,3.0252781806759708,1.5018651828672822,12.122777327970178,-0.8652758809407546,3.352281357828776,7.561686909993489,8.325576782226562,3.853797912597656,3.296661376953125,5.117648985327744,12.021878870522103,4.411464784203506,-0.4561288016183034,21.67692638578869,-3.189450218563988,-3.773957572134656,-19.748767006802723,-0.1824452457264983,32.19300846266308,-3.5061366722581666,-8.724572649572671,33.12447958786354,37.0062299697487,37.62922694461916,1577396067.0,-27.68788547887132,-51.13220283595428,5.219931
63673,1577396067.15,-0.3277662072753896,0.4923675714111328,9.43034135406494,0.4419345893673775,0.5346077121641575,9.082141219571742,-2.486150404866536,-0.4975949117024736,1.7940551106770828,-2.111434936523437,2.511024475097656,2.655792236328125,1.028293516577744,-13.033052770102897,6.089931581078506,-0.0594002859933033,-4.171462286086309,-4.288083031063988,-5.058709086052835,-20.128550987702774,-0.1824452457264983,31.03295448155648,2.0384515536384704,-75.19750712250713,33.17240243208434,37.24584419085272,37.341689879294336,1577396067.0,-27.68788547887132,-51.13220283595428,5.219931
63674,1577396067.16,-0.958638344726562,-1.9569007269287109,9.14303715484619,0.7400126960568305,-1.468141976556545,7.415776864102993,-1.5703682698567702,-3.0605877888997397,8.758787740071615,-9.313583374023438,-2.203941345214844,2.655792236328125,3.591770079077744,4.606107386147103,3.892665956078506,0.8713858468191966,-15.75288318452381,5.614871070498512,-4.817818177193177,-20.033604992477763,0.0912226228632491,33.73974710413857,-5.544588225896636,-44.03831908831911,33.05259532153234,36.88642285919669,37.60526552250876,1577396067.0,-27.68788547887132,-51.13220283595428,5.219931
63675,1577396067.17,-1.4554351892089843,-0.8483853582763672,7.78313061187744,-3.45343151170684,-0.877971267328029,8.998344161466274,-1.918724611409505,4.180675132242839,10.492189742024742,-2.019882202148437,-0.8153915405273438,3.510284423828125,-0.4975853896722559,-10.957857457602897,3.160244081078506,0.9476797921316966,-16.53108142671131,3.951663062686012,-4.255739389853973,-17.659955111852437,0.0,31.419639141925344,-3.3430605479670894,-0.4154558404558628,33.17240243208434,36.910384281307095,37.53338125617755,1577396067.0,-27.68788547887132,-51.13220283595428,5.219931
63676,1577396067.18,-0.897586202392578,3.8298846856689455,10.90516957672119,-2.483779839343559,3.8074813815977513,11.880962960294395,-1.1908873067220045,1.4105838114420566,9.256781685384114,6.6471099853515625,-1.3341903686523438,4.303741455078125,2.584690000952744,0.8524452767721036,3.709560487328506,0.7950919015066966,-16.13435291108631,4.104250953311012,-4.255739389853973,-17.659955111852437,0.0,31.419639141925344,-3.3430605479670894,-0.4154558404558628,33.12447958786354,37.0062299697487,37.38961272351514,1577396067.0,-27.68788547887132,-51.13220283595428,5.219931
63677,1577396067.19,0.31028853515625,0.4313154290771485,9.907984585266112,2.8696550727658146,-1.182034878167873,8.62963710580221,0.2528162943522131,-0.3587312154134111,6.893704646809896,1.153945922851562,-1.0137557983398442,4.380035400390625,4.629367735327744,1.981595667397104,6.791835877953506,0.9171622140066966,-14.76106189546131,8.651370093936013,-4.737521207573291,-19.36898302590267,0.7297809829059895,30.646269821187605,-3.5061366722581666,-7.8936609686609795,33.148441009973936,37.341689879294336,37.19792134663192,1577396067.0,-27.68788547887132,-51.13220283595428,5.219931
63678,1577396067.2,-1.9773711511230467,0.8012195855712889,8.580399764709473,-0.7348155265994183,0.3993353183653298,7.472040603116663,0.9136159525553386,3.3846030802408853,10.684922975667318,-1.8062591552734373,-3.989219665527344,5.402374267578125,2.111667540015244,-4.182955113852897,5.952602479516006,1.3901846749441966,-15.79865955171131,3.4938993908110123,-4.576927268333519,-18.79930705455259,-0.3648904914529891,31.03295448155648,-2.8538321750938573,-83.50662393162395,33.17240243208434,37.22188276874233,37.413574145625546,1577396067.0,-27.68788547887132,-51.13220283595428,5.219931
63679,1577396067.21,-2.1832724938964843,-1.0590751043701172,9.734404964904783,-0.597148931140434,-1.3496289943788102,11.29198935189596,-2.507698219807942,-8.64027475789388,8.818642781575521,-6.6280364990234375,-3.623008728027344,3.907012939453125,0.723117735327744,-0.7649863638528964,2.702480409203506,0.8256094796316966,-15.40193103608631,-1.816159202938988,-3.613363632894883,-19.938658997252745,0.0,31.03295448155648,-2.8538321750938573,-83.50662393162395,33.22032527630515,37.0062299697487,37.43753556773595,1577396067.0,-27.68788547887132,-51.13220283595428,5.219931
63680,1577396067.22,-0.4331110803222646,-0.0774524237060537,6.935583224182128,-0.7288300224490276,2.564890719976657,10.798783809903773,-2.4286895650227858,-3.241350014241536,9.793082857259114,-0.5245208740234375,-2.402305603027344,4.608917236328125,1.821750547827744,-12.209078160727897,2.610927674828506,0.6730215890066966,-15.09675525483631,11.672610328311013,-3.613363632894883,-19.938658997252745,0.0,31.03295448155648,-6.441506909497563,-99.29394586894593,33.36409380896756,37.19792134663192,37.53338125617755,1577396067.0,-27.68788547887132,-51.13220283595428,5.219931
63681,1577396067.23,-1.5140931298828124,2.7740417535400392,8.80425761993408,-2.0911307670779338,1.5018651828672822,4.514004451993617,-2.7327531758626296,10.920352805582684,11.066798140462245,2.725601196289062,-4.324913024902344,3.784942626953125,2.004856016577744,-4.549166051352897,5.418544862328506,0.9171622140066966,-6.490798223586309,7.766360328311012,-4.255739389853973,-19.179091035452643,0.5473357371794911,30.646269821187605,-1.8753754293473912,-101.78668091168092,33.17240243208434,37.19792134663192,37.341689879294336,1577396067.0,-27.68788547887132,-51.13220283595428,5.219931
63682,1577396067.24,0.4814739538574218,-0.0535104071044912,9.272324044494628,0.0349203071408154,-0.4494091701600607,13.361776687101036,-1.314188692220052,-0.9345367146809898,10.971030074055992,-2.752304077148437,-1.3341903686523438,4.700469970703125,-0.2992211318597559,-0.7344687857278963,4.136806581078506,-0.2577645438058034,5.63993908110119,5.416506812686012,-5.219303025292609,-18.79930705455259,0.7297809829059857,31.22629681174091,-3.5061366722581666,-101.37122507122508,32.88486536675951,37.05415281396951,37.48545841195675,1577396067.0,-27.68788547887132,-51.13220283595428,5.219931
63683,1577396067.25,1.0249577307128903,1.73256403137207,12.020867550354003,-0.491804058093559,1.0733030856993138,12.019826656583458,-1.6457856221516922,2.200670359293619,14.500083321126304,-3.179550170898437,-1.2731552124023438,4.364776611328125,3.225559141577744,-5.251070348227897,4.350429627953506,-1.1580330984933034,23.78263927641369,7.094973609561012,-4.576927268333519,-18.41952307365253,0.0,31.80632380229421,-3.5061366722581666,-94.3084757834758,33.36409380896756,36.910384281307095,37.58130410039836,1577396067.0,-27.68788547887132,-51.13220283595428,5.219931
63684,1577396067.26,0.3402160559082031,-0.4341884710693359,8.848550350646972,-1.4638499321169964,3.453139535894626,11.605629769376428,-3.4390426656087234,11.897187082926433,10.5711983968099,-1.1959075927734375,0.3137588500976562,4.059600830078125,-0.3144799209222559,2.225736292397104,3.801113221703506,0.0321524483816966,25.21696544828869,0.5947294689360119,-4.576927268333519,-18.41952307365253,0.0,31.22629681174091,-3.4245986101126284,-98.04757834757837,33.17240243208434,36.86246143708629,37.341689879294336,1577396067.0,-27.68788547887132,-51.13220283595428,5.219931
63685,1577396067.27,-0.8724470849609368,2.120424700317383,10.389219118957518,0.5867837898068311,2.139919925298924,9.698648147061975,-1.4686146993001297,1.213062174479166,5.060943275960287,1.3217926025390625,3.762245178222656,2.747344970703125,2.996677305640244,1.9205605111471036,3.740078065453506,0.0931876046316966,11.10258556547619,-3.631955101376488,-4.416333329093746,-18.79930705455259,1.0946714743589747,30.742940986279823,-3.3022915168943205,-54.21698717948719,33.22032527630515,37.03019139185911,37.43753556773595,1577396067.0,-27.68788547887132,-51.13220283595428,5.219931
63686,1577396067.28,-1.137006368408203,-1.5115792181396484,7.222887423400878,-3.403153276843559,0.2951875461485325,5.969679061368616,-0.4941746236165358,-6.308322340901693,5.121995418294271,-2.752304077148437,1.870155334472656,2.320098876953125,1.425022032202744,-0.7649863638528964,2.092128846703506,0.1542227608816966,-11.61775134858631,-1.785641624813988,-4.898115146813063,-21.45779492085296,0.0,31.419639141925344,-2.364603802220624,4.570014245014226,33.12447958786354,37.24584419085272,37.43753556773595,1577396067.0,-27.68788547887132,-51.13220283595428,5.219931
63687,1577396067.29,-0.8090007409667967,0.446877739868164,7.522162630920409,-0.4702562431521527,-0.3273048854920914,11.268047335294396,-2.5819184712727856,-8.163828627522786,5.567316927083334,-2.782821655273437,1.992225646972656,2.289581298828125,-2.908474061547256,1.829007776772104,0.1390038467035061,-0.1814705984933033,-19.36921619233631,7.278079078311012,-4.576927268333519,-19.55887501635269,-0.3648904914529891,30.646269821187605,-2.8538321750938573,4.570014245014226,33.17240243208434,37.0062299697487,37.43753556773595,1577396067.0,-27.68788547887132,-51.13220283595428,5.219931
63688,1577396067.3,-0.4977545251464833,0.3367444635009765,6.937977425842284,-1.811009172839653,-0.763049587640529,10.492325997403771,0.6622247782389319,2.586136826578776,11.876038301595054,-1.4705657958984375,1.870155334472656,1.892852783203125,2.950900938452744,-1.6499961294778964,4.899746034203506,0.1847403390066966,-12.80793689546131,9.688967750186013,-4.576927268333519,-19.55887501635269,-0.3648904914529891,30.646269821187605,-2.8538321750938573,-2.0772792022792146,33.12447958786354,37.19792134663192,37.24584419085272,1577396067.0,-27.68788547887132,-51.13220283595428,5.219931
63689,1577396067.31,-1.2662932580566404,1.8666393243408204,10.4011901272583,0.646638831310737,1.4659521579649395,9.028271682218223,0.1570482279459636,3.4456552225748696,10.383253566487634,1.8711090087890625,2.404212951660156,2.289581298828125,-3.106838319359756,6.971219690834603,2.259975526391006,0.0779288155691966,-9.54255603608631,6.469363257998513,-4.817818177193177,-18.894253049777603,0.4561131143162381,30.646269821187605,-3.424598610112628,-4.985470085470097,33.17240243208434,37.05415281396951,37.38961272351514,1577396067.0,-27.68788547887132,-51.13220283595428,5.219931
63690,1577396067.32,-1.5631742639160155,-0.9465476263427736,10.88601596343994,-1.3297746391482466,-0.5595424465272477,9.663932222989713,1.9096038431803384,1.214259275309244,6.54654540608724,-3.179550170898437,0.6494522094726562,1.435089111328125,-5.380397889672256,7.657865198647103,1.7564354873285062,0.3678458077566966,-16.04280017671131,-6.210690452938988,-4.255739389853973,-19.55887501635269,-0.7297809829059857,30.646269821187605,-3.3430605479670894,-4.570014245014259,33.17240243208434,36.910384281307095,37.341689879294336,1577396067.0,-27.68788547887132,-51.13220283595428,5.219931
63691,1577396067.33,-1.0460267053222656,1.92410016418457,8.400834640197752,0.9159865180783148,0.7716336765196262,8.711039962247522,-3.762259889729817,-3.669912111409505,9.168196223958333,-2.447128295898437,0.3442764282226562,1.862335205078125,0.417941954077744,-4.030367223227897,2.732997987328506,0.0321524483816966,-23.30598377046131,-3.281002952938988,-4.255739389853973,-18.41952307365253,1.4595619658119638,24.84599991565453,-2.364603802220624,-1.2463675213675387,33.17240243208434,37.05415281396951,37.341689879294336,1577396067.0,-27.68788547887132,-51.13220283595428,5.219931
63692,1577396067.34,-1.8792088830566405,2.359844866333008,10.416752438049317,-1.909171440906059,5.342164645757908,5.706316878751429,-2.1365969624837238,-3.1120631245930985,11.36128494466146,-3.149032592773437,-0.3576278686523437,1.404571533203125,-2.938991639672256,-1.0091269888528964,2.885585877953506,0.1237051827566966,-23.45857166108631,7.278079078311012,-3.934551511374428,-19.938658997252745,-1.094671474358975,24.459315255285667,-2.8538321750938573,-0.4154558404558628,33.17240243208434,37.05415281396951,37.341689879294336,1577396067.0,-27.68788547887132,-51.13220283595428,5.219931
63693,1577396067.35,-1.6397887170410157,1.8283320977783204,9.862494753723144,-1.5524353935427777,-0.8468466457459977,10.360644906095178,1.8449603983561196,7.096812754313151,10.568804195149742,-0.7686614990234373,-1.0900497436523438,2.365875244140625,0.295871641577744,0.4557167611471036,2.458339784203506,-0.7307870047433034,-23.33650134858631,11.001223609561013,-3.773957572134656,-19.55887501635269,-0.3648904914529891,30.646269821187605,-3.5061366722581666,1.2463675213675056,33.17240243208434,36.86246143708629,37.43753556773595,1577396067.0,-27.68788547887132,-51.13220283595428,5.219931
63694,1577396067.36,-1.280658468017578,-2.172378876342773,8.953895223693847,-0.6641865776248089,-0.906701687249904,5.205928731778773,-0.4642471028645831,1.802035782877604,10.666966463216148,-7.818222045898437,-6.278038024902344,2.381134033203125,-1.306301209984756,-5.098482457602897,4.258876893578506,-0.7765633719308034,-10.64118884858631,2.914065406436012,-5.058709086052835,-18.98919904500261,-1.6420072115384547,30.83961215137204,-2.853832175093857,-0.4154558404558545,33.22032527630515,37.03019139185911,37.38961272351514,1577396067.0,-27.68788547887132,-51.13220283595428,5.219931
63695,1577396067.37,-0.3517082238769521,-0.9561244329833984,5.218940633850097,-0.2044998588748089,-1.002469753656154,11.038203975919396,0.2599988993326819,-2.5829445576985672,11.02370251057943,-3.545761108398437,-5.728721618652344,3.144073486328125,-2.267604920922256,-2.321382848227896,3.618007752953506,-1.6768319266183034,2.5424049014136907,5.691165015811012,-4.0951454506142,-19.748767006802723,0.912226228632484,31.03295448155648,-3.3430605479670894,-4.570014245014259,33.12447958786354,36.86246143708629,37.0062299697487,1577396067.0,-27.68788547887132,-51.13220283595428,5.219931
63696,1577396067.38,-0.0476446130371083,0.2984372369384765,9.358515304260251,-1.2411891777224653,3.4746873508360325,8.363880721524867,-3.285813759358723,-1.1296641499837237,11.648589143880212,-1.4400482177734375,-3.500938415527344,3.235626220703125,-2.023464295922256,-8.730074254477897,3.373867127953506,-3.5384041922433034,9.34782482328869,1.113528297061012,-5.058709086052835,-18.98919904500261,-0.9122262286324764,31.03295448155648,-2.690756050802779,-4.570014245014259,33.12447958786354,37.19792134663192,37.341689879294336,1577396067.0,-27.68788547887132,-51.13220283595428,5.219931
63697,1577396067.39,-1.3991714501953123,2.486737554321289,11.82454301422119,-1.4315282097048871,0.1778716648008766,12.493878585294397,0.2983061258951824,1.324392551676432,9.293891811116538,3.7326812744140634,-2.005577087402344,3.342437744140625,-1.184230897484756,-3.7557090201028966,3.953701112328506,-2.0277840750558034,12.88786388578869,3.402346656436012,-4.336036359473859,-18.514469068877556,-0.821003605769231,30.646269821187605,-3.3430605479670894,-100.12485754985757,33.148441009973936,37.12603708030071,37.22188276874233,1577396067.0,-27.68788547887132,-51.13220283595428,5.219931
63698,1577396067.4,-0.6629544396972655,-0.5108029241943359,9.600329671936034,0.245610053234565,2.246461899175876,9.436483065274867,-3.108642836507161,0.6947175150553379,7.4084580037434895,-6.7195892333984375,-5.454063415527344,3.357696533203125,-0.4365502334222559,-7.722994176352897,3.740078065453506,-1.829419817243304,5.685715448288691,1.327151343936012,-3.934551511374428,-20.698226959052853,-0.7297809829059857,30.646269821187605,-3.5061366722581666,-98.4630341880342,33.22032527630515,37.10207565819032,37.43753556773595,1577396067.0,-27.68788547887132,-51.13220283595428,5.219931
63699,1577396067.41,-0.3660734338378896,0.753335552368164,8.216481112365722,-0.2260476738162152,0.6303757785704075,12.31910186410299,0.1355004130045569,-2.140017250569661,10.719638899739586,-6.7501068115234375,-4.904747009277344,3.022003173828125,-1.474147889672256,0.9134804330221036,3.495937440453506,-2.5008065359933034,4.251389276413691,7.186526343936012,-4.0951454506142,-20.508334968602828,1.2771167200854732,30.646269821187605,-2.2015276779295467,-113.41944444444444,33.17240243208434,37.0062299697487,37.341689879294336,1577396067.0,-27.68788547887132,-51.13220283595428,5.219931
63700,1577396067.42,-0.3948038537597645,1.3470975640869138,11.125436129455563,-0.0632419609255902,-3.36794099389053,10.67189112191549,-2.1677215840657547,12.34011439005534,8.20572715657552,-3.9119720458984375,-3.317832946777344,3.723907470703125,2.493137266577744,-2.931734410727896,4.380947206078506,-0.6697518484933034,-0.4483177548363095,-1.816159202938988,-5.058709086052835,-18.98919904500261,-0.1824452457264983,32.96637778340082,-3.5061366722581666,-101.78668091168092,33.02863389942193,37.05415281396951,37.341689879294336,1577396067.0,-27.68788547887132,-51.13220283595428,5.219931
63701,1577396067.43,-0.1649604943847646,0.4037821099853516,9.43034135406494,-1.1023254814334031,2.0776706821348605,11.458386367276818,-2.171312886555989,-5.214172182210286,9.778717647298178,-1.6078948974609375,-1.852989196777344,4.059600830078125,-3.457790467797256,-2.3213828482278966,3.953701112328506,-2.1651131766183034,-2.8592064267113093,1.449221656436012,-5.058709086052835,-18.98919904500261,0.0,33.06304894849304,-3.4653676411853978,-106.56442307692308,33.10051816575314,37.22188276874233,37.31772845718393,1577396067.0,-27.68788547887132,-51.13220283595428,5.219931
63702,1577396067.44,0.8884882360839844,1.1986570611572265,9.73679916656494,-1.0257110283084026,0.9871118259336888,7.992779464200647,-1.3417220113118484,-3.844688832600911,11.557609480794271,-0.7076263427734375,-0.8459091186523438,3.601837158203125,-1.748806092797256,-4.091402379477897,4.625087831078506,-4.698072160993304,14.16960216703869,10.024661109561013,-5.058709086052835,-19.36898302590267,0.5473357371794949,31.419639141925344,-3.5061366722581666,-108.43397435897435,33.31617096474676,36.910384281307095,37.53338125617755,1577396067.0,-27.68788547887132,-51.13220283595428,5.219931
63703,1577396067.45,0.1965639562988281,-0.9848548529052734,8.822214132385254,1.4355282783322212,1.4659521579649386,7.868280977872523,-0.3026384908040358,0.8479464213053378,13.097081148274745,-4.2476654052734375,-1.5172958374023438,4.151153564453125,-4.678493592797256,0.3946816048971036,3.526455018578506,-3.1111580984933034,23.75212169828869,12.343997047061013,-3.773957572134656,-19.748767006802723,0.912226228632484,31.03295448155648,-3.3430605479670894,-114.25035612535616,33.12447958786354,37.10207565819032,37.43753556773595,1577396067.0,-27.68788547887132,-51.13220283595428,5.219931
63704,1577396067.46,0.3222595434570312,0.868257232055664,9.444706564025878,-1.372870269031059,-0.763049587640529,12.577675643399864,1.7396155253092445,0.8240044047037753,13.216791231282556,-5.0258636474609375,-0.1440048217773437,3.617095947265625,1.089328672827744,-1.8941367544778964,4.197841737328506,-4.362378801618304,30.55754162016369,8.285159156436013,-5.058709086052835,-18.22963108320252,-0.1824452457264983,30.646269821187605,-3.5061366722581666,-88.49209401709405,33.24428669841555,37.19792134663192,37.341689879294336,1577396067.0,-27.68788547887132,-51.13220283595428,5.219931
63705,1577396067.47,0.2636016027832031,1.0238803399658205,9.377668917541502,-0.5301112846560595,1.3701840915586885,10.741322970060022,-2.131808559163411,6.638323136393228,7.370150777180989,-2.782821655273437,2.144813537597656,4.273223876953125,-4.785305116234756,2.195218714272104,3.877407167016006,-2.5618416922433034,29.76408458891369,-6.256466820126487,-3.613363632894883,-19.179091035452643,0.0,32.38635079284752,-3.424598610112628,-4.570014245014259,33.17240243208434,37.05415281396951,37.48545841195676,1577396067.0,-27.68788547887132,-51.13220283595428,5.219931
63706,1577396067.48,0.0457292517089843,1.8905813409423824,11.273876632385251,-2.218023455066215,2.062108371343845,10.583305660489708,-1.2507423482259108,-8.554083498128255,7.291142122395834,-2.172470092773437,2.999305725097656,3.876495361328125,-0.650173280297256,-1.0701621451028964,6.089931581078506,-4.026685442243304,19.47966076078869,-0.7785615466889881,-5.540490903772153,-20.698226959052853,-0.3648904914529891,31.419639141925344,-5.626126288042175,-8.724572649572671,33.17240243208434,37.0062299697487,37.43753556773595,1577396067.0,-27.68788547887132,-51.13220283595428,5.219931
63707,1577396067.49,-0.0787692346191396,1.17710924621582,8.944318417053221,-0.4487084282107465,2.6917834079649388,8.088547530606897,-2.8764052754720044,0.9125898661295566,3.3814108113606767,-2.691268920898437,4.250526428222656,3.754425048828125,0.631565000952744,7.505277308022103,5.235439393578506,-2.6533944266183034,-4.537673223586309,3.677004859561012,-5.058709086052835,-20.128550987702774,-0.5473357371794875,30.83961215137204,-4.076903107276939,-8.309116809116826,33.17240243208434,37.0062299697487,37.43753556773595,1577396067.0,-27.68788547887132,-51.13220283595428,5.219931
63708,1577396067.5,-0.5001487268066406,0.8000224847412108,8.782709804992674,-0.1063375908084027,1.13315812720322,8.529080636075648,0.5664567118326819,-2.2118433003743485,7.473101448567708,-4.7817230224609375,2.617835998535156,3.891754150390625,-1.748806092797256,1.4322792611471036,4.777675721703506,-2.6533944266183034,-19.52180408296131,3.677004859561012,-4.0951454506142,-19.36898302590267,1.2771167200854732,30.83961215137204,-4.076903107276939,-8.309116809116826,33.148441009973936,37.10207565819032,37.725072633060776,1577396067.0,-27.68788547887132,-51.13220283595428,5.219931
63709,1577396067.51,-1.0771513269042967,0.2697068170166015,7.589200277404784,1.1613921882443303,0.4496135532286106,6.278531075528773,0.3090800333658856,1.126870914713541,8.611544337972004,-4.6749114990234375,1.4429092407226562,3.357696533203125,-1.428371522484756,-1.1159385122903964,4.869228456078506,-2.3787362234933034,-17.43134998139881,8.773440406436013,-4.416333329093746,-18.609415064102564,0.5473357371794949,30.646269821187605,-3.5061366722581666,-7.062749287749304,33.17240243208434,37.05415281396951,37.38961272351514,1577396067.0,-27.68788547887132,-51.13220283595428,5.219931
63710,1577396067.52,-0.3995922570800771,-0.6233304022216797,8.573217159729003,-2.1749278251834028,-0.6074264797303727,8.756529793790492,2.5751919047037752,5.499880246988932,11.813789058430991,-4.0340423583984375,0.2832412719726562,3.296661376953125,-1.657253358422256,-0.4598105826028963,4.441982362328506,-2.0735604422433034,-10.88532947358631,2.212161109561012,-5.3798969645323815,-19.36898302590267,0.5473357371794949,30.646269821187605,-3.5061366722581666,-5.400925925925935,33.17240243208434,36.86246143708629,37.43753556773595,1577396067.0,-27.68788547887132,-51.13220283595428,5.219931
63711,1577396067.53,0.1486799230957031,-0.8459911566162109,9.94748891265869,1.7826875190548774,0.5777033420469699,8.957642733243617,-0.486992018636067,-0.5981513814290361,9.90082193196615,-4.2171478271484375,0.2832412719726562,3.449249267578125,-2.603298280297256,0.8524452767721036,3.984218690453506,-2.4092538016183034,-10.24446033296131,1.021975562686012,-3.2921757544153376,-18.41952307365253,-0.7297809829059857,30.646269821187605,-3.3430605479670894,-7.8936609686609795,33.22032527630515,37.0062299697487,37.341689879294336,1577396067.0,-27.68788547887132,-51.13220283595428,5.219931
63712,1577396067.54,-1.3441048120117187,4.31231632019043,10.769897182922362,-0.8724821220584027,4.63826935767197,10.736534566739708,-0.2403892476399733,-3.018689259847005,8.528944380696615,0.8640289306640625,0.3747940063476561,3.662872314453125,-3.824001405297256,-2.596041051352896,3.862148377953506,-1.859937395368304,-12.80793689546131,7.583254859561012,-4.255739389853973,-17.659955111852437,0.7297809829059857,31.22629681174091,-3.261522485821551,-77.27478632478635,33.17240243208434,37.19792134663192,37.341689879294336,1577396067.0,-27.68788547887132,-51.13220283595428,5.219931
63713,1577396067.55,-0.9526528405761716,-2.026332575073242,7.562864059143066,-2.2132350517459027,1.2576566135313454,10.12840734506002,-1.89597969563802,3.094904679361979,11.269108180745445,-8.153915405273438,-3.897666931152344,3.540802001953125,0.570529844702744,-1.4211142935403964,5.571132752953506,-2.7907235281808034,-4.46137927827381,4.851931617373512,-4.73752120757329,-20.128550987702774,-0.5473357371794875,31.03295448155648,-3.179984423676012,-85.1684472934473,33.17240243208434,37.05415281396951,37.36565130140474,1577396067.0,-27.68788547887132,-51.13220283595428,5.219931
63714,1577396067.56,-0.4594472985839833,-1.1476605657958985,8.448718673400878,2.7619159980587837,-0.7558669826600602,8.646396517423304,2.898409128824869,-1.220643813069661,14.806541133626304,-6.9637298583984375,-1.5478134155273438,4.090118408203125,-6.295925233422256,7.261136683022103,3.862148377953506,-2.7144295828683034,12.55217052641369,6.209963843936012,-4.576927268333519,-18.79930705455259,1.094671474358975,31.03295448155648,-3.5061366722581666,-94.3084757834758,33.02863389942193,36.81453859286549,37.341689879294336,1577396067.0,-27.68788547887132,-51.13220283595428,5.219931
63715,1577396067.57,-0.4402936853027333,1.8115726861572263,12.281835531311032,2.2519510444455024,0.932045187750095,10.612036080411585,-2.3951707417805985,2.7345773295084634,14.085886433919274,-3.6678314208984375,-1.1205673217773438,2.869415283203125,-4.922634217797256,-10.316988316977897,4.503017518578506,-4.728589739118304,28.32975841703869,3.982180640811012,-5.3798969645323815,-17.849847102302462,-1.6420072115384547,30.646269821187605,-2.8538321750938573,-100.95576923076926,33.12447958786354,37.341689879294336,37.24584419085272,1577396067.0,-27.68788547887132,-51.13220283595428,5.219931
63716,1577396067.58,0.3210624426269531,-0.4641159918212885,9.626665890197753,-0.0345115410037157,0.5729149387266581,12.952368203214318,-0.7180324788411457,0.9628681009928388,13.687251857503258,-1.4400482177734375,0.1916885375976562,3.174591064453125,-0.4975853896722559,2.836087854897104,3.785854432641006,-4.453931535993304,47.26591564360119,1.357668922061012,-5.219303025292609,-19.55887501635269,0.0,30.646269821187605,-3.179984423676012,-109.6803418803419,33.17240243208435,37.03019139185911,37.17395992452152,1577396067.0,-27.68788547887132,-51.13220283595428,5.219931
63717,1577396067.59,0.2205059729003906,2.252105791625977,11.788629989318846,-1.8253743828005904,1.99507072485947,10.643160701993615,-4.030410475667317,-0.2892993672688799,10.384450667317711,-2.233505249023437,1.809120178222656,3.327178955078125,-2.633815858422256,-6.288668004477897,4.472499940453506,-5.949292864118304,56.61955333891369,4.439944312686012,-3.613363632894883,-20.698226959052853,0.3648904914529966,30.646269821187605,-3.5061366722581666,-115.08126780626785,33.02863389942193,37.0062299697487,37.43753556773595,1577396067.0,-27.68788547887132,-51.13220283595428,5.219931
63718,1577396067.6,0.6514622717285157,1.2297816827392576,9.60272387359619,2.38123793409394,2.892896347418064,12.18502657113424,0.3844973856608069,1.8798473368326816,7.061298763020833,-5.5599212646484375,2.724647521972656,2.777862548828125,-9.774929139672256,11.869290979897103,4.777675721703506,-4.362378801618304,49.29533458891369,-1.266842796688988,-4.255739389853973,-19.55887501635269,-0.3648904914529891,31.419639141925344,-2.690756050802779,-97.63212250712247,33.12447958786354,37.0062299697487,37.341689879294336,1577396067.0,-27.68788547887132,-51.13220283595428,5.219931
63719,1577396067.61,1.3745111730957031,2.237740581665039,11.324154867248534,3.925498004894721,1.3582130832579071,15.029338143399864,-0.4941746236165358,0.7880913798014316,0.6280789021809893,-3.8204193115234375,4.677772521972656,3.449249267578125,-2.481227967797256,9.549955042397103,5.723720643578506,-4.362378801618304,19.96794201078869,1.937502906436012,-4.0951454506142,-19.748767006802723,0.1824452457264983,30.646269821187605,-2.690756050802779,-115.08126780626785,33.17240243208434,37.341689879294336,37.43753556773595,1577396067.0,-27.68788547887132,-51.13220283595428,5.219931
63720,1577396067.62,-0.2116474267578124,0.2026691705322265,8.542092538146973,-2.046838036365043,0.8626133396055637,8.124460555509243,-0.4355166829427077,1.2477780985514322,6.110800703938802,-5.7582855224609375,4.723548889160156,2.365875244140625,-1.0926781631097562,2.195218714272104,3.618007752953506,-2.6839120047433034,-12.28913806733631,-2.197628929501488,-4.576927268333519,-18.41952307365253,2.18934294871795,30.646269821187605,-2.690756050802779,-115.08126780626785,33.10051816575314,37.03019139185911,37.46149698984635,1577396067.0,-27.68788547887132,-51.13220283595428,5.219931
63721,1577396067.63,-0.390015450439452,0.4013879083251953,7.62990170562744,0.9303517280392524,0.8386713230040013,8.543445846036585,-0.0536415181477858,-0.5119601216634111,9.91279294026693,-4.8885345458984375,4.097938537597656,2.503204345703125,-3.366237733422256,6.162503870522103,3.129726502953506,-2.6533944266183034,-11.19050525483631,6.332034156436012,-4.576927268333519,-18.41952307365253,2.18934294871795,30.83961215137204,-3.0984463615304736,8.309116809116793,33.12447958786354,37.05415281396951,37.341689879294336,1577396067.0,-27.68788547887132,-51.13220283595428,5.219931
63722,1577396067.64,-0.7898471276855468,1.7445350396728514,10.06959319732666,1.4091920600705026,-0.9282495021913102,6.5442874598061165,0.6071581400553381,-0.4018268452962236,12.321359810384118,-0.0057220458984375,4.311561584472656,2.045440673828125,-2.084499452172256,2.530912073647104,4.625087831078506,-3.690992082868304,0.8029029482886905,6.789797828311012,-4.576927268333519,-18.79930705455259,-0.3648904914529891,22.71923428362574,-3.4245986101126284,-5.816381766381765,33.31617096474676,36.86246143708629,37.341689879294336,1577396067.0,-27.68788547887132,-51.13220283595428,5.219931
63723,1577396067.65,-0.4211400720214843,-0.0846350286865234,10.392810421447752,-0.989798003406059,1.374972494879001,7.535486947110804,-2.871616872151692,3.831121689860026,8.56964580891927,0.0400543212890625,4.631996154785156,2.777862548828125,-5.105739686547256,-0.6429160513528964,1.9090233779535064,-3.2332284109933034,-2.3709251767113093,8.956545875186013,-4.255739389853973,-19.55887501635269,0.5473357371794874,21.559180302519145,-3.4245986101126284,-6.647293447293474,33.10051816575314,37.0062299697487,37.38961272351514,1577396067.0,-27.68788547887132,-51.13220283595428,5.219931
63724,1577396067.66,-0.706050069580078,0.3271676568603515,10.689691427307128,-0.4127954033084027,-0.6864351345155295,12.78477408700338,0.534134989420573,3.070962662760416,9.018558620198569,-4.5528411865234375,2.907752990722656,2.350616455078125,-1.5809594131097562,7.322171839272103,4.136806581078506,-2.1651131766183034,-6.322951543898809,0.3811064220610118,-4.898115146813063,-19.179091035452643,-0.3648904914529891,30.742940986279823,-2.813063144021088,-5.1931980056980205,33.12447958786354,37.03019139185911,37.46149698984635,1577396067.0,-27.68788547887132,-51.13220283595428,5.219931
63725,1577396067.67,-0.8377311608886717,0.274495220336914,8.410411446838378,-0.7479836357302777,4.092391379156345,6.482038216642054,-1.7176116719563796,-2.029883974202473,6.407681709798177,-4.4918060302734375,2.663612365722656,2.533721923828125,-2.084499452172256,-0.3072226919778963,2.519374940453506,-1.2801034109933034,-10.97688220796131,-1.907711937313988,-4.898115146813063,-19.179091035452643,-0.3648904914529891,30.83961215137204,-2.772294112948318,-8.309116809116826,33.17240243208434,37.0062299697487,37.24584419085272,1577396067.0,-27.68788547887132,-51.13220283595428,5.219931
63726,1577396067.68,-1.7642872033691406,2.70939830871582,10.74475806549072,-0.309844731921684,2.342229965582126,7.126078463224085,0.4970248636881506,2.58374262491862,10.60232301839193,-3.515243530273437,2.724647521972656,1.587677001953125,-0.833278749047256,4.209378870522103,4.289394471703506,-1.0054452078683034,-12.16706775483631,0.2590361095610119,-4.576927268333519,-18.79930705455259,0.0,30.83961215137204,-3.4245986101126284,-0.8309116809117091,33.22032527630515,37.341689879294336,37.58130410039836,1577396067.0,-27.68788547887132,-51.13220283595428,5.219931
63727,1577396067.69,-0.8880093957519526,-0.0487220037841797,8.40203174102783,-0.1614042289919964,-1.7734026882264664,9.434088863614711,-1.2507423482259108,-10.82378667195638,12.886391402180992,-2.401351928710937,0.4358291625976562,2.503204345703125,0.387424375952744,2.805570276772104,2.427822206078506,-3.935132707868304,0.1925513857886905,7.705325172061012,-4.33603635947386,-20.223496982927784,0.6385583600427402,31.03295448155648,-3.5061366722581666,2.908190883190874,33.17240243208435,36.910384281307095,37.43753556773595,1577396067.0,-27.68788547887132,-51.13220283595428,5.219931
