,timestamp,acc_x_dashboard,acc_y_dashboard,acc_z_dashboard,acc_x_above_suspension,acc_y_above_suspension,acc_z_above_suspension,acc_x_below_suspension,acc_y_below_suspension,acc_z_below_suspension,gyro_x_dashboard,gyro_y_dashboard,gyro_z_dashboard,gyro_x_above_suspension,gyro_y_above_suspension,gyro_z_above_suspension,gyro_x_below_suspension,gyro_y_below_suspension,gyro_z_below_suspension,mag_x_dashboard,mag_y_dashboard,mag_z_dashboard,mag_x_above_suspension,mag_y_above_suspension,mag_z_above_suspension,temp_dashboard,temp_above_suspension,temp_below_suspension,timestamp_gps,latitude,longitude,speed
53661,1577397594.34,1.5260407801186164,1.655502855254382,9.429534040944167,0.615572604891149,1.7054599167242284,9.73905759947242,0.2456684483970084,1.0946757151533917,9.903002018030676,1.2607109255907014,0.0662454744664634,-4.725572539538872,-0.1429115853658537,0.5794618187881098,-4.46319580078125,0.4369223990091463,0.2657262290396341,-4.389693097370427,-1.0414487871953166,-18.259167048229543,2.9448214762667897,2.416426827141113,-35.1831746031746,-15.00231441735348,29.146883517536764,36.50304010543026,39.0908736933537,1577397593.999,-27.717875099335423,-51.12204743406736,6.286152
53662,1577397594.35,1.0783250696693978,1.475937730742663,10.322571260182448,0.8514014684165396,1.5534281113043065,10.259796460556403,-0.2978153284584603,1.7698405833174542,10.31001630025724,-0.6618964962842987,-0.2694478849085365,-4.511949492663872,0.1164878286966463,1.6323182641006098,-3.63922119140625,-1.7756020150533538,-1.534810880335366,-3.5962360661204267,-1.0414487871953166,-18.259167048229543,2.9448214762667897,4.6717585324728175,-34.506575091575094,-3.263368532509159,29.29065205019917,36.479078683319855,39.21068080390571,1577397593.999,-27.717875099335423,-51.12204743406736,6.286152
53663,1577397594.36,1.0448062464272103,1.645926048613757,9.271516731373856,0.5808566808188834,1.5318802963629,9.88630100157203,2.2304616246665394,0.2686761423994855,10.690694364222084,2.0236503787157014,3.331626333841464,-3.932115508288872,0.1164878286966463,-0.0766661108993902,-5.19561767578125,-1.4093910775533538,-2.3587854897103657,-3.931929425495426,-0.6627401373061044,-19.71990041208792,3.2548026842948694,4.6717585324728175,-34.506575091575094,-3.263368532509159,29.19480636175757,36.71869290442388,38.92314373858088,1577397593.999,-27.717875099335423,-51.12204743406736,6.286152
53664,1577397594.37,0.7982034754311166,1.0749089526664917,9.563609333912918,0.0277960973227896,1.4935730698004002,11.039109100937262,-0.4929427637611942,2.158898353092845,10.549436466272864,-0.0210273556592986,1.6226419588414631,-4.206773711413872,0.3758872427591463,-0.3513243140243902,-3.73077392578125,-0.5854164681783536,-6.188741544397866,-2.7722614567454267,-1.3254802746122163,-18.350462883470698,3.6422791943299786,-2.8191646316646324,-35.43689942002442,-12.472369183550825,29.386497738640788,36.50304010543026,39.1148351154641,1577397593.999,-27.717875099335423,-51.12204743406736,6.286152
53665,1577397594.38,0.9370671717201792,2.0337867175590696,10.284264033619948,0.4395987828696646,1.790454075659775,10.386689148544685,1.7396502843345083,0.7930063059737043,9.646822440393958,2.4814140505907014,0.4934915682164634,-4.420396758288872,-0.4938637338033537,4.4399354516006095,-4.00543212890625,-3.179410608803354,-7.424703458460366,-2.5891559879954267,-3.503055011475155,-18.44175871871185,2.4798496642246635,7.249280481423338,-32.81507631257631,-16.216688129578753,29.338574894419985,36.52700152754066,39.30652649234732,1577397593.999,-27.717875099335423,-51.12204743406736,6.286152
53666,1577397594.39,0.994528011563929,1.5501579822075071,10.66015369426448,0.6790189488852896,1.6491961777105564,10.183182007431403,1.179407095857946,1.6836493235518293,9.13446328512052,-1.2722480587842986,-2.8939596036585367,-4.267808867663872,-0.2192055306783537,3.127679592225609,-3.97491455078125,0.1470054068216463,-6.081930020960366,-1.765181378620427,-3.503055011475155,-18.44175871871185,2.4798496642246635,7.249280481423338,-32.81507631257631,-16.216688129578753,29.19480636175757,36.57492437176146,39.21068080390571,1577397593.999,-27.717875099335423,-51.12204743406736,6.286152
53667,1577397594.4,1.2866206141029914,1.8207027698051632,9.917951179616043,0.3198886998618521,1.9915670151129,8.813698657822027,1.4547402867759145,1.937434699528392,8.10735077291349,0.7724296755907013,1.2259134432164631,-4.389879180163872,-0.7685219369283537,0.7473084984756098,-3.88336181640625,0.5742515005716463,-1.290670255335366,-2.8027790348704267,-2.745637711696738,-19.90249208257021,2.7898308722527494,7.249280481423338,-32.81507631257631,-16.216688129578753,29.146883517536764,36.33531015065744,39.21068080390571,1577397593.999,-27.717875099335423,-51.12204743406736,6.286152
53668,1577397594.41,1.1441656153236943,1.319117522002429,9.929922187916825,0.9292130223716176,1.7258106308355563,9.411051972031013,1.0620912145102896,1.393950922672923,9.31402840963224,0.3299247927782014,2.065146841653964,-4.222032500476372,0.9252036490091462,1.2508485375381098,-3.92913818359375,3.992220250571647,1.791605135289634,-4.313399152057927,-1.0414487871953166,-17.893983707264958,3.4097932883089124,-0.6443804872376302,-32.30762667887668,-17.026270604395606,29.146883517536764,36.57492437176146,39.16275795968491,1577397593.999,-27.717875099335423,-51.12204743406736,6.286152
53669,1577397594.42,1.4326669153725229,1.7967607532036007,10.33454226848323,1.217714322420446,1.9628365951910247,11.20071771299781,-0.0440299524818968,1.1617133616377668,9.828781766565834,1.2607109255907014,0.9207376619664634,-4.115220977038872,0.2080405630716463,1.5407655297256098,-3.88336181640625,-6.688932093178353,-0.6498011147103658,-5.152632550495427,-3.692409336419757,-17.893983707264958,3.2548026842948694,-0.8054756090470375,-28.75547924297924,-17.026270604395606,29.146883517536764,36.57492437176146,39.16275795968491,1577397593.999,-27.717875099335423,-51.12204743406736,6.286152
53670,1577397594.43,1.1740931360756477,1.5501579822075071,8.926751692311354,0.3438307164634146,1.9245293686285248,9.402672266220463,1.344607010408727,1.6956203318526104,9.213471939905675,-0.1736152462842987,1.6836771150914631,-3.871080352038872,0.4826987661966463,3.188714748475609,-3.88336181640625,-0.3107582650533537,1.425394197789634,-5.183150128620427,-3.692409336419757,-17.893983707264958,3.2548026842948694,-3.2219024361881505,-29.60122863247863,-12.775962611607142,29.19480636175757,36.67077006020308,39.1148351154641,1577397593.999,-27.717875099335423,-51.12204743406736,6.286152
53671,1577397594.44,1.0088932215248665,1.3203146228325071,9.763525172535964,0.6407117223227896,2.0753640732183687,10.578225281357184,0.4012915563071646,1.9326462962080797,9.347547232874428,0.4672538943407014,1.3174661775914638,-3.916856719226372,-0.7380043588033537,2.517328029725609,-3.18145751953125,1.4287436880716462,1.303323885289634,-3.657271222370426,-2.4616062242798344,-17.254912860576923,3.487288590315939,-3.2219024361881505,-29.60122863247863,-12.775962611607142,29.146883517536764,36.52700152754066,39.21068080390571,1577397593.999,-27.717875099335423,-51.12204743406736,6.286152
53672,1577397594.45,0.927490365079554,1.4400247058403195,9.367284797780105,0.4000944554770865,1.3259789535894626,9.722298187851326,0.7843638219321646,1.4394407542158918,10.008346891077553,4.892302722465701,2.446616568216464,-3.810045195788872,0.2690757193216463,1.830682521913109,-4.05120849609375,0.6200278677591462,-0.5887659584603658,-4.313399152057927,-2.366929061807533,-17.711392036782662,2.7898308722527494,-2.899712192569336,-33.82997557997558,-14.192731942536629,29.29065205019917,36.57492437176146,39.21068080390571,1577397593.999,-27.717875099335423,-51.12204743406736,6.286152
53673,1577397594.46,0.8029918787514291,0.9204829455864136,11.184483857838698,0.0948337438071646,1.4768136581793063,10.24303704893531,-0.295421126798304,1.585487055485423,11.389801248987707,-1.1501777462842986,-1.2460103849085369,-3.993150664538872,0.6047690786966463,1.5407655297256098,-2.93731689453125,-2.660611780678354,-0.7718714272103658,-3.626753644245426,-1.798866086973726,-17.16361702533578,3.874765100351035,-2.899712192569336,-33.99912545787546,-10.347215187156593,29.146883517536764,36.52700152754066,39.498217869230544,1577397593.999,-27.717875099335423,-51.12204743406736,6.286152
53674,1577397594.47,1.1549395227943977,1.7440883166801633,8.732821357838699,-0.170922640470179,1.5534281113043065,9.68039965879859,0.8011232335532583,0.5272499216963605,10.851105875452552,3.885222644340701,1.4700540682164631,-3.810045195788872,0.5132163443216463,1.2661073266006098,-3.60870361328125,-2.446988733803354,-1.626363614710366,-5.152632550495427,-1.798866086973726,-17.16361702533578,3.874765100351035,-2.899712192569336,-35.690624236874235,-11.966380136790292,29.338574894419985,36.71869290442388,39.21068080390571,1577397593.999,-27.717875099335423,-51.12204743406736,6.286152
53675,1577397594.48,0.8939715418373665,1.3430595386039914,9.245180513112135,0.4395987828696646,0.8734748398199315,9.141704285263437,2.4052383458579456,2.5311967112471416,9.814416556604897,1.3980400271532014,2.309287466653964,-3.550645781726372,1.2456382193216462,1.845941310975609,-3.45611572265625,2.924105016196646,-5.227437833460366,-4.328657941120427,-2.6509605492244366,-18.1678712129884,2.867326174259769,-2.899712192569336,-35.690624236874235,-11.966380136790292,29.290652050199174,36.71869290442388,39.21068080390571,1577397593.999,-27.717875099335423,-51.12204743406736,6.286152
53676,1577397594.49,0.735954232267054,1.3011610095512571,9.240392109791824,0.0804685338462271,1.6767294968023532,10.0957936468357,-0.036847347501429,2.0954520090987043,9.38465735860685,3.4884941287157014,1.6531595369664631,-3.901597930163872,0.7878745474466462,0.6404969750381094,-3.19671630859375,-2.6300942025533534,-6.005636075647866,-3.1079548161204267,-2.556283386752136,-16.433250343406595,3.874765100351035,3.1413548752834464,-32.89965125152625,-14.901116608001374,29.4823434270824,36.76661574864468,39.28256507023691,1577397593.999,-27.717875099335423,-51.12204743406736,6.286152
53677,1577397594.5,0.850875911954554,1.3921406726371943,10.044843867604325,0.7053551671470084,0.4712489609136804,9.50801713926734,0.968717349764196,0.646960004704173,8.832793875940833,-0.9365546994092988,-4.236733041158536,-4.176256133288872,0.7268393911966463,2.944574123475609,-3.79180908203125,-2.446988733803354,-4.098287442835366,-3.4436481754954267,-2.1775747368629306,-17.893983707264958,3.874765100351035,3.060807314378742,-32.81507631257631,-13.787940705128204,29.338574894419985,36.479078683319855,39.01898942702249,1577397593.999,-27.717875099335423,-51.12204743406736,6.286152
53678,1577397594.51,1.0280468348061165,1.569311595488757,9.477418074147293,-0.0320589441811156,2.1663437363043063,8.952562354111091,0.8370362584556021,1.451411762516673,7.314870023401771,2.8781425662157014,2.660239615091464,-3.779527617663872,-1.3178383431783538,-0.3818418921493902,-2.54058837890625,-0.7074867806783537,1.944193025914634,-2.6807087223704267,-2.1775747368629306,-17.893983707264958,3.874765100351035,3.060807314378742,-34.506575091575094,-17.026270604395606,29.19480636175757,36.67077006020308,39.21068080390571,1577397593.999,-27.717875099335423,-51.12204743406736,6.286152
53679,1577397594.52,0.8963657434975227,1.6519115527641477,9.794649794117996,0.4000944554770865,1.8778424362554784,9.249443359970464,-0.008116927579554,1.3867683176924543,8.971657572229896,-0.8602607540967986,0.1120218416539635,-3.382799102038872,0.2385581411966463,1.0067079125381095,-3.56292724609375,0.6810630240091464,1.7305699790396345,-3.0621784489329267,-2.366929061807533,-17.163617025335775,4.184746308379122,0.6443804872376299,-34.50657509157509,-13.180753849015566,29.24272920597837,36.52700152754066,39.21068080390571,1577397593.999,-27.717875099335423,-51.12204743406736,6.286152
53680,1577397594.53,0.8963657434975227,1.5286101672661008,9.707261433522293,0.3222829015220084,0.9285414780035252,10.307680493759529,0.5353668492759146,0.8744091624190168,9.163193705042396,-0.8755195431592987,0.0357278963414634,-3.352281523913872,0.2690757193216463,-2.0908262671493905,-2.14385986328125,-1.1347328744283538,-0.8329065834603658,-3.3826130192454267,-2.366929061807533,-17.711392036782662,2.169868456196584,-0.8054756090470375,-34.506575091575094,-8.930445856227106,29.4823434270824,36.67077006020308,39.16275795968491,1577397593.999,-27.717875099335423,-51.12204743406736,6.286152
53681,1577397594.54,0.3504877649818978,0.9420307605278198,9.803029499928543,-0.0943081873451781,1.3068253403082126,10.348381921982185,-0.774261458829554,1.8584260447432357,10.321987308558022,-1.4553535275342986,-0.0863424161585365,-2.986070586413872,1.2761557974466462,-1.2363340796493902,-3.73077392578125,-0.5243813119283537,0.9371129477896342,-2.2534626286204267,-3.3137006865305447,-17.528800366300366,3.2548026842948694,-2.094236583522298,-43.97896825396825,-16.216688129578753,29.146883517536764,36.52700152754066,39.21068080390571,1577397593.999,-27.717875099335423,-51.12204743406736,6.286152
53682,1577397594.55,1.1525453211342416,1.5333985705864133,9.731203450123855,-0.3911891932045541,0.9860023178472752,11.248601746200936,-0.764684652188929,0.2040326975752668,9.46725731588224,2.0236503787157014,-1.3680806974085369,-3.138658477038872,0.2995932974466463,-0.5954649390243902,-1.93023681640625,-0.3107582650533537,2.3714391196646343,-2.8638141911204267,-2.93499203664134,-17.528800366300366,2.9448214762667897,2.4164268271411125,-35.85977411477411,-16.216688129578753,29.19480636175757,36.52700152754066,39.01898942702249,1577397593.999,-27.717875099335423,-51.12204743406736,6.286152
53683,1577397594.56,0.601878939298304,1.358621849395007,10.272293025319168,1.0728651219809928,1.7270077316656345,10.385492047714608,0.6490914281333365,2.4162750315596417,10.785265329798255,1.3522636599657014,0.0357278963414634,-3.047105742663872,-0.5548988900533537,0.9304139672256098,-2.60162353515625,-0.7380043588033537,0.662454744664634,-3.0469196598704267,-1.6095117620291235,-18.80694205967644,3.719774496336995,2.7386170707599278,-34.50657509157509,-16.62147936698718,29.43442058286159,36.45511726120945,38.995028004912086,1577397593.999,-27.717875099335423,-51.12204743406736,6.286152
53684,1577397594.57,1.0747337671791637,1.5729028979789914,8.998577742116042,0.0708917272056021,1.0147327377691502,10.053895117782966,1.344607010408727,0.302194965641673,8.954898160608803,1.1538994021532012,0.9817728182164636,-2.909776641101372,-0.2497231088033537,0.9914491234756098,-2.90679931640625,-1.7450844369283538,-0.3446253334603658,-3.0469196598704267,-2.65096054922444,-18.350462883470698,3.177307382287853,3.22190243618815,-32.984226190476186,-16.014292510874544,29.170844939647168,36.67077006020308,39.01898942702249,1577397593.999,-27.717875099335423,-51.12204743406736,6.286152
53685,1577397594.58,0.9921338099037728,1.4328421008598509,9.616281770436355,0.6766247472251333,2.104094493140244,8.744266809677496,-0.372035579923304,1.1234061350752669,9.297268998011146,-0.8450019650342987,-2.1920553067835367,-3.016588164538872,-1.2262856088033538,1.2661073266006098,-3.24249267578125,0.1164878286966463,2.4935094321646343,-2.7112263004954267,-2.366929061807533,-18.07657537774725,3.099812080280829,4.349568288854003,-32.81507631257631,-17.026270604395606,29.338574894419985,36.52700152754066,39.35444933656812,1577397593.999,-27.717875099335423,-51.12204743406736,6.286152
53686,1577397594.59,1.3943596888100227,1.2341233630668822,8.89802127238948,0.6359233190024771,0.8926284531011814,8.380348157333746,-0.4749862513100228,1.2814234446455792,9.70907168355802,2.6340019412157014,1.6836771150914631,-2.589342070788872,0.6047690786966463,0.9304139672256098,-1.35040283203125,5.945345250571647,-3.2437952553353657,-2.1924274723704267,-1.6095117620291235,-18.07657537774725,4.649718120421247,1.772046339903483,-33.15337606837607,-15.407105654761905,29.338574894419985,36.67077006020308,39.21068080390571,1577397593.999,-27.717875099335423,-51.12204743406736,6.286152
53687,1577397594.6,1.0771279688393196,1.5908594104301632,10.38482050334651,1.0680767186606803,1.7760888656988376,10.468092004989996,0.5437465550864615,0.9797540354658918,9.789277439173256,-1.3790595822217986,-0.0710836270960368,-2.848741484851372,-0.2649818978658537,1.5712831078506095,-2.87628173828125,-0.4786049447408537,-0.8786829506478658,-2.2687214176829267,-2.366929061807533,-16.981025354853482,3.719774496336995,-0.4832853654282227,-34.168275335775334,-15.407105654761905,29.29065205019917,36.57492437176146,39.186719381795314,1577397593.999,-27.717875099335423,-51.12204743406736,6.286152
53688,1577397594.61,1.3321104456459605,1.2604595813286008,10.233985798756668,0.6119813024009146,0.4832199692144617,10.381900745224373,0.4372045812095084,0.4889426951338605,10.341140921839273,-0.7839668087842987,1.0428079744664631,-2.894517852038872,0.5742515005716463,1.0219667016006098,-2.38800048828125,0.9099448599466464,-2.9081018959603657,-2.1008747379954267,-1.798866086973726,-18.989533730158733,3.874765100351035,3.382997557997558,-35.52147435897436,-13.787940705128204,29.4823434270824,36.81453859286549,38.82729805013928,1577397593.999,-27.717875099335423,-51.12204743406736,6.286152
53689,1577397594.62,0.1972588587318978,1.5022739490043822,10.74873915569026,-0.314574740079554,2.3866102890386816,10.424996375107185,0.9950535680259146,2.014049152653392,10.621262516077552,-1.9131171994092984,-0.3610006192835365,-2.833482695788872,-1.7450844369283538,-0.7175352515243902,-1.89971923828125,-0.5243813119283537,-3.1522425209603657,-1.826216534870427,-1.4201574370845214,-19.35471707112332,3.2548026842948694,3.382997557997558,-35.52147435897436,-13.787940705128204,29.19480636175757,36.67077006020308,39.1148351154641,1577397593.999,-27.717875099335423,-51.12204743406736,6.286152
53690,1577397594.63,0.8077802820717416,1.942807054473132,10.327359663502762,-0.4031602015053353,0.8950226547613377,11.179169898056402,0.1020163487876334,1.185655378239329,9.81202235494474,3.1528007693407014,3.056968130716464,-2.986070586413872,1.7949546255716462,1.3271424828506098,-2.87628173828125,8.203646031821647,-3.5794886147103657,-2.3144977848704267,-3.3137006865305447,-18.62435038919414,2.63484026823871,3.060807314378742,-34.506575091575094,-15.00231441735348,29.146883517536764,36.71869290442388,39.01898942702249,1577397593.999,-27.717875099335423,-51.12204743406736,6.286152
53691,1577397594.64,0.6461716700111947,1.6662767627250852,10.383623402516433,0.0888482396567745,1.588144035376572,10.5937875921482,0.6658508397544308,1.4873247874190167,10.238190250452552,0.0857841677782011,0.3103860994664638,-2.696153594226372,0.8183921255716462,0.1216981469131097,-2.22015380859375,1.6728843130716462,-1.092305997522866,-2.1466511051829267,-3.3137006865305447,-17.528800366300366,3.874765100351035,2.4164268271411125,-34.84487484737485,-15.407105654761905,29.410459160751195,36.59888579387187,39.04295084913289,1577397593.999,-27.717875099335423,-51.12204743406736,6.286152
53692,1577397594.65,0.8293280970131478,1.473543529082507,9.810212104909011,0.9782941564048208,1.6228599594488378,10.154451587509527,-0.0536067591225218,1.3604320994307355,9.725831095179116,-1.5774238400342986,-0.9713521817835366,-3.138658477038872,1.9780600943216464,-0.6870176733993902,-3.12042236328125,1.0320151724466462,-0.1310022865853658,-1.612593487995427,-3.3137006865305447,-18.62435038919414,3.2548026842948694,-0.1610951218094077,-34.506575091575094,-53.05269073374542,29.29065205019917,36.52700152754066,39.16275795968491,1577397593.999,-27.717875099335423,-51.12204743406736,6.286152
53693,1577397594.66,0.9035483484779916,1.2987668078911008,8.787887996022292,1.0692738194907585,1.8838279404058689,9.895877808212653,3.394043631502477,0.9989076487471418,10.3722655434213,-0.3567207150342987,-1.2460103849085369,-2.619859648913872,-0.2497231088033537,2.883538967225609,-2.66265869140625,-0.1886879525533537,-1.412740567835366,-2.5281208317454267,-3.3137006865305447,-18.259167048229543,4.494727516407208,-0.6443804872376302,-30.277828144078143,-16.823874985691393,29.09896067331596,36.71869290442388,39.21068080390571,1577397593.999,-27.717875099335423,-51.12204743406736,6.286152
53694,1577397594.67,1.1525453211342416,1.854221593047351,9.83654832317073,0.9363956273520864,1.5342744980230565,9.60378520567359,0.0936366429770865,1.07671920270222,9.551054373987707,5.136443347465701,0.9512552400914634,-2.802965117663872,0.6047690786966463,1.3271424828506095,-3.10516357421875,4.770418492759147,-0.6192835365853657,-3.3520954411204267,-2.366929061807533,-18.80694205967644,2.169868456196584,-0.1610951218094077,-30.44697802197802,-16.41908374828297,29.146883517536764,36.52700152754066,39.01898942702249,1577397593.999,-27.717875099335423,-51.12204743406736,6.286152
53695,1577397594.68,1.061565658048304,1.6291666369926634,9.724020845143386,0.9926593663657584,1.251758702124619,10.039529907822027,2.3549601109946647,2.0882694041182357,10.31001630025724,1.8405449099657012,-0.2389303067835364,-3.016588164538872,2.069612828696646,0.2590272484756097,-2.23541259765625,6.311556188071647,-2.0536097084603657,-3.931929425495426,-2.93499203664134,-18.62435038919414,2.9448214762667897,-3.060807314378743,-30.108678266178263,-17.026270604395606,29.170844939647168,36.57492437176146,39.1148351154641,1577397593.999,-27.717875099335423,-51.12204743406736,6.286152
53696,1577397594.69,0.8125686853920541,1.5166391589653196,11.174907051198074,0.8274594518149772,1.8048192856207128,10.70272376768531,2.093992130037633,3.0148254465987043,9.893425211390053,-3.4084785275342986,-4.114662728658536,-3.230211211413872,2.405306188071646,-3.4641172827743905,-3.63922119140625,2.069612828696646,-0.8329065834603658,-2.5586384098704267,-3.692409336419757,-18.989533730158733,3.874765100351035,23.68098290598291,-32.81507631257631,-17.026270604395606,29.338574894419985,36.67077006020308,39.01898942702249,1577397593.999,-27.717875099335423,-51.12204743406736,6.286152
53697,1577397594.7,0.6449745691811165,1.9260476428520383,10.535655207936356,0.3438307164634146,1.2110572739019627,9.007628992294684,1.7157082677329458,1.7219565501143292,10.37944814840177,3.824187488090701,1.0428079744664631,-2.955553008288872,1.6118491568216462,-0.4733946265243902,-3.88336181640625,2.191683141196646,-0.9244593178353658,-2.2839802067454267,-2.556283386752136,-17.16361702533578,3.2548026842948694,-3.382997557997558,-35.52147435897436,-12.978358230311354,29.29065205019917,36.57492437176146,39.01898942702249,1577397593.999,-27.717875099335423,-51.12204743406736,6.286152
53698,1577397594.71,0.6485658716713509,1.4292507983696163,10.875631843678542,0.8346420567954459,1.0674051742925876,10.384294946884529,-0.7407426355873665,1.0036960520674545,9.50556454244474,-1.6537177853467986,-2.1157613614710367,-3.306505156726372,3.015657750571646,-2.3654844702743905,-1.89971923828125,4.327913609946647,-2.1756800209603657,-2.7417438786204267,-3.40837784900285,-18.1678712129884,3.0223167782738094,-3.060807314378743,-35.85977411477411,-8.930445856227106,29.12292209542636,36.52700152754066,39.1148351154641,1577397593.999,-27.717875099335423,-51.12204743406736,6.286152
53699,1577397594.72,1.0088932215248665,2.0122389026176632,10.425521931569168,0.6646537389243521,2.211833567847275,10.259796460556403,1.02976949209818,1.0084844553877668,9.547463071497472,2.0846855349657014,1.1648782869664631,-3.108140898913872,0.6200278677591464,2.578363185975609,-2.89154052734375,0.7726157583841462,-0.4666956459603658,-4.557539777057927,-3.1243463615859426,-17.34620869581807,3.099812080280829,-2.335879266236409,-35.77519917582417,-9.63883052169185,29.19480636175757,36.52700152754066,39.13879653757451,1577397593.999,-27.717875099335423,-51.12204743406736,6.286152
53700,1577397594.73,0.8484817102943978,1.1215958850395384,10.643394282643388,0.5401552525962271,0.6675734970464939,8.552730676864996,-0.1230386072670531,1.7411101633955792,9.112915470179114,-4.293488293159299,-2.6803365567835367,-3.291246367663872,2.191683141196646,0.1979920922256097,-2.81524658203125,7.654329625571647,-2.2672327553353657,-3.0164020817454267,-2.1775747368629306,-17.893983707264958,2.63484026823871,-3.2219024361881505,-33.660825702075705,-10.347215187156593,29.09896067331596,36.71869290442388,39.01898942702249,1577397593.999,-27.717875099335423,-51.12204743406736,6.286152
53701,1577397594.74,0.9729801966225228,2.038575120879382,9.678531013600418,0.0325845006431021,2.1878915512457127,10.020376294540778,-1.138180111173304,1.1976263865401104,9.053060428675208,5.807830066215701,6.383384146341464,-2.650377227038872,1.6728843130716462,-2.7316954077743905,-3.30352783203125,1.6423667349466462,-2.4808558022103657,-3.3215778629954267,-2.366929061807533,-17.711392036782662,2.7898308722527494,-3.2219024361881505,-33.660825702075705,-10.347215187156593,29.146883517536764,36.67077006020308,39.21068080390571,1577397593.999,-27.717875099335423,-51.12204743406736,6.286152
53702,1577397594.75,0.9526294825111946,1.4783319324028197,9.445096351735184,0.8178826451743522,1.5366686996832126,9.962915454697027,2.7500033849204453,2.246286713688548,9.613303617151772,1.4438163943407014,0.9054788729039636,-2.986070586413872,1.3982261099466462,2.090081935975609,-2.38800048828125,-1.7145668588033538,0.3572789634146341,-3.748823956745426,-1.798866086973726,-18.80694205967644,3.254802684294872,1.772046339903483,-32.138476800976804,-13.787940705128204,29.266690628088774,36.57492437176146,39.01898942702249,1577397593.999,-27.717875099335423,-51.12204743406736,6.286152
53703,1577397594.76,0.9131251551186166,1.8518273913871943,9.824577314869948,0.4695263036216178,1.558216514624619,9.703144574570077,0.6862015538657584,0.7535019785811262,9.26255307393888,2.1457206912157014,0.9817728182164634,-2.864000273913872,0.3453696646341463,1.2966249047256098,-3.01361083984375,0.3148520865091462,1.9747106040396345,-2.3907917301829267,-1.9882204119183284,-17.711392036782662,3.719774496336995,2.4164268271411125,-33.15337606837607,-8.930445856227106,29.29065205019917,36.550962949651066,39.04295084913289,1577397593.999,-27.717875099335423,-51.12204743406736,6.286152
53704,1577397594.77,0.5683601160561166,1.1527205066215698,9.87485554973323,0.7364797887290396,1.835943907202744,10.305286292099373,0.2576394566977896,0.1729080759932355,8.995599588831459,-2.4013984494092986,-2.8329244474085367,-2.925035430163872,0.8183921255716463,0.8083436547256098,-3.12042236328125,0.7268393911966463,0.2962438071646341,-2.6501911442454267,-1.9882204119183284,-17.711392036782662,3.719774496336995,2.0942365835222976,-34.506575091575094,-10.549610805860803,29.43442058286159,36.81453859286549,39.35444933656812,1577397593.999,-27.717875099335423,-51.12204743406736,6.286152
53705,1577397594.78,0.8484817102943978,1.614801427031726,8.251586824147292,-0.2714791101967416,2.173526341284775,9.33563461973609,-0.6904644007240853,0.4985195017744855,8.282127494104897,4.587126941215701,3.087485708841464,-2.589342070788872,-0.4633461556783537,1.2050721703506098,-2.93731689453125,0.3606284536966463,3.8362828696646334,-1.551558331745427,-3.3137006865305447,-18.989533730158733,3.2548026842948694,-0.8054756090470375,-35.85977411477411,-9.740028331043955,29.338574894419985,36.81453859286549,39.01898942702249,1577397593.999,-27.717875099335423,-51.12204743406736,6.286152
53706,1577397594.79,0.8353136011635384,1.4867116382133665,9.616281770436355,0.5305784459556021,1.3954108017339937,9.619347516464607,1.688174948641149,1.0455945811201883,10.630839322718176,1.0776054568407014,-0.8035055020960367,-2.543565703601372,1.0320151724466464,-0.6870176733993903,-2.44903564453125,2.054354039634146,0.4030553306021341,-3.0164020817454267,-2.4616062242798344,-18.71564622443529,3.332297986301892,2.4164268271411125,-39.91937118437119,-15.609501273466115,29.218767783867968,36.694731482313486,39.0669122712433,1577397593.999,-27.717875099335423,-51.12204743406736,6.286152
53707,1577397594.8,0.8029918787514291,1.9116824328911008,10.447069746510572,0.6790189488852896,1.7569352524175876,10.963691748642342,0.7029609654868522,1.5399972239424542,9.16079950338224,0.4367363162157013,-1.0934224942835369,-2.833482695788872,1.0930503286966462,1.876458889100609,-2.20489501953125,1.5508140005716462,-1.199117520960366,-3.779341534870426,-2.556283386752136,-17.893983707264958,4.184746308379121,2.5775219489505203,-35.35232448107448,-15.204710036057692,29.146883517536764,36.52700152754066,38.97106658280169,1577397593.999,-27.717875099335423,-51.12204743406736,6.286152
53708,1577397594.81,0.7862324671303352,1.4328421008598509,9.618675972096511,0.6957783605063834,1.136837022437119,8.966927564072028,-0.4342848230873665,1.5519682322432355,10.135239579065834,-1.4553535275342986,-1.2154928067835369,-2.497789336413872,0.6963218130716463,1.4186952172256098,-2.41851806640625,-9.313443811928352,0.5098668540396342,-2.7417438786204267,-2.556283386752136,-17.893983707264958,4.184746308379121,2.5775219489505203,-35.35232448107448,-15.204710036057692,29.43442058286159,36.57492437176146,39.21068080390571,1577397593.999,-27.717875099335423,-51.12204743406736,6.286152
53709,1577397594.82,1.186064144376429,1.8781636096489132,9.307429756276198,-0.0775487757240843,2.4129465073004,9.50801713926734,0.1546887853110709,1.1880495798994857,8.562249088343178,3.946257800590701,3.9724954744664633,-2.467271758288872,-0.5243813119283537,-1.4499571265243902,-2.05230712890625,0.9099448599466464,2.8292027915396343,-2.2534626286204267,-2.366929061807533,-18.44175871871185,3.719774496336995,2.255331705331705,-32.984226190476186,-16.014292510874544,29.146883517536764,36.57492437176146,39.21068080390571,1577397593.999,-27.717875099335423,-51.12204743406736,6.286152
53710,1577397594.83,1.0029077173744758,1.4986826465141476,9.021322657887527,0.519804538484899,1.6372251694097752,9.35598533384742,0.4156567662681021,0.5906962656905012,8.69393017965177,1.0165703005907014,0.1272806307164635,-2.436754180163872,1.1235679068216462,0.8083436547256098,-2.79998779296875,-1.9892250619283536,2.005228182164634,-2.3297565739329267,-2.0828975743906293,-19.08082956539988,3.332297986301892,2.57752194895052,-31.96932692307692,-7.716072144001833,29.410459160751188,36.550962949651066,39.0669122712433,1577397593.999,-27.717875099335423,-51.12204743406736,6.286152
53711,1577397594.84,1.368023470548304,1.540581175566882,9.642617988698074,1.3326360021079455,2.1878915512457127,10.446544190048591,0.9088623082602896,1.2431162180830793,9.55584277730802,0.5588066287157013,-1.8258443692835369,-2.894517852038872,-0.3717934213033537,1.3881776391006098,-1.53350830078125,-0.5243813119283537,0.2352086509146341,-1.978804425495427,-1.9882204119183284,-17.34620869581807,2.7898308722527494,2.4164268271411125,-35.52147435897436,-16.62147936698718,29.29065205019917,36.67077006020308,39.01898942702249,1577397593.999,-27.717875099335423,-51.12204743406736,6.286152
53712,1577397594.85,0.8748179285561165,1.8422505847465696,9.764722273366042,1.2919345738852896,0.9620603012457128,9.663640247177495,1.392491043611852,-0.9834913258622332,9.146434293421304,-0.6924140744092987,-2.8024068692835367,-2.680894805163872,0.2385581411966463,-0.2597715796493902,-2.93731689453125,-1.2873207650533538,-0.6192835365853658,-2.3755329411204267,-1.9882204119183284,-17.34620869581807,2.7898308722527494,2.4164268271411125,-35.52147435897436,-16.62147936698718,29.19480636175757,36.57492437176146,39.21068080390571,1577397593.999,-27.717875099335423,-51.12204743406736,6.286152
53713,1577397594.86,0.7682759546791634,1.1156103808891478,10.273490126149246,-0.0009343225990853,1.9532597885504,10.027558899521248,0.6957783605063834,1.9517999094893288,8.737025809534584,-2.1419990353467986,0.3561624666539633,-2.452012969226372,-0.6769692025533537,1.4797303734756098,-2.72369384765625,-0.9821449838033536,-0.4666956459603658,-2.5891559879954267,-3.0296691991136453,-19.08082956539988,3.487288590315936,6.604899994185707,-35.85977411477411,-4.882533482142857,29.21876778386797,36.57492437176146,39.1148351154641,1577397593.999,-27.717875099335423,-51.12204743406736,6.286152
53714,1577397594.87,0.9203077600990852,1.4998797473442258,9.712049836842604,0.9351985265220084,1.5953266403570407,10.177196503281014,1.0010390721763058,1.8033594065596417,9.868286093958412,2.7865898318407014,0.7071146150914634,-2.497789336413872,-0.0818764291158536,0.3353211937881097,-2.14385986328125,-0.2344643197408537,0.3877965415396341,-1.780440167682927,-3.1243463615859426,-17.34620869581807,3.719774496336995,3.22190243618815,-35.85977411477411,-13.38314946771978,29.338574894419985,36.62284721598228,39.16275795968491,1577397593.999,-27.717875099335423,-51.12204743406736,6.286152
53715,1577397594.88,1.0831134729897105,2.2325054553520385,10.408762519948072,1.1387056676352896,2.2788712143316503,12.105725940536871,1.0357549962485708,2.397121418278392,11.016305790003331,1.9015800662157007,-1.2460103849085369,-2.650377227038872,-0.3107582650533537,1.5407655297256098,-2.02178955078125,-0.9821449838033536,0.0826207602896341,-1.551558331745427,-2.1775747368629306,-19.35471707112332,2.9448214762667897,-0.8054756090470375,-35.85977411477411,-55.8862293956044,29.19480636175757,36.33531015065744,39.21068080390571,1577397593.999,-27.717875099335423,-51.12204743406736,6.286152
53716,1577397594.89,0.8772121302162728,1.6315608386528195,10.664942097584792,0.8298536534751334,1.9604423935308688,9.555901172470469,-0.4127370081459603,1.346066889469798,11.756114102991615,-1.6079414181592986,-2.2836080411585367,-2.223131133288872,-0.1276527963033537,1.3881776391006098,-1.93023681640625,-7.543424280678353,0.9065953696646342,-2.8027790348704267,-2.1775747368629306,-19.35471707112332,2.9448214762667897,-0.8054756090470375,-35.85977411477411,-55.8862293956044,29.146883517536764,36.52700152754066,39.01898942702249,1577397593.999,-27.717875099335423,-51.12204743406736,6.286152
53717,1577397594.9,0.8903802393471322,1.6124072253715696,9.384044209401198,-0.3433051600014291,2.0131148300543065,10.42739057676734,-0.8532701136147103,1.2718466380049542,9.457680509241614,0.3909599490282014,1.2564310213414636,-2.223131133288872,-0.6769692025533537,0.6862733422256098,-2.66265869140625,0.6658042349466463,0.6319371665396342,-2.6196735661204267,-2.840314874169039,-17.80268787202381,3.642279194329976,0.4832853654282225,-30.44697802197802,-16.62147936698718,29.266690628088774,36.33531015065744,39.01898942702249,1577397593.999,-27.717875099335423,-51.12204743406736,6.286152
53718,1577397594.91,0.7191948206459603,1.5836768054496946,8.237221614186355,0.7843638219321646,0.7753125717535246,9.595405499863045,-0.7958092737709603,0.4997166026045637,8.28571879659513,3.3053886599657014,-1.1544576505335369,-2.436754180163872,1.2151206411966462,0.2285096703506097,-2.25067138671875,-0.2497231088033537,-2.0230921303353657,-1.704146222370427,-2.556283386752136,-19.71990041208792,2.9448214762667897,-1.772046339903483,-33.15337606837606,-16.823874985691393,29.29065205019917,36.57492437176146,39.25860364812651,1577397593.999,-27.717875099335423,-51.12204743406736,6.286152
53719,1577397594.92,0.850875911954554,1.614801427031726,10.5332610062762,-0.2044414637123665,2.422523313941025,10.360352930282966,3.128287247225133,1.585487055485423,10.69308856588224,0.2841484255907013,-3.4127584317835367,-2.833482695788872,-0.6769692025533537,-0.5344297827743902,-1.86920166015625,-1.3178383431783538,0.1436559165396341,-2.4365680973704267,-3.1243463615859426,-18.07657537774725,4.339736912393168,-2.416426827141113,-34.506575091575094,-15.407105654761905,29.338574894419985,36.57492437176146,39.1148351154641,1577397593.999,-27.717875099335423,-51.12204743406736,6.286152
53720,1577397594.93,0.850875911954554,1.473543529082507,10.846901423756668,0.4012915563071646,1.0243095444097752,9.71870688536109,1.315876590486852,0.675690424626048,10.48958142476896,-2.3403632931592986,-3.2601705411585367,-2.314683867663872,1.0930503286966462,-0.8090879858993902,-2.26593017578125,0.4826987661966463,-1.839986661585366,-2.3144977848704267,-3.1243463615859426,-18.07657537774725,4.339736912393168,-2.416426827141113,-34.506575091575094,-15.407105654761905,29.19480636175757,36.57492437176146,39.30652649234732,1577397593.999,-27.717875099335423,-51.12204743406736,6.286152
53721,1577397594.94,0.9801628016029916,1.9356244494926635,10.796623188893388,-0.7598962488686165,2.101700291480088,9.503228735947028,1.5361431432212271,2.392333014958079,9.996375882776771,-0.6466377072217986,1.1496194979039636,-2.177354766101372,1.1540854849466462,-1.5109922827743902,-2.63214111328125,0.4826987661966463,-2.7555140053353657,-2.5891559879954267,-2.6509605492244366,-17.985279542506106,3.02231677827381,25.29193412407698,-35.85977411477411,-5.692115956959706,29.218767783867968,36.52700152754066,39.35444933656812,1577397593.999,-27.717875099335423,-51.12204743406736,6.286152
53722,1577397594.95,0.927490365079554,1.3634102527153196,8.766340181080887,0.6024044957602896,1.367877482642197,10.263387763046635,-0.0727603724037728,1.5603479380537824,9.140448789270913,0.8639824099657013,2.141440786966464,-2.131578398913872,0.9252036490091462,-0.7175352515243902,-2.15911865234375,-0.0513588509908536,-0.3293665443978659,-2.6196735661204267,-0.8520944622507067,-19.172125400641026,3.099812080280829,23.68098290598291,-35.52147435897436,-17.026270604395606,29.09896067331596,36.57492437176146,39.25860364812651,1577397593.999,-27.717875099335423,-51.12204743406736,6.286152
53723,1577397594.96,1.0591714563881478,1.5357927722465696,10.655365290944168,0.1163815587485709,1.6587729843511814,10.008405286239997,2.196942801424352,1.3676147044112044,9.711465885218177,2.8171074099657014,-0.4830709317835365,-2.558824492663872,0.0859702505716463,2.059564357850609,-1.86920166015625,0.6352866568216463,0.3572789634146341,-3.4436481754954267,-2.1775747368629306,-18.259167048229543,3.2548026842948694,23.68098290598291,-35.52147435897436,-17.026270604395606,28.907269296432744,36.38323299487824,39.21068080390571,1577397593.999,-27.717875099335423,-51.12204743406736,6.286152
53724,1577397594.97,0.5108992762123665,1.4472073108207884,9.965835212819169,0.1068047521079458,1.0745877792730565,9.54632436582984,2.285528262850133,1.824907221501048,12.275655863245522,-3.1033027462842986,-2.5277486661585367,-2.070543242663872,2.130647984946646,-0.7175352515243902,-2.17437744140625,-7.390836390053353,1.364359041539634,-4.298140362995427,-2.1775747368629306,-18.259167048229543,3.2548026842948694,24.647553636839355,-32.81507631257631,-7.311280906593407,29.09896067331596,36.67077006020308,39.21068080390571,1577397593.999,-27.717875099335423,-51.12204743406736,6.286152
53725,1577397594.98,0.9382642725502572,1.6710651660453977,9.910768574635574,0.8657666783774771,2.0047351242437594,10.726665784286872,1.2691896581138051,2.7299154490401105,9.46127181173185,1.8710624880907012,1.0122903963414636,-2.085802031726372,1.1998618521341462,0.6099793969131094,-2.26593017578125,3.183504430259146,-2.7707727943978657,-2.2382038395579267,-2.1775747368629306,-18.80694205967643,2.6348402682387064,2.4969743880458166,-32.22305173992674,-15.508303464114007,29.12292209542636,36.52700152754066,39.13879653757451,1577397593.999,-27.717875099335423,-51.12204743406736,6.286152
53726,1577397594.99,0.5755427210365853,1.2652479846489133,8.47664178020198,0.7747870152915396,1.510332481421494,10.01319368956031,-0.6377919642006478,1.5016899973799542,8.57900849996427,2.2067558474657014,2.080405630716464,-2.101060820788872,0.5132163443216463,1.6018006859756098,-2.81524658203125,1.0625327505716462,0.6929723227896342,-1.185347394245427,-3.503055011475155,-17.711392036782662,2.4798496642246635,3.060807314378742,-35.85977411477411,-16.62147936698718,29.19480636175757,36.71869290442388,39.35444933656812,1577397593.999,-27.717875099335423,-51.12204743406736,6.286152
53727,1577397595.0,1.3728118738686166,1.8422505847465696,9.16617185832698,0.0134308873618521,2.798412974585556,9.000446387314216,0.3941089513266959,3.002854438297923,9.740196305140053,3.3664238162157014,1.836265005716464,-2.467271758288872,-0.9821449838033536,1.6933534203506098,-2.17437744140625,0.1164878286966463,2.9512731040396343,-0.7581013004954268,-3.3137006865305447,-16.433250343406595,3.564783892322956,1.772046339903483,-35.1831746031746,-16.62147936698718,29.4823434270824,36.71869290442388,39.01898942702249,1577397594.999,-27.717824998119195,-51.122001245695095,7.1799235
53728,1577397595.01,0.8724237268959603,1.5465666797172728,9.305035554616042,0.5090306310141959,1.4887846664800877,9.95573284971656,0.1977844151938834,-0.9212420826981708,9.24938496480802,1.1844169802782014,-0.4983297208460364,-2.268907500476372,2.405306188071646,0.2895448266006097,-1.96075439453125,-0.4633461556783537,0.0521031821646341,-3.0469196598704267,-2.556283386752136,-17.893983707264958,2.63484026823871,1.772046339903483,-35.1831746031746,-16.62147936698718,29.24272920597837,36.52700152754066,39.16275795968491,1577397594.999,-27.717824998119195,-51.122001245695095,7.1799235
53729,1577397595.02,0.6138499475990853,2.0960359607231323,10.382426301686356,0.2600336583579459,1.3511180710211033,10.016784992050544,0.5186074376548213,1.937434699528392,8.990811185511147,0.4062187380907013,-1.4291158536585369,-2.162095977038872,-0.0055824838033536,1.7391297875381095,-1.97601318359375,0.5284751333841463,-0.3446253334603658,-2.3907917301829267,-3.1243463615859426,-18.07657537774725,3.409793288308909,-1.772046339903483,-39.0736217948718,-13.585545086423991,29.43442058286159,36.550962949651066,39.16275795968491,1577397594.999,-27.717824998119195,-51.122001245695095,7.1799235
53730,1577397595.03,0.5875137293373666,1.3011610095512571,9.276305134694168,0.3486191197837271,1.1871152573004002,8.85679428770484,-0.2044414637123665,1.3987393259932357,9.120098075159584,-2.2793281369092986,-0.4525533536585365,-2.040025664538872,1.2151206411966462,0.1674745141006097,-2.26593017578125,8.386751500571647,0.2657262290396341,-1.704146222370427,-3.1243463615859426,-17.711392036782662,2.4798496642246635,2.0942365835222976,-35.85977411477411,-15.00231441735348,29.29065205019917,36.57492437176146,39.21068080390571,1577397594.999,-27.717824998119195,-51.122001245695095,7.1799235
53731,1577397595.04,0.8772121302162728,1.82309697146532,8.82140681926448,-0.8197512903725228,2.228592979468369,9.656457642197028,1.0764564244712271,1.9254636912276104,8.650834549768959,3.946257800590701,3.575766958841464,-2.467271758288872,-0.8600746713033537,-0.3513243140243902,-1.86920166015625,0.2080405630716463,-0.7108362709603658,-3.0774372379954267,-2.1775747368629306,-18.259167048229543,3.874765100351035,1.772046339903483,-35.52147435897436,-15.407105654761905,29.5302662713032,36.81453859286549,39.01898942702249,1577397594.999,-27.717824998119195,-51.122001245695095,7.1799235
53732,1577397595.05,0.6425803675209603,1.5860710071098507,9.944287397877762,0.1882076085532584,0.5789880356207117,9.965309656357183,1.5337489415610708,2.239104108708079,8.334799930628334,-0.5550849728467987,-0.0558248380335364,-2.085802031726372,2.679964391196646,-0.9616758765243902,-1.22833251953125,2.405306188071646,-0.7413538490853658,-1.704146222370427,-1.6095117620291235,-19.172125400641026,2.169868456196584,1.772046339903483,-34.16827533577533,-17.026270604395606,29.338574894419985,36.38323299487824,39.1148351154641,1577397594.999,-27.717824998119195,-51.122001245695095,7.1799235
53733,1577397595.06,1.1238149012123666,1.6507144519340695,10.339330671803545,0.3390423131431021,1.5665962204351658,10.196350116562265,1.2452476415122424,2.07270709332722,9.642034037073646,0.0400078005907013,-2.3141256192835367,-2.223131133288872,-0.2039467416158536,0.9456727562881094,-1.86920166015625,1.1693442740091462,1.5016881431021345,-1.871992902057927,-3.692409336419757,-18.989533730158733,2.9448214762667897,2.738617070759928,-34.506575091575094,-16.216688129578756,29.4823434270824,36.57492437176146,39.16275795968491,1577397594.999,-27.717824998119195,-51.122001245695095,7.1799235
53734,1577397595.07,0.6545513758217415,1.310737816191882,9.704867231862137,0.7173261754477896,1.2421818954839938,9.309298401474372,-0.1541632288490853,1.480142182438548,10.38663075338224,-0.1736152462842987,-0.7577291349085366,-2.040025664538872,-0.1276527963033537,0.9304139672256098,-2.57110595703125,-4.705289515053353,3.2564488852896343,-2.1008747379954267,-3.692409336419757,-19.35471707112332,2.63484026823871,3.382997557997558,-34.506575091575094,-15.407105654761905,29.19480636175757,36.57492437176146,39.21068080390571,1577397594.999,-27.717824998119195,-51.122001245695095,7.1799235
53735,1577397595.08,1.2938032190834603,1.2676421863090697,9.017731355397292,-0.4055544031654916,2.039451048316025,10.034741504501715,0.5569146642173208,0.4985195017744855,9.35951824117521,1.0470878787157014,3.423179068216464,-1.612779570788872,-0.1581703744283537,-0.9921934546493902,-1.80816650390625,-0.4633461556783537,-0.0699671303353658,-2.2534626286204267,-2.745637711696738,-18.07657537774725,4.959699328449327,3.060807314378742,-32.138476800976804,-15.407105654761905,29.29065205019917,36.57492437176146,39.21068080390571,1577397594.999,-27.717824998119195,-51.122001245695095,7.1799235
53736,1577397595.09,0.7682759546791634,1.6016333179008664,9.90717727214534,0.7999261327231802,1.114092106665634,10.158042889999765,-0.4654094446693978,1.0467916819502667,9.130871982630287,-0.3109443478467987,-0.1778951505335365,-2.116319609851372,1.2608970083841464,1.0830018578506098,-2.00653076171875,0.3301108755716462,0.906595369664634,-1.658369855182927,-3.503055011475155,-18.80694205967644,3.409793288308909,4.430115849758706,-33.74540064102564,-11.055599852621338,29.290652050199174,36.479078683319855,39.16275795968491,1577397594.999,-27.717824998119195,-51.122001245695095,7.1799235
53737,1577397595.1,1.1405743128334602,1.722540501738757,8.761551777760573,-0.2164124720131478,2.5613870102300877,9.486469324325936,0.2360916417563834,0.7283628611494856,10.173546805628334,4.678679675590701,3.362143911966464,-2.253648711413872,-1.6230141244283538,1.7543885766006098,-1.50299072265625,-0.1581703744283537,0.9371129477896342,-2.0703571598704267,-2.93499203664134,-19.35471707112332,3.874765100351035,-3.382997557997558,-35.85977411477411,-17.026270604395606,29.29065205019917,36.57492437176146,39.01898942702249,1577397594.999,-27.717824998119195,-51.122001245695095,7.1799235
53738,1577397595.11,0.5755427210365853,1.3993232776176634,10.02808445598323,1.1578592809165396,1.404987608374619,9.512805542587651,1.0620912145102896,0.3165601756026105,10.013135294397864,-4.354523449409299,-2.5277486661585367,-2.253648711413872,0.6352866568216463,0.6862733422256098,-1.47247314453125,-1.3788734994283538,1.516946932164634,-1.093794659870427,-2.366929061807533,-18.07657537774725,4.649718120421247,-3.382997557997558,-35.85977411477411,-17.026270604395606,29.146883517536764,36.57492437176146,39.01898942702249,1577397594.999,-27.717824998119195,-51.122001245695095,7.1799235
53739,1577397595.12,1.042412044767054,1.463966722441882,8.452699763600418,0.4395987828696646,1.989172813452744,9.92460822813453,-1.8396811975990848,0.8983511790205793,9.395431266077551,4.770232409965701,5.681479849466464,-1.704332305163872,-0.8600746713033537,2.273187404725609,-2.17437744140625,-0.0666176400533536,0.7845250571646342,-1.978804425495427,-4.449826636198162,-19.35471707112332,3.564783892322956,-0.8054756090470375,-34.506575091575094,-55.48143815819597,29.29065205019917,36.67077006020308,39.01898942702249,1577397594.999,-27.717824998119195,-51.122001245695095,7.1799235
53740,1577397595.13,0.3325312525307259,1.7177520984184445,10.259124916188307,0.7855609227622428,1.9915670151129,11.02833519346656,0.2241206334556018,1.3999364268233137,10.472822013147864,-1.5163886837842986,-2.2530904630335367,-1.582261992663872,-0.7074867806783538,1.3576600609756098,-1.51824951171875,1.5965903677591464,-1.7179163490853655,-1.688887433307927,-2.745637711696742,-18.989533730158733,2.6348402682387064,-0.4832853654282228,-34.84487484737485,-17.026270604395606,29.24272920597837,36.76661574864468,39.0669122712433,1577397594.999,-27.717824998119195,-51.122001245695095,7.1799235
53741,1577397595.14,0.7431368372475228,1.5190333606254758,9.611493367116042,-0.0607893641029906,2.025085838355088,10.815251245712654,4.129063541170446,1.470565375797923,9.548660172327551,-0.3872382931592987,0.9817728182164634,-2.009508086413872,-1.2568031869283538,0.4116151391006097,-1.31988525390625,-0.7990395150533537,-2.0841272865853657,-2.6807087223704267,-3.503055011475155,-19.172125400641026,2.169868456196584,-0.6443804872376302,-33.99912545787546,-16.014292510874544,29.29065205019917,36.479078683319855,39.16275795968491,1577397594.999,-27.717824998119195,-51.122001245695095,7.1799235
53742,1577397595.15,0.946643978360804,1.2844015979301633,9.170960261647291,1.4451634801352895,1.4983614731207129,9.01720579893531,1.584027176424352,1.7722347849776106,11.531059146936927,3.3359062380907014,0.9207376619664634,-1.551744414538872,-0.1886879525533537,0.1064393578506097,-1.89971923828125,-4.400113733803353,2.1578160727896343,-1.337935284870427,-2.745637711696738,-19.172125400641026,2.7898308722527494,-0.8054756090470375,-30.108678266178263,-16.216688129578753,29.29065205019917,36.57492437176146,39.1148351154641,1577397594.999,-27.717824998119195,-51.122001245695095,7.1799235
53743,1577397595.16,0.9610091883217416,1.9930852893364133,10.93548688518245,0.1786308019126334,1.598917942847275,11.224659729599372,0.3869263463462271,3.0938341013838606,10.25255546041349,-1.5163886837842986,-3.0465474942835367,-2.070543242663872,-0.0971352181783536,0.4421327172256097,-2.08282470703125,0.6352866568216463,-0.4361780678353658,-1.643111066120427,-2.556283386752136,-18.259167048229543,2.9448214762667897,-2.094236583522298,-35.52147435897436,-17.026270604395606,29.19480636175757,36.52700152754066,39.1148351154641,1577397594.999,-27.717824998119195,-51.122001245695095,7.1799235
53744,1577397595.17,0.9586149866615852,1.5836768054496946,9.362496394459791,-0.0500154566322884,1.5438513046636817,9.864753186630622,1.257218649813024,1.5256320139815167,10.014332395227942,2.4051201052782014,2.492392935403964,-1.612779570788872,0.9557212271341462,0.5031678734756098,-1.89971923828125,-1.3636147103658538,-2.4503382240853657,-1.505781964557927,-3.029669199113645,-18.71564622443529,3.642279194329976,-2.738617070759928,-35.690624236874235,-13.787940705128204,29.338574894419985,36.43115583909905,39.186719381795314,1577397594.999,-27.717824998119195,-51.122001245695095,7.1799235
53745,1577397595.18,1.0400178431068978,1.2341233630668822,10.260322017018389,-0.0895197840248656,1.1895094589605564,8.303733704208746,2.611139688631383,1.6932261301924545,10.41775537496427,-1.2112129025342986,-3.5348287442835367,-2.162095977038872,0.8183921255716463,-1.7551329077743902,-1.74713134765625,0.7573569693216463,0.0826207602896341,-3.2910602848704267,-3.881763661364359,-18.80694205967644,4.029755704365082,-2.094236583522298,-35.52147435897436,-17.026270604395606,29.146883517536764,36.38323299487824,39.01898942702249,1577397594.999,-27.717824998119195,-51.122001245695095,7.1799235
53746,1577397595.19,1.1597279261147102,1.626772435332507,8.694514131276199,0.0565265172446646,0.6627850937261814,10.343593518661873,0.7795754186118521,1.9470115061690167,8.646046146448645,5.166960925590701,2.049888052591464,-1.612779570788872,2.771517125571646,-0.5344297827743902,-1.47247314453125,-5.315641077553353,2.9207555259146343,-1.948286847370427,-3.881763661364359,-18.80694205967644,4.029755704365082,-2.094236583522298,-35.52147435897436,-17.026270604395606,29.146883517536764,36.57492437176146,38.97106658280169,1577397594.999,-27.717824998119195,-51.122001245695095,7.1799235
53747,1577397595.2,0.9610091883217416,2.285177891875476,10.693672517506668,0.5497320592368521,2.427311717261337,10.62610931456031,-0.1182502039467406,1.020455463688548,9.25656756978849,-1.2112129025342986,-4.572426400533536,-2.162095977038872,0.6658042349466463,-0.4733946265243902,-2.05230712890625,1.7339194693216462,0.8150426352896342,-2.4365680973704267,-2.366929061807533,-18.44175871871185,2.4798496642246635,2.0942365835222976,-32.47677655677656,-9.740028331043955,29.43442058286159,36.57492437176146,39.21068080390571,1577397594.999,-27.717824998119195,-51.122001245695095,7.1799235
53748,1577397595.21,0.9334758692299446,1.788381047393054,9.62705567790706,0.6203610082114615,2.1028973923101657,10.527947046493903,0.7448594945395866,2.320506965153392,9.118900974329506,1.7795097537157014,2.477134146341464,-1.856920195788872,0.9862388052591462,-0.0461485327743902,-1.65557861328125,1.4745200552591462,0.815042635289634,-2.6959675114329267,-1.798866086973726,-18.25916704822955,3.564783892322952,2.738617070759928,-33.15337606837607,-13.38314946771978,29.24272920597837,36.69473148231347,39.23464222601611,1577397594.999,-27.717824998119195,-51.122001245695095,7.1799235
53749,1577397595.22,0.4414674280678353,1.990691087676257,10.770286970631668,0.2001786168540396,2.140007518042588,10.700329566025154,-0.6832817957436166,0.3333195872237043,9.170376310022863,-1.8825996212842984,-1.6427389005335369,-1.948472930163872,0.0554526724466463,2.791986232850609,-2.20489501953125,0.1164878286966463,3.3174840415396343,-2.7112263004954267,-4.26047231125356,-18.07657537774725,3.719774496336995,2.4164268271411125,-34.506575091575094,-16.62147936698718,29.29065205019917,36.52700152754066,39.30652649234732,1577397594.999,-27.717824998119195,-51.122001245695095,7.1799235
53750,1577397595.23,0.7958092737709603,0.9970973987114136,8.613111274830887,0.9040739049399772,1.5175150864019626,10.867923682236093,0.9256217198813832,2.397121418278392,9.105732865198648,1.7184745974657014,2.751792349466464,-1.978990508288872,0.2995932974466463,3.554925685975609,-1.19781494140625,2.069612828696646,1.852640291539634,-1.460005597370427,-4.26047231125356,-18.07657537774725,3.719774496336995,1.772046339903483,-35.85977411477411,-8.930445856227106,29.146883517536764,36.57492437176146,38.97106658280169,1577397594.999,-27.717824998119195,-51.122001245695095,7.1799235
53751,1577397595.24,1.0304410364662728,1.8494331897270384,9.9203453812762,0.1858134068931026,2.101700291480088,9.742648901962651,0.969914450594274,1.6573131052901104,10.083764243372476,4.281951159965701,1.5005716463414631,-1.795885039538872,0.8183921255716462,0.5489442406631098,-1.62506103515625,-0.5854164681783537,3.6379186118521343,-1.612593487995427,-2.366929061807533,-18.80694205967644,3.409793288308909,0.6443804872376301,-35.01402472527472,-10.549610805860803,29.146883517536764,36.52700152754066,39.0908736933537,1577397594.999,-27.717824998119195,-51.122001245695095,7.1799235
53752,1577397595.25,1.061565658048304,1.665079661895007,9.220041395680497,0.3941089513266959,0.7034865219488378,8.698776978134527,1.2943287755454458,0.7116034495283918,9.021935807093175,2.0999443240282014,2.156699576028964,-1.673814727038872,2.618929234946646,2.639398342225609,-0.98419189453125,2.100130406821646,3.3480016196646343,-1.551558331745427,-3.219023524058245,-18.1678712129884,3.02231677827381,-3.382997557997558,-35.85977411477411,-10.549610805860803,29.146883517536764,36.38323299487824,39.01898942702249,1577397594.999,-27.717824998119195,-51.122001245695095,7.1799235
53753,1577397595.26,1.051988851407679,2.1151895740043822,9.676136811940262,0.5832508824790397,1.9317119736089936,9.108185462021249,-1.281832210782679,0.6349889964033918,9.041089420374428,-1.2722480587842986,0.7681497713414634,-1.612779570788872,0.0859702505716463,1.0219667016006098,-1.89971923828125,2.557894078696646,1.700052400914634,-2.4060505192454267,-3.503055011475155,-18.07657537774725,2.7898308722527494,1.9331414617128904,-35.690624236874235,-16.823874985691393,29.146883517536764,36.52700152754066,38.92314373858088,1577397594.999,-27.717824998119195,-51.122001245695095,7.1799235
53754,1577397595.27,0.994528011563929,1.5669173938286007,9.74078025676448,0.7532392003501334,2.211833567847275,10.35795872862281,-2.316127327970179,1.0898873118330792,9.041089420374428,1.0470878787157014,4.247153677591464,-1.856920195788872,0.7268393911966463,1.815423732850609,-2.81524658203125,-0.4023109994283537,1.089700838414634,-3.2300251286204267,-3.503055011475155,-18.07657537774725,2.7898308722527494,2.5775219489505203,-35.690624236874235,-16.823874985691393,29.338574894419985,36.38323299487824,38.82729805013928,1577397594.999,-27.717824998119195,-51.122001245695095,7.1799235
53755,1577397595.28,0.7012383081947884,1.2209552539360229,9.67733391277034,0.7652102086509146,1.2780949203863377,10.973268555282964,0.9639289464438834,3.318889057438548,10.104114957483802,0.1315605349657014,0.7071146150914636,-1.612779570788872,-0.9821449838033536,3.9516542016006095,-0.80108642578125,2.466341344321646,-3.0606897865853657,-2.1313923161204267,-2.272251899335232,-18.1678712129884,3.642279194329976,2.0942365835222976,-35.85977411477411,-17.026270604395606,29.19480636175757,36.52700152754066,39.21068080390571,1577397594.999,-27.717824998119195,-51.122001245695095,7.1799235
53756,1577397595.29,0.6569455774818977,1.8829520129692257,9.40798622600276,0.1008192479575552,1.5055440781011815,9.570266382431404,0.5090306310141963,0.9187018931319074,9.704283280237709,4.281951159965701,2.477134146341464,-1.216051055163872,0.7726157583841463,-0.6107237280868902,-1.88446044921875,-1.7450844369283536,4.110941072789634,-0.7123249333079269,-3.3137006865305447,-18.62435038919414,1.3949154361263716,3.382997557997558,-34.84487484737484,-16.823874985691393,29.19480636175757,36.50304010543026,38.87522089436008,1577397594.999,-27.717824998119195,-51.122001245695095,7.1799235
53757,1577397595.3,0.7191948206459603,1.808731761504382,10.62902907268245,0.6526827306235709,1.5821585312261814,10.183182007431403,3.233632120272008,1.8129362132002669,10.460851004847084,-1.6994941525342986,-4.084145150533536,-1.734849883288872,1.4897788443216462,2.425775295350609,-1.10626220703125,0.9404624380716464,-0.4361780678353658,-1.490523175495427,-2.1775747368629306,-19.71990041208792,3.2548026842948694,2.738617070759928,-33.829975579975574,-16.62147936698718,29.5302662713032,36.57492437176146,39.01898942702249,1577397594.999,-27.717824998119195,-51.122001245695095,7.1799235
53758,1577397595.31,0.5827253260170541,1.7345115100395383,9.661771601979323,0.8777376866782584,1.663561387671494,9.005234790634528,-0.180499447110804,-0.6339378834794206,10.714636380823643,-0.4482734494092987,1.0122903963414631,-1.734849883288872,-0.2802406869283537,1.0830018578506098,-2.08282470703125,-6.658414515053353,2.3409215415396343,-3.0469196598704267,-2.1775747368629306,-19.71990041208792,3.2548026842948694,2.4164268271411125,-33.829975579975574,-15.00231441735348,29.338574894419985,36.57492437176146,39.16275795968491,1577397594.999,-27.717824998119195,-51.122001245695095,7.1799235
53759,1577397595.32,1.099872884610804,1.5453695788871946,10.159765547291824,0.6335291173423209,1.778483067358994,10.616532507919684,1.9431574254477892,1.7458985667158915,11.021094193323648,-0.5245673947217987,-0.6509176114710364,-1.475450469226372,-0.5243813119283537,-0.0156309546493902,-1.56402587890625,2.069612828696646,-0.9244593178353658,-3.3826130192454267,-2.272251899335232,-18.167871212988395,3.9522604023580623,4.349568288854003,-31.461877289377288,-16.216688129578753,29.26669062808877,36.67077006020308,39.1148351154641,1577397594.999,-27.717824998119195,-51.122001245695095,7.1799235
53760,1577397595.33,1.013681624845179,1.0761060534965696,8.85971404582698,1.362563522859899,1.3403441635504,10.26817616636695,-0.4630152430092416,0.8576497507979236,9.393037064417395,1.9626152224657007,2.599204458841464,-1.795885039538872,0.7268393911966463,0.8693788109756098,-1.36566162109375,-0.6617104134908537,-0.1462610756478657,-0.2240436833079268,-2.366929061807533,-17.34620869581807,3.719774496336995,3.302449997092854,-35.6060492979243,-16.520281557635073,29.146883517536764,36.52700152754066,39.01898942702249,1577397594.999,-27.717824998119195,-51.122001245695095,7.1799235
53761,1577397595.34,0.7910208704506478,2.323485118437976,9.558820930592605,-0.3002095301186165,1.926923570288681,10.353170325302496,1.4451634801352895,1.4370465525557354,9.565419583948646,3.0002128787157014,2.629722036966464,-1.460191680163872,-1.5619789681783538,0.4726502953506097,-1.25885009765625,0.0554526724466463,0.1131383384146341,-1.398970441120427,-3.1243463615859426,-18.80694205967644,3.099812080280829,1.9331414617128904,-35.690624236874235,-16.823874985691393,29.19480636175757,36.57492437176146,38.97106658280169,1577397594.999,-27.717824998119195,-51.122001245695095,7.1799235
53762,1577397595.35,0.2355660852943978,1.5836768054496946,10.482982771412916,0.1139873570884146,1.3786513901129005,9.68039965879859,-0.8389049036537728,0.7451222727705793,8.224666654261146,-4.262970715034299,-1.6122213224085369,-1.887437773913872,2.161165563071646,-0.2597715796493902,-1.16729736328125,-0.2192055306783537,0.3267613852896341,-0.7275837223704268,-3.1243463615859426,-18.80694205967644,3.099812080280829,1.9331414617128904,-35.690624236874235,-55.68383377690018,29.29065205019917,36.28738730643664,39.01898942702249,1577397594.999,-27.717824998119195,-51.122001245695095,7.1799235
53763,1577397595.36,1.1238149012123666,1.5082594531547726,8.650221400563309,0.7927435277427115,1.6300425644293064,9.316481006454842,1.1015955419028676,-0.0581323842118425,8.594570810755286,2.2372734255907014,0.0204691072789635,-1.612779570788872,-0.7685219369283537,0.8541200219131094,-1.93023681640625,0.2385581411966462,1.9441930259146345,-2.4823444645579267,-3.2190235240582474,-18.533054553952997,3.1773073822878493,-0.1610951218094075,-33.15337606837606,-13.787940705128204,29.19480636175757,36.550962949651066,38.995028004912086,1577397594.999,-27.717824998119195,-51.122001245695095,7.1799235
53764,1577397595.37,1.0543830530678353,1.5429753772270385,10.432704536549636,0.7412681920493521,1.586946934546494,9.146492688583749,-0.659339779142054,0.4123282420088605,9.328393619593175,-2.0351875119092986,-1.1544576505335369,-2.131578398913872,1.6118491568216462,-0.2292540015243902,-1.50299072265625,2.405306188071646,3.1038609946646343,-2.0703571598704267,-4.071117986308962,-20.450267094017097,3.2548026842948694,0.4832853654282225,-30.44697802197802,-13.787940705128204,29.19480636175757,36.57492437176146,39.1148351154641,1577397594.999,-27.717824998119195,-51.122001245695095,7.1799235
53765,1577397595.38,1.5811074183022102,1.2532769763481322,8.031320271412918,0.7819696202720083,1.6731381943121189,9.71870688536109,-0.2355660852943978,1.777023188297923,9.618092020472083,2.6340019412157014,3.545249380716464,-1.460191680163872,-0.2802406869283537,1.3271424828506098,-1.77764892578125,-0.4328285775533537,2.8902379477896343,-2.6501911442454267,-2.93499203664134,-18.989533730158733,3.874765100351035,-0.8054756090470375,-29.770378510378507,-16.62147936698718,29.19480636175757,36.71869290442388,39.16275795968491,1577397594.999,-27.717824998119195,-51.122001245695095,7.1799235
53766,1577397595.39,1.2124003626381477,2.0122389026176632,10.358484285084792,1.6151517980063834,1.986778611792588,11.08579603331031,1.7803517125571646,2.243892512028392,10.420149576624429,0.6808769412157013,-3.1075826505335367,-1.887437773913872,0.3606284536966463,0.6862733422256098,-1.19781494140625,0.3301108755716463,-0.2530725990853658,-1.521040753620427,-2.93499203664134,-18.989533730158733,3.874765100351035,-1.9331414617128904,-35.35232448107448,-13.585545086423991,29.338574894419985,36.479078683319855,39.1148351154641,1577397594.999,-27.717824998119195,-51.122001245695095,7.1799235
53767,1577397595.4,0.7682759546791634,1.5908594104301632,9.423548536793778,0.2061641210044302,2.0298742416754,9.79651843931617,0.6969754613364615,2.094254908268626,11.14678978048185,0.9097587771532014,3.011191763528964,-1.948472930163872,-0.2039467416158537,1.5865418969131095,-2.02178955078125,0.8489097036966462,-0.1310022865853657,-1.917769269245427,-3.124346361585946,-18.80694205967644,3.4097932883089124,-3.382997557997558,-34.168275335775334,-10.549610805860809,29.19480636175757,36.550962949651066,39.1148351154641,1577397594.999,-27.717824998119195,-51.122001245695095,7.1799235
53768,1577397595.41,0.5946963343178353,2.3881285632621947,11.028860749928542,0.5497320592368521,1.4001992050543064,10.731454187607184,0.5090306310141959,2.1098172190596416,9.208683536585363,-1.3332832150342986,-0.8492818692835366,-2.070543242663872,1.1846030630716462,1.0524842797256098,-1.38092041015625,5.579134313071647,-3.5184534584603657,-2.3144977848704267,-4.26047231125356,-18.80694205967644,3.099812080280829,-3.382997557997558,-33.829975579975574,-16.62147936698718,29.29065205019917,36.57492437176146,39.01898942702249,1577397594.999,-27.717824998119195,-51.122001245695095,7.1799235
53769,1577397595.42,0.8748179285561165,1.0641350451957885,9.29306454631526,0.0349787023032584,1.6204657577886814,7.911084631943122,-0.3768239832436165,1.2862118479658915,9.328393619593175,-2.1267402462842986,0.4629739900914634,-2.070543242663872,1.5508140005716462,-0.3208067358993902,-1.77764892578125,-1.5619789681783538,1.974710604039634,-2.4670856754954267,-3.692409336419757,-17.893983707264958,3.2548026842948694,-3.382997557997558,-34.506575091575094,-6.501698431776557,29.146883517536764,36.52700152754066,38.92314373858088,1577397594.999,-27.717824998119195,-51.122001245695095,7.1799235
53770,1577397595.43,0.7874295679604134,1.7285260058891476,9.270319630543778,-0.1517690271889281,2.16394953464415,9.472104114364996,0.1570829869712271,1.2431162180830793,9.100944461878331,0.6808769412157014,1.927817740091464,-2.040025664538872,-0.9516274056783536,0.4116151391006097,-1.71661376953125,-0.7074867806783537,0.9981481040396342,-3.4131305973704267,-3.692409336419757,-17.893983707264958,3.2548026842948694,1.772046339903483,-33.15337606837607,-9.740028331043955,29.170844939647168,36.57492437176146,39.01898942702249,1577397594.999,-27.717824998119195,-51.122001245695095,7.1799235
53771,1577397595.44,0.755107845548304,1.7943665515434446,9.68331941692073,0.5138190343345084,1.5761730270757908,10.264584863876715,-0.3983717981850228,2.1241824290205797,9.438526895960363,-0.1125800900342987,0.1883157869664634,-1.734849883288872,1.3371909536966462,0.9609315453506097,-2.00653076171875,0.1775229849466463,0.6014195884146342,-0.7733600895579268,-2.366929061807533,-18.80694205967644,4.959699328449327,2.57752194895052,-34.50657509157509,-16.014292510874544,29.4823434270824,36.694731482313486,39.186719381795314,1577397594.999,-27.717824998119195,-51.122001245695095,7.1799235
53772,1577397595.45,0.898759945157679,2.5006560412895382,10.312994453541824,0.5449436559165396,2.4680131454839938,10.736242590927498,2.0676559117759146,1.8009652048994855,10.66675234762052,1.1081230349657014,0.0967630525914634,-2.101060820788872,-1.4399086556783538,1.845941310975609,-1.68609619140625,0.5132163443216463,1.089700838414634,-1.887251691120427,-2.1775747368629306,-18.989533730158733,2.9448214762667897,1.772046339903483,-34.16827533577533,-17.026270604395606,29.146883517536764,36.479078683319855,39.35444933656812,1577397594.999,-27.717824998119195,-51.122001245695095,7.1799235
53773,1577397595.46,0.8173570887123666,1.6578970569145384,10.779863777272292,0.1307467687095083,0.8806574448004002,10.362747131943122,0.1403235753501334,1.6788609202315168,9.175164713343175,-2.4929511837842986,-0.7577291349085366,-2.070543242663872,2.039095250571646,-1.3584043921493902,-1.01470947265625,0.7268393911966463,0.9981481040396342,-0.2698200504954268,-3.881763661364359,-18.80694205967644,3.099812080280829,1.772046339903483,-35.52147435897436,-17.026270604395606,29.338574894419985,36.57492437176146,39.1148351154641,1577397594.999,-27.717824998119195,-51.122001245695095,7.1799235
53774,1577397595.47,0.6413832666908822,1.9092882312309445,9.532484712330886,-0.0416357508217406,2.453647935523056,9.49604613096656,0.2408800450766959,2.909480573551829,11.119256461390052,0.6045829959032012,2.706015982278964,-1.643297148913872,0.1470054068216463,0.7473084984756098,-1.62506103515625,-0.8295570931783537,1.700052400914634,-0.9412067692454268,-3.3137006865305447,-17.893983707264958,3.2548026842948694,1.772046339903483,-34.84487484737485,-10.549610805860803,29.29065205019918,36.71869290442388,38.97106658280169,1577397594.999,-27.717824998119195,-51.122001245695095,7.1799235
53775,1577397595.48,0.8029918787514291,1.4089000842582884,10.336936470143389,0.4491755895102896,1.2792920212164152,10.111355957626715,1.9216096105063831,0.781035297672923,9.692312271936927,-4.720734386909299,-3.8705221036585367,-2.040025664538872,-0.0666176400533538,0.8846376000381094,-1.45721435546875,1.6576255240091462,-0.619283536585366,-1.582075909870427,-3.692409336419757,-18.259167048229543,3.874765100351035,-2.094236583522298,-40.426820818070816,-15.00231441735348,29.29065205019917,36.52700152754066,38.97106658280168,1577397594.999,-27.717824998119195,-51.122001245695095,7.1799235
53776,1577397595.49,0.3409109583412728,1.8590099963676636,8.98181833049495,-1.3512640589272102,2.4177349106207124,9.905454614853278,-0.9490381800209604,2.428246039860423,10.851105875452552,5.197478503715701,5.773032583841464,-1.521226836413872,-0.6159340463033537,1.1745545922256098,-1.68609619140625,-0.4328285775533537,-1.412740567835366,-3.0774372379954267,-4.449826636198162,-18.989533730158733,3.564783892322956,3.060807314378742,-35.52147435897436,-12.978358230311354,29.5302662713032,36.81453859286549,38.92314373858088,1577397594.999,-27.717824998119195,-51.122001245695095,7.1799235
53777,1577397595.5,0.6138499475990853,1.674656468535632,9.685713618580886,0.2624278600181021,2.058604661597275,10.74103099424781,2.6350817052329454,3.4385991404463603,9.88863680806974,-1.7605293087842986,2.934897818216464,-1.185533477038872,-0.5854164681783537,2.975091701600609,-1.28936767578125,1.7644370474466462,-2.7249964272103657,-2.8027790348704267,-3.881763661364359,-19.90249208257021,3.409793288308909,2.4164268271411125,-35.85977411477411,-7.311280906593407,29.19480636175757,36.52700152754066,39.01898942702249,1577397594.999,-27.717824998119195,-51.122001245695095,7.1799235
53778,1577397595.51,0.9442497767006478,1.424462395049304,9.427139839284012,1.2344737340415397,1.1416254257574314,8.444991602157964,1.1387056676352896,2.102634614079173,8.255791275843178,0.9707939334032014,-1.4596334317835369,-1.795885039538872,0.9099448599466464,-1.5720274390243902,-1.28936767578125,1.7949546255716462,-1.778951505335366,0.4320842463795732,-4.26047231125356,-19.172125400641026,3.409793288308909,3.060807314378742,-35.1831746031746,-5.692115956959706,29.218767783867968,36.67077006020308,39.21068080390571,1577397594.999,-27.717824998119195,-51.122001245695095,7.1799235
53779,1577397595.52,0.9107309534584602,1.5453695788871946,9.264334126393386,0.2289090367759146,1.741372941626572,9.446964996933357,-0.2774646143471323,0.3584587046553454,8.565840390833412,1.0470878787157014,2.202475943216464,-1.277086211413872,-1.3636147103658538,1.739129787538109,-1.44195556640625,-0.9211098275533538,2.7986852134146343,-1.429488019245427,-2.556283386752136,-19.35471707112332,2.9448214762667897,2.5775219489505203,-35.690624236874235,-7.108885287889194,29.09896067331596,36.407194416988645,39.01898942702249,1577397594.999,-27.717824998119195,-51.122001245695095,7.1799235
53780,1577397595.53,1.3464756556068975,1.222152354766101,8.921963288991043,0.2432742467368521,1.6587729843511814,8.406684375595464,0.0469497106040396,-0.0066570485184822,10.044259915979897,-2.3708808712842986,0.4324564119664634,-1.490709258288872,0.0859702505716463,-1.6330625952743902,-0.74005126953125,0.8183921255716463,2.4935094321646343,-2.0703571598704267,-2.366929061807533,-19.537308741605617,4.029755704365082,2.5775219489505203,-35.690624236874235,-7.108885287889194,29.338574894419985,36.57492437176146,39.21068080390571,1577397594.999,-27.717824998119195,-51.122001245695095,7.1799235
53781,1577397595.54,0.879606331876429,1.9715374743950072,9.26193992473323,-0.209229867032679,1.5749759262457126,9.94855024473609,-0.0895197840248656,0.7882179026533918,9.948491849573646,2.4508964724657014,1.0122903963414631,-1.490709258288872,-0.1581703744283537,-0.2597715796493902,-1.22833251953125,-0.5548988900533537,-1.504293302210366,-3.2605427067454267,-3.1243463615859426,-19.172125400641026,2.7898308722527494,4.349568288854003,-31.12357753357753,-4.477742244734433,29.19480636175757,36.57492437176146,38.97106658280169,1577397594.999,-27.717824998119195,-51.122001245695095,7.1799235
53782,1577397595.55,0.6772962915932259,1.454389915801257,9.925133784596513,0.0517381139243521,1.224225383032822,9.868344489120856,0.3270713048423209,2.8544139353682354,9.826387564905676,-0.8907783322217987,-0.1473775724085367,-1.505968047351372,0.3453696646341463,0.8236024437881097,-1.31988525390625,0.8031333365091462,1.6084996665396345,-0.6818073551829269,-2.556283386752136,-20.450267094017097,3.2548026842948694,4.51066341066341,-34.50657509157509,-10.95440204326923,29.24272920597837,36.52700152754066,39.16275795968491,1577397594.999,-27.717824998119195,-51.122001245695095,7.1799235
53783,1577397595.56,0.3935833948647103,1.9116824328911008,9.053644380299636,0.2576394566977896,1.7473584457769626,9.986857471298592,0.2767930699790396,2.0116549509932358,11.600490995081458,3.3359062380907014,4.735434927591464,-1.155015898913872,-1.5924965463033538,-0.1987364233993902,-1.53350830078125,-0.4938637338033537,0.5403844321646342,-1.490523175495427,-3.692409336419757,-18.989533730158733,3.2548026842948694,0.6443804872376299,-33.660825702075705,-16.823874985691393,29.19480636175757,36.57492437176146,39.16275795968491,1577397594.999,-27.717824998119195,-51.122001245695095,7.1799235
53784,1577397595.57,0.5180818811928353,1.1215958850395384,9.367284797780105,0.0421613072837271,1.1631732406988378,10.745819397568122,2.654235318514196,1.9517999094893288,10.530282852991617,-2.2182929806592986,-0.7272115567835366,-1.307603789538872,1.0320151724466462,-0.4733946265243902,-1.41143798828125,2.832552281821646,-1.473775724085366,-1.063277081745427,-2.745637711696738,-18.80694205967644,2.7898308722527494,-0.8054756090470375,-35.85977411477411,-16.62147936698718,29.43442058286159,36.86246143708629,38.92314373858088,1577397594.999,-27.717824998119195,-51.122001245695095,7.1799235
53785,1577397595.58,0.4534384363686166,1.5238217639457885,9.506148494069167,1.0261781896079458,1.7641178573980565,9.314086804794684,0.3653785314048209,1.4681711741377668,10.41775537496427,-0.4024970822217986,-1.0171285489710369,-1.414415312976372,-0.4938637338033537,0.4421327172256097,-1.77764892578125,-2.080777796303354,-2.9081018959603657,-2.2534626286204267,-3.029669199113645,-18.898237894917585,2.7123355702457266,-1.4498560962846678,-35.85977411477411,-17.026270604395606,29.170844939647168,36.67077006020308,39.01898942702249,1577397594.999,-27.717824998119195,-51.122001245695095,7.1799235
53786,1577397595.59,0.6234267542397103,1.7847897449028196,10.190890168873857,0.1822221044028678,0.8327734115972752,10.84996716978492,1.112369449373571,1.7435043650557356,10.1316482765756,-2.7676093869092986,-3.8705221036585367,-1.826402617663872,0.4216636099466462,-0.5191709937118902,-1.04522705078125,0.3911460318216463,-3.1217249428353657,-1.719405011432927,-1.9882204119183284,-18.80694205967644,2.4798496642246635,-2.738617070759928,-32.30762667887668,-15.60950127346612,29.09896067331596,36.479078683319855,39.01898942702249,1577397594.999,-27.717824998119195,-51.122001245695095,7.1799235
53787,1577397595.6,0.9370671717201792,1.475937730742663,10.74395075236995,1.121946256014196,1.0817703842535251,8.737084204697027,-1.071142464688929,1.5304204173018292,9.24459656148771,-2.4624336056592986,-2.8939596036585367,-2.406236602038872,-1.0431801400533538,0.0148866234756097,-2.69317626953125,-4.308560999428353,-0.8634241615853658,-1.063277081745427,-2.745637711696738,-19.537308741605617,2.7898308722527494,-2.738617070759928,-28.75547924297924,-15.407105654761905,29.19480636175757,36.33531015065744,39.1148351154641,1577397594.999,-27.717824998119195,-51.122001245695095,7.1799235
53788,1577397595.61,1.0759308680092414,1.559734788848132,9.999354036061357,0.8777376866782584,1.120077610816025,11.198323511337652,2.3238354894126334,1.415498737614329,9.541477567347084,-0.0515449337842987,-0.4525533536585365,-1.734849883288872,-2.172330530678354,0.0759217797256097,-2.05230712890625,-2.416471155678354,-2.0230921303353657,-1.215864972370427,-2.366929061807533,-19.90249208257021,3.409793288308909,-3.382997557997558,-34.506575091575094,-15.407105654761905,29.29065205019917,36.52700152754066,39.21068080390571,1577397594.999,-27.717824998119195,-51.122001245695095,7.1799235
53789,1577397595.62,0.5575862085854134,1.4005203784477414,10.49375667888362,0.0708917272056021,1.3355557602300876,10.628503516220466,2.1921543981040394,-0.6267552784989519,8.41380858541349,-4.903839855659299,-1.8105855802210369,-1.841661406726372,0.7878745474466463,0.0454042016006097,-1.35040283203125,-0.7990395150533537,-1.016012052210366,-1.307417706745427,-2.745637711696738,-18.44175871871184,3.719774496336999,-1.6109512180940753,-35.35232448107448,-11.966380136790292,29.36253631653038,36.71869290442388,39.01898942702249,1577397594.999,-27.717824998119195,-51.122001245695095,7.1799235
53790,1577397595.63,0.7048296106850228,2.39770536990282,10.356090083424636,0.4072770604575557,1.9999467209234467,9.93059373228492,-1.1872612452065072,2.1457302439619856,9.74139340597013,1.9015800662157007,1.6226419588414631,-1.826402617663872,-1.3178383431783538,-0.6412413062118903,-1.65557861328125,-0.6006752572408537,1.150735994664634,-3.4436481754954267,-3.692409336419757,-20.085083753052505,2.63484026823871,-2.0942365835222976,-34.67572496947496,-13.585545086423991,29.338574894419985,36.550962949651066,39.0908736933537,1577397594.999,-27.717824998119195,-51.122001245695095,7.1799235
53791,1577397595.64,0.5923021326576791,1.0449814319145383,10.56438562785823,0.5856450841391959,1.290065928687119,10.927778723739998,2.8649250646079456,1.0922815134932355,10.11848016744474,-4.385041027534299,-2.3446431974085367,-2.070543242663872,0.0859702505716463,0.9914491234756098,-1.96075439453125,-0.7380043588033537,0.4183141196646341,-2.1924274723704267,-3.692409336419757,-20.085083753052505,2.63484026823871,-2.255331705331705,-34.67572496947496,-15.204710036057692,29.338574894419985,36.67077006020308,39.01898942702249,1577397594.999,-27.717824998119195,-51.122001245695095,7.1799235
53792,1577397595.65,0.7024354090248666,1.2293349597465697,9.065615388600415,0.0613149205649771,2.2261987778082126,8.598220508407964,0.0301902989829459,2.411486628239329,11.013911588343175,1.6269218630907014,4.857505240091464,-1.704332305163872,-0.1886879525533537,-1.8772032202743905,-1.44195556640625,-3.057340296303354,-1.778951505335366,-0.8801716129954268,-2.745637711696738,-18.07657537774725,3.409793288308909,-1.2887609744752604,-35.01402472527472,-15.204710036057692,29.19480636175757,36.57492437176146,39.1148351154641,1577397594.999,-27.717824998119195,-51.122001245695095,7.1799235
53793,1577397595.66,0.5863166285072884,1.9164708362114131,9.88084105388362,0.1546887853110709,1.299642735327744,11.612520398544683,0.6550769322837271,2.1481244456221416,10.726607389124426,-1.3027656369092986,-1.0018697599085369,-1.872178984851372,-1.0736977181783538,0.7167909203506098,-2.02178955078125,-3.728727015053354,0.5709020102896342,-1.002241925495427,-2.650960549224437,-18.533054553952997,3.487288590315932,3.86628292342578,-32.984226190476186,-16.419083748282965,29.338574894419985,36.57492437176146,38.92314373858088,1577397594.999,-27.717824998119195,-51.122001245695095,7.1799235
53794,1577397595.67,1.166910531095179,1.2556711780082883,9.039279170338698,0.6574711339438833,1.5630049179449317,9.77018222105445,0.3965031529868521,1.3915567210127668,9.116506772669348,-1.2417304806592986,-1.0934224942835369,-1.887437773913872,0.1622641958841463,-0.5496885718368902,-1.62506103515625,1.6271079458841462,-4.891744474085366,-0.6818073551829268,-3.1243463615859426,-18.44175871871185,2.169868456196584,3.22190243618815,-34.50657509157509,-16.823874985691393,29.43442058286159,36.64680863809267,39.01898942702249,1577397594.999,-27.717824998119195,-51.122001245695095,7.1799235
53795,1577397595.68,0.8867889368568977,2.246870665312976,9.501360090748856,0.3486191197837271,1.1440196274175878,11.148045276474372,-0.1038849939858031,0.6780846262862043,8.72026639791349,4.770232409965701,4.125083365091464,-1.612779570788872,-0.9211098275533536,1.6628358422256098,-2.38800048828125,-3.667691858803354,-0.9854944740853658,-1.093794659870427,-3.1243463615859426,-18.44175871871185,2.169868456196584,2.0942365835222976,-35.85977411477411,-12.168775755494504,29.146883517536764,36.479078683319855,39.21068080390571,1577397594.999,-27.717824998119195,-51.122001245695095,7.1799235
53796,1577397595.69,0.611455745938929,0.9707611804496948,9.831759919850418,0.0277960973227896,1.7641178573980565,10.448938391708747,4.354118497225133,2.5096488963057357,10.702665372522866,-3.7441718869092986,-2.0394674161585367,-1.399156523913872,1.7949546255716462,-0.8396055640243902,-0.67901611328125,-0.0971352181783536,0.7540074790396342,-0.5749958317454268,-2.93499203664134,-18.989533730158733,2.014877852182544,-1.772046339903483,-34.506575091575094,-10.549610805860803,29.19480636175757,36.52700152754066,39.01898942702249,1577397594.999,-27.717824998119195,-51.122001245695095,7.1799235
53797,1577397595.7,0.8640440210854134,2.0301954150688357,9.27510803386409,1.3757316319907584,3.08332297214415,9.40746066954078,-0.170922640470179,0.6924498362471418,10.64281033101896,1.1844169802782014,-0.0863424161585367,-1.765367461413872,-0.6159340463033537,-1.0532286108993902,-1.38092041015625,0.1775229849466463,0.9065953696646342,-1.795698956745427,-2.272251899335236,-19.08082956539988,3.4872885903159325,-0.6443804872376302,-35.690624236874235,-13.180753849015568,29.218767783867968,36.52700152754066,39.1148351154641,1577397594.999,-27.717824998119195,-51.122001245695095,7.1799235
53798,1577397595.71,-0.1163815587485709,1.442418907500476,9.8437309281512,0.1786308019126334,1.309219541968369,10.609349902939217,-0.3959775965248666,1.7698405833174542,9.462468912561928,-0.3872382931592987,3.209556021341464,-1.032945586413872,-1.0126625619283538,1.5407655297256095,-1.31988525390625,-1.1042152963033538,-1.1228235756478655,-2.2992389958079267,-4.828535286087371,-19.71990041208792,3.2548026842948694,1.772046339903483,-35.1831746031746,-17.026270604395606,29.19480636175757,36.62284721598228,39.01898942702249,1577397594.999,-27.717824998119195,-51.122001245695095,7.1799235
53799,1577397595.72,0.7383484339272103,1.4974855456840697,10.356090083424636,-0.0919139856850218,2.372245079077744,9.273385376572028,-1.3608408655678352,4.317271149723704,9.914973026331458,-4.446076183784299,-3.4127584317835367,-1.643297148913872,0.2385581411966463,-2.5180723608993905,-1.41143798828125,2.161165563071646,2.8597203696646343,-0.3918903629954268,-4.828535286087371,-19.71990041208792,3.2548026842948694,4.6717585324728175,-35.85977411477411,-15.407105654761905,29.19480636175757,36.57492437176146,39.01898942702249,1577397594.999,-27.717824998119195,-51.122001245695095,7.1799235
53800,1577397595.73,0.6617339808022102,1.4591783191215697,8.761551777760573,0.9830825597251334,0.4520953476324305,9.11297386534156,-1.940237667325648,0.4961253001143293,8.73223740621427,5.533171863090701,1.1038431307164631,-1.216051055163872,-0.8600746713033537,3.554925685975609,-1.56402587890625,-2.050260218178354,4.782327791539634,-1.643111066120427,-4.828535286087371,-19.71990041208792,3.2548026842948694,3.22190243618815,-32.30762667887667,-16.823874985691393,29.146883517536764,36.52700152754066,39.1148351154641,1577397594.999,-27.717824998119195,-51.122001245695095,7.1799235
53801,1577397595.74,1.090296077970179,1.7464825183403196,9.605507862965652,0.2049670201743526,2.3650624740972748,9.539141760849372,1.7995053258384144,2.9525762034346417,10.282482981165442,0.2078544802782015,0.6613382479039636,-1.277086211413872,0.1622641958841463,-0.9769346655868902,-1.02996826171875,3.564974156821646,1.013406893102134,-0.6818073551829269,-2.745637711696738,-18.806942059676437,3.564783892322956,3.060807314378742,-33.15337606837607,-17.026270604395606,29.43442058286159,36.57492437176146,38.94710516069129,1577397594.999,-27.717824998119195,-51.122001245695095,7.1799235
53802,1577397595.75,1.2746496058022103,1.7081752917778197,8.63705329143245,1.5074127232993522,1.1703558456793064,9.299721594833748,-1.0472004480873665,2.382756208317454,10.2573438637338,-1.5774238400342986,-0.4830709317835365,-1.216051055163872,-1.1652504525533538,2.822503810975609,-0.86212158203125,-0.6159340463033537,1.577982088414634,-2.9553669254954267,-2.93499203664134,-18.62435038919414,3.564783892322956,3.060807314378742,-33.15337606837607,-17.026270604395606,29.146883517536764,36.52700152754066,39.01898942702249,1577397594.999,-27.717824998119195,-51.122001245695095,7.1799235
53803,1577397595.76,0.7958092737709603,1.2867957995903196,10.171736555592606,1.7252850743735708,1.32119055026915,11.318033594345463,1.198560709139196,1.3676147044112044,9.40261387105802,1.8710624880907007,0.7986673494664634,-1.612779570788872,0.3911460318216463,1.4186952172256098,-1.83868408203125,-0.1581703744283537,-0.1615198647103658,-1.063277081745427,-2.93499203664134,-18.62435038919414,3.564783892322956,3.060807314378742,-31.461877289377288,-4.072951007326006,29.19480636175757,36.52700152754066,39.21068080390571,1577397594.999,-27.717824998119195,-51.122001245695095,7.1799235
53804,1577397595.77,0.8843947351967415,1.375381261016101,9.4223514359637,0.0661033238852896,2.7122217148199312,9.464921509384528,0.0852569371665396,0.9845424387862044,9.495987735804114,-3.1338203244092986,0.1577982088414634,-1.399156523913872,-0.7380043588033537,-1.7246153296493902,-1.13677978515625,-0.5854164681783537,0.1436559165396341,-1.460005597370427,-2.93499203664134,-18.62435038919414,3.564783892322956,3.060807314378742,-35.52147435897436,-17.026270604395606,29.09896067331596,36.57492437176146,38.97106658280169,1577397594.999,-27.717824998119195,-51.122001245695095,7.1799235
53805,1577397595.78,0.745531038907679,1.8218998706352412,9.819788911549637,0.5305784459556021,1.2984456344976658,10.065866126083748,0.6945812596763052,2.043976673405345,9.548660172327551,0.7419120974657014,0.0052103182164635,-1.536485625476372,-1.2110268197408538,2.746209865663109,-1.12152099609375,-0.5396401009908537,2.9207555259146343,-0.6207721989329268,-3.124346361585946,-18.62435038919414,3.2548026842948694,0.8054756090470376,-32.81507631257631,-36.86104123740843,29.218767783867968,36.59888579387187,39.0908736933537,1577397594.999,-27.717824998119195,-51.122001245695095,7.1799235
53806,1577397595.79,0.7144064173256478,1.406505882598132,9.781481684987137,0.5090306310141959,2.5996942367925877,9.000446387314216,0.5210016393149771,0.1417834544112043,9.37148924947599,-0.4482734494092987,-1.2154928067835369,-1.856920195788872,1.1540854849466462,-1.9992735327743905,-1.07574462890625,-5.040982874428353,3.0123082602896343,-2.9858845036204267,-2.556283386752136,-19.71990041208792,2.63484026823871,-0.1610951218094077,-31.80017704517704,-17.026270604395606,29.19480636175757,36.71869290442388,39.1148351154641,1577397594.999,-27.717824998119195,-51.122001245695095,7.1799235
53807,1577397595.8,0.879606331876429,2.155891002227038,9.266728328053542,0.4108683629477896,1.3810455917730564,9.644486633896248,-2.792573458341273,2.6437241892744856,9.46725731588224,0.7419120974657013,1.1038431307164631,-0.941392852038872,-3.942350061928354,2.578363185975609,-1.07574462890625,1.7949546255716462,0.9371129477896342,-2.1619098942454267,-3.3137006865305447,-19.35471707112332,2.014877852182544,-0.1610951218094077,-35.85977411477411,-17.026270604395606,29.43442058286159,36.71869290442388,39.01898942702249,1577397594.999,-27.717824998119195,-51.122001245695095,7.1799235
53808,1577397595.81,0.8197512903725228,1.2963726062309446,10.869646339528153,0.5688856725181022,0.9596660995855564,10.537523853134529,-0.2810559168373666,2.9501820017744853,10.302833695276773,-3.2101142697217986,-2.6345601895960367,-1.612779570788872,0.9404624380716464,1.937494045350609,-1.53350830078125,0.6352866568216463,-0.2530725990853658,-1.398970441120427,-2.745637711696737,-18.989533730158733,2.479849664224667,-0.3221902436188151,-29.939528388278383,-15.204710036057692,29.29065205019917,36.67077006020308,39.21068080390571,1577397594.999,-27.717824998119195,-51.122001245695095,7.1799235
53809,1577397595.82,1.080719271329554,1.6435318469536009,9.975412019459792,1.112369449373571,1.229013786353134,8.591037903427496,-0.429496419767054,0.5440093333174548,8.63048383565763,3.2443535037157014,1.958335318216464,-2.131578398913872,-0.5548988900533536,-0.2139952124618906,-1.33514404296875,-1.9892250619283536,2.1120397056021343,-1.673628644245427,-1.798866086973726,-17.893983707264958,2.63484026823871,-3.060807314378743,-35.52147435897436,-10.752006424565016,29.09896067331596,36.52700152754066,39.0908736933537,1577397594.999,-27.717824998119195,-51.122001245695095,7.1799235
53810,1577397595.83,0.9969222132240853,1.2891900012504758,9.903585969655104,-0.2307776819740853,1.5701875229254,11.081007629989998,1.6678242345298209,2.401909821598704,9.139251688440831,-2.5234687619092986,1.5310892244664631,-1.338121367663872,1.3066733755716462,-0.7480528296493902,-1.74713134765625,-0.0666176400533536,1.120218416539634,-1.704146222370427,-1.9882204119183284,-19.172125400641026,4.029755704365082,-3.382997557997558,-35.85977411477411,-17.026270604395606,29.338574894419985,36.57492437176146,39.01898942702249,1577397594.999,-27.717824998119195,-51.122001245695095,7.1799235
53811,1577397595.84,0.9801628016029916,1.5645231921684446,10.222014790455887,-0.7191948206459603,3.0593809555425877,9.797715540146248,0.9016797032798208,1.221568403141673,7.805681363733802,-0.6924140744092987,1.4090189119664631,-2.040025664538872,2.130647984946646,-2.7316954077743905,-0.64849853515625,-0.9516274056783536,1.639017244664634,-2.4365680973704267,-4.071117986308962,-18.259167048229543,3.2548026842948694,-2.094236583522298,-35.85977411477411,-11.359193280677657,29.09896067331596,36.57492437176146,38.82729805013928,1577397594.999,-27.717824998119195,-51.122001245695095,7.1799235
53812,1577397595.85,0.8269338953529916,1.9452012561332883,8.628673585621902,0.9064681066001332,0.6077184555425867,7.781797742294684,-0.5228702845131478,1.8680028513838605,9.756955716761146,3.2290947146532014,2.355063833841464,-1.551744414538872,-2.111295374428354,4.8976991234756095,-1.65557861328125,-2.050260218178354,1.852640291539634,-3.1689899723704267,-3.3137006865305487,-18.259167048229543,3.2548026842948694,-3.382997557997558,-34.506575091575094,-9.740028331043955,29.31461347230958,36.57492437176146,38.92314373858088,1577397594.999,-27.717824998119195,-51.122001245695095,7.1799235
53813,1577397595.86,0.6473687708412728,0.7481004260551635,9.48460067912776,-0.0931110865151009,2.1100799972906343,10.560268768906012,2.75359468741068,2.3887417124678447,9.721042691858802,-1.8520820431592984,0.2188333650914634,-1.673814727038872,1.1693442740091462,-0.2750303687118907,-1.70135498046875,4.099031774009147,-0.7108362709603658,-1.429488019245427,-2.745637711696738,-19.172125400641026,3.719774496336995,-1.4498560962846678,-34.506575091575094,-9.740028331043955,29.43442058286159,36.57492437176146,38.89918231647049,1577397594.999,-27.717824998119195,-51.122001245695095,7.1799235
53814,1577397595.87,0.4175254114662728,2.067305540801257,8.167789766041825,0.2743988683188834,1.5438513046636817,8.81130445616187,-1.7630667444740853,2.449793854801829,9.512747147425207,5.105925769340701,2.080405630716464,-1.704332305163872,-1.8671547494283536,5.1418397484756095,-1.59454345703125,-0.4633461556783537,0.1436559165396341,-0.6360309879954268,-3.3137006865305447,-18.989533730158733,2.63484026823871,-1.4498560962846678,-34.506575091575094,-9.740028331043955,29.146883517536764,36.57492437176146,39.01898942702249,1577397594.999,-27.717824998119195,-51.122001245695095,7.1799235
53815,1577397595.88,1.1046612879311166,1.7297231067192258,9.503754292409011,1.229685330721227,0.5550460190191492,11.14325687315406,3.403620438143102,1.6573131052901104,9.577390592249428,0.8029472537157013,-1.8563619474085369,-2.131578398913872,1.7644370474466462,3.097162014100609,-2.69317626953125,0.2080405630716463,1.120218416539634,-1.368452862995427,-2.745637711696738,-19.172125400641026,2.4798496642246635,-2.094236583522298,-34.16827533577533,-9.740028331043955,29.09896067331596,36.57492437176146,39.01898942702249,1577397594.999,-27.717824998119195,-51.122001245695095,7.1799235
53816,1577397595.89,0.4474529322182259,2.161876506377429,9.674939711110182,-0.0727603724037728,2.5889203293218843,8.604206012558356,0.3977002538169307,2.720338642399485,9.717451389368568,-0.4330146603467985,-0.9713521817835368,-1.887437773913872,-0.7227455697408538,0.6404969750381095,-1.38092041015625,1.8559897818216464,1.4864293540396345,-0.6970661442454268,-2.556283386752136,-18.989533730158733,2.6348402682387064,0.4027378045235188,-34.92944978632478,-10.448412996508695,29.170844939647168,36.550962949651066,38.995028004912086,1577397594.999,-27.717824998119195,-51.122001245695095,7.1799235
53817,1577397595.9,1.013681624845179,1.8039433581840696,8.491006990162917,0.5186074376548209,0.8231966049566503,12.146427368759529,-1.358446663907679,1.537603022282298,8.49042303853849,3.2443535037157014,4.369223990091464,-1.277086211413872,0.8794272818216463,2.975091701600609,-2.26593017578125,1.6118491568216462,3.6531774009146334,-2.2534626286204267,-3.503055011475155,-18.80694205967644,3.409793288308909,-3.2219024361881505,-35.690624236874235,-16.014292510874544,29.43442058286159,36.57492437176146,38.92314373858088,1577397594.999,-27.717824998119195,-51.122001245695095,7.1799235
53818,1577397595.91,0.6186383509193978,1.751270921660632,9.12786463176448,0.0732859288657584,3.8207370834722743,6.872001111435309,1.198560709139196,1.671678315251048,9.15361689840177,-3.6831367306592986,-1.8258443692835369,-1.948472930163872,3.381868688071646,-4.654302829649391,0.35858154296875,1.5202964224466462,5.392679354039634,-1.490523175495427,-3.503055011475155,-18.44175871871185,4.029755704365082,-0.3221902436188151,-35.35232448107448,-16.823874985691393,29.19480636175757,36.57492437176146,39.16275795968491,1577397594.999,-27.717824998119195,-51.122001245695095,7.1799235
53819,1577397595.92,1.1070554895912728,1.933230247832507,8.718456147877761,0.3653785314048209,1.9053757553472752,6.869606909775152,3.2072959020102894,2.3875446116377668,9.692312271936927,4.800749988090701,2.294028677591464,-1.673814727038872,-4.247525843178353,3.7990663109756095,-4.18853759765625,0.6963218130716463,4.202493807164634,-2.7722614567454267,-3.1243463615859426,-19.90249208257021,4.029755704365082,-0.4832853654282228,-43.640668498168495,-17.026270604395606,29.29065205019917,36.38323299487824,38.97106658280169,1577397594.999,-27.717824998119195,-51.122001245695095,7.1799235
53820,1577397595.93,0.5803311243568978,1.692612980986804,9.666560005299637,0.0254018956626334,1.8539004196539155,11.881868085312265,1.449951883455602,3.663654096501048,9.41578198018888,-0.9212959103467986,-0.4220357755335367,-1.460191680163872,4.129549352134147,-1.3736631812118905,-0.64849853515625,2.176424352134146,1.165994783727134,-2.0703571598704267,-2.840314874169039,-19.263421235882177,3.332297986301896,2.4164268271411125,-34.33742521367521,-16.62147936698718,29.26669062808877,36.52700152754066,38.87522089436008,1577397594.999,-27.717824998119195,-51.122001245695095,7.1799235
53821,1577397595.94,0.7910208704506478,1.8877404162895384,9.977806221119948,0.6694421422446646,2.7648941513433685,6.754685230087652,-0.8436933069740853,0.5894991648604231,9.19910672994474,1.3827812380907014,1.2564310213414631,-1.460191680163872,-6.475309046303353,-0.0766661108993902,-3.63922119140625,-1.3788734994283538,2.6155797446646343,0.6457072932545732,-2.366929061807533,-18.80694205967644,3.099812080280829,2.4164268271411125,-33.15337606837607,-7.311280906593407,29.338574894419985,36.57492437176146,39.01898942702249,1577397594.999,-27.717824998119195,-51.122001245695095,7.1799235
53822,1577397595.95,0.8365107019936165,2.1774388171684445,9.927527986256669,1.3302418004477896,-2.564598744164444,14.052211890243903,-2.900312533048304,-0.0401758717606697,9.749773111780677,-1.4858711056592986,-0.3915181974085365,-1.704332305163872,-2.477506311928354,4.4704530297256095,-0.64849853515625,1.3371909536966462,3.4395543540396343,-1.124312237995427,-1.798866086973726,-18.989533730158733,2.324859060210624,2.4164268271411125,-33.15337606837607,-7.311280906593407,29.09896067331596,36.479078683319855,38.97106658280169,1577397594.999,-27.717824998119195,-51.122001245695095,7.1799235
53823,1577397595.96,0.907139650968226,1.8159143664848507,10.092727900807448,-2.067130355313929,3.5477980942144622,11.90940140440406,2.1011747350181023,0.7954005076338605,9.438526895960363,-0.4940498165967987,-0.5441060880335366,-1.597520781726372,11.255403844321648,-5.630865329649391,-0.52642822265625,3.992220250571646,-2.1146448647103657,-1.124312237995427,-2.366929061807533,-20.2676754235348,2.7898308722527494,2.0942365835222976,-33.15337606837607,-16.216688129578753,29.218767783867968,36.57492437176146,39.1148351154641,1577397594.999,-27.717824998119195,-51.122001245695095,7.1799235
53824,1577397595.97,1.1405743128334602,1.672262266875476,9.47262967082698,2.00061826529154,-0.8108460280999906,10.569845575546635,-0.8843947351967415,0.4626064768721418,8.45211581197599,0.2536308474657013,2.416098990091464,-1.673814727038872,-4.812101038490853,4.6840760766006095,-2.00653076171875,-2.080777796303354,0.8303014243521342,-4.237105206745427,-2.366929061807533,-20.2676754235348,2.7898308722527494,4.349568288854003,-31.461877289377288,-4.072951007326006,29.19480636175757,36.64680863809267,39.04295084913289,1577397594.999,-27.717824998119195,-51.122001245695095,7.1799235
53825,1577397595.98,0.7598962488686165,0.8965409289848509,9.372073201100418,-1.837286995938929,4.656313462866806,8.619768323349371,2.1059631383384145,1.6261884837080791,8.13847539449552,-1.0586250119092986,1.0733255525914631,-0.8803576957888719,12.994905797446648,-9.41504501714939,0.99945068359375,4.144808141196647,-0.9854944740853658,-1.551558331745427,-2.556283386752136,-18.989533730158733,3.874765100351035,4.349568288854003,-34.506575091575094,-15.407105654761905,29.146883517536764,36.57492437176146,39.01898942702249,1577397594.999,-27.717824998119195,-51.122001245695095,7.1799235
53826,1577397595.99,0.9203077600990852,1.3897464709770384,9.429534040944167,3.2743335484946643,3.373021373023056,9.706735877060307,-0.1757110437904915,-0.5333814137528581,9.354729837854896,-1.4248359494092986,-2.4056783536585367,-2.009508086413872,-4.369596155678353,2.669915920350609,-2.75421142578125,-0.6159340463033537,0.4488316977896341,-1.185347394245427,-2.556283386752136,-18.259167048229543,2.9448214762667897,4.993948776091632,-34.506575091575094,-4.072951007326006,29.29065205019917,36.52700152754066,38.82729805013928,1577397594.999,-27.717824998119195,-51.122001245695095,7.1799235
53827,1577397596.0,0.6533542749916634,1.3502421435844605,9.747962861744949,1.210531717439977,-4.417710829125381,13.51830492002906,-1.5523769983803353,0.6996324412276106,9.912578824671302,-1.1044013790967986,0.3103860994664634,-1.475450469226372,-6.078580530678353,7.1559999047256095,-1.89971923828125,-0.7990395150533537,-1.046529630335366,-2.1619098942454267,-3.1243463615859426,-17.34620869581807,3.099812080280829,4.993948776091632,-34.506575091575094,-4.072951007326006,29.218767783867968,36.67077006020308,39.21068080390571,1577397595.999,-27.717769027710084,-51.12194743325311,8.1431875
53828,1577397596.01,0.5539949060951791,1.5669173938286007,10.368061091725416,-0.3492906641518197,4.887353923071885,9.248246259140387,0.5892363866294301,0.4338760569502668,8.968066269739662,1.1386406130907014,0.3103860994664634,-1.734849883288872,2.4968589224466475,-3.097906345274391,-0.72479248046875,-2.2638832650533534,-0.726095060022866,-1.353194073932927,-3.1243463615859426,-17.34620869581807,3.099812080280829,-0.6443804872376302,-32.30762667887667,-16.62147936698718,29.29065205019917,36.57492437176146,39.01898942702249,1577397595.999,-27.717769027710084,-51.12194743325311,8.1431875
53829,1577397596.02,0.9107309534584602,1.5740999988090696,9.642617988698074,2.388478934236852,-3.7401517593011615,11.25099594786109,-0.4989282679115853,1.2574814280440167,9.100944461878331,-0.6924140744092987,0.1577982088414634,-1.399156523913872,-8.489469202553353,13.77831435785061,-2.38800048828125,-0.8295570931783537,-1.351705411585366,-1.734663800495427,-3.1243463615859426,-19.172125400641026,3.719774496336995,-3.382997557997558,-30.108678266178263,-16.62147936698718,29.43442058286159,36.67077006020308,39.30652649234732,1577397595.999,-27.717769027710084,-51.12194743325311,8.1431875
53830,1577397596.03,0.9897396082436164,1.6195898303520384,9.95147000285823,-1.3177452356850228,0.4066055160894617,12.706670557236093,1.2225027257407584,2.363602595036204,9.761744120081458,-0.2651679806592987,0.3714212557164634,-1.429674102038872,13.147493688071648,-10.94092392339939,-0.86212158203125,-0.2192055306783537,-1.138082364710366,-1.917769269245427,-3.881763661364359,-18.44175871871185,4.029755704365082,-3.060807314378743,-35.85977411477411,-8.930445856227106,29.146883517536764,36.67077006020308,39.01898942702249,1577397595.999,-27.717769027710084,-51.12194743325311,8.1431875
53831,1577397596.04,0.6880701990639291,1.319117522002429,10.43629583903987,0.9543521398032584,3.0282563339605564,6.9546010687107,0.3558017247641963,1.3149422678877667,9.53788626485685,-2.0351875119092986,-1.9326558927210364,-2.009508086413872,-8.474210413490853,4.0889833031631095,-1.77764892578125,-1.7298256478658538,-3.3658655678353657,-1.063277081745427,-2.8403148741690387,-19.99378791781136,3.642279194329972,-3.060807314378743,-35.35232448107448,-10.549610805860803,29.24272920597837,36.52700152754066,39.1148351154641,1577397595.999,-27.717769027710084,-51.12194743325311,8.1431875
53832,1577397596.05,1.1070554895912728,2.0409693225395382,9.685713618580886,-0.898759945157679,-1.1161067397699125,11.550271155380624,-1.3153510340248664,0.7163918528487043,8.56703749166349,-0.9975898556592988,0.6765970369664634,-1.643297148913872,8.936067906821647,-1.4499571265243902,-0.64849853515625,0.0554526724466463,0.7845250571646342,-2.7112263004954267,-2.93499203664134,-20.450267094017097,3.874765100351035,-0.8054756090470375,-40.25767094017094,-3.668159769917581,29.338574894419985,36.57492437176146,38.92314373858088,1577397595.999,-27.717769027710084,-51.12194743325311,8.1431875
53833,1577397596.06,0.7934150721108041,1.2508827746879758,9.558820930592605,0.3414365148032584,7.474288816870713,5.847282800888434,2.168212381502477,0.3740210154463605,9.560631180628334,-1.0586250119092986,0.3103860994664634,-1.612779570788872,3.961702672446646,-6.698980564024391,-1.16729736328125,-0.0971352181783536,-1.107564786585366,-2.6501911442454267,-2.556283386752136,-19.35471707112332,3.2548026842948694,1.9331414617128904,-35.690624236874235,-9.942423949748168,29.19480636175757,36.38323299487824,38.97106658280169,1577397595.999,-27.717769027710084,-51.12194743325311,8.1431875
53834,1577397596.07,1.2028235559975229,1.8614041980278195,9.13983564006526,0.4372045812095084,1.7736946640386817,9.172828906845464,1.0932158360923208,2.344448981754954,10.29804529195646,-0.3567207150342987,-0.3915181974085365,-2.040025664538872,-7.543424280678353,2.639398342225609,-2.96783447265625,-3.362516077553354,-0.8939417397103658,-2.1313923161204267,-3.1243463615859426,-18.80694205967644,4.029755704365082,3.22190243618815,-32.984226190476186,-15.204710036057692,29.19480636175757,36.52700152754066,39.01898942702249,1577397595.999,-27.717769027710084,-51.12194743325311,8.1431875
53835,1577397596.08,0.6892672998940071,1.7464825183403196,8.736412660328932,0.1642655919516959,0.3395678696050876,13.034676184677496,0.5617030675376332,1.893141968815501,9.88863680806974,1.5658867068407014,3.362143911966464,-1.399156523913872,3.870149938071648,3.539666896913109,-1.56402587890625,-0.0361000619283538,-3.3048304115853657,0.1574260432545732,-2.4616062242798344,-17.985279542506106,2.867326174259769,2.5775219489505203,-32.984226190476186,-16.014292510874544,29.266690628088774,36.52700152754066,39.0908736933537,1577397595.999,-27.717769027710084,-51.12194743325311,8.1431875
53836,1577397596.09,0.4271022181068978,1.3466508410942255,10.135823530690262,1.251233145662633,7.005025291480088,7.8943252203220275,1.7420444859946649,0.2662819407393292,7.719490103968178,-1.7910468869092986,-1.5817037442835369,-1.917955352038872,-4.247525843178353,-2.4875547827743905,-2.08282470703125,-3.331998499428354,-5.227437833460366,0.8288127620045732,-2.366929061807533,-17.34620869581807,2.7898308722527494,2.738617070759928,-33.15337606837607,-17.026270604395606,29.29065205019917,36.67077006020308,38.77937520591847,1577397595.999,-27.717769027710084,-51.12194743325311,8.1431875
53837,1577397596.1,0.8269338953529916,2.708951585723132,9.946681599537918,2.496218008943883,-1.5997354751214747,8.265426477646246,1.0022361730063831,3.972506110661204,11.054613016565831,2.5119316287157014,-0.0558248380335365,-1.795885039538872,-12.060025843178352,10.81810927972561,-2.90679931640625,-2.385953577553354,-0.0699671303353658,0.0658733088795732,-3.881763661364359,-18.80694205967644,4.029755704365082,2.5775219489505203,-32.30762667887667,-16.823874985691393,29.43442058286159,36.81453859286549,39.21068080390571,1577397595.999,-27.717769027710084,-51.12194743325311,8.1431875
53838,1577397596.11,0.2966182276283822,2.21215474124071,9.908374372975418,1.9240038121665397,0.1480317367925867,17.902088159775154,1.7540154942954458,3.1153819163252665,10.365082938440834,0.9097587771532014,1.2869485994664636,-1.536485625476372,9.027620641196648,-3.1284239233993905,-1.16729736328125,1.2456382193216462,-0.6192835365853658,-1.276900128620427,-2.272251899335232,-18.71564622443529,3.9522604023580574,-2.094236583522298,-43.97896825396825,-12.168775755494504,29.146883517536764,36.81453859286549,38.92314373858088,1577397595.999,-27.717769027710084,-51.12194743325311,8.1431875
53839,1577397596.12,0.9059425501381476,2.3091199084770384,9.980200422780104,-0.477380452970179,4.41809039768126,9.370350543808357,0.816685544344274,1.336490082829173,9.692312271936927,-2.1267402462842986,-3.3517232755335367,-1.582261992663872,-0.4023109994283533,-0.2292540015243909,-2.25067138671875,0.0249350943216462,-0.4514368568978658,-1.612593487995427,-3.1243463615859426,-17.711392036782662,2.169868456196584,-2.094236583522298,-40.59597069597069,-13.38314946771978,29.338574894419985,36.57492437176146,38.97106658280169,1577397595.999,-27.717769027710084,-51.12194743325311,8.1431875
53840,1577397596.13,0.7575020472084603,2.2756010852348507,8.711273542897292,2.5488904454673205,-1.1903269912347558,13.731388867782966,-1.0184700281654917,3.108199311344798,9.40979647603849,1.7795097537157014,1.1648782869664631,-1.429674102038872,-5.834439905678353,10.39086318597561,-1.68609619140625,1.6728843130716462,-2.1756800209603657,-1.612593487995427,-3.1243463615859426,-17.711392036782662,2.169868456196584,3.060807314378742,-34.506575091575094,-16.216688129578753,29.19480636175757,36.52700152754066,39.1148351154641,1577397595.999,-27.717769027710084,-51.12194743325311,8.1431875
53841,1577397596.14,0.5516007044350228,1.404111680937976,9.841336726491043,-3.125367489102992,2.230987181128525,12.448096777939217,2.170606583162633,3.8504018259932353,9.09615605855802,-2.4319160275342986,-1.5206685880335369,-1.277086211413872,15.192171422446648,-8.56055282964939,1.02996826171875,0.6963218130716463,-1.077047208460366,-1.154829816120427,-3.692409336419757,-18.989533730158733,2.9448214762667897,2.4164268271411125,-35.52147435897436,-17.026270604395606,29.19480636175757,36.38323299487824,38.92314373858088,1577397595.999,-27.717769027710084,-51.12194743325311,8.1431875
53842,1577397596.15,0.7251803247963509,2.476714024687976,10.144203236500807,-0.908336751798304,6.803912352026963,5.703630701279059,2.481852798982945,0.7116034495283918,9.017147403772864,0.8029472537157014,-0.5746236661585368,-1.444932891101372,-0.6159340463033537,-3.5251524390243905,-1.04522705078125,-1.5619789681783538,1.486429354039634,0.4626018245045732,-2.93499203664134,-19.17212540064103,3.564783892322952,1.772046339903483,-33.15337606837607,-7.311280906593407,29.338574894419985,36.38323299487824,39.01898942702249,1577397595.999,-27.717769027710084,-51.12194743325311,8.1431875
53843,1577397596.16,0.8532701136147103,2.7975370471489134,9.252363118092603,-0.5480094019447884,-0.2278579238519434,10.980451160263437,-0.8041889795815071,2.3564199900557354,10.696679868372474,2.0236503787157014,0.8291849275914634,-1.399156523913872,-1.8061195931783531,3.9211366234756095,-1.47247314453125,1.6118491568216462,1.2575475181021345,-1.093794659870427,-3.3137006865305447,-18.259167048229543,3.2548026842948694,1.93314146171289,-32.47677655677656,-11.156797661973442,29.5302662713032,36.50304010543026,39.01898942702249,1577397595.999,-27.717769027710084,-51.12194743325311,8.1431875
53844,1577397596.17,0.5587833094154916,1.1192016833793823,10.095122102467606,-1.7678551477943978,5.221345054663681,7.279015393661871,0.1403235753501334,-0.1694627614091072,9.740196305140053,-1.9436347775342984,-1.2765279630335369,-1.216051055163872,7.166048375571647,-6.668462985899391,0.84686279296875,-0.8600746713033537,0.7234899009146342,-2.1008747379954267,-3.3137006865305447,-18.259167048229543,3.2548026842948694,5.638329263329263,-33.15337606837607,-16.62147936698718,29.338574894419985,36.52700152754066,39.01898942702249,1577397595.999,-27.717769027710084,-51.12194743325311,8.1431875
53845,1577397596.18,0.3864007898842415,2.017027305937976,10.037661262623857,0.4491755895102896,2.6739144882574317,8.009246900009527,-0.3289399500404916,0.225580512516673,8.205513040979897,1.0776054568407014,2.294028677591464,-1.093980742663872,-5.407193811928353,3.7990663109756095,-3.85284423828125,3.564974156821646,0.8760777915396342,-1.460005597370427,-1.9882204119183284,-19.90249208257021,3.099812080280829,4.349568288854003,-33.15337606837607,-10.549610805860803,29.43442058286159,36.38323299487824,39.16275795968491,1577397595.999,-27.717769027710084,-51.12194743325311,8.1431875
53846,1577397596.19,0.6545513758217415,2.372566252471179,9.733597651784011,-0.7371513330971323,0.2449969040289158,14.547811633896249,-0.2116240686928353,1.5232378123213606,9.298466098841224,0.9402763552782014,-0.6661764005335367,-0.8193225395388719,7.364412633384146,-0.1224424780868904,-0.16021728515625,1.5813315786966462,2.0052281821646343,-1.734663800495427,-3.503055011475155,-19.719900412087917,3.4097932883089124,3.5440926798069654,-33.660825702075705,-16.823874985691393,29.338574894419985,36.69473148231347,39.01898942702249,1577397595.999,-27.717769027710084,-51.12194743325311,8.1431875
53847,1577397596.2,0.8173570887123666,1.1048364734184448,9.142229841725417,0.9591405431235708,6.7129326889410255,4.224014075302496,0.7245087804282584,-1.0936246022294207,8.868706900843177,0.6198417849657013,-1.1544576505335369,-1.246568633288872,-2.050260218178354,-2.6706602515243905,-0.55694580078125,0.0554526724466463,2.4629918540396343,-1.795698956745427,-2.93499203664134,-18.989533730158733,4.804708724435287,3.382997557997558,-34.506575091575094,-16.216688129578753,29.19480636175757,36.52700152754066,39.01898942702249,1577397595.999,-27.717769027710084,-51.12194743325311,8.1431875
53848,1577397596.21,1.071142464688929,1.978720079375476,8.411998335377762,2.216096414705602,-2.238987318383193,6.089097168564215,-1.7080001062904917,2.780193683903392,9.318816812952551,4.342986316215701,2.355063833841464,-0.7277698051638719,-8.703092249428353,9.17016006097561,-3.39508056640625,2.069612828696646,1.150735994664634,-1.124312237995427,-3.692409336419757,-19.35471707112332,3.2548026842948694,3.382997557997558,-34.506575091575094,-16.216688129578753,29.338574894419985,36.57492437176146,38.97106658280169,1577397595.999,-27.717769027710084,-51.12194743325311,8.1431875
53849,1577397596.22,0.965797591642054,1.1958161365043822,9.137441438405103,-2.5483648890053354,0.0618404770269617,12.61090249082984,0.3558017247641959,2.083481000797923,9.73540790181974,0.0400078005907013,-2.7718892911585367,-0.8498401176638719,10.034700719321648,-5.630865329649391,-0.25177001953125,0.7268393911966463,2.8902379477896343,-3.1995075504954267,-3.692409336419757,-19.35471707112332,3.2548026842948694,2.255331705331705,-33.660825702075705,-16.823874985691393,29.146883517536764,36.52700152754066,39.01898942702249,1577397595.999,-27.717769027710084,-51.12194743325311,8.1431875
53850,1577397596.23,1.0208642298256478,2.038575120879382,10.11068441325862,0.8645695775473989,3.331122843970322,6.172894226669684,1.0824419286216178,2.192417176335032,9.420570383509192,1.7489921755907014,-0.8797994474085366,-1.551744414538872,-0.1886879525533533,-1.053228610899391,-1.79290771484375,1.3066733755716464,2.539285799352134,-1.978804425495427,-4.07111798630896,-18.98953373015873,1.7048966441544513,-3.382997557997558,-30.44697802197802,-17.026270604395606,29.146883517536764,36.38323299487824,38.85125947224968,1577397595.999,-27.717769027710084,-51.12194743325311,8.1431875
53851,1577397596.24,1.035229439786585,2.1008243640434445,8.203702790944167,1.141099869295446,-1.8678860610589747,13.106502234482184,-0.3289399500404916,1.154530756657298,10.52070604635099,3.4579765505907014,3.9114603182164633,-1.093980742663872,-0.0971352181783536,4.0432069359756095,-1.44195556640625,2.313753453696646,-0.0394495522103658,-3.1689899723704267,-1.4201574370845214,-17.893983707264958,2.63484026823871,-3.382997557997558,-35.52147435897436,-16.62147936698718,29.29065205019917,36.479078683319855,39.1148351154641,1577397595.999,-27.717769027710084,-51.12194743325311,8.1431875
53852,1577397596.25,0.6258209558998665,1.5549463855278196,9.53009051067073,-2.201205648282679,5.221345054663681,8.682017566513434,2.060473306795446,0.9198989939619856,9.24938496480802,0.0400078005907013,0.6460794588414634,-1.429674102038872,12.445589391196648,-5.752935642149391,0.23651123046875,2.252718297446646,-0.8023890053353658,-3.840376691120426,-2.745637711696738,-18.07657537774725,3.099812080280829,-3.382997557997558,-34.506575091575094,-12.168775755494504,29.09896067331596,36.52700152754066,39.21068080390571,1577397595.999,-27.717769027710084,-51.12194743325311,8.1431875
53853,1577397596.26,0.439073226407679,1.2053929431450072,9.609099165455886,1.2655983556235708,4.673072874487899,7.429850098251715,2.0269544835532582,1.5998522654463605,9.883848404749427,-0.6924140744092987,-0.4830709317835365,-1.551744414538872,-6.444791468178353,-1.6635801733993902,-2.29644775390625,1.4287436880716462,-1.992574552210366,-2.9553669254954267,-2.745637711696738,-18.07657537774725,3.099812080280829,-1.2887609744752604,-34.33742521367521,-9.537632712339745,29.19480636175757,36.479078683319855,39.1148351154641,1577397595.999,-27.717769027710084,-51.12194743325311,8.1431875
53854,1577397596.27,0.9430526758705696,1.6375463428032102,9.847322230641431,-0.0883226831947884,-1.6272687942132718,12.251772241806403,-0.0595922632729134,2.139744739811595,10.568590079554117,0.7419120974657014,0.1577982088414632,-1.475450469226372,1.3219321646341484,5.9047792016006095,-0.80108642578125,-0.2039467416158538,-5.227437833460366,-1.749922589557927,-2.745637711696738,-18.44175871871185,2.7898308722527463,3.060807314378742,-33.15337606837607,-10.549610805860803,29.12292209542636,36.479078683319855,39.01898942702249,1577397595.999,-27.717769027710084,-51.12194743325311,8.1431875
53855,1577397596.28,0.6138499475990853,1.0138568103325072,10.770286970631668,0.4491755895102896,7.349790330542588,7.030018421005622,0.3007350865806021,1.3125480662276106,9.744984708460365,-2.0657050900342986,-2.0089498380335367,-1.704332305163872,0.2995932974466463,-6.058111423399391,-0.61798095703125,1.1540854849466462,-5.227437833460366,0.0658733088795732,-4.639180961142765,-18.44175871871185,3.409793288308909,3.060807314378742,-32.138476800976804,-15.407105654761905,29.338574894419985,36.479078683319855,38.92314373858088,1577397595.999,-27.717769027710084,-51.12194743325311,8.1431875
53856,1577397596.29,0.6425803675209603,2.01463310427782,9.953864204518386,1.964705240389196,0.7561589584722752,6.608638928818121,0.4994538243735709,0.3285311839033918,8.705901187952552,1.5048515505907014,2.477134146341464,-1.246568633288872,-11.815885218178352,7.9494569359756095,-3.08990478515625,-2.599576624428354,-2.8775843178353657,1.622269793254573,-4.639180961142765,-17.711392036782662,4.029755704365082,3.705187801616373,-34.506575091575094,-15.407105654761905,29.338574894419985,36.33531015065744,38.92314373858088,1577397595.999,-27.717769027710084,-51.12194743325311,8.1431875
53857,1577397596.3,0.726377425626429,1.692612980986804,9.109908119313308,-0.8748179285561165,-2.042662782250381,13.731388867782966,-0.295421126798304,1.2335394114424545,9.51753555074552,-0.3872382931592985,1.3022073885289631,-1.612779570788872,1.8865073599466464,3.005609279725609,-2.02178955078125,-1.1652504525533538,-1.626363614710366,-0.5139606754954268,-4.260472311253562,-18.25916704822955,3.2548026842948725,2.4164268271411125,-35.1831746031746,-10.549610805860803,29.170844939647168,36.71869290442388,38.68352951747686,1577397595.999,-27.717769027710084,-51.12194743325311,8.1431875
53858,1577397596.31,0.2786617151772103,1.406505882598132,8.799859004323073,-1.912704348233851,4.896930729712509,8.966927564072028,2.463896286531773,0.7175889536787824,8.628089633997474,0.2231132693407013,1.2564310213414631,-1.368638945788872,3.809114781821648,-6.424322360899391,-0.67901611328125,0.6200278677591463,1.3796178306021345,-1.612593487995427,-1.230803112139919,-17.711392036782662,3.409793288308909,2.4164268271411125,-35.1831746031746,-10.549610805860803,29.146883517536764,36.52700152754066,38.92314373858088,1577397595.999,-27.717769027710084,-51.12194743325311,8.1431875
53859,1577397596.32,1.2483133875404917,2.9244297351371946,10.688884114186354,3.6406464024985694,-1.4728427871331935,10.123326965927497,0.8059116368735709,3.2997354441572977,11.19108251119474,0.4672538943407013,-0.4830709317835365,-2.070543242663872,-12.975553186928352,11.48949599847561,-2.44903564453125,-0.1581703744283537,-0.5887659584603658,-2.1008747379954267,-2.1775747368629306,-19.71990041208792,2.9448214762667897,2.4164268271411125,-35.1831746031746,-10.549610805860803,29.19480636175757,36.479078683319855,39.01898942702249,1577397595.999,-27.717769027710084,-51.12194743325311,8.1431875
53860,1577397596.33,0.6330035608803353,1.164691514922351,9.36967899944026,-1.4518205286537726,-0.5414983413324123,13.970809033798592,-0.860452718595179,2.260651923649485,10.120874369104897,-1.2417304806592986,-0.3915181974085365,-1.063463164538872,8.966585484946647,0.0759217797256097,-1.16729736328125,1.2151206411966462,0.4183141196646341,-2.3755329411204267,-2.745637711696738,-18.44175871871185,3.099812080280829,2.4164268271411125,-35.1831746031746,-10.14481956845238,29.146883517536764,36.71869290442388,38.92314373858088,1577397595.999,-27.717769027710084,-51.12194743325311,8.1431875
53861,1577397596.34,0.8341165003334603,1.4124913867485227,10.10469890910823,0.0708917272056021,6.394503868140244,7.223948755478277,1.4523460851157584,1.3795857127119855,8.921379337366615,0.4977714724657013,1.1038431307164636,-1.475450469226372,4.907747594321647,-7.7670957983993905,0.14495849609375,-0.2192055306783537,0.6624547446646342,-1.826216534870427,-2.745637711696738,-18.44175871871185,3.099812080280829,3.060807314378742,-33.829975579975574,-16.62147936698718,29.26669062808877,36.57492437176146,39.01898942702249,1577397595.999,-27.717769027710084,-51.12194743325311,8.1431875
