,timestamp,acc_x_dashboard,acc_y_dashboard,acc_z_dashboard,acc_x_above_suspension,acc_y_above_suspension,acc_z_above_suspension,acc_x_below_suspension,acc_y_below_suspension,acc_z_below_suspension,gyro_x_dashboard,gyro_y_dashboard,gyro_z_dashboard,gyro_x_above_suspension,gyro_y_above_suspension,gyro_z_above_suspension,gyro_x_below_suspension,gyro_y_below_suspension,gyro_z_below_suspension,mag_x_dashboard,mag_y_dashboard,mag_z_dashboard,mag_x_above_suspension,mag_y_above_suspension,mag_z_above_suspension,temp_dashboard,temp_above_suspension,temp_below_suspension,timestamp_gps,latitude,longitude,speed
62443,1577397682.16,0.4282993189369759,-0.9876957775581168,10.524881300465651,0.6119813024009146,-0.4553070815667872,12.458870685409918,-1.133391707852991,0.4027514353682355,14.2305215187631,1.2912285037157012,0.2035745760289635,1.942518280773628,-0.4480873666158537,-1.9687559546493911,2.23541259765625,-5.529264124428353,-20.608297208460364,2.8582317073170733,-1.3254802746122205,-17.620096201541514,1.0074389260912688,1.4498560962846674,-30.95442765567765,-13.38314946771978,28.547847964776714,34.08293647227963,35.52062179890376,1577397681.999,-27.707506667102905,-51.12181815663981,17.532831
62444,1577397682.17,-0.6670479405845083,0.4536136218559448,11.198849067799635,-0.237960286954554,0.1959157699957117,10.832010657333749,-0.0009343225990853,4.64527677716511,10.71942478414396,-2.2488105587842986,0.8597025057164634,2.385023163586128,0.8183921255716463,7.4001405297256095,2.34222412109375,-1.0126625619283538,-26.131978849085368,5.528519793254573,-1.6095117620291235,-18.80694205967644,1.859887248168504,-2.094236583522298,-30.44697802197802,-12.573566992902933,28.475963698445504,33.939167939617214,35.616467487345375,1577397681.999,-27.707506667102905,-51.12181815663981,17.532831
62445,1577397682.18,0.3217573450600228,-0.7817944347846792,11.263492512623856,2.556073050447789,0.1671853500738367,10.463303601669685,1.3182707921470085,-1.6658387990067642,5.823282389124428,-0.6618964962842987,-1.3070455411585369,2.201917694836128,0.2080405630716463,5.0502870141006095,1.27410888671875,-6.749967249428353,-22.073140958460368,7.512162371379573,-1.4201574370845214,-17.528800366300366,1.084934228098292,-3.060807314378743,-28.417179487179485,-10.14481956845238,28.57180938688711,33.891245095396414,35.616467487345375,1577397681.999,-27.707506667102905,-51.12181815663981,17.532831
62446,1577397682.19,-0.7819696202720083,0.7840134509575073,9.594733955494949,0.3007350865806021,0.0738114853277429,8.456962610458746,2.235250027986852,-2.4750789601395766,1.2335978066048956,3.5800468630907014,1.3785013338414631,2.018812226086128,-0.0971352181783536,-4.196539157774391,3.22723388671875,1.9170249380716464,-4.464498380335366,3.5753947932545733,-0.2840314874168997,-18.62435038919414,1.3949154361263716,-3.060807314378743,-28.417179487179485,-10.14481956845238,28.475963698445504,34.22670500494204,35.47269895468296,1577397681.999,-27.707506667102905,-51.12181815663981,17.532831
62447,1577397682.2,0.4941398645912728,-0.4549859081733511,6.508608015553543,0.4168538670981803,0.169579551733994,7.065931445907965,0.1977844151938834,-1.2935404408524676,7.453733719690834,0.2994072146532013,-0.7424703458460368,2.461317108898628,1.1083091177591462,-0.0919248999618902,1.91497802734375,4.541536656821647,18.606790682164632,1.011918230754573,-0.7574172997784093,-18.1678712129884,1.4724107381333915,15.626226815512531,-32.1384768009768,-9.740028331043955,28.61973223110792,34.15482073861084,35.47269895468296,1577397681.999,-27.707506667102905,-51.12181815663981,17.532831
62448,1577397682.21,0.3552761683022103,-0.5064612438667104,9.678531013600418,0.9543521398032584,-0.4648838882074122,10.74103099424781,0.7269029820884146,-0.0928483082841071,11.368253434046302,-0.8755195431592987,-3.7789693692835367,1.042249726086128,1.7644370474466462,-5.325689548399391,3.07464599609375,6.433626500571647,9.634622713414634,-1.887251691120427,-1.0414487871953166,-18.62435038919414,1.7048966441544513,-3.382997557997558,-33.829975579975574,-16.62147936698718,28.57180938688711,34.08293647227963,35.52062179890376,1577397681.999,-27.707506667102905,-51.12181815663981,17.532831
62449,1577397682.22,-0.1786308019126334,-0.2454932629096792,11.534037300221511,-1.7008175013100226,0.8255908066168065,10.906230908798593,1.1027926427329455,3.256639814274485,12.232560233362708,-1.7605293087842986,-1.8868795255335369,1.500013397961128,-0.8295570931783537,2.120599514100609,1.91497802734375,-4.674771936928353,5.758890291539634,0.4626018245045732,-0.473385812361502,-16.981025354853482,0.3099812080280861,5.7994243851386695,-35.35232448107448,-13.180753849015568,28.76350076377033,34.03501362805883,35.76023602000779,1577397681.999,-27.707506667102905,-51.12181815663981,17.532831
62450,1577397682.23,-0.2289090367759146,-0.5244177563178823,12.704801912037915,1.4762881017173208,-1.8966164809808497,12.239801233505622,-0.7120122156654916,-3.4902204640458265,12.744919388636148,0.3757011599657013,2.934897818216464,2.781751679211128,-0.1276527963033537,2.547845607850609,3.80706787109375,-0.1886879525533537,3.5005895102896343,1.072953387004573,-1.230803112139919,-17.711392036782662,1.2399248321123315,5.7994243851386695,-35.35232448107448,-13.180753849015568,28.475963698445504,34.08293647227963,35.32893042202055,1577397681.999,-27.707506667102905,-51.12181815663981,17.532831
62451,1577397682.24,-0.2576394566977896,-0.6979973766792105,10.396791511647292,-0.9023512476479134,-0.486431703148819,11.036714899277106,1.4080533544028675,1.5771073496748762,11.805195237024815,2.3288261599657014,3.9419778963414633,2.659681366711128,-0.3565346322408537,-0.9158995093368902,2.61688232421875,1.8559897818216464,1.9594518149771345,2.2783977229420733,-1.0414487871953166,-18.62435038919414,2.014877852182544,0.8860231699517414,-35.77519917582417,-16.925072795043498,28.57180938688711,34.01105220594842,35.472698954682954,1577397681.999,-27.707506667102905,-51.12181815663981,17.532831
62452,1577397682.25,-0.1091989537681021,1.040193028594226,10.171736555592606,0.2552452550376334,0.3132316513433679,8.444991602157964,-0.0105111292397093,-1.8310387135575457,8.610133121546303,1.4743339724657014,-3.8705221036585367,1.866224335461128,-0.9821449838033536,7.4611756859756095,0.87738037109375,-2.599576624428354,-2.8165491615853657,3.0871135432545733,-0.8520944622507067,-18.07657537774725,-0.929943624084252,-3.060807314378743,-35.85977411477411,-16.216688129578753,28.57180938688711,34.08293647227963,35.616467487345375,1577397681.999,-27.707506667102905,-51.12181815663981,17.532831
62453,1577397682.26,0.2690849085365853,0.829503282500476,8.819012617604324,0.8729492833579459,0.0378984604253992,5.674900281357184,0.5425494542563833,1.882368061344798,6.357189359339271,2.9391777224657014,-1.4901510099085369,2.201917694836128,2.039095250571646,-1.0837461890243902,3.53240966796875,5.487581578696647,5.667337557164634,4.826615496379573,-2.93499203664134,-17.893983707264958,2.324859060210624,-2.5775219489505203,-35.1831746031746,-14.19273194253663,28.428040854224697,34.03501362805883,35.52062179890376,1577397681.999,-27.707506667102905,-51.12181815663981,17.532831
62454,1577397682.27,1.071142464688929,-1.1217710705268666,5.713733064381668,2.6278991002524767,-0.3810868301019435,5.660535071396247,-0.2858443201576791,-1.8861053517411392,5.976511295374428,-0.1736152462842985,1.1801370760289636,2.644422577648628,-0.9211098275533536,1.1135194359756098,1.21307373046875,4.755159703696647,11.404642244664634,4.643510027629573,-2.366929061807533,-18.80694205967644,1.2399248321123315,-2.5775219489505203,-35.35232448107448,-15.609501273466115,28.4520022763351,34.27462784916285,35.52062179890376,1577397681.999,-27.707506667102905,-51.12181815663981,17.532831
62455,1577397682.28,-0.1858134068931021,-0.7363046032417104,10.78225797893245,-0.0380444483315072,-0.026744984398819,10.603364398788823,0.462343698641149,0.4805629893233137,10.429726383265052,-4.262970715034299,0.3409036775914634,1.072767304211128,-0.7380043588033536,2.151117092225609,2.60162353515625,-0.1123940072408538,-0.9244593178353658,0.1116496760670732,0.0946771624722973,-17.16361702533578,1.3949154361263716,2.4164268271411125,-30.44697802197802,-42.73051417983059,28.61973223110792,34.17878216072124,35.56854464312457,1577397681.999,-27.707506667102905,-51.12181815663981,17.532831
62456,1577397682.29,-0.6718363439048208,0.494315050078601,12.53002519084651,-0.6880701990639291,-0.2661651504144435,10.851164270614998,-0.5180818811928353,-1.902864763362233,11.545424356897865,1.2607109255907014,4.857505240091464,2.751234101086128,-2.508023890053354,6.7287538109756095,2.76947021484375,0.0554526724466463,2.9512731040396343,1.164506121379573,-1.230803112139919,-18.44175871871185,1.859887248168504,-2.738617070759928,-29.093778998779,-68.02996651785715,28.475963698445504,34.17878216072124,35.616467487345375,1577397681.999,-27.707506667102905,-51.12181815663981,17.532831
62457,1577397682.3,-0.8274594518149772,0.2908079089653198,14.06949685832698,0.1953902135337271,-1.3028544692620996,12.00516947081031,0.0900453404868521,0.3476847971846418,10.745761002405676,-1.0281074337842986,0.7071146150914634,2.049329804211128,0.2690757193216463,0.6557557641006098,2.89154052734375,-0.8905922494283537,3.0123082602896343,-1.429488019245427,-1.4201574370845214,-17.16361702533578,1.084934228098292,-2.738617070759928,-29.093778998779,-68.02996651785715,28.428040854224697,34.17878216072124,35.424776110462155,1577397681.999,-27.707506667102905,-51.12181815663981,17.532831
62458,1577397682.31,-0.2265148351157588,-0.2658439770210078,10.923515876881668,-0.3588674707924447,0.0857824936285247,12.118894049667732,1.526566336580602,-0.0294019642899675,10.816389951380286,0.0247490115282014,2.889121451028964,2.797010468273628,-1.1499916634908538,4.1805360375381095,2.87628173828125,2.344271031821646,-0.9244593178353656,3.4228069026295733,-3.1243463615859426,-18.80694205967644,1.5499060401404114,1.7720463399034827,-31.800177045177044,-42.9329097985348,28.428040854224697,34.130859316500434,35.44873753257256,1577397681.999,-27.707506667102905,-51.12181815663981,17.532831
62459,1577397682.32,-0.4419929845298209,1.088077061797351,11.227579487721512,0.1882076085532584,-1.008367665062881,10.484851416611091,0.8035174352134146,-0.914059477717702,10.803221842249426,0.1315605349657013,-2.1920553067835367,2.476575897961128,0.8794272818216463,-0.3818418921493902,2.37274169921875,-0.4633461556783537,-9.927144864710366,1.988480730754573,-1.0414487871953166,-16.068067002442003,1.7048966441544513,4.349568288854003,-29.43207875457876,-15.81189689217033,28.475963698445504,34.27462784916285,35.616467487345375,1577397681.999,-27.707506667102905,-51.12181815663981,17.532831
62460,1577397682.33,-0.1834192052329459,-0.3005599010932729,10.399185713307448,-0.266690706876429,-1.0035792617425685,9.93657923643531,2.012589273592321,2.2941707468916728,8.416202787073646,0.3757011599657013,-1.3985982755335369,2.995374726086128,-1.1347328744283538,-2.1518614233993905,2.61688232421875,3.229280797446646,5.087503572789634,4.063676043254573,-1.798866086973726,-17.528800366300366,0.464971812042126,4.832853654282226,-35.01402472527472,-16.823874985691393,28.428040854224697,34.03501362805883,35.66439033156618,1577397681.999,-27.707506667102905,-51.12181815663981,17.532831
62461,1577397682.34,0.3337283533608041,-1.478507117890148,8.36172010051448,1.3230591954673208,0.1145129135503992,8.310916309189215,0.5114248326743521,-1.3043143483231705,7.396272879847084,-0.6618964962842987,2.751792349466464,2.812269257336128,1.0930503286966462,1.1135194359756098,1.27410888671875,1.0014975943216462,5.667337557164634,5.162308855754573,-0.8520944622507067,-17.34620869581807,0.9299436240842456,0.6443804872376299,-41.103420329670335,-15.204710036057692,28.66765507532872,34.08293647227963,35.616467487345375,1577397681.999,-27.707506667102905,-51.12181815663981,17.532831
62462,1577397682.35,1.540405990079554,-1.316898505829601,6.6139528886004175,2.6099425878013047,-0.6276896010980372,6.453015820907965,-0.8401020044838504,-0.8805406544755138,7.47528153463224,2.5119316287157014,-1.3223043302210369,2.766492890148628,-0.0971352181783536,4.1347596703506095,2.93731689453125,0.6352866568216462,5.758890291539634,2.9803020198170733,-0.6627401373061044,-17.893983707264958,1.7048966441544513,-1.4498560962846678,-36.7055235042735,-17.026270604395606,28.57180938688711,34.01105220594842,35.28100757779974,1577397681.999,-27.707506667102905,-51.12181815663981,17.532831
62463,1577397682.36,-0.3294655065024771,0.6355729480278197,9.252363118092603,0.1187757604087271,0.2414056015386804,9.13212747862281,-0.9035483484779916,-2.3386094655106704,9.426555887659584,4.098845691215701,-1.5511861661585369,1.438978241711128,-2.996305140053354,-1.3889219702743902,3.10516357421875,3.046175328696646,5.911478182164634,1.286576433879573,-0.6627401373061044,-17.893983707264958,1.7048966441544513,-3.060807314378743,-34.84487484737485,-15.407105654761905,28.475963698445504,34.22670500494204,35.52062179890376,1577397681.999,-27.707506667102905,-51.12181815663981,17.532831
62464,1577397682.37,-0.4132625646079459,1.598042015410632,10.35369588176448,-0.4941398645912728,0.5670170273199304,13.171145679306404,0.8944970982993521,1.4849305857588604,10.875047892054114,-4.964875011909299,-1.8868795255335369,2.171400116711128,-0.7074867806783537,-0.3513243140243902,2.25067138671875,-0.0361000619283536,7.956155916539634,-1.185347394245427,-0.6627401373061044,-17.893983707264958,1.7048966441544513,6.927090237804523,-29.093778998779,-10.549610805860803,28.428040854224697,34.17878216072124,35.32893042202055,1577397681.999,-27.707506667102905,-51.12181815663981,17.532831
62465,1577397682.38,-0.4922712193931021,-0.4190728832710073,11.044423060719556,-1.1621221277748666,-0.2589825454339747,12.122485352157966,-0.7287716272865853,0.8528613474776106,11.772873514612709,-3.5152900509717986,4.704917349466464,3.346326874523628,0.6047690786966463,2.090081935975609,2.64739990234375,5.518099156821647,4.629739900914634,0.6762248713795732,-1.5148345995568189,-17.07232119009463,1.1624295301053118,-3.382997557997558,-29.093778998779,-68.839548992674,28.57180938688711,34.08293647227963,36.095695929553415,1577397681.999,-27.707506667102905,-51.12181815663981,17.532831
62466,1577397682.39,-0.1882076085532584,0.1998282458793822,11.469393855397293,0.8382333592856802,-0.9377387160882716,9.774970624374763,1.1566621800864614,0.0699574046065168,10.8977928078256,5.136443347465701,2.232993521341464,2.018812226086128,1.0472739615091462,-4.501714939024391,3.27301025390625,2.374788609946646,3.0123082602896343,1.607011004192073,-0.8520944622507067,-16.981025354853482,1.2399248321123315,-3.2219024361881505,-29.77037851037851,-65.19642785599817,28.57180938688711,34.130859316500434,35.424776110462155,1577397681.999,-27.707506667102905,-51.12181815663981,17.532831
62467,1577397682.4,0.2307776819740853,-0.290983094452648,9.915556977955886,-1.1094496912514291,0.0259274521246179,11.387465442489995,0.9615347447837272,0.2806471507002668,11.296427384241614,-1.8215644650342984,-4.328285775533536,2.232435272961128,-1.5619789681783538,0.6557557641006098,2.58636474609375,-0.8600746713033537,3.5616246665396343,3.0565959651295733,-0.8520944622507067,-16.981025354853482,1.2399248321123315,-3.382997557997558,-25.03418192918193,-62.36288919413919,28.61973223110792,34.08293647227963,35.424776110462155,1577397681.999,-27.707506667102905,-51.12181815663981,17.532831
62468,1577397682.41,0.0368473475014281,0.7121874011528198,9.685713618580886,0.0493439122641959,0.1001477035894617,7.410696484970465,-0.9538265833412728,-1.4407838429520767,8.119321781214271,2.5729667849657014,2.812827505716464,3.025892304211128,0.5132163443216463,0.7778260766006098,2.76947021484375,-0.7380043588033537,1.761087557164634,4.185746355754573,-0.473385812361502,-15.885475331959707,0.9299436240842456,-0.8054756090470375,-30.44697802197802,-62.36288919413919,28.475963698445504,34.22670500494204,35.76023602000779,1577397681.999,-27.707506667102905,-51.12181815663981,17.532831
62469,1577397682.42,0.8484817102943978,-0.9948783825385854,7.297497462575027,0.9088623082602896,-1.6691673232660058,5.706024902939215,0.7197203771079459,-1.2564303151200455,7.492040946253334,-0.4940498165967987,2.034629263528964,2.537611054211128,-0.9821449838033536,0.9914491234756098,2.76947021484375,0.8489097036966463,1.974710604039634,1.835892840129573,-0.6627401373061044,-17.528800366300366,0.154990604014043,3.060807314378742,-32.47677655677656,-16.216688129578753,28.475963698445504,33.939167939617214,35.52062179890376,1577397681.999,-27.707506667102905,-51.12181815663981,17.532831
62470,1577397682.43,0.6090615442787728,0.465584630156726,8.01695506145198,0.4647379003013057,-0.0482927993402252,7.73271660826148,-0.2439457911049442,-1.625137370784108,8.31804051900724,0.8639824099657013,-2.6193014005335367,1.622083710461128,0.5437339224466462,-5.752935642149391,2.61688232421875,0.1012290396341463,6.827005525914634,2.2478801448170733,0.662740137306112,-17.34620869581807,0.3099812080280861,-0.3221902436188153,-33.82997557997558,-15.20471003605769,28.38011801000389,33.98709078383802,35.424776110462155,1577397681.999,-27.707506667102905,-51.12181815663981,17.532831
62471,1577397682.44,0.2978153284584603,0.599659923125476,9.925133784596513,0.0517381139243521,0.2030983749761804,10.08980814268531,0.5329726476157584,0.2782529490401105,9.03869521871427,0.9555351443407012,-2.6193014005335367,1.194837616711128,-2.050260218178354,7.6442811547256095,2.00653076171875,0.8794272818216463,2.6766149009146343,0.1574260432545732,0.662740137306112,-17.34620869581807,0.3099812080280861,-3.382997557997558,-35.85977411477411,-15.81189689217033,28.61973223110792,34.03501362805883,35.52062179890376,1577397681.999,-27.707506667102905,-51.12181815663981,17.532831
62472,1577397682.45,-0.1858134068931021,0.3458745471489135,10.241168403737136,-0.6042731409584603,-0.2206753188714747,8.969321765732184,0.0301902989829459,1.0946757151533917,11.001940580042396,-2.9201972775342986,3.240073599466464,2.049329804211128,-2.782682093178354,2.212152248475609,2.37274169921875,-2.630094202553354,6.613382479039634,1.011918230754573,-1.4201574370845214,-17.893983707264958,1.084934228098292,-3.060807314378743,-35.85977411477411,-16.216688129578753,28.475963698445504,34.17878216072124,35.616467487345375,1577397681.999,-27.707506667102905,-51.12181815663981,17.532831
62473,1577397682.46,-0.5916305882895865,-0.1868353222358516,10.274687226979324,-0.2595081018959603,-0.6767707351312403,11.186352503036872,-0.5312499903236947,-0.3813496083329362,10.937297135218175,-3.1033027462842986,3.255332388528964,2.308729218273628,-2.706388147865854,-1.8466856421493905,2.46429443359375,-3.637174280678354,4.919656893102134,2.0647746760670733,-1.7041889245014248,-17.985279542506106,1.4724107381333913,-3.060807314378743,-30.108678266178263,-15.407105654761905,28.499925120555904,33.98709078383802,35.49666037679336,1577397681.999,-27.707506667102905,-51.12181815663981,17.532831
62474,1577397682.47,-0.3438307164634146,-0.2143686413276479,10.255533613698072,0.1307467687095083,0.1384549301519617,10.348381921982185,1.1674360875571643,-1.1774216603348893,9.239808158167396,-0.9060371212842988,-0.9713521817835366,1.744154022961128,-3.240445765053354,-0.2597715796493902,1.88446044921875,0.2690757193216463,6.582864900914634,2.4462444026295733,-0.6627401373061044,-17.893983707264958,0.464971812042126,-3.382997557997558,-34.506575091575094,-13.787940705128204,28.66765507532872,34.27462784916285,35.52062179890376,1577397681.999,-27.707506667102905,-51.12181815663981,17.532831
62475,1577397682.48,0.1828936487709603,0.7768308459770384,10.013719246022292,-0.0847313807045531,0.4281533310308679,8.490481433700934,2.42199775747904,-1.0816535939286394,7.95412186666349,-1.9131171994092984,-2.1615377286585367,1.652601288586128,-4.094937952553353,4.1957948266006095,2.12860107421875,-0.6464516244283537,10.550150057164634,1.957963152629573,-0.6627401373061044,-17.893983707264958,0.464971812042126,7.08818535961393,-30.277828144078143,-60.54132862580128,28.428040854224697,34.08293647227963,35.52062179890376,1577397681.999,-27.707506667102905,-51.12181815663981,17.532831
62476,1577397682.49,0.8149628870522103,0.4248832019340697,9.685713618580886,0.2217264317954459,0.3946345077886805,7.410696484970465,0.7963348302329458,0.3045891673018293,6.768992044886146,-1.9436347775342984,-0.1778951505335365,2.262952851086128,-2.508023890053354,1.906976467225609,2.43377685546875,2.496858922446646,10.153421541539634,1.927445574504573,-0.473385812361502,-17.711392036782662,1.5499060401404114,-1.9331414617128904,-29.939528388278383,-66.20840594951923,28.57180938688711,34.03501362805883,35.47269895468296,1577397681.999,-27.707506667102905,-51.12181815663981,17.532831
62477,1577397682.5,0.9586149866615852,-0.3580207409370229,7.651839308278152,1.150676675936071,-0.2230695205316314,7.176064722275153,0.0684975255454464,-1.441980943782155,8.393457871302163,-1.5926826290967986,3.194297232278964,1.942518280773628,-4.339078577553353,3.387079006288109,2.32696533203125,-1.6077553353658538,6.292947908727134,0.0506145198170732,-1.6095117620291235,-17.711392036782662,2.1698684561965806,-0.6443804872376302,-27.571430097680093,-60.743724244505486,28.52388654266631,34.22670500494204,35.784197442118185,1577397681.999,-27.707506667102905,-51.12181815663981,17.532831
62478,1577397682.51,-0.0661033238852896,-0.674055360077648,8.665783711354324,0.6838073522056022,-0.0195623794183497,8.375559754013434,0.0445555089438834,-0.5238046071122331,7.554290189417396,-6.795929699409299,2.477134146341464,2.537611054211128,-2.233365686928354,-1.4194395483993902,1.60980224609375,-2.782682093178354,0.9371129477896342,0.8288127620045732,-0.0946771624722973,-15.155108650030527,1.859887248168504,2.0942365835222976,-27.740579975579973,-60.743724244505486,28.61973223110792,34.17878216072124,34.8497019798125,1577397681.999,-27.707506667102905,-51.12181815663981,17.532831
62479,1577397682.52,0.5204760828529915,-0.1186005749213979,8.97463572551448,-0.9346729700600228,0.3611156845464929,9.287750586532963,0.1115931554282584,-0.2532598195145759,7.738643717249428,-2.2182929806592986,1.2259134432164631,1.744154022961128,-1.6230141244283538,-2.3960020483993905,2.86102294921875,0.3301108755716463,11.313089510289634,1.378129168254573,-0.0946771624722973,-15.155108650030527,1.859887248168504,2.0942365835222976,-27.740579975579973,-60.743724244505486,28.475963698445504,33.939167939617214,35.424776110462155,1577397681.999,-27.707506667102905,-51.12181815663981,17.532831
62480,1577397682.53,-0.1271554662192745,-0.1233889782417109,10.044843867604325,1.440375076814977,-0.6755736343011622,10.310074695419685,0.3127060948813834,-0.3035380543778572,10.37465974508146,-3.4237373165967986,-0.1778951505335364,1.454237030773628,0.2995932974466463,-3.5861875952743905,0.96893310546875,-3.942350061928354,6.064066072789634,0.9203654963795732,0.3787086498892085,-17.254912860576923,1.007438926091272,4.6717585324728175,-30.44697802197802,-16.216688129578753,28.547847964776707,33.939167939617214,35.616467487345375,1577397681.999,-27.707506667102905,-51.12181815663981,17.532831
62481,1577397682.54,-0.3941089513266959,-0.1114179699409292,11.06237957317073,-0.4701978479897103,-0.055475404320694,11.125300360702887,-0.2846472193276009,0.6026672739912824,11.559789566858802,-4.598664074409299,4.582847036966464,1.957777069836128,-5.300382288490853,0.3963563500381097,2.37274169921875,-1.8518959603658536,1.5779820884146345,2.1105510432545733,-0.6627401373061044,-17.16361702533578,1.084934228098292,-4.440892098500626e-16,-39.07362179487179,-16.419083748282965,28.38011801000389,34.10689789439003,35.37685326624135,1577397681.999,-27.707506667102905,-51.12181815663981,17.532831
62482,1577397682.55,-0.5401552525962271,-0.4370293957221792,11.229973689381668,0.1331409703696646,-1.1999037978753808,9.73307209532203,-0.0368473475014281,-0.0473584767411384,10.803221842249426,-4.995392590034299,0.1577982088414634,1.591566132336128,-1.6535317025533538,4.4704530297256095,1.27410888671875,-1.6840492806783538,0.3572789634146341,3.758500262004573,-1.798866086973726,-17.16361702533578,1.084934228098292,-3.060807314378743,-42.96406898656898,-16.216688129578753,28.428040854224697,34.08293647227963,35.424776110462155,1577397681.999,-27.707506667102905,-51.12181815663981,17.532831
62483,1577397682.56,0.1948646570717415,-0.7674292248237418,9.6521947953387,1.390096841951696,-0.8192257339105372,9.596602600693124,-0.6473687708412728,-0.1790395680497322,11.602885196741614,-0.3567207150342987,1.1953958650914631,1.530530976086128,-5.742887171303353,2.395257717225609,2.22015380859375,-4.155973108803353,-6.295553067835366,3.1786662776295733,-1.798866086973726,-17.16361702533578,1.084934228098292,-3.060807314378743,-31.80017704517704,-17.026270604395606,28.57180938688711,33.891245095396414,35.47269895468296,1577397681.999,-27.707506667102905,-51.12181815663981,17.532831
62484,1577397682.57,0.2319747828041629,0.1770833301078979,9.155397950856276,-0.7239832239662728,1.2206340805425877,10.38908335020484,-1.2171887659584602,-1.567676530940358,9.117703873499428,-0.9212959103467986,2.721274771341464,1.789930390148628,-6.292203577553353,4.8671815453506095,1.82342529296875,-3.087857874428354,-5.288472989710366,2.5683147151295733,-1.798866086973726,-16.798433684371187,1.2399248321123315,-2.094236583522298,-30.108678266178263,-16.62147936698718,28.57180938688711,34.08293647227963,35.424776110462155,1577397681.999,-27.707506667102905,-51.12181815663981,17.532831
62485,1577397682.58,0.1086733973061156,-0.2119744396674917,8.122299934498855,0.5940247899497427,-0.165608680687881,9.063892731308355,0.6814131505454458,-0.2748076344559826,8.015174008997475,-3.0422675900342986,2.355063833841464,2.262952851086128,-1.3788734994283536,1.6475770531631095,1.74713134765625,-1.0126625619283538,-3.5184534584603657,2.3089153010670733,0.0946771624722973,-17.893983707264958,0.7749530200702057,1.7720463399034827,-29.770378510378507,-42.52811856112638,28.428040854224697,34.15482073861084,35.49666037679336,1577397681.999,-27.707506667102905,-51.12181815663981,17.532831
62486,1577397682.59,0.0799429773842406,0.274048497344226,8.50776640178401,0.5497320592368521,-1.0706169082269434,7.654905054306402,-0.410342806485804,-0.6099958668778581,9.699494876917395,-2.0657050900342986,0.8291849275914634,1.438978241711128,-3.454068811928354,-0.3818418921493902,2.73895263671875,-1.8061195931783536,0.9676305259146342,0.0658733088795732,-1.230803112139919,-18.07657537774725,1.5499060401404114,-2.899712192569336,-24.86503205128205,-68.63715337396978,28.66765507532872,33.891245095396414,35.76023602000779,1577397681.999,-27.707506667102905,-51.12181815663981,17.532831
62487,1577397682.6,-0.0014598790610709,-0.7267277966010854,8.613111274830887,-0.0799429773842406,-0.2470115371331935,10.659628137802498,-0.3193631433998665,0.7570932810713605,9.361912442835363,-4.232453136909299,-0.3610006192835365,1.530530976086128,-2.660611780678354,0.0148866234756097,0.84686279296875,-3.331998499428354,2.7681676352896343,0.2489787776295732,-1.230803112139919,-18.07657537774725,1.5499060401404114,-2.899712192569336,-24.86503205128205,-62.16049357543498,28.38011801000389,33.939167939617214,35.424776110462155,1577397681.999,-27.707506667102905,-51.12181815663981,17.532831
62488,1577397682.61,-0.5952218907798209,-0.4525917065131948,10.307008949391433,-0.3373196558510384,-0.8335909438714747,11.192338007187264,0.4874828160727896,-0.177842467219655,10.44409159322599,-2.8133857540967986,1.4700540682164636,1.850965546398628,-3.072599085365854,1.403436428163109,1.79290771484375,-0.1276527963033537,-1.1380823647103655,2.7209026057545733,-1.3254802746122205,-17.43750453105922,1.6274013421474314,-2.255331705331705,-29.60122863247863,-61.553306719322336,28.4520022763351,33.98709078383802,35.376853266241355,1577397681.999,-27.707506667102905,-51.12181815663981,17.532831
62489,1577397682.62,-0.3534075231040396,-0.836861072968273,10.339330671803545,-0.2451428919350228,-0.6133243911370997,10.743425195907966,-0.4534384363686166,0.7379396677901106,10.084961344202553,-2.1877754025342986,0.1883157869664634,1.957777069836128,-1.5009438119283538,0.4116151391006097,2.49481201171875,-3.301480921303354,1.028665682164634,2.7209026057545733,-0.8520944622507067,-18.07657537774725,0.9299436240842456,-1.772046339903483,-29.093778998779,-64.79163661858975,28.66765507532872,34.08293647227963,35.28100757779974,1577397681.999,-27.707506667102905,-51.12181815663981,17.532831
62490,1577397682.63,0.3002095301186165,-0.607017713593273,10.157371345631669,0.8346420567954459,-0.405028846703506,11.253390149521246,1.2799635655845083,1.132982941715892,10.19509462056974,0.4672538943407013,-0.6966939786585366,1.927259491711128,-1.9587074838033536,-1.0227110327743902,1.85394287109375,-1.1042152963033538,2.9207555259146343,3.0260783870045733,-1.9882204119183284,-17.711392036782662,1.2399248321123315,-1.772046339903483,-29.093778998779,-64.79163661858975,28.475963698445504,34.17878216072124,35.424776110462155,1577397681.999,-27.707506667102905,-51.12181815663981,17.532831
62491,1577397682.64,-0.1666597936118521,-0.0731107433784292,10.511713191334792,-0.9490381800209604,-0.6109301894769434,8.483298828720464,-0.4127370081459603,-1.4383896412919206,8.73942001119474,-0.6924140744092987,0.4934915682164634,1.835706757336128,0.7573569693216463,-3.3115293921493905,2.28118896484375,-7.329801233803353,9.085306307164634,1.744340105754573,-0.473385812361502,-15.885475331959707,0.9299436240842456,-1.772046339903483,-29.093778998779,-64.79163661858975,28.38011801000389,34.08293647227963,35.52062179890376,1577397681.999,-27.707506667102905,-51.12181815663981,17.532831
62492,1577397682.65,0.4414674280678353,-0.4214670849311636,8.346157789723465,0.7723928136313833,-0.0901913283929596,8.00086719419898,0.3354510106528677,-1.327059264094655,6.916235446985755,-1.1654365353467986,1.821006216653964,2.217176483898628,-3.164151819740854,1.5865418969131095,1.77764892578125,-0.7685219369283538,6.109842439977134,1.500199480754573,-0.1893543249446023,-16.15936283768315,1.4724107381333948,2.8191646316646315,-34.08370039682539,-16.520281557635073,28.57180938688711,34.058975050169224,35.52062179890376,1577397681.999,-27.707506667102905,-51.12181815663981,17.532831
62493,1577397682.66,0.4462558313881478,0.1830688342582885,8.01695506145198,0.9280159215415396,-0.347568006859756,8.787362439560308,0.9232275182212272,-1.5126098927567644,8.614921524866615,1.1081230349657014,2.049888052591464,1.927259491711128,-1.9892250619283536,1.2050721703506098,3.25775146484375,-2.019742640053354,6.613382479039634,1.164506121379573,-1.9882204119183284,-15.520291990995116,0.3099812080280861,-3.060807314378743,-29.770378510378507,-12.168775755494504,28.428040854224697,34.22670500494204,34.89762482403331,1577397681.999,-27.707506667102905,-51.12181815663981,17.532831
62494,1577397682.67,0.2882385218178353,-0.4992786388862417,8.41918094035823,0.3677727330649771,0.4042113144293054,8.86397689268531,0.2169380284751334,-0.6650625050614519,8.361136148890052,-3.3779609494092986,-0.5441060880335366,2.018812226086128,-2.752164515053354,4.9892518578506095,0.32806396484375,2.954622594321646,2.8597203696646343,1.652787371379573,-1.4201574370845214,-17.893983707264958,1.3949154361263716,-3.060807314378743,-29.770378510378507,-12.168775755494504,28.428040854224697,33.939167939617214,35.08931620091653,1577397681.999,-27.707506667102905,-51.12181815663981,17.532831
62495,1577397682.68,-0.093636642977087,-0.367597547577648,10.642197181813309,0.0397671056235709,-1.0347038833245996,9.158463696884528,-1.339293050626429,0.7283628611494856,10.4105727699838,-2.2030341915967986,-0.9560933927210368,1.728895233898628,0.1164878286966463,-3.8608457983993913,3.19671630859375,2.069612828696646,1.211771150914634,2.2936565120045733,-0.473385812361502,-16.61584201388889,0.9299436240842456,-2.094236583522298,-30.108678266178263,-10.549610805860803,28.40407943211429,33.891245095396414,35.52062179890376,1577397681.999,-27.707506667102905,-51.12181815663981,17.532831
62496,1577397682.69,-0.2169380284751334,0.005897911406726,11.220396882741042,-0.1697255396401009,0.0714172836675872,11.568227667831794,-0.7862324671303352,-0.1622801564286394,11.147986881311928,-1.7910468869092986,1.4700540682164631,1.744154022961128,-2.340177210365854,2.166375881288109,2.00653076171875,0.0859702505716462,-0.3141077553353657,1.240800066692073,-1.6095117620291235,-17.711392036782662,1.2399248321123315,2.5775219489505194,-30.108678266178263,-65.19642785599817,28.57180938688711,34.10689789439003,35.18516188935813,1577397681.999,-27.707506667102905,-51.12181815663981,17.532831
62497,1577397682.7,-0.1786308019126334,-0.2383106579292104,10.911544868580886,1.4954417149985708,-0.654025819359756,9.187194116806404,-0.8436933069740853,0.1896674876143292,11.128833268030675,-3.0422675900342986,-0.5135885099085366,1.835706757336128,-1.9892250619283536,4.2568299828506095,1.21307373046875,-1.4093910775533538,-0.8634241615853658,1.774857683879573,-1.4201574370845214,-17.528800366300366,1.3949154361263716,-3.382997557997558,-26.04908119658119,-61.553306719322336,28.38011801000389,34.03501362805883,35.616467487345375,1577397681.999,-27.707506667102905,-51.12181815663981,17.532831
62498,1577397682.71,0.2355660852943978,-0.2861946911323355,9.455870259205886,-0.1230386072670531,-0.6372664077386622,10.420207971786873,0.6239523107016959,-1.1247492238114518,10.767308817347084,1.1996757693407014,3.6673196932164633,1.957777069836128,-1.9281899056783536,-0.9616758765243902,2.79998779296875,-2.691129358803354,6.216653963414634,1.256058855754573,-0.2840314874168997,-17.16361702533578,0.1549906040140463,-3.382997557997558,-26.04908119658119,-61.553306719322336,28.428040854224697,34.08293647227963,35.52062179890376,1577397681.999,-27.707506667102905,-51.12181815663981,17.532831
62499,1577397682.72,0.3133776392494759,-0.4466062023628042,9.751554164235182,0.2336974400962271,0.0355042587652429,10.968480151962654,0.3007350865806021,1.1665017649580791,10.53985965963224,-0.1278388790967987,1.8210062166539636,2.171400116711128,-0.5243813119283537,2.090081935975609,1.51824951171875,-4.613736780678353,0.7234899009146342,1.225541277629573,-2.1775747368629306,-17.16361702533578,1.3949154361263716,27.8694560730275,-34.16827533577533,-10.549610805860803,28.547847964776714,33.939167939617214,35.47269895468296,1577397681.999,-27.707506667102905,-51.12181815663981,17.532831
62500,1577397682.73,0.2858443201576791,-0.8057364513862417,8.519737410084792,0.4862857152427115,-0.6468432143792872,7.787783246445074,0.2025728185141964,-0.2843844410966081,9.464863114222084,1.1996757693407014,0.7986673494664634,2.385023163586128,-1.1194740853658538,0.4116151391006093,2.44903564453125,-1.3330971322408538,2.1578160727896343,3.2091838557545733,-0.6627401373061044,-16.433250343406595,1.084934228098292,26.419599976742838,-35.183174603174606,-13.787940705128204,28.475963698445504,34.130859316500434,35.64042890945578,1577397681.999,-27.707506667102905,-51.12181815663981,17.532831
62501,1577397682.74,0.209229867032679,-0.1928208263862417,9.431928242604323,-0.2451428919350228,0.7274285385504002,10.28134427549781,-0.774261458829554,-0.9619435109208267,11.389801248987707,-1.6994941525342986,0.9817728182164634,2.079847382336128,-1.9892250619283536,-0.1682188452743902,1.36566162109375,-5.956510218178353,-0.6803186928353658,1.957963152629573,0.2840314874168997,-17.711392036782662,1.5499060401404114,27.547265829408687,-34.16827533577533,-13.787940705128204,28.61973223110792,34.03501362805883,35.424776110462155,1577397681.999,-27.707506667102905,-51.12181815663981,17.532831
62502,1577397682.75,-0.0469497106040396,-0.1114179699409292,9.733597651784011,-1.1908525476967415,-0.7258518691644434,9.01720579893531,0.0876511388266959,0.8480729441572981,10.326775711878334,0.0400078005907013,1.1038431307164631,1.805189179211128,-1.3788734994283538,-0.2902891577743902,2.67791748046875,-1.7756020150533538,1.639017244664634,2.3241740901295733,-1.4201574370845214,-16.068067002442003,1.7048966441544513,27.547265829408687,-34.16827533577533,-13.787940705128204,28.428040854224697,34.22670500494204,35.28100757779974,1577397681.999,-27.707506667102905,-51.12181815663981,17.532831
62503,1577397682.76,-0.0888482396567745,-0.4394235973823355,10.843310121266434,0.4036857579673208,-0.2817274612054591,10.588999188827888,-0.0739574732338509,-0.5980248585770764,9.719845591028724,-0.5093086056592986,0.5697855135289633,2.095106171398628,-0.7685219369283538,-0.7633116187118902,2.34222412109375,-3.2709633431783534,1.928934236852134,3.1176311213795733,-0.8520944622507067,-15.155108650030527,0.3099812080280861,-3.382997557997558,-34.33742521367521,-14.799918798649268,28.547847964776714,33.96312936172762,35.52062179890376,1577397681.999,-27.707506667102905,-51.12181815663981,17.532831
62504,1577397682.77,0.0224821375404906,-0.5160380505073354,11.036043354909012,0.3127060948813834,0.0067738388433679,11.00918158018531,0.5186074376548209,1.2359336131026104,10.051442520960364,-0.3872382931592987,0.6765970369664634,2.079847382336128,-0.3107582650533537,3.036126857850609,2.37274169921875,0.2995932974466463,2.7071324790396343,1.378129168254573,-0.8520944622507067,-15.155108650030527,0.3099812080280861,-3.060807314378743,-30.108678266178263,-10.549610805860803,28.57180938688711,34.03501362805883,35.52062179890376,1577397681.999,-27.707506667102905,-51.12181815663981,17.532831
62505,1577397682.78,0.2044414637123665,-0.0443803234565542,9.64501219035823,-0.2714791101967416,-0.3308085952386622,9.086637647079842,-0.4893514612709603,-1.3043143483231705,10.008346891077553,1.5048515505907014,2.202475943216464,2.140882538586128,0.0249350943216463,3.371820217225609,2.92205810546875,1.2761557974466462,0.6319371665396342,1.866410418254573,-0.6627401373061044,-17.528800366300366,1.3949154361263716,6.927090237804523,-27.740579975579973,-16.823874985691393,28.428040854224697,34.22670500494204,35.52062179890376,1577397681.999,-27.707506667102905,-51.12181815663981,17.532831
62506,1577397682.79,-0.2720046666587271,-0.0755049450385854,10.114275715748857,0.9639289464438834,-0.3834810317620997,10.207124024032966,-0.6090615442787728,-1.701751823909108,8.622104129847084,-0.8144843869092987,0.6155618807164634,2.476575897961128,-0.9516274056783536,2.364740139100609,2.22015380859375,-0.5243813119283537,-5.074849942835366,0.4931194026295732,-0.6627401373061044,-16.798433684371187,1.084934228098292,-2.738617070759928,-30.44697802197802,-67.22038404304028,28.475963698445504,34.17878216072124,35.52062179890376,1577397681.999,-27.707506667102905,-51.12181815663981,17.532831
62507,1577397682.8,0.1218415064369754,-0.2514787670600698,9.20447908488948,0.5150161351645866,-0.8264083388910065,8.891510211777106,0.6802160497153678,-0.3801525075028581,9.643231137903724,-0.0973213009717987,-0.0405660489710365,1.957777069836128,0.7573569693216462,-0.1834776343368902,2.43377685546875,0.6047690786966462,3.4242955649771343,1.423905535442073,-0.5680629748338109,-16.341954508165447,1.7823919461614777,-2.899712192569336,-29.77037851037851,-62.97007605025183,28.4759636984455,34.01105220594842,35.56854464312457,1577397681.999,-27.707506667102905,-51.12181815663981,17.532831
62508,1577397682.81,0.237960286954554,-1.1600782970893666,9.072797993580886,0.2839756749595084,-0.280530360375381,9.357182434677496,-0.0895197840248656,0.3069833689619856,10.432120584925208,0.4062187380907013,1.5310892244664631,2.262952851086128,-0.8295570931783537,2.853021389100609,2.46429443359375,1.8865073599466464,-5.685201505335366,2.6293498713795733,0.0946771624722973,-16.798433684371187,2.63484026823871,-2.738617070759928,-25.03418192918193,-16.62147936698718,28.61973223110792,34.03501362805883,35.424776110462155,1577397681.999,-27.707506667102905,-51.12181815663981,17.532831
62509,1577397682.82,-0.2432742467368521,-0.0036788952338979,9.214055891530103,-1.0448062464272103,-0.2302521255120997,10.410631165146247,-0.4247080164467415,-0.7392827565262956,11.437685282190833,3.5495292849657014,3.8504251619664633,2.446058319836128,0.1470054068216463,2.242669826600609,2.76947021484375,1.2456382193216462,-1.321187833460366,2.9650432307545733,-1.0414487871953166,-16.068067002442003,2.63484026823871,2.4164268271411125,-25.03418192918193,-16.62147936698718,28.57180938688711,34.08293647227963,35.52062179890376,1577397681.999,-27.707506667102905,-51.12181815663981,17.532831
62510,1577397682.83,0.0272705408608031,-0.3699917492378042,10.190890168873857,0.6933841588462272,-0.2063101089105372,10.391477551864996,-0.7598962488686165,0.0603805979658918,11.59330839010099,-0.7534492306592987,-0.3610006192835365,2.354505585461128,2.954622594321646,-0.2902891577743902,1.79290771484375,0.9404624380716464,-4.006734708460366,3.1481486995045733,-0.473385812361502,-15.885475331959707,1.2399248321123315,1.772046339903483,-33.15337606837607,-13.38314946771978,28.61973223110792,34.08293647227963,35.52062179890376,1577397681.999,-27.707506667102905,-51.12181815663981,17.532831
62511,1577397682.84,-0.3174944982016959,-0.2167628429878042,10.731979744069168,-0.5539949060951791,-0.3008810744867096,10.981648261093513,-0.0775487757240853,0.043621186344798,11.538241751917395,0.8944999880907014,0.4629739900914633,2.323988007336128,1.7186606802591462,-1.0532286108993905,2.72369384765625,0.9862388052591462,-8.416524747522866,2.6598674495045733,-0.6627401373061044,-15.520291990995116,1.084934228098295,2.0942365835222976,-35.183174603174606,-14.597523179945052,28.499925120555904,34.15482073861084,35.40081468835175,1577397681.999,-27.707506667102905,-51.12181815663981,17.532831
62512,1577397682.85,-0.5114248326743521,0.0561761462700072,10.356090083424636,-0.6473687708412728,-0.2063101089105372,9.110579663681404,0.6383175206626334,0.9198989939619856,8.883072110804115,1.8405449099657007,2.232993521341464,2.507093476086128,1.8865073599466464,-1.0837461890243902,2.86102294921875,2.069612828696646,-3.6405237709603657,4.826615496379573,-0.8520944622507067,-15.155108650030527,0.3099812080280861,-3.382997557997558,-31.80017704517704,-15.81189689217033,28.66765507532872,33.939167939617214,35.52062179890376,1577397681.999,-27.707506667102905,-51.12181815663981,17.532831
62513,1577397682.86,-0.3581959264243521,-0.4729424206245229,10.159765547291824,1.4714996983970083,-0.7258518691644434,8.794545044540778,0.4108683629477896,-1.2157288868973894,8.73223740621427,-0.9975898556592988,0.7681497713414634,3.422620819836128,1.2456382193216462,2.456292873475609,1.45721435546875,2.893587438071646,2.2188512290396343,2.9955608088795733,0.2840314874168997,-18.07657537774725,0.6199624160561659,-3.060807314378743,-31.80017704517704,-16.216688129578753,28.428040854224697,34.27462784916285,34.89762482403331,1577397681.999,-27.707506667102905,-51.12181815663981,17.532831
62514,1577397682.87,0.2714791101967411,-0.3280932201850698,8.331792579762528,-0.1828936487709603,-0.2470115371331935,8.33246412413062,-0.9538265833412728,0.436270258610423,8.282127494104897,2.5119316287157014,1.5158304354039636,2.598646210461128,-1.9281899056783536,2.334222560975609,3.50189208984375,2.313753453696646,7.071146150914634,2.5988322932545733,-0.9467716247230116,-17.072321190094627,0.852448322077229,-1.4498560962846678,-35.85977411477411,-13.787940705128204,28.57180938688711,34.17878216072124,35.32893042202055,1577397681.999,-27.707506667102905,-51.12181815663981,17.532831
62515,1577397682.88,0.0751545740639281,-0.2454932629096792,9.750357063405104,-0.4917456629311165,0.3048519455328221,9.85278217832984,0.1534916844809932,-1.759212663752858,11.559789566858802,0.5893242068407013,-0.1168599942835365,2.751234101086128,1.6118491568216462,-3.6624815405868905,2.89154052734375,-0.4328285775533537,-5.654683927210366,1.332352801067073,-0.6627401373061044,-16.798433684371187,1.7048966441544513,-2.1747841444270017,-32.89965125152625,-12.067577946142398,28.475963698445504,34.130859316500434,35.56854464312457,1577397681.999,-27.707506667102905,-51.12181815663981,17.532831
62516,1577397682.89,0.1445864222084593,0.4799498401176635,10.765498567311354,0.6311349156821646,-1.1759617812738183,9.02199420225562,-0.0895197840248656,1.240722016422923,6.694771793421302,5.197478503715701,3.514731802591464,2.507093476086128,1.5508140005716462,-0.6565000952743902,3.62396240234375,-0.2497231088033537,1.059183260289634,4.155228777629573,-0.6627401373061044,-16.798433684371187,1.7048966441544513,-2.094236583522298,-30.108678266178263,-68.02996651785715,28.475963698445504,33.939167939617214,35.52062179890376,1577397681.999,-27.707506667102905,-51.12181815663981,17.532831
62517,1577397682.9,-0.0876511388266959,-0.1209947765815542,10.332148066823072,-1.0208642298256478,-0.6659968276605372,9.345211426376716,-2.754266231778773,-5.187709441096608,10.116085965784585,-1.0586250119092986,0.8597025057164634,2.659681366711128,1.7339194693216462,1.6323182641006098,2.40325927734375,-0.8295570931783537,-1.901021817835366,1.439164324504573,-1.0414487871953166,-17.16361702533578,1.7048966441544513,-3.060807314378743,-29.093778998779,-62.36288919413919,28.57180938688711,34.17878216072124,35.47269895468296,1577397681.999,-27.707506667102905,-51.12181815663981,17.532831
62518,1577397682.91,0.4235109156166634,-0.444212000702648,9.98977722942073,-1.2507075892006478,-0.5510751479730372,10.23585444395484,0.5042422276938834,0.685267231266673,11.770479312952553,0.3604423709032013,-0.5593648770960366,2.201917694836128,3.870149938071646,-5.508795017149391,4.02069091796875,2.130647984946646,-4.037252286585366,-0.0561970036204267,-1.1361259496676142,-17.254912860576923,1.6274013421474385,1.1276658526658527,-25.03418192918193,-62.36288919413919,28.547847964776714,33.939167939617214,35.32893042202055,1577397681.999,-27.707506667102905,-51.12181815663981,17.532831
62519,1577397682.92,-0.2576394566977896,0.4440368152153198,9.9586526078387,-0.6880701990639291,-0.6121272903070216,9.743846002792733,0.2217264317954459,1.4454262583662825,9.401416770227945,2.8171074099657014,4.949057974466464,2.659681366711128,2.863069859946646,-0.2139952124618911,2.67791748046875,1.7949546255716462,1.165994783727134,4.078934832317073,-0.6627401373061044,-17.16361702533578,2.9448214762667897,-3.060807314378743,-29.60122863247863,-39.6945798992674,28.428040854224697,34.03501362805883,35.56854464312457,1577397681.999,-27.707506667102905,-51.12181815663981,17.532831
62520,1577397682.93,0.3409109583412728,-0.5351916637885855,10.47580016643245,0.6574711339438833,-0.098571034203506,9.340423023056404,-0.209229867032679,-0.6459088917802018,3.527242997034584,-1.9741523556592984,0.7071146150914634,2.690198944836128,-0.8600746713033537,3.585443264100609,1.85394287109375,2.344271031821646,4.721292635289634,2.2936565120045733,-0.6627401373061044,-17.16361702533578,2.9448214762667897,2.899712192569335,-32.30762667887667,-15.204710036057692,28.61973223110792,34.08293647227963,35.616467487345375,1577397681.999,-27.707506667102905,-51.12181815663981,17.532831
62521,1577397682.94,0.5516007044350228,-0.1736672131049917,8.194125984303543,-1.3416872522865853,-0.4792490981683497,5.2319729742282775,0.5688856725181022,2.2941707468916728,2.389997208460364,4.434539050590701,1.6226419588414631,2.293470429211128,2.527376500571646,-0.0156309546493902,2.79998779296875,6.586214391196647,33.31626333841464,5.986283465129573,-1.230803112139919,-16.61584201388889,1.859887248168504,3.382997557997558,-35.1831746031746,-17.026270604395606,28.475963698445504,34.22670500494204,35.32893042202055,1577397681.999,-27.707506667102905,-51.12181815663981,17.532831
62522,1577397682.95,1.2495104883705697,-0.0515629284370234,8.299470857350418,-0.8137657862221321,-0.5510751479730372,7.809331061386481,-2.134168001798304,-3.0688409718583274,11.84110826192716,-0.3109443478467987,0.9665140291539636,2.125623749523628,2.466341344321646,-3.357305759336891,2.90679931640625,6.433626500571647,22.02475943216464,-2.7570026676829267,-0.2840314874168996,-17.163617025335775,0.464971812042126,-3.382997557997558,-34.506575091575094,-16.216688129578753,28.499925120555908,34.15482073861084,35.56854464312457,1577397681.999,-27.707506667102905,-51.12181815663981,17.532831
62523,1577397682.96,0.9107309534584602,0.0106863147270385,11.198849067799635,0.8801318883384146,-0.7473996841058497,10.286132678818122,0.7005667638266959,5.030743244450266,14.808721219690833,-1.8520820431592984,2.141440786966464,0.8591442573361281,-0.3107582650533537,1.7849061547256098,2.49481201171875,-7.757047327553353,-0.0394495522103658,0.7982951838795732,-0.473385812361502,-16.61584201388889,0.9299436240842456,-2.094236583522298,-35.85977411477411,-14.597523179945052,28.428040854224697,34.08293647227963,35.616467487345375,1577397681.999,-27.707506667102905,-51.12181815663981,17.532831
62524,1577397682.97,-1.1195520543540396,-0.8584088879096792,11.9123211625262,-2.493298250821742,-0.395452040062881,9.706735877060307,-2.840457491544398,-6.233975566584889,10.523100248011144,-2.4319160275342986,9.984458365091465,2.079847382336128,-1.0126625619283538,6.7287538109756095,3.47137451171875,-0.8600746713033537,-14.718404630335366,1.469681902629573,-0.473385812361502,-16.61584201388889,0.9299436240842456,-3.382997557997558,-30.108678266178263,-14.597523179945052,28.428040854224697,34.22670500494204,35.52062179890376,1577397681.999,-27.707506667102905,-51.12181815663981,17.532831
62525,1577397682.98,-0.0780743321860708,1.349045042754382,8.833377827565261,-0.9131251551186166,-0.8671097671136622,10.219095032333747,1.3326360021079455,3.654077289860423,10.733789994104896,7.059050769340701,12.425864615091465,2.537611054211128,-0.7380043588033537,1.2966249047256098,3.92913818359375,-0.6159340463033537,-4.403463224085366,1.286576433879573,-0.473385812361502,-16.61584201388889,0.9299436240842456,-3.060807314378743,-34.84487484737485,-11.359193280677657,28.475963698445504,34.08293647227963,35.47269895468296,1577397681.999,-27.707506667102905,-51.12181815663981,17.532831
62526,1577397682.99,-0.949563736482946,-0.0731107433784297,9.731203450123855,-1.8899594324623668,-0.3511593093499903,9.318875208114996,0.1642655919516959,-1.8130822011063736,7.142487503870521,-3.942536144721799,-1.0323873380335364,1.957777069836128,2.191683141196646,-2.792730564024391,2.87628173828125,-2.797940882240854,1.7763463462271345,4.612992449504573,-1.230803112139919,-17.34620869581807,0.9299436240842488,7.007637798709227,-28.6709043040293,-63.880856334420784,28.499925120555904,34.15482073861084,35.616467487345375,1577397681.999,-27.707506667102905,-51.12181815663981,17.532831
62527,1577397683.0,0.1876820520912728,0.609236729766101,9.738386055104325,0.0182192906821646,0.3108374496832117,8.543153870224371,1.5026243199790397,0.512884711735423,10.324381510218178,-3.4695136837842986,-3.6568990567835367,0.950696991711128,-1.0431801400533538,3.127679592225609,1.06048583984375,0.6352866568216463,13.357767244664634,1.713822527629573,-2.1775747368629306,-16.433250343406595,2.9448214762667897,-3.060807314378743,-24.69588217338217,-67.22038404304028,28.57180938688711,34.27462784916285,35.32893042202055,1577397682.999,-27.70736564104884,-51.12173525609263,17.66512
62528,1577397683.01,0.630609359220179,-0.6620843517768668,7.59557556926448,-0.228383480313929,-0.7617648940667872,7.889536817001715,-1.5068871668373665,-1.6155605641434831,11.940467630823646,2.4814140505907014,1.2564310213414631,1.896741913586128,-0.4938637338033537,-1.0837461890243902,3.01361083984375,-0.0361000619283536,-3.4879358803353657,2.6598674495045733,0.2840314874168997,-16.61584201388889,1.2399248321123315,-0.8054756090470375,-24.69588217338217,-62.36288919413919,28.61973223110792,34.08293647227963,35.52062179890376,1577397682.999,-27.70736564104884,-51.12173525609263,17.66512
62529,1577397683.02,-0.2743988683188834,-0.1856382214057729,10.842113020436354,-0.0129053308998656,-0.6372664077386622,10.781732422470466,-0.630609359220179,-3.9499071827958265,10.829558060511149,-0.9060371212842988,5.345786490091464,2.323988007336128,-4.522184046303353,4.1042420922256095,3.89862060546875,-2.874234827553354,-10.537496427210366,1.225541277629573,-1.6095117620291235,-16.2506586729243,2.169868456196584,-3.2219024361881505,-33.660825702075705,-10.347215187156593,28.57180938688711,33.939167939617214,35.424776110462155,1577397682.999,-27.70736564104884,-51.12173525609263,17.66512
62530,1577397683.03,-0.4791031102622428,-0.0778991466987422,10.556005922047683,-0.4498471338783821,-0.6444490127191309,9.03516231138648,-0.0859284815346322,-0.5333814137528581,9.982010672815834,-2.4471748165967986,-0.0863424161585365,2.018812226086128,-1.0279213509908538,-1.968755954649391,2.47955322265625,-4.567960413490853,-9.072652677210366,2.629349871379573,-1.230803112139915,-16.433250343406595,1.8598872481684976,1.772046339903483,-32.81507631257631,-17.026270604395606,28.4520022763351,34.130859316500434,35.59250606523497,1577397682.999,-27.70736564104884,-51.12173525609263,17.66512
62531,1577397683.04,-0.2313032384360709,0.3841817737114135,12.2187789750262,-1.214794564298304,-0.8718981704339747,11.68674065000953,0.4850886144126334,0.1537544627119855,8.87349530416349,-1.2417304806592986,-1.2765279630335369,1.805189179211128,-1.7756020150533538,-0.6565000952743902,3.37982177734375,-3.637174280678354,-14.840474942835366,2.5988322932545733,0.662740137306112,-16.2506586729243,1.5499060401404114,-3.382997557997558,-30.44697802197802,-17.026270604395606,28.475963698445504,34.370473537604454,35.28100757779974,1577397682.999,-27.70736564104884,-51.12173525609263,17.66512
62532,1577397683.05,0.0416357508217406,-0.0467745251167104,10.063997480885574,0.9591405431235708,-0.1201188491449122,12.515134424423591,0.4611465978110708,3.4218397288252667,8.45929841695646,-0.0820625119092987,4.338706411966464,2.385023163586128,-2.721646936928354,2.700433498475609,1.54876708984375,-4.613736780678353,3.7447301352896334,4.002640887004573,0.662740137306112,-16.61584201388889,2.169868456196584,7.249280481423338,-30.44697802197802,-16.62147936698718,28.61973223110792,34.08293647227963,35.424776110462155,1577397682.999,-27.70736564104884,-51.12173525609263,17.66512
62533,1577397683.06,-0.0325845006431021,-0.5567394787299917,10.0735742875262,-1.0112874231850228,-0.8886575820550684,7.736307910751715,-0.9705859949623664,-2.647461479670827,7.980458084925209,-3.7136543087842986,1.2564310213414631,2.232435272961128,-0.9516274056783536,-3.3420469702743905,2.86102294921875,-3.454068811928354,12.900003572789634,3.727982683879573,0.2840314874168997,-16.61584201388889,1.5499060401404114,-3.060807314378743,-30.44697802197802,-17.026270604395606,28.76350076377033,33.939167939617214,35.52062179890376,1577397682.999,-27.70736564104884,-51.12173525609263,17.66512
62534,1577397683.07,0.1254328089272098,-0.2957714977729604,9.768313575856276,-0.3073921350990853,-0.5917765761956935,9.346408527206794,-0.0320589441811165,-1.002644939143483,11.565775071009194,-1.5926826290967986,-0.7272115567835368,1.850965546398628,-4.583219202553353,3.9821717797256095,2.55584716796875,-2.126554163490854,-0.9244593178353662,2.1563274104420733,-0.1893543249446023,-16.524546178647743,1.317420134119352,1.93314146171289,-30.44697802197802,-17.026270604395606,28.428040854224697,34.08293647227963,35.52062179890376,1577397682.999,-27.70736564104884,-51.12173525609263,17.66512
62535,1577397683.08,-0.0421613072837271,-0.1880324230659292,9.886826558034011,-0.3600645716225228,0.0929650986089929,9.089031848739998,-0.5444180994545541,2.9238457835127667,12.067360318811929,-1.6994941525342986,2.568686880716464,1.835706757336128,-5.102018030678353,3.9516542016006095,3.01361083984375,-3.209928186928354,-12.063375333460366,3.1481486995045733,0.2840314874168997,-16.2506586729243,1.2399248321123315,-3.2219024361881505,-35.01402472527472,-16.014292510874544,28.66765507532872,34.17878216072124,35.52062179890376,1577397682.999,-27.70736564104884,-51.12173525609263,17.66512
62536,1577397683.09,0.6617339808022102,-1.861579383515148,8.160607161061355,0.3246771031821646,-1.077799513207412,7.8584121954196835,-2.229936068204554,-2.860545427424733,12.088908133753334,-1.3027656369092986,4.704917349466464,2.507093476086128,0.4521811880716463,-2.2128965796493905,1.82342529296875,-10.473111780678352,-23.660055020960368,2.3546916682545733,-0.0946771624722973,-16.981025354853482,1.2399248321123315,7.571470725042153,-27.740579975579973,-15.81189689217033,28.428040854224697,34.08293647227963,35.616467487345375,1577397682.999,-27.70736564104884,-51.12173525609263,17.66512
62537,1577397683.1,-0.6909899571860709,-1.7825707287299917,9.601916560475418,-0.5731485193764291,-0.6516316176995998,11.34676401426734,1.564873563143102,1.8943390696455795,11.65076922994474,-1.7605293087842986,3.8809427400914633,2.537611054211128,-2.355435999428354,-0.5649473608993902,3.68499755859375,-6.566861780678353,-24.789205411585368,6.108353777629573,-0.0946771624722973,-17.711392036782662,1.2399248321123315,-2.094236583522298,-27.740579975579973,-68.839548992674,28.428040854224697,34.08293647227963,35.32893042202055,1577397682.999,-27.70736564104884,-51.12173525609263,17.66512
62538,1577397683.11,-1.0321636937583365,1.1347639941703975,12.81852649089534,-1.1070554895912728,0.1540172409429783,13.05143559629859,0.5233958409751334,-0.7919551930497332,10.377053946741617,-1.1349189572217986,-1.5054097989710362,2.293470429211128,0.7726157583841464,-0.9464170874618902,1.86920166015625,-7.451871546303352,-18.227926114710368,4.597733660442073,0.2840314874169073,-17.528800366300366,0.9299436240842488,-3.2219024361881505,-25.03418192918193,-62.36288919413919,28.595770808997518,34.10689789439003,35.49666037679336,1577397682.999,-27.70736564104884,-51.12173525609263,17.66512
62539,1577397683.12,-0.9735057530845084,-0.9206581310737416,10.530866804616045,-1.348869857267054,-1.7146571548089746,9.85996478331031,1.9048501988852893,3.369167292301829,8.385078165491615,2.9391777224657014,4.338706411966464,2.690198944836128,1.3066733755716462,-3.8913633765243913,3.65447998046875,2.527376500571646,-1.138082364710366,4.979203387004573,0.0946771624722973,-16.798433684371187,0.7749530200702057,-2.094236583522298,-30.44697802197802,-65.6012190934066,28.475963698445504,34.08293647227963,35.616467487345375,1577397682.999,-27.70736564104884,-51.12173525609263,17.66512
62540,1577397683.13,-0.8657666783774771,-0.6429307384956168,9.745568660084793,-0.5539949060951791,0.993184922827744,11.995592664169685,-0.2451428919350228,-4.136654912288014,8.933350345667396,-1.0281074337842986,6.200278677591464,3.178480194836128,-1.4399086556783538,0.5947206078506098,2.55584716796875,0.1775229849466463,5.087503572789634,3.3922893245045733,1.230803112139919,-16.798433684371187,1.084934228098292,0.4832853654282225,-33.15337606837607,-13.787940705128204,28.57180938688711,34.08293647227963,35.52062179890376,1577397682.999,-27.70736564104884,-51.12173525609263,17.66512
62541,1577397683.14,0.6485658716713509,-1.096631953095226,9.848519331471511,-0.3193631433998665,-1.5686108535394434,8.583855298447027,0.9184391149009146,-0.4687379689286394,11.768085111292397,-0.2804267697217987,-7.288490853658535,1.805189179211128,0.2690757193216463,3.6159608422256095,2.00653076171875,-0.5854164681783537,5.301126619664634,0.8288127620045732,0.4733858123615097,-17.16361702533578,1.3949154361263716,4.993948776091632,-30.108678266178263,-17.026270604395606,28.595770808997518,34.27462784916285,35.32893042202055,1577397682.999,-27.70736564104884,-51.12173525609263,17.66512
62542,1577397683.15,0.1948646570717415,0.1136369861137572,10.906756465260576,0.433613278719274,-0.8383793471917872,9.332043317245857,1.2847519689048208,0.6337918955733137,10.292059787806068,4.861785144340701,2.568686880716464,2.293470429211128,0.8946860708841462,0.2285096703506093,2.98309326171875,2.130647984946646,-4.113546231897866,3.4075481135670733,-1.0414487871953166,-17.528800366300366,1.3949154361263716,1.127665852665852,-32.47677655677655,-12.978358230311354,28.61973223110792,34.058975050169224,35.40081468835175,1577397682.999,-27.70736564104884,-51.12173525609263,17.66512
62543,1577397683.16,-0.5856450841391959,0.3291151355278198,11.46460545207698,0.4587523961509146,0.6149010605230565,11.274937964462652,-0.0488183558022093,-0.4519785573075456,10.197488822229896,-3.4389961056592986,3.8199075838414633,3.086927460461128,-0.5548988900533537,2.273187404725609,0.75531005859375,-1.8671547494283536,6.155618807164634,1.774857683879573,1.6095117620291235,-16.798433684371187,2.324859060210624,-2.738617070759928,-31.461877289377288,-9.740028331043955,28.475963698445504,34.03501362805883,35.52062179890376,1577397682.999,-27.70736564104884,-51.12173525609263,17.66512
62544,1577397683.17,-0.1139873570884146,-0.1209947765815542,10.530866804616045,-1.0879018763100228,-0.3116549819574122,10.432178980087654,0.3318597081626334,0.9510236155440168,11.787238724573646,3.2443535037157014,2.171958365091464,2.232435272961128,1.4592612661966462,2.517328029725609,2.76947021484375,0.3301108755716463,4.660257479039634,1.500199480754573,-0.0946771624722973,-16.61584201388889,1.2399248321123315,6.282709750566893,-33.829975579975574,-16.216688129578753,28.57180938688711,34.03501362805883,35.52062179890376,1577397682.999,-27.70736564104884,-51.12173525609263,17.66512
62545,1577397683.18,-0.4360074803794302,-0.6273684277046011,10.980976716725417,0.1499003819907584,-0.7497938857660059,11.28451477110328,-0.8389049036537728,-0.86378124285442,12.239742838343178,1.5964042849657014,0.1730569979039635,1.912000702648628,1.4592612661966462,0.5947206078506093,2.35748291015625,-0.0971352181783536,-7.165304044397866,2.3241740901295733,0.2840314874168997,-16.61584201388889,1.2399248321123315,2.4164268271411125,-31.80017704517704,-13.787940705128204,28.4520022763351,34.058975050169224,35.18516188935813,1577397682.999,-27.70736564104884,-51.12173525609263,17.66512
62546,1577397683.19,-0.1786308019126334,0.111242784453601,10.06639168254573,0.5521262608970083,0.0546578720464929,11.82560434629859,1.7611980992759146,1.3867683176924543,10.69308856588224,3.0612480349657014,2.294028677591464,2.385023163586128,0.4521811880716463,1.815423732850609,2.58636474609375,2.069612828696646,-14.291158536585366,2.8124553401295733,0.0946771624722973,-17.893983707264958,1.084934228098292,-3.060807314378743,-30.108678266178263,-68.839548992674,28.57180938688711,34.03501362805883,35.52062179890376,1577397682.999,-27.70736564104884,-51.12173525609263,17.66512
62547,1577397683.2,-0.3007350865806021,0.139973204375476,10.14300613567073,-1.265072799161585,0.5813822372808679,10.494428223251717,1.0908216344321646,0.5080963084151106,8.75857362447599,4.495574206840701,-0.3610006192835365,2.293470429211128,2.008577672446646,1.5407655297256098,2.25067138671875,-1.4093910775533538,-1.138082364710366,3.0565959651295733,-1.230803112139919,-17.711392036782662,1.859887248168504,-3.060807314378743,-30.108678266178263,-68.839548992674,28.57180938688711,34.17878216072124,35.616467487345375,1577397682.999,-27.70736564104884,-51.12173525609263,17.66512
62548,1577397683.21,-0.2241206334556021,0.2429238757621948,10.47580016643245,0.0996221471274771,-0.682756239281631,9.383518652939216,-0.3840065882240853,-1.7352706471512955,9.251779166468175,3.5800468630907014,-0.0558248380335365,1.927259491711128,4.083772984946647,-4.440679782774391,3.19671630859375,1.6728843130716462,0.7540074790396342,0.9508830745045732,-0.2840314874168997,-17.893983707264958,1.7048966441544513,-0.6443804872376302,-24.86503205128205,-68.63715337396978,28.81142360799113,34.08293647227963,34.8497019798125,1577397682.999,-27.70736564104884,-51.12173525609263,17.66512
62549,1577397683.22,-0.1211699620688834,-0.6860263683784292,9.51093689738948,-0.1338125147377572,-0.9556952285394434,9.68039965879859,0.711340671297399,0.0855197153975324,10.703862473352943,1.1386406130907014,0.7223734041539632,2.034071015148628,1.4897788443216462,0.5184266625381094,2.38800048828125,2.985140172446646,-0.7260950600228658,2.4462444026295733,-0.6627401373061044,-17.528800366300366,0.464971812042126,-2.658069509855224,-30.869852716727717,-42.83171198918269,28.52388654266631,34.10689789439003,35.304968999910145,1577397682.999,-27.70736564104884,-51.12173525609263,17.66512
62550,1577397683.23,-0.5066364293540396,-0.4106931774604604,10.205255378834792,-0.0464241541420531,0.2533766098394617,11.581395776962651,-0.4534384363686166,0.5823165598799543,9.843146976526771,1.8100273318407007,-0.9713521817835366,2.385023163586128,2.374788609946646,0.4116151391006097,2.00653076171875,2.954622594321646,1.577982088414634,3.1786662776295733,1.230803112139919,-16.068067002442003,1.084934228098292,2.4164268271411125,-33.15337606837607,-13.38314946771978,28.475963698445504,34.17878216072124,35.47269895468296,1577397682.999,-27.70736564104884,-51.12173525609263,17.66512
62551,1577397683.24,-0.6119813024009146,0.0465993396293822,9.762328071705886,-0.841299105313929,-0.4409418716058497,9.302115796493904,-0.2044414637123665,-0.6842161183427019,9.04587782369474,3.0307304568407014,-0.6966939786585366,2.293470429211128,1.3982261099466462,2.456292873475609,2.49481201171875,5.090853063071647,3.7447301352896334,2.3546916682545733,0.662740137306112,-15.885475331959707,0.9299436240842456,2.4164268271411125,-33.15337606837607,-13.38314946771978,28.61973223110792,34.17878216072124,36.23946446221584,1577397682.999,-27.70736564104884,-51.12173525609263,17.66512
62552,1577397683.25,-0.4312190770591178,0.3494658496391479,11.059985371510574,1.0237839879477897,-0.596564979516006,9.903060413193122,0.8059116368735709,-1.6778098073075456,10.89659570699552,1.2454521365282014,-1.6732564786585369,2.034071015148628,1.1540854849466462,1.2661073266006098,2.09808349609375,2.435823766196646,2.6766149009146343,0.2184611995045732,-0.473385812361502,-15.885475331959707,1.7048966441544513,-2.416426827141113,-29.770378510378507,-17.026270604395606,28.64369365321832,33.891245095396414,35.52062179890376,1577397682.999,-27.70736564104884,-51.12173525609263,17.66512
62553,1577397683.26,-0.1786308019126334,-1.114588465546398,9.812606306569169,-0.7371513330971322,-0.1632144790277252,10.199941419052497,-0.5396296961342415,-0.0198251576493425,10.151998990686929,0.8334648318407013,1.1648782869664631,2.873304413586128,1.1693442740091462,-3.235235446836891,2.47955322265625,1.7339194693216462,1.7153111899771345,0.9356242854420732,-0.6627401373061044,-14.972516979548232,1.7048966441544513,0.4832853654282223,-35.35232448107448,-16.62147936698718,28.475963698445504,34.01105220594842,35.56854464312457,1577397682.999,-27.70736564104884,-51.12173525609263,17.66512
62554,1577397683.27,0.324151546720179,0.1806746325981323,11.069562178151198,0.5736740758384147,-1.027521278344131,8.526394458603278,-0.1421922205483031,-0.0808772999833259,10.09214394918302,1.4132988162157014,-1.5511861661585369,1.927259491711128,0.9404624380716464,3.8906190453506095,2.00653076171875,0.4521811880716463,3.3785191977896343,1.927445574504573,-0.6627401373061044,-14.972516979548232,1.7048966441544513,-2.738617070759928,-34.84487484737485,-17.026270604395606,28.475963698445504,34.08293647227963,35.616467487345375,1577397682.999,-27.70736564104884,-51.12173525609263,17.66512
62555,1577397683.28,0.3337283533608041,-0.0946585583198354,10.56438562785823,0.2313032384360709,-0.6612084243402248,9.203953528427498,0.1834192052329459,0.3572616038252668,9.54387176900724,3.0917656130907014,0.8291849275914634,2.140882538586128,2.283235875571646,-10.42212509527439,3.59344482421875,3.748079625571646,5.819925447789634,3.636429949504573,-1.9882204119183284,-16.2506586729243,1.2399248321123315,-2.738617070759928,-34.84487484737485,-17.026270604395606,28.475963698445504,33.939167939617214,35.13723904513733,1577397682.999,-27.70736564104884,-51.12173525609263,17.66512
62556,1577397683.29,-0.0589207189048213,0.1722949267875858,7.366929310719558,-0.6856759974037728,0.5382866073980554,8.03318891661109,0.1091989537681021,-0.6506972951005143,7.978063883265053,2.7713310427782014,2.599204458841464,2.476575897961128,1.6118491568216462,0.5336854516006098,1.60980224609375,3.534456578696646,6.857523104039634,3.2091838557545733,0.8520944622507143,-16.068067002442003,0.774953020070209,-2.738617070759928,-34.84487484737485,-16.216688129578753,28.428040854224697,34.08293647227963,35.52062179890376,1577397682.999,-27.70736564104884,-51.12173525609263,17.66512
62557,1577397683.3,-0.0349787023032584,0.3339035388481323,9.355313789479323,-0.2128211695229134,0.0187448471441502,8.44259740049781,0.6095871007407584,-0.8721609486649675,9.395431266077551,-0.6618964962842987,-5.182777963033536,1.927259491711128,1.8102134146341464,-2.914800876524391,2.35748291015625,2.710481969321646,5.697855135289634,0.6457072932545732,0.2840314874168997,-16.981025354853482,1.5499060401404114,2.416426827141112,-28.75547924297924,-65.6012190934066,28.61973223110792,33.891245095396414,35.49666037679336,1577397682.999,-27.70736564104884,-51.12173525609263,17.66512
62558,1577397683.31,-0.1499003819907584,0.4727672351371947,10.969005708424636,-0.0871255823647093,-0.1057536391839747,9.48407512266578,-0.3385167566811166,-0.9380014943192644,10.037077310999427,-1.0891425900342986,-4.267250619283536,1.316907929211128,-1.3178383431783538,2.944574123475609,2.12860107421875,2.283235875571646,6.369241854039634,0.4320842463795732,0.2840314874168997,-16.981025354853482,1.5499060401404114,-3.382997557997558,-27.06398046398046,-62.36288919413919,28.428040854224697,34.03501362805883,35.616467487345375,1577397682.999,-27.70736564104884,-51.12173525609263,17.66512
62559,1577397683.32,0.1350096155678343,-0.3149251110542105,10.447069746510572,1.4954417149985708,-0.922176405297256,10.336410913681403,0.4395987828696646,0.962994623844798,9.766532523401771,-1.7605293087842986,4.918540396341464,2.751234101086128,-0.7990395150533537,-2.1213438452743905,1.97601318359375,-2.691129358803354,0.1436559165396341,0.3100139338795732,-1.4201574370845214,-17.528800366300366,2.63484026823871,26.258504854933427,-35.85977411477411,-8.930445856227106,28.76350076377033,34.03501362805883,35.52062179890376,1577397682.999,-27.70736564104884,-51.12173525609263,17.66512
62560,1577397683.33,-0.6790189488852896,-0.0276209118354609,9.67733391277034,-1.4566089319740851,-0.002802967797256,10.001222681259527,-0.8293280970131478,0.5823165598799543,9.44092109762052,-0.6618964962842986,0.8749612947789633,2.522352265148628,0.1164878286966463,-4.623785251524391,2.58636474609375,-0.8295570931783537,6.796487947789634,2.7819377620045733,0.0,-17.072321190094627,1.9373825501755175,26.258504854933427,-25.03418192918193,-15.407105654761905,28.475963698445504,33.84332225117561,35.616467487345375,1577397682.999,-27.70736564104884,-51.12173525609263,17.66512
62561,1577397683.34,0.2355660852943978,0.446431016875476,9.654588996998855,0.2732017674888052,-0.2673622512445216,10.29930078794898,0.2360916417563839,-0.4376133473466081,10.301636594446691,-0.7534492306592987,-4.633461556783536,1.835706757336128,0.1317466177591463,0.0148866234756097,1.83868408203125,-2.736905725990854,10.641702791539634,2.4004680354420733,-0.473385812361502,-15.885475331959707,2.7898308722527494,4.752306093377522,-30.70070283882784,-15.508303464114013,28.61973223110792,34.17878216072124,35.472698954682954,1577397682.999,-27.70736564104884,-51.12173525609263,17.66512
62562,1577397683.35,0.2116240686928353,0.0011095080864135,10.377637898366045,-0.1302212122475218,-0.1512434707269435,9.314086804794684,0.3486191197837271,-0.8015319996903582,10.48958142476896,1.0776054568407014,-1.6732564786585369,1.805189179211128,-2.019742640053354,-3.4946348608993905,2.92205810546875,1.4592612661966462,6.735452791539634,2.3241740901295733,-0.473385812361502,-15.885475331959707,2.7898308722527494,-3.060807314378743,-34.506575091575094,-13.38314946771978,28.475963698445504,34.08293647227963,35.28100757779974,1577397682.999,-27.70736564104884,-51.12173525609263,17.66512
62563,1577397683.36,-0.0254018956626334,-0.0587455334174917,9.975412019459792,0.1546887853110709,0.8998110580816502,10.278950073837654,0.6957783605063834,-0.9164536793778582,8.938138748987708,-2.5234687619092986,2.202475943216464,2.751234101086128,0.5742515005716463,-3.5251524390243905,1.82342529296875,-4.491666468178353,-0.9549768959603658,1.469681902629573,0.2840314874168997,-15.155108650030527,2.169868456196584,-3.382997557997558,-39.58107142857143,-13.38314946771978,28.57180938688711,33.939167939617214,35.52062179890376,1577397682.999,-27.70736564104884,-51.12173525609263,17.66512
62564,1577397683.37,0.251128396085413,-0.4047076733100698,8.224053505055496,-0.1014907923256468,-0.721063465844131,8.023612109970465,0.2073612218345084,0.8217367258955793,8.167205814417397,-2.4013984494092986,-0.9866109708460368,2.110364960461128,-0.8600746713033537,0.5642030297256098,1.91497802734375,1.9780600943216464,2.7986852134146343,1.774857683879573,-0.1893543249445985,-16.889729519612334,1.4724107381333913,-3.382997557997558,-40.934270451770445,-13.38314946771978,28.35615658789349,33.939167939617214,35.52062179890376,1577397682.999,-27.70736564104884,-51.12173525609263,17.66512
62565,1577397683.38,-0.3198886998618521,0.7265526111137572,9.7671164750262,0.558111765047399,-0.0722348159417877,8.884327606796639,-0.734757131436976,-1.595209850032155,10.311213401087318,-0.4787910275342987,-1.4901510099085369,1.713636444836128,-2.431729944740854,-1.816168064024391,2.18963623046875,-1.9892250619283536,4.355081697789634,1.484940691692073,1.0414487871953166,-16.981025354853482,2.4798496642246635,-0.8054756090470375,-36.87467338217338,-13.787940705128204,28.57180938688711,33.98709078383802,35.472698954682954,1577397682.999,-27.70736564104884,-51.12173525609263,17.66512
62566,1577397683.39,-0.2289090367759146,0.005897911406726,11.09350419475276,-0.1781052454506478,-0.0267449843988185,12.345146106552496,0.3055234899009146,-0.1766453663895759,11.677105448206458,-5.880402355659299,-1.3680806974085369,1.988294647961128,-3.057340296303354,2.456292873475609,1.48773193359375,0.2080405630716463,-7.607808927210366,1.256058855754573,1.0414487871953166,-16.981025354853482,2.4798496642246635,-0.8054756090470375,-36.87467338217338,-13.787940705128204,28.61973223110792,33.939167939617214,35.424776110462155,1577397682.999,-27.70736564104884,-51.12173525609263,17.66512
62567,1577397683.4,-0.2959466832602896,-0.6979973766792105,11.316164949147293,-0.6282151575600228,-0.4768548965081934,9.989251672958748,-0.352881966642054,-0.5860538502762956,10.52070604635099,-1.4553535275342986,1.5921243807164631,2.323988007336128,-3.393033655678354,2.029046779725609,2.09808349609375,-2.233365686928354,-7.851949552210366,1.774857683879573,1.0414487871953166,-16.981025354853482,2.4798496642246635,-3.2219024361881505,-27.571430097680096,-68.63715337396978,28.475963698445504,33.939167939617214,35.616467487345375,1577397682.999,-27.70736564104884,-51.12173525609263,17.66512
62568,1577397683.41,-0.3677727330649771,-0.1006440624702266,10.806199995534012,-0.4737891504799447,-0.4864317031488184,9.772576422714607,0.1151844579184927,0.3955688303877668,9.774912229212315,-2.8439033322217986,-0.3610006192835367,1.896741913586128,-2.096036585365854,-1.190557712461891,2.26593017578125,-1.2568031869283538,-3.4574183022103657,1.927445574504573,-0.0946771624722973,-16.2506586729243,1.704896644154458,-1.9331414617128904,-25.03418192918193,-65.6012190934066,28.35615658789349,34.01105220594842,35.472698954682954,1577397682.999,-27.70736564104884,-51.12173525609263,17.66512
62569,1577397683.42,-0.1618713902915396,0.3075673205864135,9.716838240162918,-0.3768239832436165,-0.5630461562738185,9.357182434677496,0.2863698766196647,0.101082026188548,11.310792594202551,0.2536308474657013,0.0967630525914634,2.079847382336128,-2.691129358803354,2.883538967225609,1.97601318359375,-2.477506311928354,4.721292635289634,2.8124553401295733,0.2840314874168997,-15.155108650030527,2.4798496642246635,-3.382997557997558,-25.03418192918193,-61.14851548191391,28.475963698445504,33.939167939617214,35.424776110462155,1577397682.999,-27.70736564104884,-51.12173525609263,17.66512
62570,1577397683.43,-0.7412681920493521,-0.2239454479682729,10.083151094166825,0.0301902989829459,-0.0099855727777247,10.444149988388435,0.0804685338462271,-1.239670903498952,10.082567142542397,-3.9883125119092986,-1.6122213224085369,2.354505585461128,-1.0431801400533538,-4.501714939024391,0.90789794921875,-3.240445765053354,-2.5113733803353657,1.530717058879573,0.2840314874168997,-15.155108650030527,2.4798496642246635,-3.382997557997558,-33.15337606837607,-12.168775755494504,28.428040854224697,34.22670500494204,35.32893042202055,1577397682.999,-27.70736564104884,-51.12173525609263,17.66512
62571,1577397683.44,0.3899920923744759,-0.7901741405952261,9.755145466725418,0.2600336583579459,-0.213492713891006,9.156069495224372,1.143494070955602,1.796176801579173,9.187135721643958,-1.9436347775342984,-2.543007455221036,2.003553437023628,-0.3717934213033537,-3.1284239233993905,2.31170654296875,-1.4399086556783538,-2.3587854897103657,3.2702190120045733,-0.6627401373061119,-16.068067002442007,1.7048966441544544,-3.382997557997558,-29.093778998779,-15.407105654761905,28.57180938688711,34.08293647227963,35.424776110462155,1577397682.999,-27.70736564104884,-51.12173525609263,17.66512
62572,1577397683.45,0.0081169275795531,-0.4561830090034292,10.403974116627762,0.1917989110434932,-0.8659126662835841,9.490060626816168,-0.8556643152748665,-1.0900332997391862,10.582955289515052,-0.5093086056592987,-0.9408346036585366,1.713636444836128,-1.1347328744283538,-1.0532286108993911,2.05230712890625,-1.4093910775533538,-3.1369837318978657,2.6446086604420733,1.230803112139919,-16.068067002442003,1.7048966441544513,-3.060807314378743,-30.44697802197802,-15.811896892170328,28.61973223110792,33.98709078383802,35.304968999910145,1577397682.999,-27.70736564104884,-51.12173525609263,17.66512
62573,1577397683.46,-0.1475061803306021,0.3075673205864135,10.923515876881668,0.2313032384360709,0.7082749252691503,11.962073840927497,-0.5707543177162728,1.3987393259932357,9.694706473597083,-2.2793281369092986,-1.8258443692835369,1.713636444836128,-1.6230141244283538,-2.7622129858993905,1.30462646484375,-2.691129358803354,-0.7413538490853658,1.896927996379573,-0.6627401373061044,-16.798433684371187,2.324859060210624,-2.5775219489505203,-35.690624236874235,-15.609501273466115,28.428040854224697,34.08293647227963,35.616467487345375,1577397682.999,-27.70736564104884,-51.12173525609263,17.66512
62574,1577397683.47,-0.2839756749595084,-0.6596901501167105,10.59551024944026,-0.3265457483803353,-0.673179432641006,10.18557620909156,-0.640186165860804,-1.546128715998952,12.58211367574552,-2.4624336056592986,2.812827505716464,2.232435272961128,-0.4633461556783537,-0.3513243140243902,1.85394287109375,-1.5314613900533538,4.507669588414634,2.1715861995045733,0.662740137306112,-16.981025354853482,1.2399248321123315,-2.5775219489505203,-35.690624236874235,-15.609501273466115,28.428040854224697,34.03501362805883,35.424776110462155,1577397682.999,-27.70736564104884,-51.12173525609263,17.66512
62575,1577397683.48,-0.4072770604575553,-0.310136707733898,9.93231638957698,0.2815814732993521,-0.8647155654535059,10.355564526962654,0.5353668492759146,-0.1503091481278572,10.06101932760099,0.6198417849657014,0.3256448885289634,2.217176483898628,-0.7685219369283537,-2.6706602515243905,2.49481201171875,-2.111295374428354,-0.2835901772103658,1.042435808879573,0.2840314874169073,-16.798433684371187,1.0849342280982883,-0.8054756090470375,-33.15337606837607,-12.573566992902933,28.380118010003898,33.939167939617214,35.47269895468296,1577397682.999,-27.70736564104884,-51.12173525609263,17.66512
62576,1577397683.49,-0.5521262608970083,-0.9206581310737416,10.030478657643386,-0.3445022608315072,-0.6372664077386622,9.631318524765389,0.2444713475669302,-0.3813496083329362,9.95926575704435,-2.5234687619092986,-0.8492818692835366,2.354505585461128,-0.3412758431783537,-2.3960020483993905,1.97601318359375,-0.9974037728658538,-1.0923059975228655,2.4157268245045733,1.4201574370845214,-16.61584201388889,0.9299436240842456,-2.658069509855224,-32.392201617826615,-9.63883052169185,28.475963698445504,34.01105220594842,35.35289184413095,1577397682.999,-27.70736564104884,-51.12173525609263,17.66512
62577,1577397683.5,-0.2815814732993521,0.1663094226371947,9.14701824504573,-0.199653060392054,1.1392312240972753,12.191917200302496,-0.2978153284584603,1.4370465525557354,8.195936234339271,-0.2041328244092987,-1.8258443692835369,2.293470429211128,1.3677085318216462,-9.84229111089939,1.67083740234375,-0.9211098275533536,1.150735994664634,1.896927996379573,0.4733858123615097,-17.16361702533578,2.014877852182544,-2.5775219489505203,-31.631027167277168,-9.942423949748168,28.57180938688711,34.08293647227963,35.52062179890376,1577397682.999,-27.70736564104884,-51.12173525609263,17.66512
62578,1577397683.51,-0.2217264317954459,0.388970177031726,10.617058064381668,-0.0703661707436156,-0.606141786156631,10.367535535263436,-1.6194146448647102,-2.2715718190262955,11.89258359762052,3.3053886599657014,-0.7577291349085366,2.262952851086128,2.100130406821646,-4.104986423399391,1.94549560546875,0.0859702505716463,2.5545445884146343,1.713822527629573,0.0946771624722973,-16.798433684371187,2.324859060210624,-2.5775219489505203,-29.60122863247863,-62.16049357543498,28.475963698445504,34.03501362805883,35.616467487345375,1577397682.999,-27.70736564104884,-51.12173525609263,17.66512
62579,1577397683.52,-0.0661033238852901,-0.684829267548351,9.771904878346511,0.3785466405356807,-1.0167473708734278,9.525973651718513,1.1279317601645864,1.3819799143721418,9.19910672994474,-0.0210273556592985,-1.0323873380335369,2.095106171398628,-0.6311928353658537,-0.2292540015243903,2.00653076171875,0.0554526724466462,-1.8857630287728655,2.064774676067073,-0.0946771624723012,-16.798433684371187,1.8598872481684976,-2.5775219489505203,-25.203331807081803,-61.75570233802655,28.523886542666308,34.15482073861084,35.40081468835176,1577397682.999,-27.70736564104884,-51.12173525609263,17.66512
62580,1577397683.53,-0.0589207189048209,-0.6692669567573355,8.862108247487136,0.8897086949790396,-0.0243507827386622,10.401054358505622,-1.1070554895912728,-3.396846599299733,10.29086268697599,-2.2488105587842986,-2.5887838224085367,2.201917694836128,1.2456382193216462,-1.1752989233993902,0.93841552734375,-8.123258265053353,9.329446932164634,2.9040080745045733,0.2840314874168997,-16.2506586729243,0.6199624160561659,-1.772046339903483,-35.1831746031746,-17.026270604395606,28.475963698445504,34.17878216072124,35.52062179890376,1577397682.999,-27.70736564104884,-51.12173525609263,17.66512
62581,1577397683.54,0.2331718836342415,0.1088485827934447,8.881261860768387,0.2313032384360709,-0.0435043960199122,8.28218588926734,-0.1254328089272093,0.2974065623213605,10.793645035608805,0.6808769412157013,-2.4056783536585367,2.140882538586128,1.4592612661966462,-5.752935642149391,2.86102294921875,0.3606284536966463,1.120218416539634,0.6151897151295732,-0.2840314874168997,-17.528800366300366,1.7048966441544513,4.349568288854003,-30.78527777777777,-13.787940705128204,28.475963698445504,33.939167939617214,35.616467487345375,1577397682.999,-27.70736564104884,-51.12173525609263,17.66512
62582,1577397683.55,0.477380452970179,-0.3245019176948355,11.220396882741042,0.8466130650962271,-0.8311967422113185,11.67237544004859,1.160253482576696,1.6836493235518293,9.936520841272865,-0.5093086056592987,-4.663979134908536,2.262952851086128,1.5202964224466462,-3.7998106421493913,1.39617919921875,1.2456382193216462,-3.6710413490853657,0.8593303401295732,0.662740137306112,-15.885475331959707,1.5499060401404114,6.604899994185707,-31.12357753357753,-15.407105654761905,28.61973223110792,34.08293647227963,35.616467487345375,1577397682.999,-27.70736564104884,-51.12173525609263,17.66512
62583,1577397683.56,0.0296647425209603,-0.2598584728706167,11.155753437916824,0.2624278600181021,-0.0698406142816315,10.762578809189216,-0.4713949488197884,0.244734125797923,9.500776139124428,-0.5703437619092986,3.453696646341464,2.415540741711128,-0.6159340463033537,3.600702053163109,2.15911865234375,-2.569059046303354,9.756693025914634,1.133988543254573,0.662740137306112,-16.615842013888887,1.7048966441544575,-2.980259753474039,-35.6060492979243,-16.115490320226648,28.4520022763351,33.98709078383802,35.376853266241355,1577397682.999,-27.70736564104884,-51.12173525609263,17.66512
62584,1577397683.57,0.6090615442787728,-1.219933338593273,8.969847322194168,0.9615347447837272,-1.1999037978753808,7.872777405380622,0.1546887853110709,1.2742408396651106,8.205513040979897,0.4672538943407013,-0.3915181974085365,1.713636444836128,-2.385953577553354,5.3859803734756095,0.81634521484375,2.679964391196646,-1.016012052210366,3.911088152629573,0.4733858123615097,-17.528800366300366,0.464971812042126,-3.382997557997558,-35.85977411477411,-15.407105654761905,28.475963698445504,33.84332225117561,35.52062179890376,1577397682.999,-27.70736564104884,-51.12173525609263,17.66512
62585,1577397683.58,0.2595081018959603,-0.0755049450385854,8.886050264088698,-0.324151546720179,0.0378984604253992,8.653287146591559,-0.4893514612709603,-1.0744709889481705,8.308463712366615,3.2138359255907014,-0.2084127286585365,1.469495819836128,1.7339194693216462,-4.989996189024391,3.65447998046875,-1.1652504525533538,1.944193025914634,3.2702190120045733,-0.473385812361502,-15.520291990995116,0.6199624160561659,-3.2219024361881505,-30.277828144078143,-16.419083748282965,28.61973223110792,34.08293647227963,35.52062179890376,1577397682.999,-27.70736564104884,-51.12173525609263,17.66512
62586,1577397683.59,0.4606210413490853,0.7289468127739135,8.933934297291824,0.4180509679282584,1.2589413071050877,10.815251245712654,0.2528510533774771,-1.2276998951981706,8.121715982874427,0.5588066287157013,-2.1920553067835367,1.927259491711128,0.8794272818216463,1.3576600609756098,1.02996826171875,1.5813315786966462,7.040628572789634,2.1715861995045733,1.0414487871953166,-18.07657537774725,2.169868456196584,-2.5775219489505203,-30.277828144078143,-16.823874985691393,28.57180938688711,34.03501362805883,35.616467487345375,1577397682.999,-27.70736564104884,-51.12173525609263,17.66512
62587,1577397683.6,0.1409951197182254,-0.2838004894721797,9.975412019459792,0.5365639501059928,-0.2996839736566314,8.721521893906012,0.7424652928794302,-0.5525350270341076,10.459653904017005,0.2078544802782013,0.0662454744664634,2.552869843273628,-1.4246498666158536,4.9282167016006095,2.00653076171875,2.176424352134146,4.583963533727134,1.118729754192073,-0.473385812361502,-16.61584201388889,2.169868456196584,-2.658069509855224,-27.317705280830275,-13.484347277071889,28.64369365321832,34.130859316500434,35.49666037679336,1577397682.999,-27.70736564104884,-51.12173525609263,17.66512
62588,1577397683.61,0.2259892786537728,-0.0180441051948354,11.33053015910823,-0.764684652188929,0.2198577865972742,10.86313527891578,1.131523062654821,-1.4192360280106706,10.05383672262052,-0.8755195431592987,-1.7953267911585369,1.713636444836128,0.3606284536966463,-2.9758360327743905,4.02069091796875,2.283235875571646,1.608499666539634,0.7677776057545732,0.4733858123615097,-17.16361702533578,0.7749530200702057,-2.738617070759928,-24.35758241758241,-10.14481956845238,28.428040854224697,34.03501362805883,35.52062179890376,1577397682.999,-27.70736564104884,-51.12173525609263,17.66512
62589,1577397683.62,0.2499312952553353,-0.8248900646674917,10.327359663502762,0.5353668492759146,-0.5127679214105372,10.815251245712654,-0.2714791101967416,1.860820246403392,10.970815958460364,-0.6924140744092987,1.6531595369664631,2.110364960461128,1.0320151724466462,3.8906190453506095,0.51116943359375,-3.087857874428354,-0.4972132240853658,-0.0561970036204267,1.230803112139919,-16.068067002442003,1.3949154361263716,-3.382997557997558,-26.04908119658119,-62.36288919413919,28.61973223110792,34.17878216072124,35.47269895468296,1577397682.999,-27.70736564104884,-51.12173525609263,17.66512
62590,1577397683.63,-0.3127060948813834,0.120819591094226,10.365666890065262,0.1570829869712271,-0.9963966567620997,8.286974292587653,0.3270713048423209,1.336490082829173,10.623656717737708,-1.0891425900342986,0.8597025057164634,2.049329804211128,-1.0431801400533538,1.0524842797256098,4.02069091796875,0.8183921255716463,9.970316072789634,2.8429729182545733,0.4733858123615097,-16.068067002442003,1.084934228098292,-2.255331705331705,-33.99912545787546,-7.918467762706044,28.475963698445504,33.891245095396414,35.32893042202055,1577397682.999,-27.70736564104884,-51.12173525609263,17.66512
62591,1577397683.64,0.1625429346596322,-0.4394235973823359,9.429534040944167,0.0541323155845084,-0.0147739760980377,10.150860285019291,0.1570829869712271,-0.4352191456864518,8.844764884241615,-0.3109443478467986,-0.6661764005335368,2.247694062023628,0.8031333365091463,-0.0156309546493902,2.20489501953125,1.5050376333841462,6.888040682164634,2.0952922541920733,1.0414487871953166,-16.61584201388889,2.7898308722527494,-3.2219024361881505,-31.12357753357753,-16.62147936698718,28.52388654266631,33.98709078383802,35.424776110462155,1577397682.999,-27.70736564104884,-51.12173525609263,17.66512
62592,1577397683.65,0.4821688562904915,-0.1209947765815542,9.647406392018386,2.014983475252477,-1.1735675796136622,7.958968665146246,-0.7862324671303352,-1.1462970387528582,9.548660172327551,3.0917656130907014,2.141440786966464,2.201917694836128,-0.4938637338033537,0.9914491234756098,2.52532958984375,2.557894078696646,-1.046529630335366,3.1786662776295733,1.0414487871953166,-16.61584201388889,2.7898308722527494,-3.060807314378743,-29.770378510378507,-17.026270604395606,28.61973223110792,34.17878216072124,35.28100757779974,1577397682.999,-27.70736564104884,-51.12173525609263,17.66512
62593,1577397683.66,0.5300528894936165,0.408123790312976,9.973017817799636,-0.2427486902748665,0.8327734115972752,8.861582691025154,-0.1038849939858031,-0.6291494801591081,7.357965653284584,1.5964042849657014,2.965415396341464,2.140882538586128,0.2995932974466463,-4.623785251524391,2.49481201171875,4.541536656821647,-2.1756800209603657,1.835892840129573,0.662740137306112,-16.981025354853482,1.5499060401404114,-3.2219024361881505,-34.67572496947496,-13.180753849015568,28.38011801000389,34.17878216072124,35.52062179890376,1577397682.999,-27.70736564104884,-51.12173525609263,17.66512
62594,1577397683.67,0.496534066251429,0.025051524687976,8.728032954518387,-0.7215890223061165,0.2533766098394617,8.916649329208747,-0.3265457483803353,0.4171166453291731,8.600556314905678,0.3146660037157013,3.209556021341464,2.415540741711128,0.2080405630716463,6.0878846703506095,3.16619873046875,5.792757359946647,2.7071324790396343,1.744340105754573,1.0414487871953166,-15.520291990995116,0.9299436240842456,-3.382997557997558,-34.506575091575094,-13.787940705128204,28.57180938688711,34.08293647227963,35.52062179890376,1577397682.999,-27.70736564104884,-51.12173525609263,17.66512
62595,1577397683.68,0.3313341517006478,-0.4418177990424917,9.854504835621904,0.3713640355552115,-0.9245706069574122,8.88911601011695,-0.4582268396889291,-0.1766453663895769,8.818428665979896,-0.6313789181592986,1.6379007479039631,1.866224335461128,0.8489097036966462,-1.4804747046493911,2.52532958984375,2.237459508384146,2.1120397056021343,0.9814006526295732,0.4733858123615097,-16.433250343406595,2.324859060210624,-2.0136890226175943,-29.68580357142857,-11.865182327438186,28.4520022763351,34.058975050169224,35.56854464312457,1577397682.999,-27.70736564104884,-51.12173525609263,17.66512
62596,1577397683.69,0.0464241541420531,0.0394167346489135,10.3417248734637,0.8873144933188833,0.2246461899175867,11.215082922958748,1.833024149080602,-0.0808772999833259,9.780897733362709,0.2231132693407013,3.087485708841464,1.835706757336128,-1.3178383431783538,2.730951076600609,2.12860107421875,-0.4023109994283537,4.965433260289634,1.835892840129573,0.4733858123615097,-16.433250343406595,2.324859060210624,9.021326821326822,-27.571430097680096,-16.419083748282965,28.61973223110792,34.08293647227963,35.32893042202055,1577397682.999,-27.70736564104884,-51.12173525609263,17.66512
62597,1577397683.7,-0.0158250890220084,-0.0611397350776479,9.211661689869947,0.2887640782798209,0.1193013168707117,9.354788233017342,0.7173261754477896,-0.6219668751786394,9.21107773824552,-1.3943183712842986,2.080405630716464,2.049329804211128,-2.233365686928354,8.46825576410061,1.64031982421875,1.1235679068216462,5.758890291539634,1.317094012004573,-0.6627401373061044,-16.433250343406595,0.464971812042126,8.860231699517414,-27.740579975579973,-16.216688129578753,28.38011801000389,33.939167939617214,35.52062179890376,1577397682.999,-27.70736564104884,-51.12173525609263,17.66512
62598,1577397683.71,-0.0014598790610709,0.3362977405082885,10.001748237721513,0.0565265172446646,-0.1895506972894435,9.012417395614998,-0.5803311243568978,-0.7416769581864519,11.444867887171302,0.1620781130907013,1.8057474275914636,1.896741913586128,-1.5314613900533538,-0.3513243140243902,2.98309326171875,2.130647984946646,10.519632479039634,1.133988543254573,-0.473385812361502,-17.34620869581807,2.6348402682387064,8.860231699517414,-27.740579975579973,-16.216688129578753,28.523886542666308,33.84332225117561,35.52062179890376,1577397682.999,-27.70736564104884,-51.12173525609263,17.66512
62599,1577397683.72,0.3361225550209603,-0.3652033459174917,8.505372200123855,-0.3289399500404916,-0.2996839736566314,9.62413591978492,-0.3780210840736946,-0.3921235158036394,9.774912229212315,1.1996757693407014,4.674399771341464,2.018812226086128,0.0554526724466462,-0.0766661108993906,2.28118896484375,1.0014975943216462,2.3104039634146343,1.271317644817073,0.0946771624722973,-16.068067002442003,1.7048966441544513,2.0136890226175934,-24.611307234432232,-15.3059078454098,28.57180938688711,34.01105220594842,35.376853266241355,1577397682.999,-27.70736564104884,-51.12173525609263,17.66512
62600,1577397683.73,0.0655777674233031,-0.2359164562690542,8.529314216725417,1.0142071813071647,-1.0706169082269434,8.313310510849371,0.2169380284751334,-1.1008072072098891,10.116085965784585,0.5588066287157013,1.988852896341464,2.293470429211128,-1.7450844369283538,6.5456483422256095,1.06048583984375,-5.712369593178353,4.568704744664634,2.4157268245045733,0.0946771624722973,-16.068067002442003,1.7048966441544513,2.0942365835222976,-24.35758241758241,-16.216688129578753,28.428040854224697,34.27462784916285,35.32893042202055,1577397682.999,-27.70736564104884,-51.12173525609263,17.66512
62601,1577397683.74,-0.2600336583579459,-0.3005599010932729,8.502977998463699,-0.6689165857826791,0.456883750952743,9.122550671982184,1.447557681795446,0.340502192204173,8.006794303186927,-1.3027656369092986,0.4934915682164634,1.896741913586128,0.2690757193216463,-4.654302829649391,3.31878662109375,5.762239781821647,-3.4574183022103657,1.439164324504573,-0.2840314874168997,-15.702883661477411,2.014877852182544,-3.382997557997558,-35.1831746031746,-12.978358230311354,28.61973223110792,33.939167939617214,35.424776110462155,1577397682.999,-27.70736564104884,-51.12173525609263,17.66512
62602,1577397683.75,0.1577545313393197,-0.1796527172553823,10.25194231120784,0.8561898717368521,0.2054925766363367,10.642868726181405,-0.735954232267054,-0.3107206593583269,8.88546631246427,-0.5398261837842987,-2.1005025724085367,1.805189179211128,-0.7990395150533537,-1.4499571265243902,1.27410888671875,-1.0431801400533538,-2.0230921303353657,2.1715861995045733,-0.0946771624723012,-16.2506586729243,2.169868456196584,-3.382997557997558,-28.417179487179485,-13.787940705128204,28.61973223110792,34.03501362805883,35.28100757779974,1577397682.999,-27.70736564104884,-51.12173525609263,17.66512
62603,1577397683.76,-0.2193322301352896,0.4703730334770385,12.35764267131526,0.1929960118735713,-0.2733477553949127,9.976083563827888,0.4168538670981803,-0.4878915822098894,10.64759873433927,-2.3708808712842986,2.873862661966464,2.079847382336128,-1.5772377572408538,0.6557557641006094,2.51007080078125,-2.904752405678354,4.721292635289634,1.439164324504573,1.0414487871953166,-16.2506586729243,1.859887248168504,-2.738617070759928,-35.1831746031746,-17.026270604395606,28.66765507532872,34.17878216072124,35.472698954682954,1577397682.999,-27.70736564104884,-51.12173525609263,17.66512
62604,1577397683.77,-0.3294655065024771,-0.1066295666206167,10.222014790455887,-0.9801628016029916,-0.012379774437881,10.906230908798593,0.4731176061118521,0.9582062205244856,9.630063028772865,-4.293488293159299,2.110923208841464,2.354505585461128,-0.0666176400533536,3.585443264100609,1.33514404296875,1.9170249380716464,-3.7320765053353657,3.1176311213795733,1.0414487871953166,-16.2506586729243,1.859887248168504,-3.382997557997558,-31.461877289377288,-15.407105654761905,28.284272321562284,34.08293647227963,35.32893042202055,1577397682.999,-27.70736564104884,-51.12173525609263,17.66512
62605,1577397683.78,-0.2313032384360709,-0.319713514374523,9.455870259205886,0.9232275182212272,-1.434535560570693,8.784968237900152,0.5233958409751334,-2.166226945979421,9.060243033655675,-1.6689765744092986,3.392661490091464,2.385023163586128,-1.3178383431783538,2.273187404725609,2.79998779296875,-2.324918421303354,-5.318990567835366,2.6293498713795733,0.2840314874168997,-16.61584201388889,1.2399248321123315,-2.5775219489505203,-32.984226190476186,-14.799918798649268,28.23634947734148,34.08293647227963,35.52062179890376,1577397682.999,-27.70736564104884,-51.12173525609263,17.66512
62606,1577397683.79,-0.3450278172934927,0.0250515246879765,8.907598079030105,1.1746186925376334,0.7393995468511815,9.601391004013434,-0.975374398282679,-0.5142278004716081,7.769768338831459,-1.9283759884717984,0.1883157869664634,2.369764374523628,-1.7450844369283538,-1.8466856421493905,1.79290771484375,-0.9516274056783536,-2.2061975990853657,4.063676043254573,0.0,-15.976771167200855,2.247363758203604,-2.899712192569336,-30.277828144078143,-16.014292510874544,28.4759636984455,34.03501362805883,35.424776110462155,1577397682.999,-27.70736564104884,-51.12173525609263,17.66512
62607,1577397683.8,0.0967023890053343,-0.1186005749213979,8.672966316334792,-0.132615413907679,-0.3164433852777252,10.132903772568122,0.2348945409263052,-0.4579640614579363,8.009188504847083,-1.0586250119092986,-1.3680806974085369,2.110364960461128,-0.1734291634908537,-0.0461485327743902,2.03704833984375,2.252718297446646,0.6777135337271343,2.3699504573170733,1.230803112139919,-17.528800366300366,1.084934228098292,7.571470725042153,-26.38738095238095,-10.549610805860803,28.428040854224697,34.058975050169224,35.472698954682954,1577397682.999,-27.70736564104884,-51.12173525609263,17.66512
62608,1577397683.81,0.257113900235804,0.034628331328601,9.678531013600418,-0.0871255823647093,0.5287098007574305,8.07149614317359,-1.3033800257240853,-1.462331657893483,8.507182450159583,0.7724296755907013,2.294028677591464,2.171400116711128,-1.8061195931783536,0.5947206078506098,2.61688232421875,-1.6230141244283538,3.1648961509146343,0.6457072932545732,1.230803112139919,-17.528800366300366,1.084934228098292,7.249280481423338,-26.38738095238095,-10.549610805860803,28.475963698445504,33.891245095396414,35.32893042202055,1577397682.999,-27.70736564104884,-51.12173525609263,17.66512
62609,1577397683.82,0.1565574305092415,-0.319713514374523,9.28109353801448,1.593603983064977,-0.031533387719131,9.745043103622807,0.4132625646079459,2.15530705060261,8.203118839319739,-0.9670722775342988,-0.7577291349085366,1.774671601086128,-1.8366371713033536,2.395257717225609,0.84686279296875,-4.339078577553353,5.545267244664634,1.530717058879573,0.4733858123615097,-14.60733363858364,2.324859060210624,7.249280481423338,-26.38738095238095,-10.549610805860803,28.38011801000389,34.08293647227963,35.47269895468296,1577397682.999,-27.70736564104884,-51.12173525609263,17.66512
62610,1577397683.83,0.1314183130776009,-0.5950467052924917,9.70367013103206,-0.0643806665932259,-0.3846781325921778,10.867923682236093,-1.2950003199135385,-1.7699865712235612,12.956806235559974,-1.3180244259717986,1.4395364900914631,2.400281952648628,-1.0279213509908538,-1.770391696836891,2.90679931640625,-2.4622475228658534,-2.6029261147103657,0.3252727229420731,0.7574172997784093,-16.341954508165447,2.092373154189564,2.0942365835222976,-25.71078144078144,-12.168775755494506,28.499925120555904,34.17878216072124,35.52062179890376,1577397682.999,-27.70736564104884,-51.12173525609263,17.66512
62611,1577397683.84,-0.0373729039634146,-0.1186005749213979,11.443057637135574,-0.4007659998451791,-0.0387159926995997,10.408236963486091,-0.5899079309975228,1.7411101633955792,13.688234842737709,-2.0046699337842986,0.4629739900914634,2.110364960461128,-0.5548988900533537,2.547845607850609,1.45721435546875,-5.834439905678353,-19.235006192835368,3.2091838557545733,0.8520944622507143,-16.433250343406595,2.63484026823871,-3.060807314378743,-24.35758241758241,-17.026270604395606,28.61973223110792,34.03501362805883,35.52062179890376,1577397682.999,-27.70736564104884,-51.12173525609263,17.66512
62612,1577397683.85,-0.1690539952720084,-0.6381423351753042,10.899573860280103,0.0373729039634146,-1.7242339614495996,8.801727649521245,1.5720561681235707,0.8361019358565168,9.546265970667395,-1.5774238400342986,1.0428079744664631,2.049329804211128,-0.9821449838033536,2.120599514100609,2.46429443359375,-2.874234827553354,-19.265523770960368,6.962845965129573,0.8520944622507143,-16.433250343406595,2.63484026823871,5.960519506948078,-30.108678266178263,-13.787940705128204,28.61973223110792,34.08293647227963,35.52062179890376,1577397682.999,-27.70736564104884,-51.12173525609263,17.66512
62613,1577397683.86,0.2008501612221322,-0.1257831799018672,9.990974330250808,-0.1230386072670531,-0.1057536391839747,9.524776550888436,0.5640972691977897,-0.4878915822098894,7.166429520472084,0.4672538943407013,1.0428079744664631,1.942518280773628,-3.759244593178354,0.8083436547256098,2.61688232421875,-8.703092249428353,-12.460103849085366,6.321976824504573,0.7574172997784132,-15.976771167200855,2.092373154189561,6.121614628757486,-30.277828144078143,-16.419083748282965,28.595770808997518,34.03501362805883,35.28100757779974,1577397682.999,-27.70736564104884,-51.12173525609263,17.66512
62614,1577397683.87,0.0344531458412718,-0.338867127655773,9.458264460866042,-0.3433051600014291,-0.6408577102288966,10.203532721542732,0.0840598363364615,-0.3897293141434831,8.51556215597013,-2.4319160275342986,1.988852896341464,1.927259491711128,-1.4093910775533538,1.0524842797256095,2.29644775390625,-1.1805092416158538,4.141458650914634,3.697465105754573,-0.0946771624722973,-16.2506586729243,2.169868456196584,0.4027378045235186,-34.42200015262515,-13.484347277071889,28.61973223110792,34.08293647227963,35.35289184413095,1577397682.999,-27.70736564104884,-51.12173525609263,17.66512
62615,1577397683.88,-0.1475061803306021,-0.9350233410346792,9.240392109791824,-0.2619023035561165,-0.3523564101800684,8.66525815489234,-0.8269338953529916,-1.462331657893483,10.513523441370522,-1.0281074337842986,0.8902200838414634,1.957777069836128,-0.6159340463033537,3.585443264100609,2.67791748046875,0.5132163443216463,2.7681676352896343,1.835892840129573,1.9882204119183284,-14.972516979548232,2.014877852182544,-2.094236583522298,-30.44697802197802,-12.168775755494504,28.428040854224697,33.891245095396414,35.52062179890376,1577397682.999,-27.70736564104884,-51.12173525609263,17.66512
62616,1577397683.89,0.218806673673304,-0.2311280529487417,9.324189167897291,0.8992855016196646,-0.8120431289300685,9.950944446396248,1.3278475987876333,0.8073715159346417,9.388248661097084,2.3288261599657014,1.3174661775914631,1.957777069836128,0.1470054068216463,-0.4733946265243902,1.97601318359375,2.283235875571646,-3.2743128334603657,2.2326213557545733,1.9882204119183284,-14.972516979548232,2.014877852182544,6.927090237804523,-29.093778998779,-16.62147936698718,28.428040854224697,34.08293647227963,35.616467487345375,1577397682.999,-27.70736564104884,-51.12173525609263,17.66512
62617,1577397683.9,-0.385729245516149,-0.1533164989936641,9.871264247242996,-1.119026497892054,0.5502576156988367,10.858346875595466,-0.6689165857826791,-1.433601237971608,10.587743692835364,-1.1959541134717986,1.2716898104039636,2.262952851086128,0.5742515005716463,-3.0673887671493905,2.58636474609375,6.311556188071647,-9.133687833460366,2.2936565120045733,1.1361259496676142,-16.15936283768315,2.7123355702457266,-0.8054756090470375,-28.417179487179485,-10.549610805860803,28.428040854224697,34.03501362805883,35.52062179890376,1577397682.999,-27.70736564104884,-51.12173525609263,17.66512
62618,1577397683.91,-0.1211699620688833,0.3051731189262572,11.340106965748856,-0.3744297815834603,-0.5199505263910059,10.90144250547828,-0.0931110865151009,0.0603805979658923,11.04503620992521,1.3827812380907014,0.7071146150914634,2.262952851086128,0.1164878286966463,3.142938381288109,2.11334228515625,0.7573569693216462,-1.9467981850228655,0.3710490901295732,0.662740137306112,-16.981025354853482,1.859887248168504,-2.4164268271411133,-24.357582417582417,-61.95809795673077,28.475963698445504,33.98709078383802,35.32893042202055,1577397682.999,-27.70736564104884,-51.12173525609263,17.66512
62619,1577397683.92,-0.6047986974204459,-0.7650350231635854,11.902744355885574,-0.8676353235756478,-1.305248670922256,11.215082922958748,-0.0823371790443968,-0.1718569630692634,10.15678739400724,0.3757011599657013,1.6531595369664631,2.354505585461128,-0.5548988900533537,3.371820217225609,3.13568115234375,-0.0361000619283536,1.425394197789634,2.9345256526295733,-0.0946771624722973,-15.520291990995116,2.4798496642246635,-2.738617070759928,-23.680982905982905,-62.36288919413919,28.475963698445504,34.17878216072124,35.424776110462155,1577397682.999,-27.70736564104884,-51.12173525609263,17.66512
62620,1577397683.93,0.1014907923256468,-0.8224958630073355,9.036884968678542,-0.7024354090248666,-0.3930578384027247,10.65723393614234,0.7292971837485709,-1.0912304005692643,10.740972599085366,1.8710624880907007,3.575766958841464,2.385023163586128,1.8865073599466464,3.097162014100609,2.00653076171875,-0.4328285775533537,-6.478658536585366,3.5448772151295733,-0.8520944622507067,-16.61584201388889,1.859887248168504,-3.382997557997558,-24.35758241758241,-62.36288919413919,28.428040854224697,33.939167939617214,35.424776110462155,1577397682.999,-27.70736564104884,-51.12173525609263,17.66512
62621,1577397683.94,0.0380444483315072,-0.3029541027534297,9.21764719402034,0.0780743321860708,-0.8718981704339747,9.014811597275154,-0.2164124720131478,-0.8877232594559831,9.005176395472084,0.4367363162157013,-0.9408346036585368,1.850965546398628,0.6352866568216463,0.1674745141006097,2.22015380859375,0.6658042349466463,7.589944979039634,2.6598674495045733,0.1893543249446061,-16.15936283768315,1.317420134119355,5.638329263329263,-29.770378510378507,-68.02996651785715,28.523886542666308,34.08293647227963,35.424776110462155,1577397682.999,-27.70736564104884,-51.12173525609263,17.66512
62622,1577397683.95,0.2523254969154915,0.1639152209770385,8.778311189381668,0.0541323155845084,0.1025419052496184,8.362391644882575,-0.0224821375404915,-2.0967950978348893,9.30804290548185,2.2983085818407014,-2.1615377286585367,1.957777069836128,1.2151206411966462,0.7167909203506091,2.37274169921875,-0.9363686166158538,4.141458650914634,2.4767619807545733,1.798866086973726,-15.520291990995116,2.169868456196584,4.6717585324728175,-30.95442765567765,-12.371171374198717,28.428040854224697,34.10689789439003,35.424776110462155,1577397682.999,-27.70736564104884,-51.12173525609263,17.66512
62623,1577397683.96,-0.3917147496665396,-0.3221077160346792,11.268280915944167,-0.4701978479897103,-0.4768548965081934,11.286908972763436,-0.1613458338295541,0.5751339548994856,8.79688085103849,-1.8825996212842984,-1.2765279630335369,1.866224335461128,0.2995932974466463,0.8083436547256098,1.70135498046875,0.8183921255716463,-2.5418909584603657,-0.6970661442454268,0.8520944622507143,-15.702883661477411,1.7048966441544513,-2.738617070759928,-35.85977411477411,-16.216688129578753,28.61973223110792,34.03501362805883,35.52062179890376,1577397682.999,-27.70736564104884,-51.12173525609263,17.66512
62624,1577397683.97,-0.0254018956626334,-0.1952150280463979,10.435098738209792,-0.6665223841225228,-0.1344840591058497,8.81130445616187,2.012589273592321,3.697172919743236,10.434514786585364,1.9015800662157007,4.582847036966464,2.079847382336128,-1.4093910775533538,2.761468654725609,3.07464599609375,6.158968297446647,-0.1920374428353658,4.338334246379573,0.662740137306112,-16.2506586729243,2.169868456196584,3.5440926798069654,-34.33742521367521,-16.823874985691393,28.428040854224697,33.939167939617214,35.52062179890376,1577397682.999,-27.70736564104884,-51.12173525609263,17.66512
62625,1577397683.98,-0.5545204625571646,-0.7255306957710074,9.666560005299637,-0.1086733973061165,-0.7198663650140529,11.115723554062262,-1.2794380091225228,-1.2755839284012955,12.439658676966223,-0.3719795040967986,0.9817728182164632,2.583387421398628,0.2995932974466462,-1.8772032202743905,2.57110595703125,0.1927817740091462,-3.6710413490853657,1.851151629192073,0.662740137306112,-15.520291990995116,2.0148778521825443,2.496974388045816,-33.40710088522589,-15.3059078454098,28.4520022763351,34.058975050169224,35.472698954682954,1577397682.999,-27.70736564104884,-51.12173525609263,17.66512
62626,1577397683.99,-1.021389786287633,1.0090684070121947,10.681701509205888,-0.7335600306068978,0.6244778671636815,11.990804260849371,2.3046818761313834,3.984477118961985,10.640416129358805,3.3053886599657014,-1.0934224942835369,2.354505585461128,-1.2568031869283538,3.6769959984756095,2.22015380859375,0.7573569693216463,-5.196920255335366,4.002640887004573,0.2840314874168997,-15.885475331959707,1.2399248321123315,-0.8054756090470375,-30.44697802197802,-11.359193280677657,28.61973223110792,33.699553718513194,35.233084733578934,1577397682.999,-27.70736564104884,-51.12173525609263,17.66512
62627,1577397684.0,-1.1770128941977895,0.5757179065239135,11.052802766530103,-1.0304410364662728,-0.7138808608636622,9.43858529112281,-0.0799429773842406,-2.197351567561452,10.537465457972084,-1.6994941525342986,-1.1239400724085369,2.507093476086128,1.2151206411966462,-1.0227110327743902,1.33514404296875,-0.0971352181783536,-6.326070645960366,4.155228777629573,0.0946771624722973,-16.798433684371187,1.3949154361263716,8.37694633408919,-27.571430097680096,-60.54132862580128,28.428040854224697,34.27462784916285,35.52062179890376,1577397683.999,-27.70722033197441,-51.12165808008948,17.832027
62628,1577397684.01,-0.021810593172399,-0.4238612865913198,9.566003535573074,-0.9993164148842416,-1.0825879165277248,9.239866553329842,0.9854767613852896,0.3117717722822981,11.217418729456458,1.2149345584032014,-1.6579976895960369,2.476575897961128,0.3911460318216463,-5.569830173399391,4.02069091796875,-0.7990395150533537,-3.5794886147103657,0.3100139338795732,-0.0946771624722973,-16.981025354853482,1.5499060401404114,-2.738617070759928,-29.093778998779,-68.43475775526557,28.428040854224697,34.17878216072124,35.52062179890376,1577397683.999,-27.70722033197441,-51.12165808008948,17.832027
62629,1577397684.02,0.0751545740639281,-0.7554582165229604,10.080756892506669,0.5844479833091177,-0.0901913283929591,9.42541718199195,0.1115931554282588,-0.0701033925126237,9.552251474817789,-0.1736152462842987,-2.1615377286585367,2.171400116711128,-0.0208412728658536,1.7238709984756095,2.02178955078125,1.4440024771341462,-2.7402552162728657,2.3852092463795733,-0.473385812361502,-16.61584201388889,2.4798496642246635,-3.382997557997558,-25.03418192918193,-66.81559280563187,28.57180938688711,34.15482073861084,35.376853266241355,1577397683.999,-27.70722033197441,-51.12165808008948,17.832027
62630,1577397684.03,0.3983717981850228,0.0849065661918822,10.102304707448074,1.0166013829673208,-0.4002404433831935,10.020376294540778,0.5976160924399772,0.6517484080244855,9.88863680806974,-0.7229316525342987,-1.7953267911585369,2.049329804211128,1.2761557974466462,-3.6167051733993913,1.51824951171875,-1.7756020150533538,-7.851949552210366,1.591752215129573,-0.6627401373061044,-16.068067002442003,2.324859060210624,-3.382997557997558,-25.03418192918193,-66.81559280563187,28.475963698445504,34.03501362805883,35.52062179890376,1577397683.999,-27.70722033197441,-51.12165808008948,17.832027
62631,1577397684.04,-0.3917147496665396,-0.2718294811713979,9.642617988698074,-1.5571654017006478,0.2390113998785242,8.622162525009527,0.1283525670493521,1.0467916819502667,7.506406156214271,-0.3567207150342987,0.9207376619664634,2.781751679211128,0.6658042349466463,2.395257717225609,2.37274169921875,6.433626500571647,-2.2977503334603657,4.918168230754573,0.8520944622507143,-15.337700320512822,3.2548026842948694,-3.382997557997558,-29.093778998779,-68.839548992674,28.57180938688711,33.939167939617214,35.52062179890376,1577397683.999,-27.70722033197441,-51.12165808008948,17.832027
62632,1577397684.05,0.3385167566811166,-0.2119744396674917,9.099134211842603,2.2424326329673208,-0.6300838027581934,9.010023193954842,-0.0751545740639281,-4.06243466082317,9.263750174768958,2.5119316287157014,-0.7272115567835368,2.095106171398628,0.6352866568216463,-0.2902891577743902,2.89154052734375,0.7878745474466463,0.3267613852896341,2.4462444026295733,1.0414487871953166,-16.61584201388889,3.099812080280829,5.7994243851386695,-30.277828144078143,-16.014292510874544,28.523886542666308,34.08293647227963,35.52062179890376,1577397683.999,-27.70722033197441,-51.12165808008948,17.832027
62633,1577397684.06,-0.0134308873618521,-0.2047918346870229,11.371231587330886,-0.649762972501429,-0.1955362014398341,9.455344702743904,0.0086424840415401,0.5739368540694074,8.988416983850989,-0.4177558712842987,-2.1615377286585367,2.537611054211128,0.4826987661966462,-2.212896579649391,2.69317626953125,2.344271031821646,7.406839510289634,1.973221941692073,-0.473385812361502,-15.885475331959707,1.859887248168504,4.6717585324728175,-33.15337606837607,-11.76398451808608,28.66765507532872,33.939167939617214,35.56854464312457,1577397683.999,-27.70722033197441,-51.12165808008948,17.832027
62634,1577397684.07,0.314574740079554,0.637967149687976,10.815776802174636,0.1139873570884146,0.0067738388433679,7.954180261825933,-0.7407426355873665,-3.1143308034012955,10.288468485315834,0.0094902224657013,0.0052103182164634,2.323988007336128,-0.9516274056783536,4.7451112328506095,1.57928466796875,1.3371909536966462,10.000833650914634,1.561234637004573,1.0414487871953166,-15.885475331959707,2.4798496642246635,-3.382997557997558,-35.52147435897436,-15.00231441735348,28.61973223110792,34.03501362805883,35.28100757779974,1577397683.999,-27.70722033197441,-51.12165808008948,17.832027
62635,1577397684.08,0.5779369226967416,0.350662950469226,9.58755135051448,-0.4127370081459603,-0.4146056533441309,9.24704915831031,-0.2738733118568978,0.800188910954173,9.761744120081458,-1.1806953244092986,0.8597025057164634,1.866224335461128,1.3677085318216462,-5.386724704649391,3.13568115234375,3.107210484946646,5.118021150914634,0.2794963557545732,0.8520944622507143,-15.702883661477411,2.324859060210624,6.927090237804523,-30.44697802197802,-10.549610805860803,28.475963698445504,34.17878216072124,35.52062179890376,1577397683.999,-27.70722033197441,-51.12165808008948,17.832027
62636,1577397684.09,0.2870414209877572,-0.4801250256049917,8.77711408855159,0.2743988683188834,-0.7581735915765528,8.36598294737281,0.9112565099204458,-1.122355022151295,9.05784883199552,0.7724296755907012,1.7294534822789631,2.262952851086128,0.3301108755716462,1.5560243187881095,2.05230712890625,0.5895102896341463,10.138162752477134,2.4615031916920733,1.230803112139919,-16.433250343406595,2.9448214762667897,2.4164268271411125,-27.402280219780216,-15.811896892170328,28.428040854224697,34.058975050169224,35.49666037679336,1577397683.999,-27.70722033197441,-51.12165808008948,17.832027
62637,1577397684.1,0.3073921350990853,-0.3005599010932729,9.350525386159012,1.1075810460532582,0.2964722397222742,7.559136987900152,1.4427692784751334,0.8384961375166731,9.481622525843177,0.6808769412157013,-0.7882467130335366,1.683118866711128,-0.0666176400533536,-0.0156309546493902,1.82342529296875,0.0859702505716463,12.076028963414634,0.4320842463795732,1.230803112139919,-16.433250343406595,2.9448214762667897,6.927090237804523,-25.03418192918193,-17.026270604395606,28.475963698445504,34.22670500494204,35.47269895468296,1577397683.999,-27.70722033197441,-51.12165808008948,17.832027
62638,1577397684.11,0.3672471766029915,0.3937585803520385,7.6458538041277615,-0.7144064173256478,1.4313238266363375,7.762644129013434,-1.1645163294350227,-0.9667319142411394,9.56302538228849,3.0307304568407014,2.660239615091464,2.415540741711128,-0.7990395150533537,-2.1823790015243905,2.70843505859375,3.015657750571646,7.406839510289634,0.8593303401295732,0.2840314874168997,-16.2506586729243,2.169868456196584,-1.772046339903483,-25.03418192918193,-66.41080156822345,28.284272321562284,34.03501362805883,35.28100757779974,1577397683.999,-27.70722033197441,-51.12165808008948,17.832027
62639,1577397684.12,0.8053860804115853,0.6906395862114135,9.621070173756667,1.2488389440024772,-0.0818116225824122,9.005234790634528,0.9806883580649772,-1.7927314869950457,11.301215787561928,-1.2722480587842986,0.2188333650914634,1.744154022961128,-1.7450844369283538,4.4094178734756095,1.24359130859375,-6.688932093178353,7.498392244664634,-2.1924274723704267,-0.0946771624722973,-15.885475331959707,2.4798496642246635,-2.094236583522298,-24.69588217338217,-58.31497682005494,28.428040854224697,34.08293647227963,35.424776110462155,1577397683.999,-27.70722033197441,-51.12165808008948,17.832027
62640,1577397684.13,-0.2444713475669307,-0.6094119152534292,9.566003535573074,-0.1362067163979129,-0.7928895156488185,9.324860712265387,0.4252335729087276,0.5954846690108136,8.696324381311927,-2.0046699337842986,5.467856802591464,2.278211640148628,-2.126554163490854,1.067743068788109,2.67791748046875,1.5508140005716462,5.301126619664634,1.729081316692073,0.8520944622507143,-17.528800366300366,2.63484026823871,-3.060807314378743,-24.69588217338217,-62.36288919413919,28.595770808997518,33.963129361727624,35.376853266241355,1577397683.999,-27.70722033197441,-51.12165808008948,17.832027
62641,1577397684.14,-0.6143755040610709,0.0753297595512572,8.945905305592605,0.4156567662681021,-0.0243507827386622,9.831234363388434,-0.621032552579554,-2.0393342579911398,9.12967488180021,-2.8896796994092986,-0.0863424161585365,1.683118866711128,-1.2262856088033538,5.4164979516006095,0.54168701171875,-1.5619789681783538,7.498392244664634,2.4157268245045733,0.8520944622507143,-17.528800366300366,2.63484026823871,-3.060807314378743,-24.69588217338217,-62.36288919413919,28.475963698445504,34.17878216072124,35.47269895468296,1577397683.999,-27.70722033197441,-51.12165808008948,17.832027
62642,1577397684.15,-0.0086424840415396,-0.2478874645698354,8.30425926067073,-1.0208642298256478,-0.2685593520745997,9.057907227157964,0.1762366002524771,-0.5597176320145769,10.317198905237708,2.5729667849657014,0.8902200838414634,1.500013397961128,-1.7145668588033538,2.212152248475609,2.92205810546875,3.290315953696646,-0.0089319740853658,1.805375262004573,0.8520944622507143,-16.068067002442003,1.3949154361263716,-3.382997557997558,-28.07887973137973,-64.79163661858975,28.57180938688711,33.939167939617214,35.28100757779974,1577397683.999,-27.70722033197441,-51.12165808008948,17.832027
62643,1577397684.16,-0.3498162206138053,0.1734920276176635,10.48178567058284,-0.0727603724037718,0.3539330795660242,10.755396204208749,1.6079691930259146,-1.2348825001786394,9.81202235494474,-1.6537177853467986,-0.2084127286585364,1.515272187023628,0.6963218130716463,-0.1071836890243902,1.33514404296875,-3.820279749428354,-3.2437952553353657,1.530717058879573,0.3787086498892046,-15.79417949671856,2.7123355702457297,5.638329263329263,-34.506575091575094,-15.00231441735348,28.66765507532872,33.939167939617214,35.13723904513733,1577397683.999,-27.70722033197441,-51.12165808008948,17.832027
