,timestamp,acc_x_dashboard,acc_y_dashboard,acc_z_dashboard,acc_x_above_suspension,acc_y_above_suspension,acc_z_above_suspension,acc_x_below_suspension,acc_y_below_suspension,acc_z_below_suspension,gyro_x_dashboard,gyro_y_dashboard,gyro_z_dashboard,gyro_x_above_suspension,gyro_y_above_suspension,gyro_z_above_suspension,gyro_x_below_suspension,gyro_y_below_suspension,gyro_z_below_suspension,mag_x_dashboard,mag_y_dashboard,mag_z_dashboard,mag_x_above_suspension,mag_y_above_suspension,mag_z_above_suspension,temp_dashboard,temp_above_suspension,temp_below_suspension,timestamp_gps,latitude,longitude,speed
75975,1577396190.17,-1.8797110814536488,-0.0061314920564975,12.579923857153917,-3.118798033328172,-1.4567549198801926,12.310809751036109,-1.190940140440406,-4.251138628257193,10.134801615347511,-10.559268114043444,2.452571217606708,1.6459023080221038,1.8461273937690548,-11.576954911394816,0.7167909203506098,6.198790015243904,21.8905937380907,6.3610542111280495,26.3049806572236,-14.059558627136752,6.022492041688466,-18.160183913308916,-1.90554147720096,-9.691877113271342,29.69799622607601,37.94072543205439,43.09243118579087,1577396190.0,-27.68891844652032,-51.12807629527406,7.927603
75976,1577396190.18,-1.3565780187095082,0.4774972432950639,9.8828556869879,-4.549333525271531,3.5339584407155105,12.957244199278296,6.294531350038109,10.122451038490851,8.172753354849467,-8.331484910918444,-6.000797923018292,2.912381800209604,1.7850922375190548,-0.5906267863948171,3.051385646913109,10.532286108993905,19.1440117068407,3.3703315548780486,25.31545160428729,-13.146600274725271,5.845359922815277,-17.322243844118844,-1.981763136288998,-4.420856227106225,29.62611195974481,37.9646868541648,43.04450834157007,1577396190.0,-27.68891844652032,-51.12807629527406,7.927603
75977,1577396190.19,0.0200879358803343,0.0561177511075638,11.44148096774962,2.767346748165968,-0.9839000919993328,9.179193979551732,-7.632539707090796,-2.401617845786489,12.695400290884622,3.7229584484565534,-12.043278391768292,2.088407190834604,-4.440493699980945,2.003367354230183,0.3353211937881097,3.330137671493903,13.1930839724657,-0.7800590701219513,25.31545160428729,-13.146600274725271,5.845359922815277,-17.322243844118844,-3.2013096816976128,-3.740724499859112,29.67403480396561,38.0605325426064,42.99658549734927,1577396190.0,-27.68891844652032,-51.12807629527406,7.927603
75978,1577396190.2,-0.0301902989829459,-1.38998005162681,8.968270652808213,-3.354626896853562,0.261084771281916,4.5655673804306405,1.819768447206078,4.215955542885385,11.907707944693216,1.8613861828315548,-10.303776438643292,3.278592737709604,4.165463331269055,-7.457081864519817,2.776727443788109,1.5906357183689026,10.0497734255907,0.4406440548780487,26.14005914840088,-13.329191945207567,5.313963566195704,-17.322243844118844,-3.81108295440192,-3.740724499859112,29.72195764818641,38.10845538682721,42.90073980890766,1577396190.0,-27.68891844652032,-51.12807629527406,7.927603
75979,1577396190.21,1.1980351526772102,-0.5567978738924351,9.898417997778916,0.3815247938202645,-2.028969116657536,9.66641401739353,-1.486624045469702,-6.502885289634146,12.100441178335794,2.3496674328315548,-6.931584055830793,2.134183558022104,1.6782807140815548,-1.3840838176448171,2.135858303163109,-5.504701195693597,-1.974152355659299,-4.3963920779344505,25.23299084987593,-13.78567112141331,5.933925982251868,-16.166464438339442,5.945289408866996,-24.484742180896028,29.69799622607601,37.94072543205439,42.94866265312847,1577396190.0,-27.68891844652032,-51.12807629527406,7.927603
75980,1577396190.22,1.013681624845179,-0.5160964456697789,12.16931827243712,-1.6930509447051252,-1.082062360065739,3.3684665503525157,0.1079142601943594,12.94042639249476,4.983676743521342,-2.502627489043445,4.100520436356708,1.7221962533346038,-2.182192918730945,0.2638654011051829,4.3941590844131095,-2.468202172256097,-15.6155097775343,-4.655791491996951,26.14005914840088,-14.424741968101342,6.376756279434842,-16.975510022385023,-3.2013096816976128,-26.185071499013805,29.72195764818641,37.9646868541648,42.99658549734927,1577396190.0,-27.68891844652032,-51.12807629527406,7.927603
75981,1577396190.23,1.186064144376429,-0.1497835916658726,13.069538096655869,-1.3411033006621564,0.0192704036061348,7.819287436582984,-7.903084494688453,13.13196252530726,10.722578122915872,-3.235049364043445,-5.604069407393292,-0.3529990591653963,-2.212710496855945,-1.9944353801448167,3.8753602562881095,8.273985327743903,-23.8552558712843,17.43893507050305,26.14005914840088,-14.424741968101342,6.376756279434842,-17.091087962962966,4.115969590754076,-26.185071499013805,29.72195764818641,38.10845538682721,43.04450834157007,1577396190.0,-27.68891844652032,-51.12807629527406,7.927603
75982,1577396190.24,-0.6036015965903676,1.0305578267911586,11.143402861060164,2.496801960568311,-0.2560627873118329,12.708247226622046,3.605842885682641,-11.97842448641149,4.069091709341655,0.9458588390815552,9.013850514481708,2.134183558022104,-2.975649949980945,-1.6892595988948171,1.1898133812881098,-11.470887719131095,-20.8645332150343,8.19210889862805,25.397912358698647,-13.968262791895604,6.111058101125059,-17.322243844118844,2.896423045345459,-90.11745386024232,29.65007338185521,37.91676400994399,43.04450834157007,1577396190.0,-27.68891844652032,-51.12807629527406,7.927603
75983,1577396190.25,-2.982240945955602,-0.71960358678306,9.94749913181212,-2.547780937380906,3.103002141887385,13.367849783995092,4.291781661317407,6.628113715492806,11.63117765294517,-3.570742723418445,8.067805592606707,2.149442347084604,3.677182081269055,1.2251691120426829,3.6922547875381095,5.847837866806404,-10.7784736447218,13.18173292206555,26.63482367486904,-14.607333638583638,6.553888398308031,-18.680284645909648,1.7530981590248835,-24.654775112707807,29.4823434270824,37.94072543205439,43.02054691945968,1577396190.0,-27.68891844652032,-51.12807629527406,7.927603
75984,1577396190.26,-0.5832508824790397,-1.8736087869783724,7.093610752905869,-0.1320314622832501,-2.465910919636052,6.507264926817359,-4.611057211973609,-15.313547399009146,9.305210740103371,3.2041596203315548,-4.139225657393292,3.095487268959604,4.470639112519055,2.552683760480183,1.5865418969131098,-7.656190453506097,18.3810722537157,19.66671827362805,24.82068707781913,-14.059558627136752,6.022492041688465,-16.628776200651203,-4.420856227106227,-24.824808044519585,29.62611195974481,38.0605325426064,42.804894120466045,1577396190.0,-27.68891844652032,-51.12807629527406,7.927603
75985,1577396190.27,-2.745214981600133,2.184563026986471,14.151717247046491,-2.981131437869187,-4.819411151569645,11.673952109434548,8.197921669862328,-6.433453441489615,13.212547849478373,10.528378370331556,-2.857487376143293,0.5625282845846037,2.3344086437690548,-4.557911942644817,4.3941590844131095,3.055479468368903,1.6879570193407012,-7.585478991996951,24.82068707781913,-14.059558627136752,6.022492041688465,-17.322243844118844,5.335516136162689,-20.0638859537898,29.817803336628028,38.15637823104801,43.04450834157007,1577396190.0,-27.68891844652032,-51.12807629527406,7.927603
75986,1577396190.28,-0.740071091219274,1.2783576986173304,12.7558976791754,-2.9452184129668435,7.484391179973323,20.70966917486423,1.5204932396865467,16.75678383878382,19.53084603063072,8.483700635956557,-6.199162180830792,2.363065393959604,5.050473096894055,-8.586232255144816,6.4693543969131095,14.560606421493905,-14.1506660275343,1.4172065548780486,25.480373113110005,-13.876966956654456,6.199624160561653,-16.22425340862841,-3.963526272577997,-25.84500563539025,29.65007338185521,38.25222391948962,42.85281696468685,1577396190.0,-27.68891844652032,-51.12807629527406,7.927603
75987,1577396190.29,-1.4331924718345084,1.57883000696694,11.513307017554306,1.8084689832733896,-0.223741064899724,9.829219730284157,0.5388705590224849,0.221230072914682,10.863836020865092,17.364315870331556,4.649836842606708,4.377225550209603,3.707699659394055,11.280711104230184,-0.3055479468368902,3.864195288681403,2.9391777224657014,-1.0852348513719514,26.14005914840088,-13.329191945207567,5.313963566195704,-17.322243844118844,5.335516136162689,-85.35653176951254,29.72195764818641,38.10845538682722,42.92470123101806,1577396190.0,-27.68891844652032,-51.12807629527406,7.927603
75988,1577396190.3,0.5970905359779916,-4.093033725943216,4.606035228003525,-0.4360950731230938,-0.6750480778391766,7.086661728575171,3.7758312035537354,12.859023536049447,5.888684971060405,-7.904238817168445,-2.918522532393293,4.438260706459603,0.4118012218940549,-10.936085770769816,6.5914247094131095,10.532286108993905,6.326628894340701,8.34469678925305,25.48037311311001,-14.789925309065936,5.668227803942081,-17.322243844118844,5.335516136162689,-85.35653176951254,29.67403480396561,38.25222391948962,43.04450834157007,1577396190.0,-27.68891844652032,-51.12807629527406,7.927603
75989,1577396190.31,1.042412044767054,0.4559494283536576,4.177473130835556,-0.7641007005645001,-1.0653029484446457,12.497557480528297,-7.804922226622046,-14.501913036216177,13.186211631216654,16.174130323456556,0.2553055926067073,3.888944300209604,2.5785492687690548,-7.060353348894817,3.8448426781631095,-7.503602562881097,3.0612480349657014,4.194306164253049,25.48037311311001,-14.789925309065936,5.668227803942081,-17.206665903540905,5.335516136162689,-86.03666349675964,29.62611195974481,38.0605325426064,42.90073980890766,1577396190.0,-27.68891844652032,-51.12807629527406,7.927603
75990,1577396190.32,-1.5517054540122424,1.429192403207174,8.904824308814073,-0.4696138963652819,1.0104698909108225,11.10892051763767,0.8584964806533444,4.7678190255514,9.393796201529154,6.362728956269056,0.6215165301067074,4.743436487709603,3.616146925019055,-0.8958025676448171,4.0737245141006095,9.235289038681405,-4.125641613471799,1.9970405392530484,25.810216130755443,-14.60733363858364,6.376756279434845,-15.241840913715912,5.640402772514842,-98.27903458720766,29.67403480396561,38.0605325426064,43.06846976368048,1577396190.0,-27.68891844652032,-51.12807629527406,7.927603
75991,1577396190.33,-0.9208333165610708,2.1606210103849084,11.103898533667588,-0.5917181810332501,-0.5888568180735517,10.78330909185642,0.0672128319717031,-16.53698444734899,12.51822936803306,1.3425873547065548,-17.383854563643293,0.9287392220846036,4.195980909394055,-3.154103348894817,1.0372254906631098,-6.984803734756097,-5.270050793159299,-4.686309070121951,25.31545160428729,-14.607333638583638,5.845359922815277,-17.206665903540905,5.945289408866995,-113.24193258664414,29.86572618084883,37.9646868541648,42.90073980890766,1577396190.0,-27.68891844652032,-51.12807629527406,7.927603
75992,1577396190.34,-3.925556400057164,-2.3045650858064977,10.62984660495665,-4.551727726931687,-0.8857378239329267,6.626975009825172,-10.347564389707983,-0.1630392935403955,10.76327955113853,-4.821963426543445,3.093440358231707,4.712918909584603,7.491879346894055,-9.379689286394816,5.8590028344131095,3.299620093368903,-7.986115246284299,-21.47097703887195,24.82068707781913,-13.69437528617216,6.731020517181234,-19.17149089336589,5.335516136162689,-88.7571904057481,29.817803336628028,38.10845538682721,42.85281696468685,1577396190.0,-27.68891844652032,-51.12807629527406,7.927603
75993,1577396190.35,-1.0309665929282583,1.7871255514005335,6.617164622534776,-4.894098564334031,0.8404815730397285,15.564529807188451,7.874704445741234,9.176741382729135,4.00205406285728,5.126767042206555,5.840022389481708,6.269315393959603,0.6864594250190549,-7.518117020769817,5.0045106469131095,7.450010718368903,-2.1267402462842986,5.628632336128049,25.15053009546457,-14.424741968101342,5.668227803942081,-18.478023249898254,5.640402772514843,-88.7571904057481,29.4823434270824,37.9646868541648,42.99658549734927,1577396190.0,-27.68891844652032,-51.12807629527406,7.927603
75994,1577396190.36,0.3875978907143196,-0.5424326639314981,10.21564971774962,2.0395094434784675,-0.0501614445383959,4.026872006895483,0.9590529503799068,-0.1486740835794586,6.439351352896342,-0.4121733874809443,-14.667790110518292,3.461698206459604,3.1278656750190548,3.132517744855183,2.120599514100609,8.899595679306405,19.5559990115282,12.49508741425305,25.975137639578165,-14.789925309065932,5.845359922815273,-18.102394943019945,5.411737795250728,-87.90702574668921,29.67403480396562,38.10845538682722,43.02054691945968,1577396190.0,-27.68891844652032,-51.12807629527406,7.927603
75995,1577396190.37,-0.5712798741782584,1.8517689962247523,6.775181932105087,-3.390539921755906,1.1948234187428537,14.530234690000952,-2.9422986548447025,-1.5875892813333643,20.90272358190025,14.007382276581556,5.107600514481708,5.781034143959603,-0.0764800281059451,-14.720265458269816,4.6688172875381095,0.8276962652439026,-2.1877754025342986,-0.5664360232469513,26.46990216604632,-13.329191945207567,5.668227803942081,-19.17149089336589,5.945289408866995,-91.47771731473654,29.62611195974481,38.10845538682721,42.90073980890766,1577396190.0,-27.68891844652032,-51.12807629527406,7.927603
75996,1577396190.38,-2.244826834627477,-1.1457714822908724,9.820606443823838,-2.914093791384812,0.0767312434498848,10.48403388433689,1.8724408837295157,-8.238681493247427,11.852641306509623,-0.5189849109184451,-5.268376048018292,3.339627893959604,3.707699659394055,-3.154103348894817,2.135858303163109,-17.7880263910061,-14.7915351681593,-8.31790086699695,25.31545160428729,-13.876966956654456,7.616681111547183,-21.020737942612943,-3.2013096816976128,-24.14467631727247,29.5302662713032,38.0605325426064,42.99658549734927,1577396190.0,-27.68891844652032,-51.12807629527406,7.927603
75997,1577396190.39,-0.7963348302329458,-1.3313221109529825,9.842154258765245,1.2350576856659676,-3.040519318073552,8.197571298887672,-4.663729648497046,-1.2452184439310203,9.62603376256431,-7.766909715605945,-1.7283369855182926,5.048612268959603,4.592709425019055,1.9423321979801829,4.4246766625381095,-5.703065453506097,-17.1719062619093,1.8444526486280488,25.15053009546457,-14.059558627136752,6.731020517181234,-19.86495853683354,-0.7622165908803841,-20.0638859537898,29.721957648186415,38.0605325426064,42.99658549734927,1577396190.0,-27.68891844652032,-51.12807629527406,7.927603
75998,1577396190.4,0.0464241541420531,-0.5208848489900914,7.189378819312119,2.1436572156952645,-1.1826188297923024,8.79133331060642,0.951870345399438,6.908235309731088,6.987623533072124,13.397030714081556,-9.357731516768292,2.607206018959604,1.724057081269055,-2.589528153582317,3.310785060975609,-0.6524062738185963,-22.1615302853468,4.484223156440549,26.46990216604632,-14.059558627136752,5.668227803942081,-19.80716956654457,-3.048866363521536,-24.484742180896028,29.817803336628028,38.1084553868272,42.876778386797255,1577396190.0,-27.68891844652032,-51.12807629527406,7.927603
75999,1577396190.41,-1.2608099523032583,0.0417525411466263,10.93630441745665,-0.2996255784941876,0.366429644328791,7.953362729551734,1.407965761659203,3.7586630257955407,-1.4830619405606889,1.1594818859565548,-7.740299876143292,3.339627893959604,0.7169770031440549,-5.229298661394817,3.448114162538109,6.046202124618903,9.1952812380907,16.85910108612805,25.81021613075545,-12.233641922313796,6.376756279434842,-19.80716956654457,-3.048866363521536,-24.484742180896028,29.62611195974481,38.30014676371043,43.14035403001168,1577396190.0,-27.68891844652032,-51.12807629527406,7.927603
76000,1577396190.42,2.5483648890053354,3.518133351693502,9.1550183823004,2.788894563107374,1.7790086238209784,12.990763022520484,-4.8097759497665775,-11.121300292075553,13.356199949087747,15.350155714081556,-7.007878001143292,4.041532190834603,0.0455902843940548,-8.464161942644816,1.3424012719131098,-1.0033584222560974,19.0524589724657,19.39206007050305,25.31545160428729,-12.781416933760685,6.553888398308031,-16.166464438339442,6.555062681571303,-26.185071499013805,29.62611195974481,38.39599245215204,43.04450834157007,1577396190.0,-27.68891844652032,-51.12807629527406,7.927603
76001,1577396190.43,0.0284676416908822,-0.0935198526522007,8.654630235327744,-1.9205001024199688,2.964138445598323,9.150463559629856,-0.8928620337509521,-7.668861498130239,13.42563179723228,2.3801850109565548,0.8351395769817075,4.621366175209603,0.5643891125190549,2.796824385480183,3.234491115663109,4.032041968368903,5.716277331840701,-4.686309070121951,26.3049806572236,-14.242150297619048,6.199624160561654,-16.0508864977615,-3.2013096816976128,-24.824808044519585,29.65007338185521,37.9646868541648,42.90073980890766,1577396190.0,-27.68891844652032,-51.12807629527406,7.927603
76002,1577396190.44,-0.0876511388266959,0.0944249776700638,13.641752293433212,1.17639974499214,-1.7177229008372237,11.14722774420017,-1.2843140051864996,3.814926764809213,12.217757059683452,-4.791445848418445,-1.9724776105182928,3.949979456459604,3.2651947765815548,-3.6118670207698167,4.3026063500381095,0.0494980230564028,-4.1409004025343,1.7071235470655486,26.3049806572236,-14.242150297619048,6.199624160561654,-16.917721052096056,4.725742863458382,-24.14467631727247,29.72195764818641,38.084493964716806,43.02054691945968,1577396190.0,-27.68891844652032,-51.12807629527406,7.927603
76003,1577396190.45,-3.1809596837485703,0.9826737935880326,9.964258543433212,0.8112839918183113,0.557965777141291,13.641985874082984,4.300161367127953,6.327641407143197,13.356199949087747,4.760556104706555,9.227473561356708,4.438260706459603,4.073910596894055,-6.572072098894817,1.5865418969131098,-2.712342797256097,-20.7119453244093,-5.784941882621951,26.14005914840088,-14.424741968101342,5.668227803942081,-16.859932081807084,-4.115969590754073,-91.47771731473654,29.5302662713032,38.15637823104801,42.804894120466045,1577396190.0,-27.68891844652032,-51.12807629527406,7.927603
76004,1577396190.46,-3.4874174962485704,2.167803615365377,7.620335118140244,-0.9987324632598126,-1.3550013493235515,18.217305246641576,3.328115493104516,-1.2859198721536769,13.344228940786966,-3.479189989043445,-0.5381514386432926,4.072049768959603,1.7850922375190548,-2.055470536394817,1.922235256288109,-2.193543969131097,-22.1767890744093,6.605194836128049,24.98560858664185,-16.068067002442003,6.553888398308031,-20.50063721001221,3.0488663635215367,-91.137651451113,29.86572618084883,38.15637823104801,42.99658549734927,1577396190.0,-27.68891844652032,-51.12807629527406,7.927603
76005,1577396190.47,-0.7556334020102895,-0.9231107278963412,8.162621794165634,-0.5570022569609848,-1.27359849287824,6.375583835508765,-1.925960050108374,-2.4566844839700828,8.437312638296733,8.773617628144056,-9.449284251143292,3.7058388314596034,2.7463959484565548,0.7521466511051829,0.6099793969131098,-6.954286156631096,-18.6214912228468,12.20517042206555,25.48037311311001,-14.059558627136752,5.313963566195704,-17.322243844118844,0.457329954528231,-69.71350204282898,29.65007338185521,38.25222391948962,43.02054691945968,1577396190.0,-27.68891844652032,-51.12807629527406,7.927603
76006,1577396190.48,0.2738733118568978,-0.4634240091463413,10.203678709448836,-0.5845355760527814,1.9609679499928532,9.92139649420017,-2.346142441465796,2.9398460580221037,8.510335788931497,-5.066104051543445,-2.002995188643293,3.339627893959604,1.5714691906440548,-17.588917802019818,7.0797059594131095,1.1939072027439026,-10.4580390744093,14.72287061737805,25.31545160428729,-13.876966956654456,8.325209587039938,-17.322243844118844,4.115969590754076,-26.185071499013805,29.62611195974481,37.9646868541648,42.90073980890766,1577396190.0,-27.68891844652032,-51.12807629527406,7.927603
76007,1577396190.49,0.745531038907679,0.1638568258145951,8.594775193823837,-0.0386575975371563,2.763025506145198,10.75218447027439,0.0887606469131094,-4.850886144126333,5.560679343618999,0.9763764172065548,-24.952213938643293,1.7832314095846038,3.4940766125190548,-4.557911942644817,-0.5191709937118902,-4.573915062881097,8.9511406130907,15.85202100800305,28.448960271918946,-14.059558627136752,5.668227803942081,-17.322243844118844,-4.420856227106227,-26.185071499013805,29.817803336628028,38.0605325426064,43.04450834157007,1577396190.0,-27.68891844652032,-51.12807629527406,7.927603
76008,1577396190.5,-0.3151002965415396,0.8916941305020961,9.186143003882432,0.3013190382050301,-1.302328912800114,3.3493129370712653,-2.722032102110328,-11.437334911216176,6.563849839224467,0.2897309093940556,-6.305973704268292,4.194120081459603,2.9447602062690548,-2.665822098894817,2.166375881288109,-0.0267959222560973,15.9091484255907,3.4008491330030486,25.72775537634409,-14.698629473824786,6.288190219998247,-16.166464438339442,5.640402772514843,-19.38375422654269,29.5302662713032,38.30014676371043,42.85281696468685,1577396190.0,-27.68891844652032,-51.12807629527406,7.927603
76009,1577396190.51,1.3752060755287727,2.328215126595846,9.121499559058211,-0.6527703233672351,1.7873883296315258,8.87513036871189,0.1210823693252189,2.8392895882955407,9.944462583365093,12.817196729706556,-15.857975657393292,2.912381800209604,0.5338715343940548,-8.586232255144816,3.9058778344131095,10.822203101181405,9.3173515505907,-0.9479057498094514,25.81021613075545,-14.424741968101342,6.022492041688465,-17.322243844118844,5.335516136162689,-20.0638859537898,29.62611195974481,38.18033965315841,42.90073980890766,1577396190.0,-27.68891844652032,-51.12807629527406,7.927603
76010,1577396190.52,-1.200954910799352,1.2196997579435014,15.197983372534775,1.7306574293183117,-0.4643583317454267,10.256584726622046,-9.485651792051732,-2.947495824302114,12.621180039419778,-1.2208892077934452,1.1403153582317074,3.919461878334604,4.043393018769055,-4.161183427019817,3.326043850038109,5.069639624618903,9.6530449099657,-3.4350883669969514,25.81021613075545,-14.424741968101342,6.022492041688465,-17.206665903540905,6.555062681571303,-20.74401768103691,29.4823434270824,38.0605325426064,43.04450834157007,1577396190.0,-27.68891844652032,-51.12807629527406,7.927603
76011,1577396190.53,1.4973103601967417,-2.441034580435404,12.540419529761335,-1.7265697679473129,-1.2089550480540203,10.711483042051734,4.422265651795922,-1.738423985923208,12.515835166372904,-22.125430223418444,-4.017155344893292,3.644803675209604,-0.1985503406059451,-6.114308427019817,5.1876161156631095,-9.639833031631095,-4.476593761909299,-8.80618211699695,25.645294621932727,-14.97251697954823,6.199624160561654,-15.241840913715915,5.640402772514843,-22.10428113553113,29.4823434270824,38.10845538682721,42.90073980890766,1577396190.0,-27.68891844652032,-51.12807629527406,7.927603
76012,1577396190.54,0.0811400782143197,1.771563240609518,11.369654917944931,-1.5565814500762187,2.3775590388600407,14.331515952207983,4.307343972108422,10.306804566322883,16.255578159536967,6.942562940644055,3.841121022294208,4.392484339272103,-2.151675340605945,-4.039113114519817,3.417596584413109,1.3464950933689026,-5.697296886909299,4.529999523628049,26.38744141163496,-14.698629473824786,5.756793863378679,-15.068474002849005,5.792846090690919,-84.33633417864186,29.67403480396561,38.10845538682721,42.90073980890766,1577396190.0,-27.68891844652032,-51.12807629527406,7.927603
76013,1577396190.55,-0.8873144933188833,-1.361249631704935,7.8382074692144625,1.895857343869093,-0.2692308964426928,11.841546225645484,-4.523668851377905,-1.1518445791849277,10.587305729117045,0.9763764172065548,0.9572098894817074,4.896024378334603,1.0831879406440548,5.284007002667683,2.395257717225609,-2.758119164443597,-12.8536689572218,2.4090278439405486,26.63482367486904,-15.33770032051282,5.136831447322516,-17.264454873829877,6.097732727043072,-102.0197590870668,29.72195764818641,37.772995477281576,42.94866265312847,1577396190.0,-27.68891844652032,-51.12807629527406,7.927603
76014,1577396190.56,1.770249349454554,1.6410792501310023,7.203744029273056,-0.8407151536895001,1.869988286906916,7.002864670469703,6.361568996522484,5.920627124916635,1.598275596060405,6.255917432831555,0.7741044207317074,4.133084925209603,1.7545746593940548,-6.907765458269817,4.0889833031631095,3.208067358993903,1.7184745974657012,9.19918897675305,26.63482367486904,-15.33770032051282,5.136831447322516,-17.322243844118844,7.7746092269799165,-99.63929804170188,29.62611195974481,38.0605325426064,43.188276874232486,1577396190.0,-27.68891844652032,-51.12807629527406,7.927603
76015,1577396190.57,0.1350096155678343,3.1757625142911583,7.107975962866806,2.920575654415968,2.0471592097584783,7.512829624082983,3.0192634789443598,3.3468603402486656,2.237527439322124,11.047177198456556,0.2247880144817073,2.302030237709604,-0.5037261218559451,4.078562666730183,-0.3665831030868902,0.1257919683689026,7.364226550590701,5.903290539253049,26.14005914840088,-14.424741968101342,4.605435090702943,-18.940335012210014,7.7746092269799165,-88.7571904057481,29.62611195974481,38.15637823104801,42.85281696468685,1577396190.0,-27.68891844652032,-51.12807629527406,7.927603
76016,1577396190.58,1.450623427823695,-2.289002775015482,4.085296366919541,1.391877894406203,-1.0581203434641773,9.002023056700171,-3.819773563291968,-6.318531761802115,10.381404386343608,0.5796479015815548,-3.2694746808307924,3.583768518959604,-3.692813035918445,-1.1094256145198167,3.265008693788109,1.6516708746189028,17.0382988162157,3.309296398628049,25.480373113110005,-14.60733363858364,6.553888398308038,-17.264454873829877,8.07949586333207,-88.07705867850099,29.62611195974481,37.94072543205439,42.756971276245245,1577396190.0,-27.68891844652032,-51.12807629527406,7.927603
76017,1577396190.59,-1.6821894444907584,1.6338966451505337,19.390230479468368,-3.821496220584031,-0.1028338810618329,16.10801358404392,11.93048205804592,7.946121729408822,9.10170359899009,-15.014834520293444,-14.606754954268292,0.5930458627096037,-0.5647612781059451,-1.0789080363948171,3.600702053163109,5.161192358993903,11.4840995974657,-7.860137195121951,25.48037311311001,-12.598825263278387,5.668227803942081,-17.091087962962966,5.640402772514843,-86.71679522400676,29.67403480396561,38.39599245215204,43.04450834157007,1577396190.0,-27.68891844652032,-51.12807629527406,7.927603
76018,1577396190.6,-0.4228393712485709,1.6458676534513148,14.45338665622618,0.2151277784394051,-0.1866309391673017,11.985198325254858,7.685562514588891,9.346729700600228,8.033889658560405,-5.981631395293445,7.640559498856708,5.475858362709603,-0.8699370593559451,12.867625166730184,0.4573915062881097,10.379698218368905,11.8197929568407,5.689667492378049,25.48037311311001,-12.598825263278387,5.668227803942081,-19.691591625966627,6.097732727043072,-79.57541208791208,29.62611195974481,38.10845538682721,43.14035403001168,1577396190.0,-27.68891844652032,-51.12807629527406,7.927603
76019,1577396190.61,0.4271022181068978,-1.0380324075838412,8.908415611304306,4.2445691724823735,0.3161514094655098,7.87914247808689,-2.336565634825171,-4.767089086020864,9.369854184927592,-1.0683013171684452,-1.6367842511432926,3.370145472084604,-4.287905809355945,6.184275557355183,2.593621975038109,7.816221655868903,2.1457206912157014,-5.052520007621951,26.63482367486904,-14.242150297619048,5.845359922815277,-19.576013685388688,5.487959454338766,-90.45751972386589,29.67403480396561,37.9646868541648,42.99658549734927,1577396190.0,-27.68891844652032,-51.12807629527406,7.927603
76020,1577396190.62,0.2128211695229134,-1.264284464468607,11.562388151587507,0.0463365613983901,0.7255598933522294,11.604520261290014,1.0632007225967035,-1.770745708335318,10.69863610631431,-3.692813035918445,1.8422196551067072,3.7058388314596034,0.8695648937690548,-7.563893387957317,4.5467469750381095,2.216246069931403,4.9380790896532005,-0.5816948123094513,25.397912358698647,-13.23789610996642,6.111058101125059,-19.576013685388688,5.487959454338766,-53.73040645252184,29.5302662713032,38.036571120496006,43.02054691945968,1577396190.0,-27.68891844652032,-51.12807629527406,7.927603
76021,1577396190.63,-2.1011747350181023,3.2356175557950646,10.18213089450743,-1.827126237673875,1.611414507610041,9.938155905821263,6.653661599061547,8.74578508390101,7.088180002798686,8.117489698456556,2.666194264481707,2.698758753334604,3.3720063000190548,-1.2620135051448171,2.257928615663109,14.194395483993905,-0.7839668087842988,2.2106635861280486,27.12958820133719,-13.69437528617216,8.502341705913125,-19.63380265567766,5.335516136162689,-17.343359044801353,29.86572618084883,37.9646868541648,42.90073980890766,1577396190.0,-27.68891844652032,-51.12807629527406,7.927603
76022,1577396190.64,-0.5473378575766958,-3.549549949087748,4.905310435523057,6.150353693966749,-2.164241510456364,3.806605454161109,2.6074607933974843,5.243068055092416,4.045149692740092,4.577450635956555,-2.125065501143293,3.400663050209604,-2.639956590605945,9.266550947980184,-0.3665831030868902,7.450010718368903,9.5614921755907,17.01168897675305,27.12958820133719,-13.69437528617216,8.502341705913125,-17.091087962962966,5.945289408866995,-4.420856227106225,29.62611195974481,37.9646868541648,42.99658549734927,1577396190.0,-27.68891844652032,-51.12807629527406,7.927603
76023,1577396190.65,-1.0441347020591176,2.421588991341939,7.634700328101181,0.4856725660370613,1.182852410442072,6.765838706114233,-2.820194370176734,-10.364732567466175,8.950868894400248,6.225399854706556,-7.923405344893293,1.905301722084604,-1.5413237781059452,-15.116993973894816,5.2181336937881095,-1.0338760003810974,10.6296074099657,7.429169445503049,25.56283386752137,-13.78567112141331,6.642454457744632,-16.628776200651203,6.555062681571303,-19.38375422654269,29.5302662713032,38.10845538682721,42.85281696468685,1577396190.0,-27.68891844652032,-51.12807629527406,7.927603
76024,1577396190.66,-0.2025728185141959,-2.6804547464510287,8.154242088355087,-2.4855316942168435,1.3707972407643385,9.497622800352516,4.307343972108422,7.988020258461557,4.478500193228373,-1.5871001452934452,-6.214420969893292,3.278592737709604,4.180722120331555,-2.8031512004573167,1.708612209413109,5.603697241806403,18.1674492068407,10.22152784394055,25.81021613075545,-12.598825263278387,7.085284754927611,-16.10867546805047,0.1524433181760773,-22.10428113553114,29.62611195974481,38.18033965315841,43.09243118579087,1577396190.0,-27.68891844652032,-51.12807629527406,7.927603
76025,1577396190.67,1.5858958216225227,-0.5711630838533727,9.6530123276129,3.509549262814405,0.136586284953791,5.221578635313453,-7.002864670469703,-15.466776305259144,7.27013932897056,-3.692813035918445,-8.442204173018293,1.5085732064596038,-0.4732085437309451,0.5385236042301829,2.227411037538109,0.3699325933689026,36.6611015505907,4.316376476753049,25.975137639578165,-13.146600274725271,7.262416873800799,-17.091087962962966,3.811082954401921,-22.784412862778247,29.67403480396561,38.10845538682721,42.99658549734927,1577396190.0,-27.68891844652032,-51.12807629527406,7.927603
76026,1577396190.68,-1.8569661656821643,0.5493232930997514,15.54035420993712,1.3834981885956552,-2.904049823444645,8.168840878965796,-1.8385716895126707,-3.440701366294302,5.287740354361186,-8.087344285918444,8.128840748856707,2.698758753334604,-3.586001512480945,-6.694142411394817,1.4949891625381098,10.684873999618905,42.2153007693407,-5.388213366996951,25.975137639578165,-13.146600274725271,7.262416873800799,-17.322243844118844,1.6768764999368453,-26.185071499013805,29.5302662713032,38.10845538682721,43.04450834157007,1577396190.0,-27.68891844652032,-51.12807629527406,7.927603
76027,1577396190.69,-0.395306052156774,0.3745465719083461,8.654630235327744,-0.7473412889434063,1.393542156535822,13.163145542051732,-4.819352756407203,3.184054627358041,12.956368271841654,-5.127139207793444,2.0711014910442085,3.354886683022104,-4.043765184355945,-2.970997880144817,4.1805360375381095,13.431456030868905,43.8327324099657,-0.9936821169969512,25.72775537634409,-13.237896109966425,7.528115052110586,-20.09611441798942,4.115969590754076,-23.46454459002536,29.578189115524005,38.0605325426064,42.99658549734927,1577396190.0,-27.68891844652032,-51.12807629527406,7.927603
76028,1577396190.7,-0.3749553380454459,5.1509788839200645,12.356066001929308,-1.488346702761766,1.6856347590748852,12.914148569395485,0.3569112328506095,0.949067377602182,15.866520389761575,21.48418891720656,3.337580983231707,1.7527138314596038,1.9681977062690548,2.094920088605183,1.1135194359756095,7.053282202743903,7.0437919802782005,-11.44595262480945,24.490844060173693,-13.329191945207567,7.085284754927611,-17.322243844118844,3.5061963180497666,-26.185071499013805,29.817803336628028,38.15637823104801,43.16431545212208,1577396190.0,-27.68891844652032,-51.12807629527406,7.927603
76029,1577396190.71,-1.0405433995688833,-1.5671509744783725,9.609916697730087,0.5024319776581551,-2.829829571979802,5.851253671934546,-5.820129050352515,2.6645128671041345,15.994610178579936,-3.875918504668445,-5.390446360518292,2.210477503334604,3.4330414562690548,0.9657696979801828,1.952752834413109,6.351377905868903,-21.1391914181593,-1.2683403201219514,26.63482367486904,-13.146600274725271,6.199624160561654,-17.322243844118844,-4.420856227106227,-20.74401768103691,29.817803336628028,37.9646868541648,42.85281696468685,1577396190.0,-27.68891844652032,-51.12807629527406,7.927603
76030,1577396190.72,-1.131523062654821,-1.8855797952791535,9.823000645483994,1.2063272657440929,0.2084123347584785,6.1816535010361084,-0.6294998511337645,4.383549659096322,2.9462111307283734,-12.451357957793444,4.436213795731708,1.6306435189596038,-5.386538621855945,-0.193898270769817,2.257928615663109,-0.5761123285060974,-4.324005871284299,12.58664014862805,26.63482367486904,-13.146600274725271,6.199624160561654,-17.148876933251934,-3.658639636225843,-20.40395181741336,29.62611195974481,38.15637823104801,42.99658549734927,1577396190.0,-27.68891844652032,-51.12807629527406,7.927603
76031,1577396190.73,3.258245681241664,1.6518531576017057,5.889327317847275,1.46370394421089,3.824853942424494,6.794569126036109,5.123766738221703,-3.71004905306188,4.705949350943217,5.294613721894056,-3.559391673018293,2.714017542397104,-7.339663621855944,2.064402510480183,3.051385646913109,-7.366273461318596,19.6780693240282,6.5594184689405495,25.892676885166804,-14.333446132860196,6.819586576617821,-17.177771418396418,0.5335516136162695,-19.553787158354467,29.76988049240722,38.22826249737922,43.02054691945968,1577396190.0,-27.68891844652032,-51.12807629527406,7.927603
76032,1577396190.74,0.0990965906654906,-0.2886472879549351,10.012142576636338,3.1791494337128428,-1.2209260563548017,4.187283518125953,-3.038066721250953,16.25400149015101,8.831158811392436,3.0515717297065548,3.734309498856707,-2.123018590415396,-6.607241746855945,2.766306807355183,1.922235256288109,7.755186499618903,26.6818535037157,15.21115186737805,26.63482367486904,-13.511783615689868,6.553888398308031,-15.299629884004888,5.487959454338766,-24.484742180896028,29.5302662713032,38.15637823104801,43.23619971845329,1577396190.0,-27.68891844652032,-51.12807629527406,7.927603
76033,1577396190.75,-1.382914236971227,-1.4378640848299349,8.218885533179307,-3.515038408084031,-0.6678654728587079,7.754643991758765,-3.3110057105087654,-13.211438341391958,17.014540085806498,1.5562104015815548,3.642756764481707,4.133084925209603,-4.165835496855945,-10.661427567644816,4.5162293969131095,-0.9118056878810974,29.3674003787157,0.6237495236280487,24.490844060173693,-14.059558627136752,6.731020517181234,-17.264454873829877,5.487959454338766,-14.96289799943646,29.5302662713032,37.9646868541648,42.90073980890766,1577396190.0,-27.68891844652032,-51.12807629527406,7.927603
76034,1577396190.76,-2.103568936678258,4.052040321908346,9.667377537573838,-5.34181427478325,3.5962076838795727,20.309837497618137,2.782237514588891,-5.980949327720083,9.95164518834556,-8.453555223418444,16.429621998856707,4.468778284584603,-1.4497710437309452,-1.0789080363948171,1.5255067406631098,9.738829077743905,26.0409843630907,-9.50808641387195,24.490844060173693,-14.059558627136752,6.731020517181234,-15.472996794871795,5.335516136162689,-26.185071499013805,29.817803336628028,38.0605325426064,43.04450834157007,1577396190.0,-27.68891844652032,-51.12807629527406,7.927603
76035,1577396190.77,-0.5114248326743521,-2.3309013040682163,7.036149913062119,1.625312556271437,-2.2252936527903486,6.381569339659156,-4.775060025694312,5.574664985024056,14.694558677115092,-19.500918504668444,3.841121022294208,3.721097620522104,1.1289643078315548,6.275828291730184,3.8143251000381095,3.467466773056403,-6.4297187619093,-12.16311571074695,24.90314783223049,-13.78567112141331,6.288190219998255,-17.148876933251934,6.0977327270430735,-83.31613658777121,29.76988049240722,38.0126096983856,43.06846976368048,1577396190.0,-27.68891844652032,-51.12807629527406,7.927603
76036,1577396190.78,-1.133917264314977,5.641790224252095,18.147639817847278,-3.289983452029344,2.968926848918636,20.776706821348604,5.415859340760766,4.065120838295541,13.892501120962748,4.943661573456555,0.0722001238567073,2.698758753334604,-0.9309722156059452,-19.99980647389481,3.6312196312881095,-8.052918969131097,-26.7544257931593,-6.242705554496951,24.98560858664185,-13.876966956654456,5.845359922815277,-17.322243844118844,5.335516136162689,-88.07705867850099,29.5302662713032,38.10845538682721,43.188276874232486,1577396190.0,-27.68891844652032,-51.12807629527406,7.927603
76037,1577396190.79,-1.2608099523032583,-0.0228909036775913,12.178895079077744,-0.1320314622832501,1.190035015422541,11.906189670469702,-5.051590317442359,4.153706299721322,12.618785837759622,-3.723330614043445,4.466731373856708,4.804471643959603,-1.3887358874809452,4.841502119855183,-0.6412413062118902,5.527403296493903,-33.1020820431593,9.32125928925305,24.98560858664185,-12.416233592796091,5.491095685068893,-17.322243844118844,5.335516136162689,-90.79758558748944,29.62611195974481,38.10845538682721,42.99658549734927,1577396190.0,-27.68891844652032,-51.12807629527406,7.927603
76038,1577396190.8,-0.2492597508872432,-2.5655330667635288,7.4623178085699315,1.7019270093964365,-3.971863763874333,6.971740048887671,-0.3182536353134521,-1.8294036490091452,9.137616623892434,-4.394717332793445,0.3926346941692074,3.171781214272104,0.5643891125190549,13.020213057355184,2.868280178163109,-29.4762588128811,-22.6955879025343,0.7153022580030487,24.98560858664185,-12.416233592796091,5.491095685068893,-19.17149089336589,8.994155772388531,-88.7571904057481,29.578189115524005,38.0605325426064,42.85281696468685,1577396190.0,-27.68891844652032,-51.12807629527406,7.927603
76039,1577396190.81,0.6090615442787728,-1.1840787088533724,5.872567906226181,1.98683700695503,-0.6032220280344898,4.8851933020615,2.8768084801650637,2.3903767770162445,5.882699466910014,5.676083448456555,2.818782155106707,3.797391565834604,-4.760928270293445,-9.105031083269816,2.242669826600609,-6.008241234756096,-27.7309882931593,20.30758741425305,24.98560858664185,-13.876966956654456,5.845359922815277,-17.322243844118844,5.79284609069092,-79.91547795153565,29.72195764818641,38.22826249737922,43.06846976368048,1577396190.0,-27.68891844652032,-51.12807629527406,7.927603
76040,1577396190.82,0.4318906214272103,2.567635292611471,7.0888223495855565,-4.096829411502,5.887458672649104,12.22701269293064,1.6689337426162345,-3.730399767173208,8.127263523306498,4.913143995331555,-10.120670969893292,1.4780556283346038,-7.736392137480945,0.1723126667301829,4.6382997094131095,-10.830018578506095,-13.1435859494093,9.56539991425305,25.645294621932727,-13.876966956654456,6.199624160561654,-17.322243844118844,5.640402772514843,-80.59560967878276,29.72195764818641,38.25222391948962,43.04450834157007,1577396190.0,-27.68891844652032,-51.12807629527406,7.927603
76041,1577396190.83,0.448650033048304,0.908453542123189,11.474999790991806,1.352373567013624,-0.2752164005930829,8.750631882383765,3.742312380311547,5.334047718178353,7.246197312368999,6.194882276581555,-16.010563548018293,2.302030237709604,-1.2361479968559452,7.374461104230183,2.563104396913109,0.9497665777439026,-1.2417304806592988,11.67111280487805,24.98560858664185,-14.242150297619048,5.845359922815277,-17.322243844118844,5.640402772514843,-80.59560967878276,29.86572618084883,37.9646868541648,43.14035403001168,1577396190.0,-27.68891844652032,-51.12807629527406,7.927603
76042,1577396190.84,-1.180604196688024,1.0712592550138142,12.776248393286728,-2.368215812869188,-0.4045032902415204,6.315728794004859,-5.329317710020484,-5.310572862876334,9.22380788365806,-7.690615770293444,-0.7212569073932927,4.133084925209603,-0.5037261218559451,-7.792775223894817,3.8448426781631095,-4.665467797256097,6.387664050590701,4.011200695503049,25.15053009546457,-13.69437528617216,4.959699328449328,-21.020737942612943,5.335516136162689,-18.023490772048465,29.578189115524005,38.0605325426064,42.99658549734927,1577396190.0,-27.68891844652032,-51.12807629527406,7.927603
76043,1577396190.85,1.4566089319740851,-3.223938523306497,10.124670054663682,-1.557778550906297,-0.1399440067942553,13.896968350889624,2.8899765892959226,6.614945606361947,14.020590909781108,-4.547305223418445,4.344661061356708,4.804471643959603,-3.067202684355945,-3.5203142863948167,3.7990663109756095,2.857115210556403,1.0318290896532012,-3.587676257621951,24.98560858664185,-13.146600274725271,5.845359922815277,-18.362445309320314,1.371989863584692,-13.602634544942235,29.817803336628028,38.25222391948962,43.54769820588852,1577396190.0,-27.68891844652032,-51.12807629527406,7.927603
76044,1577396190.86,-1.8952733922446643,1.8445863912442837,13.670482713355089,1.172808442501905,-0.2800048039133954,12.777679074766578,-1.9127919409775145,-4.702445641196645,7.995582431997905,-6.653018114043445,9.349543873856708,4.926541956459603,-4.928774949980945,2.857859541730183,3.6312196312881095,-5.184266625381097,3.3359062380907014,4.652069836128049,25.31545160428729,-11.685866910866912,5.845359922815277,-16.39762031949532,-2.896423045345459,-22.784412862778247,29.62611195974481,37.9646868541648,43.04450834157007,1577396190.0,-27.68891844652032,-51.12807629527406,7.927603
76045,1577396190.87,-1.5696619664634146,2.30666731165444,15.466133958472277,-0.9628194383574687,1.1972176204030096,11.343552280332984,6.098206813905297,0.8760442269674159,7.729826047720561,-3.662295457793445,8.678157155106707,2.942899378334604,-4.074282762480945,-4.100148270769817,3.7227723656631095,-6.801698266006097,0.6503593630907012,-4.991484851371951,25.31545160428729,-13.876966956654456,5.136831447322516,-16.39762031949532,6.859949317923458,-17.343359044801353,29.62611195974481,37.9646868541648,42.99658549734927,1577396190.0,-27.68891844652032,-51.12807629527406,7.927603
76046,1577396190.88,0.9047454493080695,-0.1007024576326699,4.996290098608994,0.3946929029511245,0.0204675044362134,4.898361411192358,-0.5983752295517342,4.157297602211557,7.531107309927592,1.8613861828315548,-0.7517744855182924,3.9499794564596034,-0.625796434355945,2.751048018292683,3.8143251000381095,-1.0796523675685974,3.1985771365282014,14.02096632050305,24.98560858664185,-13.511783615689868,5.136831447322516,-16.570987230362235,5.335516136162689,-25.164873908143143,29.67403480396561,38.0126096983856,42.97262407523887,1577396190.0,-27.68891844652032,-51.12807629527406,7.927603
76047,1577396190.89,0.266690706876429,-0.8967745096346226,8.333807212866807,-1.0657701097441876,-2.0612908390696454,7.129757358457984,-6.373189633848609,-10.659219371665396,11.337887949576029,8.483700635956556,-8.167545969893293,2.363065393959604,-4.684634324980945,-5.931202958269817,3.478631740663109,-3.749940453506097,-13.3877265744093,-1.6650688357469514,24.98560858664185,-13.876966956654456,7.262416873800799,-17.091087962962966,-3.81108295440192,-22.784412862778247,29.4823434270824,37.9646868541648,42.99658549734927,1577396190.0,-27.68891844652032,-51.12807629527406,7.927603
76048,1577396190.9,0.5994847376381478,-3.460964487661966,5.235710264624619,-0.3642690233184064,-1.6973721867258953,9.6843705298447,4.994479848573266,8.357924414955697,7.183948069204936,-3.570742723418445,2.879817311356707,4.529813440834603,0.5949066906440549,-7.090870927019817,3.9669129906631095,0.0952743902439026,-6.826447277534299,7.947968273628049,26.46990216604632,-13.69437528617216,6.022492041688465,-19.51822471509972,5.640402772514843,-23.46454459002536,29.817803336628028,38.15637823104801,43.3320454068949,1577396190.0,-27.68891844652032,-51.12807629527406,7.927603
76049,1577396190.91,0.2331718836342415,1.2675837911466274,12.415921043433212,-1.4536307786895002,3.126944158488948,9.689158933165016,-7.03638349371189,-4.123048839438833,7.255774119009623,-7.293887254668445,3.307063405106707,2.759793909584604,-4.867739793730945,1.4235333698551829,3.9058778344131095,-5.306336937881097,1.0165703005907012,9.80954053925305,26.63482367486904,-14.242150297619048,6.908152636054422,-19.51822471509972,-4.115969590754073,-26.185071499013805,29.72195764818641,37.9646868541648,43.14035403001168,1577396190.0,-27.68891844652032,-51.12807629527406,7.927603
76050,1577396190.92,-0.5018480260337271,2.129496388802877,12.83131503147032,-0.5115124254180162,-0.0214310246165209,10.718665647032202,7.4257916344619375,0.8305543954244479,8.665958896841655,-1.2514067859184448,-1.6825606183307928,3.446439417397104,-2.945132371855945,3.697092940167683,3.6464784203506095,2.551939429306403,17.2824394412157,-0.1391899294969513,25.81021613075545,-14.059558627136752,3.542642377463798,-19.17149089336589,2.896423045345459,-25.504939771766693,29.62611195974481,38.204301075268816,43.02054691945967,1577396190.0,-27.68891844652032,-51.12807629527406,7.927603
76051,1577396190.93,-0.0325845006431021,-0.7770644266268101,11.623440293921494,1.1488664259003425,-0.7995465641673016,7.584655673887672,-11.209476987364232,0.1098996957174159,12.38415407506431,-13.702578660918444,1.872737233231708,1.5390907845846038,-5.874819871855945,3.040965010480183,3.112420803163109,6.992247046493903,29.7946464724657,10.90817335175305,24.82068707781913,-14.059558627136752,4.959699328449328,-19.402646774521777,3.5061963180497666,-25.504939771766697,29.67403480396561,38.10845538682721,42.99658549734927,1577396190.0,-27.68891844652032,-51.12807629527406,7.927603
76052,1577396190.94,-1.8210531407798207,0.9922506002286576,9.935528123511338,-2.7464996751738746,5.123708343059261,12.9021775610947,-3.713231589415015,-12.478812633384145,15.012987497915873,2.0750092297065548,17.101008717606707,5.628446253334603,-4.684634324980945,-7.243458817644817,4.7298524437881095,-3.048036156631097,13.2236015505907,-13.32278367949695,24.32592255135097,-13.876966956654456,5.491095685068893,-16.39762031949532,-3.81108295440192,-20.0638859537898,29.62611195974481,38.39599245215204,42.99658549734927,1577396190.0,-27.68891844652032,-51.12807629527406,7.927603
76053,1577396190.95,-1.3781258336509146,2.265965883431784,6.025796812476181,-2.1096420335723125,-2.640687640827458,9.387489523985328,5.727105556581078,13.179846558510384,14.953132456411966,0.8848236828315549,2.605159108231707,2.912381800209604,2.7616547375190548,6.458933760480183,1.5255067406631098,-1.8578506097560967,-10.8242500119093,-21.77615282012195,26.46990216604632,-14.424741968101342,4.605435090702943,-17.322243844118844,5.945289408866995,-22.10428113553113,29.62611195974481,38.15637823104801,42.99658549734927,1577396190.0,-27.68891844652032,-51.12807629527406,7.927603
76054,1577396190.96,0.3049979334389286,-0.6777050577303256,9.369299430884384,1.0590838636444833,0.8117511531178543,3.957440158750952,1.3325484093642814,4.55114377530726,2.6756663431307173,-1.3277007312309452,-3.940861399580792,3.202298792397104,-5.523867723418444,-2.772633622332317,4.1500184594131095,5.054380835556403,11.0873710818407,10.52670362519055,24.32592255135097,-16.43325034340659,5.491095685068893,-17.264454873829877,7.7746092269799165,-20.0638859537898,29.626111959744808,37.9646868541648,43.09243118579087,1577396190.0,-27.68891844652032,-51.12807629527406,7.927603
76055,1577396190.97,-0.7915464269126333,2.146255800423971,8.903627207983995,0.0786582838104988,0.931461236125666,7.397907944395484,-1.2879053076767333,-2.791872716391958,4.88312027379478,9.582333448456556,5.717952076981708,2.485135706459604,0.0761078625190548,0.2638654011051829,3.387079006288109,-0.5761123285060974,23.8132011599657,13.34957960175305,24.32592255135097,-16.43325034340659,5.491095685068893,-15.472996794871795,6.859949317923458,-24.824808044519585,29.5302662713032,38.0605325426064,43.04450834157007,1577396190.0,-27.68891844652032,-51.12807629527406,7.927603
76056,1577396190.98,1.827710189298304,-5.081839011587747,3.751305235327744,2.482436750607374,-5.094744342487614,1.7523804297470458,0.8333573632217032,-7.436623937095083,6.623704880728373,-9.826846239043444,-19.611637766768293,1.6916786752096038,-3.341860887480945,6.733591963605183,3.9363954125381095,0.3699325933689026,25.7663261599657,-0.7800590701219513,24.65576556899641,-12.781416933760685,4.782567209576139,-15.646363705738707,7.927052545155993,-78.89528036066497,29.67403480396561,38.10845538682721,42.99658549734927,1577396190.0,-27.68891844652032,-51.12807629527406,7.927603
76057,1577396190.99,-1.2248969274009145,0.9383810628751424,9.667377537573838,-0.4552486864043439,2.90188920243426,11.62606807623142,1.4965512230849842,4.630152430092416,11.108044590201027,-3.708071824980945,12.492854420731708,2.973416956459604,-8.072085496855944,-8.799855302019816,4.3331239281631095,4.886534155868903,17.9538261599657,5.323456554878049,25.975137639578165,-14.242150297619048,4.605435090702943,-16.166464438339442,7.7746092269799165,-90.11745386024232,29.79384191451762,38.0605325426064,43.04450834157007,1577396190.0,-27.68891844652032,-51.12807629527406,7.927603
76058,1577396191.0,-1.852177762361852,-2.242315842642435,8.173395701636338,-0.5282718370391095,-0.3542250553782397,12.7764819739365,-2.517327860166968,-6.249099913657584,16.028129001822123,-7.538027879668445,0.0722001238567073,3.309110315834604,-2.594180223418445,3.2545880573551838,2.578363185975609,-1.8120742425685967,-7.391022472846799,-4.7931205935594505,25.645294621932727,-14.97251697954823,5.845359922815277,-16.253147893772898,6.631284340659342,-95.04840888278387,29.62611195974481,38.084493964716806,43.04450834157007,1577396191.0,-27.68885206082333,-51.12810623511476,8.183826
76059,1577396191.01,0.3959775965248666,0.7719840474942826,11.980176341284777,1.3547677686737802,-2.1857893253977703,8.389107431700172,-0.2560043921493896,0.1410243172994471,10.523859385122904,-4.181094285918445,-4.139225657393292,1.7221962533346038,-2.609439012480945,-2.269093583269817,5.7674501000381095,-15.529725609756095,-12.5027168087843,-1.1462700076219514,25.645294621932727,-14.97251697954823,5.845359922815277,-19.17149089336589,8.689269136036378,-90.79758558748944,29.4823434270824,38.0605325426064,43.04450834157007,1577396191.0,-27.68885206082333,-51.12810623511476,8.183826
76060,1577396191.02,-2.285528262850133,2.682556972298971,13.335294480933213,-2.614818583865281,2.978503655559261,12.234195297911109,-4.828929563047828,2.2000377450338218,18.180516294302592,-1.8312407702934448,5.992610280106708,3.492215784584604,2.3954438000190548,-6.968800614519817,1.7086122094131098,-1.7052627191310974,-26.7544257931593,-4.960967273246951,25.48037311311001,-14.059558627136752,6.731020517181234,-19.17149089336589,8.689269136036378,-90.79758558748944,29.67403480396561,38.0605325426064,43.04450834157007,1577396191.0,-27.68885206082333,-51.12810623511476,8.183826
76061,1577396191.03,-0.5377610509360709,-0.2922385904451694,6.736874705542587,0.2725886182831551,-0.7205379093821453,10.496004892637671,3.3927589379287344,10.651569605385385,9.087338389029153,5.859188917206556,-0.7975508527057927,2.393582972084604,-2.426333543730945,3.102000166730183,2.227411037538109,-5.611512719131097,-30.9048164181593,-0.3222953982469513,25.562833867521363,-14.150854462377902,5.402529625632303,-18.24686736874237,5.335516136162689,-90.79758558748944,29.74591907029682,38.0605325426064,42.99658549734927,1577396191.0,-27.68885206082333,-51.12810623511476,8.183826
76062,1577396191.04,-0.9950535680259146,-0.5065196390291539,7.534143858374619,-0.3427212083770001,1.3097450984303542,6.158908585264625,2.4578231896377187,3.379182062660775,3.150915372671733,-11.474795457793444,7.854182545731708,3.278592737709604,-2.258486864043445,-0.4990740520198171,2.868280178163109,0.0189804449314028,-18.1942451290968,17.66781690644055,24.98560858664185,-14.607333638583638,6.553888398308031,-18.535812220187225,7.012392636099534,-90.79758558748944,29.817803336628028,38.0605325426064,42.94866265312847,1577396191.0,-27.68885206082333,-51.12810623511476,8.183826
76063,1577396191.05,-0.2767930699790396,1.6745980733731898,8.33141301120665,-0.8431093553496564,-1.5752679020579266,7.316505087950171,-4.352483432676734,-9.593799632895864,5.508006907095561,-1.1903716296684452,-3.803532298018293,1.5085732064596038,-1.6633940906059452,-6.511036942644817,3.173455959413109,-8.602235375381097,16.2448417849657,23.05416944550305,24.98560858664185,-14.607333638583638,6.553888398308031,-19.402646774521777,-1.3719898635846908,-24.824808044519585,29.62611195974481,38.25222391948962,42.99658549734927,1577396191.0,-27.68885206082333,-51.12810623511476,8.183826
76064,1577396191.06,-0.9567463414634146,-0.748334006704935,8.470276707495712,-1.769665397830125,-0.2823990055735517,7.311716684629859,8.487620070741235,-6.237128905356802,8.850312424673685,-2.777285692168445,-8.930485423018293,2.790311487709604,-3.616519090605945,-4.039113114519817,1.6780946312881098,-5.916688500381097,8.3407890505907,2.1191108517530486,25.31545160428729,-14.607333638583638,4.428302971829755,-19.63380265567766,5.640402772514843,-4.420856227106225,29.43442058286159,37.9646868541648,43.23619971845329,1577396191.0,-27.68885206082333,-51.12810623511476,8.183826
76065,1577396191.07,-1.3697461278403678,0.5265783773282671,13.975743425025009,-1.6068596849395005,1.163698797160822,11.885838956358374,-2.7136523962997803,1.752322034584604,11.63836025792564,-12.817568895293444,-3.5746504620807924,3.507474573647104,-2.762026903105945,-5.854909012957316,3.432855373475609,3.360655249618903,7.7762138552782,3.8738715939405486,25.15053009546457,-14.607333638583638,4.605435090702943,-17.091087962962966,5.640402772514843,-15.302963863060016,29.65007338185521,38.132416808937606,43.09243118579087,1577396191.0,-27.68885206082333,-51.12810623511476,8.183826
76066,1577396191.08,-0.2289090367759146,0.8485985006192827,9.839760057105089,0.8400144117401863,-1.072485553425114,9.67239952154392,-3.679712766172828,-11.195520543540397,12.350635251822125,3.8755463390815534,1.5370438738567074,4.590848597084603,-0.5342436999809451,1.3930157917301829,4.6382997094131095,-0.4540420160060974,-1.4553535275342988,-4.442168445121951,24.98560858664185,-13.511783615689868,4.074038734083371,-16.859932081807084,6.555062681571303,-3.740724499859112,29.62611195974481,38.15637823104801,42.90073980890766,1577396191.0,-27.68885206082333,-51.12810623511476,8.183826
76067,1577396191.09,-0.9423811315024772,0.2644132955411576,10.857295762671493,0.4234233228729988,-1.2424738712962078,12.701064621641578,1.3552933251357655,0.4929719613424159,9.934885776724467,-9.857363817168444,-3.559391673018293,3.126004847084604,-2.304263231230945,-2.360646317644817,3.9974305687881095,-3.749940453506097,-9.3899238400343,-21.65408250762195,24.98560858664185,-13.511783615689868,4.074038734083371,-17.206665903540905,6.555062681571303,-24.824808044519585,29.67403480396561,38.39599245215204,42.99658549734927,1577396191.0,-27.68885206082333,-51.12810623511476,8.183826
76068,1577396191.1,0.0200879358803343,-1.1840787088533724,10.09354543308165,-1.2166048143340311,-1.8529952946360515,4.831323764707984,5.164468166444359,19.47899112638148,7.061843784536967,-1.6176177234184452,3.825862233231707,4.407743128334603,-0.9004546374809451,-5.381886552019817,2.990350490663109,0.4614853277439026,-20.7119453244093,4.957245617378049,25.81021613075545,-13.329191945207567,5.668227803942081,-17.206665903540905,5.335516136162689,-20.74401768103691,29.62611195974481,38.25222391948962,43.14035403001168,1577396191.0,-27.68885206082333,-51.12810623511476,8.183826
76069,1577396191.11,-1.701343057772008,0.26321619471108,6.897286216773057,-1.8187465318633285,-0.931227655475896,8.508817514707983,-3.0823594519638435,-3.517315819419302,9.544630906118998,1.0526703625190548,1.460749928544208,3.6142860970846034,-2.884097215605945,-6.022755692644817,2.227411037538109,-12.203309594131095,-31.7593086056593,6.0863960080030495,26.140059148400887,-13.876966956654456,6.022492041688461,-16.831037596662597,-3.429974658961728,-24.654775112707807,29.74591907029682,37.9886482762752,43.04450834157007,1577396191.0,-27.68885206082333,-51.12810623511476,8.183826
76070,1577396191.12,0.0224821375404906,-0.7459398050447787,7.337819322241806,-0.0530228074980938,-0.9527754704173016,5.056378720762671,-3.279881088926734,8.772121302162729,7.148035044302592,-1.2208892077934452,0.1027177019817073,3.217557581459604,-5.478091356230945,-1.3230486613948171,4.1500184594131095,-12.905213891006095,-30.3555000119093,26.56369092987805,26.14005914840088,-13.69437528617216,6.376756279434842,-16.975510022385023,6.25017604521915,-88.7571904057481,29.62611195974481,38.10845538682721,42.90073980890766,1577396191.0,-27.68885206082333,-51.12810623511476,8.183826
76071,1577396191.13,-0.3653785314048209,-0.2670994730135289,10.620269798316023,-2.473560685916062,-1.4675288273508953,9.04751288824314,1.4486671898818593,-0.9172128164896144,5.812070517935404,-9.338564989043444,-10.669987376143292,2.363065393959604,-0.7173491687309451,-11.668507645769816,4.3331239281631095,-7.900331078506097,-14.8830879025343,20.52121046112805,26.14005914840088,-13.69437528617216,6.376756279434842,-17.206665903540905,-4.420856227106227,-86.03666349675964,29.62611195974481,38.10845538682721,43.04450834157007,1577396191.0,-27.68885206082333,-51.12810623511476,8.183826
76072,1577396191.14,-0.5593088658774771,2.21688474939858,12.071156004370712,-1.7169929613066877,4.2665841487233225,15.468761740782202,-3.45465781011814,-4.158961864341177,9.252538303579934,-5.661196824980944,-6.763737376143292,2.424100550209604,-7.065005418730945,-7.182423661394817,3.234491115663109,-17.0250869378811,-13.7234199337843,6.910370617378049,26.222519902812245,-12.872712769001833,5.22539750675911,-17.091087962962966,-3.5061963180497666,-88.7571904057481,29.74591907029682,38.0605325426064,42.85281696468685,1577396191.0,-27.68885206082333,-51.12810623511476,8.183826
76073,1577396191.15,-2.093992130037633,-1.38998005162681,8.929963426245713,0.3168813489960462,-0.281201904743474,7.941391721250953,1.923916219422876,-1.6773718435892244,10.486749259390482,-8.941836473418444,11.546809498856708,5.262235315834603,-5.401797410918445,0.0807599323551828,0.9914491234756094,-2.468202172256097,4.739714831840701,0.8221137814405486,25.31545160428729,-12.416233592796091,6.553888398308031,-16.339831349206353,-4.26841290893015,-25.84500563539025,29.62611195974481,38.0605325426064,42.99658549734927,1577396191.0,-27.68885206082333,-51.12810623511476,8.183826
76074,1577396191.16,-0.0373729039634146,4.22202863977944,12.777445494116806,-3.208580595584031,3.277778863078792,18.57882969732517,-10.189547080137672,-7.386345702231802,11.725748618521342,-4.455752489043445,-0.0498701886432926,3.461698206459604,-4.745669481230945,-11.760060380144816,3.265008693788109,-7.106874047256097,-6.948517590034299,-15.55056688262195,25.81021613075545,-12.96400860424298,6.022492041688465,-17.206665903540905,6.25017604521915,-22.784412862778247,29.86572618084883,38.0605325426064,42.99658549734927,1577396191.0,-27.68885206082333,-51.12810623511476,8.183826
76075,1577396191.17,-2.6255048985923204,-3.4346282694002475,12.801387510718367,-1.2908250657988751,-3.859336285846989,10.256584726622046,5.894699672792015,21.432659681068976,15.848563877310404,-16.449160692168444,-13.569157298018292,2.729276331459604,2.4564789562690548,1.3930157917301829,1.0067079125381098,-6.893251000381097,-25.1064765744093,-2.2449028201219514,25.81021613075545,-12.96400860424298,6.022492041688465,-17.322243844118844,5.640402772514843,-81.95587313327698,29.5302662713032,37.91676400994399,42.85281696468685,1577396191.0,-27.68885206082333,-51.12810623511476,8.183826
76076,1577396191.18,1.0256526331459603,0.1171698934415493,8.335004313696885,6.305976801876906,-1.098821771686833,7.481705002500952,-7.845623654844703,-0.5365347525247706,11.206206858267436,-1.205630418730945,-2.1555830792682924,4.819730433022103,-3.769106981230945,3.681834151105183,3.295526271913109,-8.144471703506097,-19.9184882931593,16.79806592987805,25.975137639578165,-13.146600274725271,6.199624160561653,-18.53581222018722,5.792846090690919,-20.40395181741336,29.67403480396561,38.25222391948962,43.04450834157007,1577396191.0,-27.68885206082333,-51.12810623511476,8.183826
76077,1577396191.19,-0.0110366857016959,-3.1377472635408723,10.117487449683212,2.7158714124726084,-0.8282769840891766,11.578184043028296,1.3409281151748282,-2.431545366538443,8.9041819620272,2.6243256359565548,1.5675614519817074,2.240995081459604,-2.289004442168445,-5.381886552019816,1.861200100038109,-7.442567406631096,-22.8329170040968,6.8340766720655495,25.81021613075545,-14.424741968101342,4.959699328449328,-15.068474002849005,5.640402772514842,-58.15126267962806,29.5302662713032,37.9886482762752,43.09243118579087,1577396191.0,-27.68885206082333,-51.12810623511476,8.183826
76078,1577396191.2,2.115014388517054,-0.8560730814119663,3.9787543930425873,0.4042697095917488,1.7047883723561346,8.62613339605564,-3.3325535254501717,-6.062352184165396,8.594132847036967,0.9153412609565548,4.497248951981708,6.177762659584603,-4.043765184355945,3.132517744855183,5.9505555687881095,-13.271424828506095,-10.1223457150343,14.41769483612805,24.98560858664185,-14.242150297619048,5.136831447322516,-15.472996794871795,8.07949586333207,-78.55521449704142,29.72195764818641,38.10845538682721,43.04450834157007,1577396191.0,-27.68885206082333,-51.12810623511476,8.183826
76079,1577396191.21,-1.2775693639243522,5.893181398568502,12.068761802710556,-2.7034040452910624,1.9920925715748847,9.6460633032822,-3.07158554449314,-8.911452159751333,10.92847946568931,15.807919385956556,-7.618229563643292,1.3254677377096038,-3.341860887480945,-5.229298661394817,-0.2139952124618902,-24.9596572503811,-23.3059394650343,-3.2519828982469514,24.82068707781913,-13.69437528617216,4.959699328449328,-17.264454873829877,8.23193918150815,-107.46081290504368,29.5302662713032,38.0605325426064,43.04450834157007,1577396191.0,-27.68885206082333,-51.12810623511476,8.183826
76080,1577396191.22,0.3780210840736942,-0.1042937601229043,11.877225669898056,-0.0242923875762193,-0.0154455204661303,12.03547656011814,-0.4092332983993905,1.4518497262349943,14.826239768423685,-9.872622606230944,-3.4678389386432924,2.576688440834604,-1.953311082793445,-1.2009783488948171,2.395257717225609,-8.205506859756095,-30.9048164181593,-2.7484428591844514,24.98560858664185,-13.876966956654456,4.959699328449328,-18.16018391330892,7.545944249715802,-102.18979201887856,29.721957648186415,38.18033965315841,43.14035403001168,1577396191.0,-27.68885206082333,-51.12810623511476,8.183826
76081,1577396191.23,-2.093992130037633,-1.5599683694979036,15.715130931128524,-1.247729435916063,-4.216072333210271,11.973227316954077,1.328957106874047,12.088090601479134,12.67145827428306,-8.362002489043444,2.788264576981707,3.309110315834604,2.4564789562690548,-3.215138505144817,0.9151551781631098,-10.372254906631095,-39.4802558712843,3.9196479611280486,25.15053009546457,-13.69437528617216,5.313963566195704,-19.113701923076928,9.756372363268914,-100.65949563257256,29.96157186929044,38.0605325426064,42.99658549734927,1577396191.0,-27.68885206082333,-51.12810623511476,8.183826
76082,1577396191.24,-0.2935524816001334,-6.98283512975181,9.552455857886338,-1.156749772830125,-5.793851227253239,8.927802805235327,1.7263945824599842,-2.743988683188833,7.171977060904155,-10.833926317168444,12.004573170731708,6.055692347084603,0.7780121593940549,-5.290333817644817,4.8214051781631095,-3.444764672256097,-16.3174140744093,22.41330030487805,24.65576556899641,-14.242150297619048,4.782567209576139,-19.576013685388688,9.756372363268914,-100.65949563257256,29.86572618084883,38.0605325426064,42.90073980890766,1577396191.0,-27.68885206082333,-51.12810623511476,8.183826
76083,1577396191.25,-1.0189955846274772,-0.0731691385408726,10.778287107886335,-3.208580595584031,1.8173158503834783,14.712194016172829,-3.4666288184189216,-11.782099950278676,9.41534401647056,-7.385439989043445,2.513606373856707,5.201200159584603,1.2968109875190548,-12.095753739519816,6.5303895531631095,-2.224061547256097,0.9860527224657012,10.66403272675305,23.99607953370554,-12.416233592796091,6.199624160561654,-19.63380265567766,9.60392904509284,-102.35982495069037,29.5302662713032,38.10845538682721,43.04450834157007,1577396191.0,-27.68885206082333,-51.12810623511476,8.183826
76084,1577396191.26,-1.229685330721227,2.022954414925924,9.751174595679306,-1.5517930467559062,0.5364179621998852,8.38312192754978,3.2730488549209222,3.763451429115854,8.709054526724467,6.423764112519055,-5.070011790205792,3.064969690834604,6.728939893769055,-1.2314959270198171,0.7473084984756094,5.878355444931403,4.861785144340701,8.25314405487805,24.90314783223049,-12.324937757554943,6.288190219998247,-20.78958206145706,1.8293198181129224,-62.91218477035784,29.62611195974481,38.13241680893762,42.92470123101806,1577396191.0,-27.68885206082333,-51.12810623511476,8.183826
76085,1577396191.27,1.3273220423256478,0.7480420308927201,6.068892442358994,-0.0985126390410626,-0.4188685002024579,10.524735312559546,-4.148976291563453,-2.7799017080911765,16.327404209341655,23.65093696408156,-16.498844798018293,2.088407190834604,1.2357758312690548,-10.539357255144816,4.9434754906631095,-6.649110375381097,-4.507111340034299,-0.9021293826219512,25.81021613075545,-14.059558627136752,4.605435090702943,-20.905160002035004,6.25017604521915,-16.663227317554238,29.62611195974481,38.0605325426064,42.90073980890766,1577396191.0,-27.68885206082333,-51.12810623511476,8.183826
76086,1577396191.28,-0.0445555089438834,-1.3780090433260288,10.82138273776915,-3.38814572009575,-2.429997894733708,10.527129514219702,-1.1298879981064207,-6.031227562583364,9.192683262076027,1.3425873547065548,-6.031315501143292,2.515653284584604,5.477719190644055,-9.043995927019816,2.959832912538109,-6.923768578506097,-14.2117011837843,-7.768584460746951,24.32592255135097,-13.511783615689868,5.136831447322516,-21.020737942612943,5.945289408866995,-16.663227317554238,29.62611195974481,38.0605325426064,42.804894120466045,1577396191.0,-27.68885206082333,-51.12810623511476,8.183826
76087,1577396191.29,-0.3977002538169302,-2.1788694986482944,12.213611003150008,2.6643960767792487,-3.5361190617258957,8.195177097227514,0.6561864403701406,-0.8046853384622705,11.900525339712749,-4.303164598418444,-3.376286204268293,3.354886683022104,2.5785492687690548,2.796824385480183,3.9669129906631095,-3.780458031631097,-17.0498359494093,-12.89553758574695,25.15053009546457,-14.424741968101342,5.668227803942081,-19.113701923076928,5.792846090690919,-4.08079036348267,29.69799622607601,38.0605325426064,43.14035403001168,1577396191.0,-27.68885206082333,-51.12810623511476,8.183826
76088,1577396191.3,-0.0349787023032584,1.3058910177091274,12.57154415134337,-1.1304135545684064,2.249469250041682,16.079283164122046,1.4702150048232665,9.777685999428352,13.905669230093608,6.042294385956555,1.933772389481708,4.651883753334603,-0.1832915515434451,-7.472340653582316,3.6617372094131095,7.114317358993904,-8.9474189572218,17.39315870331555,26.14005914840088,-13.329191945207567,4.251170852956559,-16.51319826007326,6.859949317923457,-13.942700408565791,29.86572618084883,38.1084553868272,43.188276874232486,1577396191.0,-27.68885206082333,-51.12810623511476,8.183826
76089,1577396191.31,-1.1841954991782584,4.210057631478659,14.082285398901965,-3.560528239627,-0.5505495915110517,12.286867734434546,-10.63008018560642,-26.97570368563024,13.902077927603372,10.192685010956556,4.222590748856708,3.980497034584604,8.590512159394056,-0.071827958269817,2.044305568788109,-12.355897484756095,-0.4787910275342988,-2.5805961794969514,25.48037311311001,-12.96400860424298,4.959699328449328,-15.704152676027675,5.640402772514843,-26.185071499013805,29.72195764818641,37.91676400994399,42.804894120466045,1577396191.0,-27.68885206082333,-51.12810623511476,8.183826
76090,1577396191.32,-1.478682303377477,-2.9653647440096225,12.803781712378523,2.2238629713104987,-3.797087042682927,11.432137741758766,6.945754201600609,18.408782984291637,13.691388181509623,-11.474795457793444,-7.282536204268292,1.6001259408346038,7.064633253144055,-3.459279130144817,3.9058778344131095,11.783506812118905,-8.0166328244093,3.9196479611280486,25.15053009546457,-14.059558627136752,2.8341139019710444,-16.28204237891738,5.945289408866995,-25.504939771766697,29.5302662713032,38.25222391948962,43.3320454068949,1577396191.0,-27.68885206082333,-51.12810623511476,8.183826
76091,1577396191.33,-2.2544036412681017,0.2548364889005337,10.77110450290587,1.8934631422089363,0.2802383845631661,11.113708920957984,-8.51121171636814,1.826542286049447,14.321063218130716,10.879330518769056,2.971370045731708,4.651883753334603,3.3414887218940548,-6.144826005144817,4.6993348656631095,9.342100562118905,13.1320488162157,29.37130811737805,26.799745183691755,-12.96400860424298,4.959699328449328,-16.39762031949532,-3.658639636225843,-90.45751972386589,29.626111959744808,38.0605325426064,43.14035403001168,1577396191.0,-27.68885206082333,-51.12810623511476,8.183826
76092,1577396191.34,-0.4132625646079459,2.493415041146627,6.744057310523057,-2.9727517320586414,1.799359337932307,11.197505979063452,3.124608351991234,-5.609848070395865,8.443298142447123,12.359433057831556,-8.869450266768293,2.790311487709604,8.361630323456556,-1.5824480754573171,2.898797756288109,8.136656226181401,5.639983386528201,-8.40945360137195,24.82068707781913,-12.598825263278387,5.668227803942081,-16.39762031949532,4.420856227106229,-91.137651451113,29.62611195974481,37.94072543205439,43.23619971845329,1577396191.0,-27.68885206082333,-51.12810623511476,8.183826
76093,1577396191.35,2.976926986173304,-4.236685825552591,3.222186668433212,5.163942609982374,-0.0501614445383954,1.0317257300400144,-6.258267954161108,13.29716243985804,2.1800665994783737,2.3496674328315548,-30.567448313643293,2.057889612709604,9.811215284394056,7.649119307355183,1.1898133812881098,21.7322372808689,21.1581718630907,18.01876905487805,25.645294621932727,-13.511783615689868,4.428302971829755,-16.39762031949532,3.5061963180497666,-91.47771731473654,29.72195764818641,38.25222391948962,43.23619971845329,1577396191.0,-27.68885206082333,-51.12810623511476,8.183826
76094,1577396191.36,0.6832817957436166,2.59397151087319,5.238104466284775,0.5311623975800301,-3.2392380558665206,6.789780722715796,-3.950257553770484,-25.99647520662633,6.915797483267435,43.48736274533155,18.352229420731707,2.851346643959604,7.674984815644055,-16.551320145769818,5.4622743187881095,3.757383765243903,42.7646171755907,1.6308296017530486,26.3049806572236,-13.876966956654456,7.262416873800799,-16.39762031949532,3.5061963180497666,-91.47771731473654,29.72195764818641,38.0605325426064,43.14035403001168,1577396191.0,-27.68885206082333,-51.12810623511476,8.183826
76095,1577396191.37,-0.0265989964927115,0.5792508138517055,9.163398088110949,-2.2592796373320785,3.353196215373713,11.527905808165016,2.9641968407607657,10.266103138100227,11.919678952993998,6.942562940644055,-1.7741133527057926,3.9804970345846034,4.577450635956555,-8.403126786394816,4.1042420922256095,21.4880966558689,24.2557060427782,-13.30752489043445,27.78927423662807,-13.69437528617216,6.022492041688465,-16.917721052096056,0.6097732727043081,-25.84500563539025,29.721957648186415,38.0605325426064,43.02054691945967,1577396191.0,-27.68885206082333,-51.12810623511476,8.183826
76096,1577396191.38,-1.0788506261313833,1.59798362024819,14.855612535132432,0.7011507154511238,-2.734061505573552,14.367428977110327,-4.836112168028296,-3.024110277427114,14.045730027212748,-5.615420457793445,-3.864567454268293,1.3254677377096038,7.522396925019055,6.672556807355183,2.349481350038109,10.196592749618905,16.4584648318407,6.055878429878049,26.799745183691755,-13.69437528617216,6.022492041688465,-17.033298992673995,7.012392636099534,-90.45751972386589,29.62611195974481,38.0605325426064,43.04450834157007,1577396191.0,-27.68885206082333,-51.12810623511476,8.183826
76097,1577396191.39,-1.545719949861852,-3.6525006204744654,10.287475767554309,-3.0816879075957497,-2.892078815143864,5.970963754942359,-1.7978702612900144,3.174477820717416,8.800034189810404,3.5703705578315548,6.877620045731708,5.079129847084603,6.057553175019055,1.6981915729801829,4.5162293969131095,17.4902939214939,5.746794909965701,7.001923351753049,26.799745183691755,-11.868458581349207,6.022492041688465,-17.148876933251934,6.70750599974738,-24.484742180896028,29.67403480396561,37.9646868541648,42.85281696468685,1577396191.0,-27.68885206082333,-51.12810623511476,8.183826
76098,1577396191.4,-1.1195520543540396,1.27835769861733,7.504216337622665,-3.199003788943406,1.7598550105397284,8.911043393614232,0.6825226586318595,-0.5916013907083643,7.109727817740092,2.898983839081555,1.7811844988567085,4.072049768959603,3.3109711437690548,-7.548634598894817,5.8590028344131095,8.853819312118903,14.8105156130907,5.842255383003049,25.48037311311001,-12.781416933760685,5.668227803942084,-17.264454873829877,5.487959454338766,-20.40395181741336,29.721957648186415,37.9646868541648,43.14035403001168,1577396191.0,-27.68885206082333,-51.12810623511476,8.183826
76099,1577396191.41,-0.0277960973227896,-2.0507797098299347,6.229303953589462,1.405046003537061,0.9518119502369946,6.079899930479468,-1.028134427549781,0.814992084633432,4.619758091177592,11.779599073456556,-7.801335032393292,5.079129847084603,3.707699659394055,3.498728682355183,1.3271424828506095,12.1802353277439,28.8028251834032,9.00082471894055,25.48037311311001,-12.598825263278387,5.313963566195704,-15.415207824582827,7.317279272451687,-54.75060404339251,29.62611195974481,37.94072543205439,43.11639260790128,1577396191.0,-27.68885206082333,-51.12810623511476,8.183826
76100,1577396191.42,0.8939715418373665,3.798254945931784,3.4663952377691496,-0.1918865037871563,3.890694488078792,5.877589890196265,1.0296818993545156,-1.757577599204458,10.612444846548684,21.97247016720656,-0.9043623761432926,4.621366175209603,0.2897309093940549,-9.532277177019816,4.9129579125381095,8.701231421493903,30.8627617068407,-3.1299125857469514,25.48037311311001,-12.598825263278387,5.313963566195704,-15.472996794871795,7.7746092269799165,-91.47771731473654,29.62611195974481,38.0605325426064,43.188276874232486,1577396191.0,-27.68885206082333,-51.12810623511476,8.183826
76101,1577396191.43,0.8077802820717416,5.397581654916158,8.977847459448839,-0.5797471727324689,1.8173158503834783,9.7226777564072,2.873217177674828,0.8329485970846034,9.68349460240806,15.533261182831556,-20.099919016768293,1.7527138314596038,2.8837250500190548,-0.4380388957698171,0.0301454125381097,12.760069312118905,15.7260429568407,-15.12332078887195,27.45943121898264,-11.503275240384614,5.668227803942081,-17.322243844118844,8.384382499684225,-100.99956149619612,29.4823434270824,38.10845538682721,42.85281696468685,1577396191.0,-27.68885206082333,-51.12810623511476,8.183826
76102,1577396191.44,0.3277428492104134,-4.78016960240806,7.561677177466415,0.9884549146698738,-5.74836139571027,4.1346110816025154,-6.248691147520484,7.943727527748666,16.28430857945884,0.8237885265815548,3.505427662919208,4.239896448647103,0.1371430187690548,5.543406416730183,3.8448426781631095,7.877256812118903,-2.3708808712842986,-0.8410942263719513,26.3049806572236,-13.876966956654456,5.491095685068892,-17.322243844118844,8.384382499684225,-100.99956149619612,29.67403480396561,38.15637823104801,42.85281696468685,1577396191.0,-27.68885206082333,-51.12810623511476,8.183826
76103,1577396191.45,0.6665223841225228,0.3577871602872514,16.730272435034774,-2.271250645632859,-0.946789966266911,11.787676688291969,-0.6318940527939207,-2.398026543296256,10.38619278966392,-26.428408739043444,10.387141530106708,6.635526331459603,0.182919385956555,-0.6211443645198171,6.1489198266006095,2.994444312118904,-12.5942695431593,0.3948676876905487,25.975137639578165,-11.685866910866912,4.782567209576139,-17.322243844118844,8.689269136036378,-98.9591663144548,29.62611195974481,38.0605325426064,42.85281696468685,1577396191.0,-27.68885206082333,-51.12810623511476,8.183826
76104,1577396191.46,-0.1594771886313834,-1.4115278665682165,17.513176377905868,2.551868598751905,-0.1195932926829267,8.130533652403296,1.580348281190453,8.288492566811167,7.66039419957603,-27.008242723418444,-4.658024485518292,3.309110315834604,1.5409516125190548,7.130320479230183,4.8214051781631095,10.776426733993905,4.007292956840701,20.88742139862805,25.975137639578165,-11.685866910866912,4.782567209576139,-17.033298992673995,10.366145635973224,-87.73699281487744,29.86572618084883,37.91676400994399,43.04450834157007,1577396191.0,-27.68885206082333,-51.12810623511476,8.183826
76105,1577396191.47,1.396753890470179,4.423141579232564,13.4071205307379,0.5886232374237801,6.119696233684261,13.26130781011814,-0.959899680235327,-8.937788378013051,10.598079636587748,19.59209907345656,2.696711842606707,5.903104456459603,-3.067202684355945,-5.503956864519817,10.07042861566311,-1.7968154535060974,14.4137870974657,10.26730421112805,26.14005914840088,-12.233641922313796,4.959699328449328,-19.113701923076928,10.366145635973224,-87.73699281487744,29.72195764818641,38.0605325426064,42.90073980890766,1577396191.0,-27.68885206082333,-51.12810623511476,8.183826
76106,1577396191.48,1.846863802579554,1.0700621541837367,10.034887492407822,2.559051203732374,2.688805254680354,10.57980195074314,-6.34685341558689,4.318906214272103,12.41049029332603,14.770321729706556,-2.2929121808307933,3.202298792397104,7.064633253144055,10.334666182355184,1.830682521913109,6.137754858993903,0.4062187380907012,-2.6721489138719514,26.14005914840088,-14.242150297619048,6.553888398308038,-19.113701923076928,10.366145635973224,-87.73699281487744,29.62611195974481,37.9646868541648,43.23619971845329,1577396191.0,-27.68885206082333,-51.12810623511476,8.183826
76107,1577396191.49,1.7774319544350228,-1.9382522318025912,3.521461875952744,5.229783155636671,-1.9032735294993337,6.041592703916968,-1.9187774451279056,-1.773139909995474,6.173594968618998,13.427548292206556,18.443782155106707,6.360868128334603,0.9306000500190548,1.1030987995426829,8.04100967035061,9.921934546493905,6.2808525271532005,3.5839546017530486,25.975137639578165,-13.511783615689868,5.491095685068893,-20.44284823972324,5.945289408866996,-19.383754226542685,29.62611195974481,38.036571120496006,43.11639260790128,1577396191.0,-27.68885206082333,-51.12810623511476,8.183826
76108,1577396191.5,-0.4324161778891959,-0.3437139261385288,8.44633469089415,-6.670596196169969,-0.2057845524485516,14.48713906011814,2.5667593651748284,-2.9594668326028954,6.578215049185404,-1.5565825671684452,24.547297780106707,6.025174768959603,4.775814893769055,-6.114308427019817,6.3778016625381095,3.330137671493903,6.509734363090701,-4.838896960746951,25.975137639578165,-13.511783615689868,5.491095685068893,-17.322243844118844,5.335516136162689,-15.302963863060016,29.5302662713032,38.30014676371043,42.99658549734927,1577396191.0,-27.68885206082333,-51.12810623511476,8.183826
76109,1577396191.51,1.8396811975990848,-0.5855282938143102,7.687372764624619,1.2901243238495614,-2.6430818424876144,10.66838741216892,-1.2519922827743897,-2.370493224204458,6.980440928091655,2.1360443859565548,10.265071217606708,5.872586878334603,6.393246534394055,9.297068526105184,6.5609071312881095,5.985166968368903,16.7941581912157,-5.113555163871951,26.3049806572236,-13.146600274725271,4.782567209576139,-17.322243844118844,7.7746092269799165,-3.0605927726120044,29.62611195974481,37.9646868541648,43.14035403001168,1577396191.0,-27.68885206082333,-51.12810623511476,8.183826
76110,1577396191.52,-0.9663231481040396,1.299905513558736,14.03320426486876,0.7334724378632338,0.2455224604909011,9.692750235655248,3.859628261659203,4.82527986539515,9.17951515294517,-1.4345122546684448,5.321223561356707,4.667142542397103,2.1055268078315548,1.9270734089176829,6.3167665062881095,11.051084937118905,25.2933036990282,13.85311964081555,26.96466669251448,-12.78141693376068,4.605435090702944,-17.264454873829877,8.384382499684223,-11.902305226824458,29.69799622607601,38.0126096983856,42.94866265312847,1577396191.0,-27.68885206082333,-51.12810623511476,8.183826
76111,1577396191.53,-0.1475061803306021,1.4591199239591273,4.852637998999619,-2.121613041873094,1.946602740031916,9.94055010748142,-6.167288291075171,-5.490137987388052,7.514347898306498,8.575253370331556,14.781672780106708,6.635526331459603,1.0526703625190548,9.571726729230184,5.7979676781631095,9.372618140243905,35.2878105349657,3.5534370236280486,24.98560858664185,-13.876966956654456,4.782567209576139,-16.0508864977615,5.335516136162689,-22.10428113553113,29.5302662713032,38.10845538682721,42.99658549734927,1577396191.0,-27.68885206082333,-51.12810623511476,8.183826
76112,1577396191.54,0.1374038172279906,4.54764006556069,7.107975962866806,-1.2668830491973126,-0.7827871525462079,5.846465268614234,-3.844912680723609,7.292504676186166,12.642727854361183,18.43243110470656,10.387141530106708,5.994657190834603,3.2194184093940548,14.149363447980184,4.4857118187881095,13.095762671493905,36.6305839724657,0.4406440548780487,24.98560858664185,-13.876966956654456,4.782567209576139,-17.322243844118844,5.335516136162689,-20.74401768103691,29.67403480396561,38.25222391948962,43.04450834157007,1577396191.0,-27.68885206082333,-51.12810623511476,8.183826
76113,1577396191.55,-0.2408800450766959,-0.6980557718416543,8.320639103735948,-1.922894304080125,-0.5242133732493329,6.344459213926734,-0.3589550635361083,-3.227617418540395,12.032206431021342,-3.3266020984184443,10.204036061356708,5.338529261147103,-0.0459624499809451,4.200632979230183,7.232293850038109,12.515928687118905,38.0649101443407,3.4008491330030486,25.892676885166804,-13.968262791895604,5.048265387885918,-17.322243844118844,5.335516136162689,-20.74401768103691,29.79384191451762,38.10845538682721,42.99658549734927,1577396191.0,-27.68885206082333,-51.12810623511476,8.183826
76114,1577396191.56,-0.3103118932212271,0.0704829610685014,7.273175877417588,-1.2800511583281722,-0.3721815678294113,7.166867484190406,-1.132282199766578,-3.573579558432974,6.95769601232017,-1.3124419421684452,8.098323170731707,4.285672815834603,1.3578461437690548,5.253489424542684,5.5843446312881095,6.809141577743904,10.5380546755907,-9.53860399199695,24.65576556899641,-13.146600274725271,5.845359922815277,-16.628776200651203,5.335516136162689,-23.46454459002536,29.72195764818641,38.036571120496006,43.02054691945967,1577396191.0,-27.68885206082333,-51.12810623511476,8.183826
76115,1577396191.57,0.8221454920326791,-1.6246118143221224,7.593998899878525,-0.6060833909941876,0.462197710735041,7.769009201719703,11.317566433045922,20.65933254483851,1.5312379495760298,-5.615420457793445,0.4384110613567073,3.644803675209604,-4.989810106230945,6.001170088605183,8.91076064691311,10.257627905868905,16.0312187380907,19.20895460175305,26.46990216604632,-13.329191945207567,6.376756279434842,-17.322243844118844,5.945289408866995,-22.784412862778247,29.43442058286159,37.86884116572318,42.99658549734927,1577396191.0,-27.68885206082333,-51.12810623511476,8.183826
76116,1577396191.58,-0.0661033238852896,5.258717958627096,7.771169822730087,0.1935799634979988,1.477339214641291,12.08575479498142,1.1493919823623282,-13.493954137290396,5.601380771841654,13.976864698456556,6.786067311356708,6.269315393959603,-3.830142137480945,-5.107228348894817,3.448114162538109,-5.275819359756097,23.1112968630907,10.57247999237805,26.46990216604632,-13.329191945207567,6.376756279434842,-16.975510022385023,5.335516136162689,-18.703622499295577,29.5302662713032,38.10845538682721,42.99658549734927,1577396191.0,-27.68885206082333,-51.12810623511476,8.183826
76117,1577396191.59,-1.3398186070884144,-0.0324677103182168,7.784337931860947,0.8543796217011238,0.1629225032155098,5.554372666075171,0.0384824120498281,3.483329834877572,6.566244040884623,-11.078066942168444,1.1403153582317072,3.446439417397104,-3.677554246855945,8.839304854230184,2.502069240663109,4.520323218368903,15.9091484255907,-0.3222953982469513,26.14005914840088,-13.511783615689865,5.845359922815273,-17.091087962962966,5.335516136162689,-24.824808044519585,29.62611195974481,37.91676400994399,42.85281696468685,1577396191.0,-27.68885206082333,-51.12810623511476,8.183826
76118,1577396191.6,-0.8083058385337272,3.508556545052877,10.96742903903868,-1.7289639696074686,0.7099975825612128,13.068574576475562,-1.6242906409286872,-6.6812533133157865,14.524570359243995,-2.929873582793445,-0.1414229230182926,3.217557581459604,-5.325503465605945,-3.276173661394817,6.4846131859756095,-6.206605492568596,2.206755847465701,5.7201850705030495,26.799745183691755,-12.96400860424298,5.313963566195704,-17.264454873829877,5.640402772514843,-22.784412862778247,29.72195764818641,38.1084553868272,43.06846976368048,1577396191.0,-27.68885206082333,-51.12810623511476,8.183826
76119,1577396191.61,-1.7971111241782582,-0.6621427469393101,14.259456321753524,0.2701944166229988,-0.1459295109446454,11.391436313536108,-4.211225534727515,8.290886768471323,21.50366819859947,-8.484072801543444,5.168635670731708,5.384305628334603,-3.830142137480945,6.336863447980183,4.1195008812881095,-11.653993187881095,-35.5434882931593,-17.56472703887195,25.975137639578165,-13.146600274725271,5.845359922815277,-16.859932081807084,8.384382499684225,-15.302963863060016,29.67403480396561,38.0605325426064,42.99658549734927,1577396191.0,-27.68885206082333,-51.12810623511476,8.183826
76120,1577396191.62,0.2690849085365853,-1.9238870218416535,7.184590415991806,-1.9420479173613752,-1.398096979206364,10.63726279058689,-4.62302822027439,8.678747437416634,16.576401181997905,-12.054629442168444,-0.2024580792682926,5.750516565834603,-1.3887358874809452,6.611521651105183,7.232293850038109,-10.006043969131095,-54.5864570431593,18.01876905487805,25.975137639578165,-13.146600274725271,5.845359922815277,-15.299629884004888,10.366145635973224,-14.96289799943646,29.67403480396561,38.10845538682721,42.85281696468685,1577396191.0,-27.68885206082333,-51.12810623511476,8.183826
76121,1577396191.63,-1.4307982701743518,2.6322787374356897,12.189668986548448,-1.5517930467559062,-2.366551550739568,10.408616532041968,2.8337128502822506,-2.193322301352896,10.643569468130718,5.080990675019056,5.122859303544208,4.133084925209603,-3.082461473418445,-5.778615067644816,4.5467469750381095,-29.3541885003811,-74.3313300900343,2.5005805783155486,27.129588201337192,-13.69437528617216,5.313963566195708,-15.010685032560032,5.335516136162689,-58.83139440687517,29.72195764818641,38.0126096983856,43.04450834157007,1577396191.0,-27.68885206082333,-51.12810623511476,8.183826
76122,1577396191.64,-0.6455001256431021,-4.073880112661966,5.489495640601182,-1.1232309495879376,-1.2879637028391766,9.717889353086887,9.821190395448266,10.163152466713507,3.839248349966655,-20.385928270293444,8.006770436356707,3.736356409584604,-4.318423387480945,5.909617354230183,1.5560243187881098,-22.2130752191311,-71.0049140744093,26.13644483612805,26.46990216604632,-13.329191945207567,5.313963566195704,-15.010685032560032,5.945289408866995,-91.47771731473654,29.62611195974481,38.10845538682721,42.99658549734927,1577396191.0,-27.68885206082333,-51.12810623511476,8.183826
76123,1577396191.65,-1.708525662752477,0.2979321187833451,11.209243406714462,-3.5389804246855934,0.7662613215748847,13.141597727110328,-7.424244162657202,-17.094833434165395,7.126487229361186,3.2041596203315548,8.250911061356707,4.621366175209603,-5.752749559355945,-10.325734208269816,6.4998719750381095,-27.4315810785061,-38.6257636837843,8.34469678925305,26.799745183691755,-12.598825263278387,6.022492041688465,-15.472996794871795,5.945289408866995,-88.07705867850099,29.62611195974481,38.15637823104801,42.99658549734927,1577396191.0,-27.68885206082333,-51.12810623511476,8.183826
76124,1577396191.66,-0.7987290318931021,0.2117408590177201,8.384085447730088,-0.4552486864043439,-0.7396915226633953,10.440938254454077,4.652109011170922,18.035287525307258,-0.8031086690763128,-5.035586473418445,-2.186100657393293,2.393582972084604,-4.257388231230945,7.832224776105183,4.3941590844131095,-0.6676650628810974,-4.140900402534299,12.73922803925305,26.799745183691755,-12.598825263278387,6.022492041688465,-15.010685032560032,5.945289408866995,-88.07705867850099,29.4823434270824,38.0605325426064,42.85281696468685,1577396191.0,-27.68885206082333,-51.12810623511476,8.183826
76125,1577396191.67,-0.7233116795981802,0.2332886739591274,9.064038719214462,-2.022253672976609,-2.105583569782536,9.02835927496189,-8.49804360723728,-10.262978996909537,8.875451542105328,5.477719190644056,-2.186100657393293,4.545072229897103,-3.341860887480945,-2.4674578410823167,3.8601014672256095,-4.589173851943597,37.0425712771532,15.76046827362805,26.88220593810312,-12.324937757554943,5.048265387885918,-16.16646443833944,5.792846090690919,-88.41712454212455,29.76988049240722,38.06053254260641,43.02054691945967,1577396191.0,-27.68885206082333,-51.12810623511476,8.183826
76126,1577396191.68,-4.306234464022008,-0.5807398904939977,13.80934640964415,-5.619541667361375,2.1333504695241032,12.73697764654392,5.576270851991234,21.638561023842414,19.34170409947837,-19.043154832793444,-2.582829173018293,2.820829065834604,-4.776187059355945,-1.8113299113948167,2.349481350038109,22.9529404058689,-3.5610664181592986,-17.96145555449695,26.799745183691755,-14.059558627136752,4.959699328449328,-17.322243844118844,5.640402772514843,-88.7571904057481,29.67403480396561,37.9646868541648,42.99658549734927,1577396191.0,-27.68885206082333,-51.12810623511476,8.183826
76127,1577396191.69,-0.5712798741782584,-1.1864729105135288,9.732020982398057,0.2558292066620614,-0.6127988346751142,14.494321665098608,0.8716645897842031,-0.7735607168802393,14.175016916861184,-0.8546782702934451,-3.528874094893293,2.546170862709604,-3.250308153105945,3.498728682355183,3.173455959413109,6.137754858993903,-6.643341808784299,2.5158393673780486,24.82068707781913,-14.059558627136752,6.022492041688465,-20.558426180301183,10.213702317797145,-88.07705867850099,29.62611195974481,38.15637823104801,43.14035403001168,1577396191.0,-27.68885206082333,-51.12810623511476,8.183826
76128,1577396191.7,-2.0760356175864616,-0.9674034586092324,12.332123985327744,0.9884549146698738,-2.6909658756907398,9.4545271704697,-4.321358811094703,-8.918634764731802,17.119884958853373,-1.9685698718559448,0.7435868426067074,3.934720667397104,1.7545746593940548,1.3319806354801829,1.1898133812881098,-9.670350609756095,-19.6438300900343,-9.50808641387195,25.81021613075545,-11.868458581349207,6.022492041688465,-19.63380265567766,5.335516136162689,-24.14467631727247,29.5302662713032,37.9646868541648,42.90073980890766,1577396191.0,-27.68885206082333,-51.12810623511476,8.183826
76129,1577396191.71,-0.0158250890220084,-3.36280221959556,9.609916697730087,-1.818746531863328,0.1736964106862134,10.039909476377906,-0.1542508215927499,13.720936133705695,11.122409800161966,1.3425873547065548,-4.658024485518292,2.851346643959604,0.1829193859565548,-8.647267411394816,4.6840760766006095,-14.949891625381095,-24.7097480587843,1.646088390815549,24.98560858664185,-13.146600274725271,4.428302971829755,-18.65139016076516,5.335516136162689,-8.501646590588896,29.5302662713032,37.94072543205439,43.14035403001168,1577396191.0,-27.68885206082333,-51.12810623511476,8.183826
76130,1577396191.72,-1.2536273473227897,0.8342332906583452,10.907573997534774,-1.8582508592559064,-3.138681586139958,5.726755185606422,-2.0636266455673584,-14.003919090903675,9.353094773306497,14.098935010956556,3.947932545731707,4.773954065834603,3.5856293468940548,-0.163380692644817,1.6170594750381098,-5.855653344131097,-18.3620918087843,15.42477491425305,25.81021613075545,-13.329191945207567,4.605435090702943,-17.091087962962966,5.335516136162689,-4.420856227106225,29.62611195974481,38.10845538682721,43.04450834157007,1577396191.0,-27.68885206082333,-51.12810623511476,8.183826
76131,1577396191.73,-1.021389786287633,-1.5408147562166536,10.8788435776129,-0.4432776781035626,-0.2488801823313642,6.71077206793064,0.5221111474013906,1.8504843026510092,8.634834275259623,-10.650820848418444,-4.047672923018292,1.6306435189596038,-1.4497710437309452,-11.088673661394816,5.8284852562881095,-6.008241234756097,-25.3200996212843,20.55172803925305,25.975137639578165,-13.511783615689868,6.199624160561654,-17.148876933251934,7.927052545155993,-14.96289799943646,29.62611195974481,38.25222391948962,42.99658549734927,1577396191.0,-27.68885206082333,-51.12810623511476,8.183826
76132,1577396191.74,-0.3079176915610709,1.0688650533536586,7.634700328101181,-4.3649799974395,3.2275006282155103,12.950061594297829,-0.8808910254501708,-10.134889208091176,7.816017307486185,6.957821729706556,-0.3245283917682924,3.141263636147104,-0.1375151843559451,-5.656544755144817,4.5467469750381095,-6.618592797256097,-14.9136054806593,8.37521436737805,27.1295882013372,-11.68586691086691,5.491095685068896,-15.588574735449738,7.7746092269799165,-15.302963863060016,29.5302662713032,37.9646868541648,42.99658549734927,1577396191.0,-27.68885206082333,-51.12810623511476,8.183826
76133,1577396191.75,-1.3206649938071646,3.836562172494284,9.126287962378528,2.439341120724561,-1.9511575627024575,3.847306882383765,-5.719572580625953,7.788104419838509,5.967693625845561,4.943661573456555,0.8656571551067074,3.827909143959604,0.3507660656440549,6.275828291730183,0.6710145531631098,1.5601181402439026,-9.2373359494093,6.086396008003049,26.799745183691755,-14.059558627136752,4.959699328449328,-16.28204237891738,5.640402772514843,-20.74401768103691,29.67403480396561,38.0605325426064,43.04450834157007,1577396191.0,-27.68885206082333,-51.12810623511476,8.183826
76134,1577396191.76,-0.0924395421470083,2.936342348275533,12.473381883276964,-5.241257805056688,2.265031560832697,10.610926572325171,-2.7651277319931404,-12.94807615877477,7.60293335973228,-2.960391160918445,-6.092350657393292,1.7221962533346038,-7.370181199980945,-8.250538895769816,7.659539943788109,-7.778260766006097,21.0666191287157,8.71090772675305,24.98560858664185,-11.320683569902318,4.782567209576139,-16.22425340862841,6.402619363395226,-25.84500563539025,29.62611195974481,38.15637823104801,42.90073980890766,1577396191.0,-27.68885206082333,-51.12810623511476,8.183826
76135,1577396191.77,0.3648529749428353,-3.097045835318216,7.100793357886338,-1.367439518923875,-2.5616789860423017,11.10892051763767,6.282560341737328,-8.528379894126333,11.321128537954936,-3.936953660918445,12.187678639481708,5.903104456459603,-1.8464995593559448,5.757029463605183,-1.9840147437118905,5.313780249618903,8.9511406130907,-10.66775438262195,25.31545160428729,-11.685866910866912,5.845359922815277,-16.22425340862841,6.402619363395226,-25.84500563539025,29.67403480396561,37.772995477281576,42.99658549734927,1577396191.0,-27.68885206082333,-51.12810623511476,8.183826
76136,1577396191.78,-0.4300219762290396,0.7193116109708452,11.288252061499618,-4.515814702029344,-0.2309236698801925,13.486362766172826,-0.2572014929794686,-3.5771708609232085,14.123541581167826,0.0913666515815548,1.6896317644817074,4.712918909584603,-0.137515184355945,-3.199879716082317,5.7369325219131095,-13.6681533441311,-8.7795722775343,2.3174751095655486,25.31545160428729,-11.685866910866912,5.845359922815277,-20.21169235856736,-0.6097732727043068,-58.83139440687517,29.62611195974481,38.0126096983856,43.188276874232486,1577396191.0,-27.68885206082333,-51.12810623511476,8.183826
76137,1577396191.79,-1.5959981847251332,-0.5855282938143102,14.2498795151129,2.0251442335175303,-2.9878468815501145,10.871894553282202,5.152497158143578,6.746626697670541,12.355423655142436,-7.232852098418445,-3.986637766768293,2.118924768959604,-3.219790574980945,4.566843916730183,1.2813661156631098,-9.334657250381095,-21.9326484494093,-5.022002429496951,25.48037311311001,-13.69437528617216,6.376756279434842,-19.17149089336589,-4.115969590754073,-26.185071499013805,29.4823434270824,37.9646868541648,42.90073980890766,1577396191.0,-27.68885206082333,-51.12810623511476,8.183826
76138,1577396191.8,1.2698612024818978,-1.6892552591463412,5.846231687964463,1.1177418043183114,-1.340636139362614,8.817669528868139,-0.9718706885361084,8.329193995033823,11.263667698111185,7.446102979706555,3.917414967606707,6.116727503334603,-3.189272996855945,-4.130665848894817,5.0350282250381095,0.4004501714939026,-20.8340156369093,19.66671827362805,25.645294621932727,-12.781416933760685,5.845359922815277,-17.033298992673995,7.317279272451687,-24.484742180896028,29.72195764818641,38.10845538682721,43.14035403001168,1577396191.0,-27.68885206082333,-51.12810623511476,8.183826
76139,1577396191.81,-0.5844479833091177,2.7148786947110803,11.12065794528868,-4.910857975955125,5.442137163860042,12.502345883848609,3.2395300316787345,-7.48929637361852,3.793758518423686,5.569271925019055,-6.077091868330792,3.614286097084604,-2.517886278105945,-13.255421708269816,4.5162293969131095,-3.078553734756097,-2.2793281369092986,23.63400342987805,26.3049806572236,-13.146600274725277,4.959699328449323,-17.322243844118844,6.555062681571303,-26.185071499013805,29.578189115524005,38.0605325426064,43.14035403001168,1577396191.0,-27.68885206082333,-51.12810623511476,8.183826
76140,1577396191.82,1.3752060755287727,-3.264639951529153,1.4313238266363375,5.10289046764839,-1.132340594929021,5.70760157232517,-0.4654970374130622,-1.149450377524771,5.193169388785014,4.699520948456555,-2.949040110518293,4.621366175209603,-0.1375151843559452,6.535227705792683,2.105340725038109,1.6516708746189028,11.4688408084032,5.521820812690549,26.63482367486904,-13.511783615689868,5.491095685068893,-17.206665903540905,7.012392636099532,-57.47113095238095,29.67403480396561,38.132416808937606,43.02054691945968,1577396191.0,-27.68885206082333,-51.12810623511476,8.183826
76141,1577396191.83,0.1565574305092415,-1.971771055044779,8.499007127417588,1.2135098707245613,0.155739898235041,6.4234678687118905,-4.275868979551734,-6.15572604891149,11.570125510611186,4.485897901581555,7.182795826981708,3.339627893959604,-3.250308153105945,-18.29082209889481,8.72765517816311,3.696348608993903,-0.0515449337842987,-0.5969536013719513,25.81021613075545,-12.96400860424298,5.313963566195704,-15.472996794871795,7.7746092269799165,-22.784412862778247,29.5302662713032,38.0605325426064,42.99658549734927,1577396191.0,-27.68885206082333,-51.12810623511476,8.183826
76142,1577396191.84,-0.1786308019126334,-1.6940436624666535,9.217267625464464,-5.451947551150438,0.3616412410084785,22.452647983457982,0.8357515648818594,3.981323780190072,12.657093064322122,-18.371768114043444,-2.338688548018293,4.133084925209603,4.012875440644055,-11.027638505144816,2.929315334413109,1.3770126714939026,-4.476593761909299,0.0133979611280486,25.15053009546457,-13.329191945207567,6.376756279434842,-15.472996794871795,7.7746092269799165,-22.784412862778247,29.72195764818641,37.9646868541648,43.14035403001168,1577396191.0,-27.68885206082333,-51.12810623511476,8.183826
76143,1577396191.85,-2.985832248445836,1.2747663961270956,12.646961503638291,-3.064928495974656,-1.053331940143864,9.96688632574314,0.6035140038467032,-6.74948806063024,12.477527939810404,-1.8312407702934452,2.818782155106708,5.796292933022103,4.989437940644055,7.557566572980183,5.6148622094131095,-9.456727562881095,-1.3332832150342988,-0.4748832888719513,25.810216130755443,-12.416233592796091,5.668227803942084,-15.415207824582827,8.536825817860302,-85.6965976331361,29.67403480396561,38.10845538682721,43.04450834157007,1577396191.0,-27.68885206082333,-51.12810623511476,8.183826
76144,1577396191.86,-4.701277737947789,2.2563890767911587,14.673653208960555,-1.3782134263945789,1.4653682063405096,14.452423136045876,1.1446035790420162,7.709095765053354,7.820805710806498,4.394345167206555,-0.8128096417682926,4.957059534584603,3.1583832531440548,-8.204762528582318,4.9587342797256095,15.460874976181405,14.1543876834032,0.2575385861280486,25.31545160428729,-12.781416933760685,5.491095685068893,-15.299629884004888,6.859949317923457,-98.95916631445476,29.62611195974481,38.0605325426064,43.02054691945968,1577396191.0,-27.68885206082333,-51.12810623511476,8.183826
76145,1577396191.87,-1.2871461705649772,-0.70044997350181,3.58131691745665,-2.2796303514434064,-0.1459295109446454,7.87914247808689,-4.907938217832984,-13.307206407798208,6.044308078970561,-3.235049364043445,-0.9348799542682926,5.597928675209603,8.010678175019056,-6.480519364519817,5.1876161156631095,5.771543921493903,30.3134453005907,12.09835889862805,24.98560858664185,-13.146600274725271,5.136831447322516,-15.126262973137976,9.299042408740684,-100.319429768949,29.62611195974481,38.0605325426064,42.804894120466045,1577396191.0,-27.68885206082333,-51.12810623511476,8.183826
76146,1577396191.88,-1.7444386876548208,-3.355619614615091,5.281200096167588,0.2534350050019051,-4.79786333662824,-1.6066844994521716,5.786960598084984,-5.032845470298208,10.780038962759622,-3.051943895293445,-10.944645579268292,4.011014612709603,6.332211378144055,2.766306807355183,3.081903225038109,13.889219702743905,21.0971367068407,-7.463408679496951,25.31545160428729,-13.876966956654456,5.845359922815277,-15.126262973137976,9.299042408740684,-100.319429768949,29.62611195974481,38.25222391948962,42.99658549734927,1577396191.0,-27.68885206082333,-51.12810623511476,8.183826
76147,1577396191.89,1.6780725855385383,-0.5172935464998569,6.605193614233994,1.0842229810761244,1.786191228801448,6.525221439268531,-6.573105472471656,-2.72722927156774,3.056344407095561,12.298397901581556,-15.171330149580792,4.682401331459603,2.9905365734565548,-10.920826981707316,5.1723573266006095,14.9115585699314,48.5934745974657,11.22860792206555,26.05759839398952,-12.324937757554943,5.579661744505486,-16.137569953194955,7.850830886067955,-90.9676185193012,29.62611195974481,38.25222391948962,42.94866265312847,1577396191.0,-27.68885206082333,-51.12810623511476,8.183826
76148,1577396191.9,-0.5593088658774771,2.797478651986471,10.395214842261336,-2.5262331224395,-0.9048914372141766,4.505712338926734,4.043981789491235,-5.76547117830602,9.65715838414634,22.82696235470656,-7.129948313643292,4.011014612709603,6.820492628144055,-5.320851395769817,5.4622743187881095,16.1475204839939,38.9499199099657,-9.05032274199695,25.975137639578165,-11.685866910866912,5.491095685068893,-19.98053647741148,8.994155772388531,-91.47771731473654,29.5302662713032,38.10845538682721,42.85281696468685,1577396191.0,-27.68885206082333,-51.12810623511476,8.183826
76149,1577396191.91,0.3887949915443978,0.3170857320645951,9.190931407202743,2.5758106153534674,6.019139763957698,7.156093576719703,3.052782302186547,18.822979871498664,5.632505393423686,-1.3734770984184452,-23.792545969893293,2.668241175209604,0.2592133312690549,-1.1399431926448171,4.3026063500381095,21.5186142339939,33.6093437380907,-12.34622117949695,25.48037311311001,-12.96400860424298,6.022492041688465,-21.020737942612943,5.335516136162689,-24.824808044519585,29.4823434270824,38.15637823104801,43.04450834157007,1577396191.0,-27.68885206082333,-51.12810623511476,8.183826
76150,1577396191.92,0.6353977625404915,-0.3951892618318887,9.839760057105089,4.306818415646436,-1.158676813190739,10.507975900938453,0.8142037499404532,1.0891281747213222,7.693913022818217,-7.782168504668444,1.1555741472942076,3.354886683022104,-1.5413237781059452,4.353220869855183,0.2742860375381097,13.370420874618905,34.5859062380907,7.673310070503049,25.56283386752137,-13.23789610996642,6.111058101125063,-21.020737942612943,5.335516136162689,-24.824808044519585,29.69799622607601,38.30014676371043,43.23619971845329,1577396191.0,-27.68885206082333,-51.12810623511476,8.183826
76151,1577396191.93,-1.200954910799352,5.036057204232565,7.084033946265244,-2.46877228259575,0.2191862422291824,7.748658487608374,0.2264272423720939,3.106243073402963,12.655895963492044,1.4646576672065548,16.063411061356707,4.438260706459603,-1.571841356230945,-5.000416825457316,4.7756288109756095,10.0440048589939,5.5331718630907005,-6.8072807498094505,25.645294621932727,-11.685866910866912,4.782567209576139,-18.073500457875458,5.335516136162689,-7.481448999718228,29.5302662713032,38.0605325426064,43.14035403001168,1577396191.0,-27.68885206082333,-51.12810623511476,8.183826
76152,1577396191.94,-0.5664914708579459,-1.7993885355135286,13.85483624118712,-1.2692772508574688,-2.554496381061833,10.067442795469702,3.6513327172256096,4.960552259193979,10.396966697134625,-15.106387254668444,-9.083073313643292,0.9287392220846036,-0.8699370593559451,4.688914229230183,3.6617372094131095,-5.947206078506097,1.3827812380907012,14.96701124237805,26.799745183691755,-10.772908558455434,6.376756279434842,-16.628776200651203,5.335516136162689,-18.023490772048465,29.67403480396561,38.0605325426064,43.04450834157007,1577396191.0,-27.68885206082333,-51.12810623511476,8.183826
76153,1577396191.95,-2.469881790682164,2.079218153939596,13.589079856909777,-3.2157632005645,1.86759408524676,10.299680356504858,-0.6654128760361083,2.094692871986947,6.68355992223228,-13.641543504668444,4.680354420731708,4.590848597084603,-0.0459624499809451,-9.318654130144816,5.9810731469131095,-5.458924828506097,-0.8144843869092988,0.9594428830030488,25.31545160428729,-12.0510502518315,4.782567209576139,-17.033298992673995,5.487959454338766,-23.1244787264018,29.67403480396561,38.10845538682721,42.99658549734927,1577396191.0,-27.68885206082333,-51.12810623511476,8.183826
76154,1577396191.96,0.7886266687904916,0.1542800191739701,9.97862375339415,-0.4839791063262189,-1.9894647892649575,7.333264499571265,1.331351308534203,2.8752026131978843,11.270850303091654,4.760556104706555,-6.733219798018292,1.6001259408346038,1.9987152843940548,0.4164532917301829,1.0372254906631098,-1.6137099847560974,-2.9507148556592986,10.05368116425305,26.799745183691755,-12.598825263278387,6.022492041688465,-16.0508864977615,6.555062681571303,-26.185071499013805,29.72195764818641,38.0605325426064,43.14035403001168,1577396191.0,-27.68885206082333,-51.12810623511476,8.183826
76155,1577396191.97,1.1022670862709605,-2.991700962271341,6.60758781589415,0.8184665967987801,-0.9551696720774578,1.8936383276962645,7.462901760194359,-0.6514564322122706,8.246973606314311,-5.615420457793445,-6.519596751143292,2.210477503334604,1.9681977062690548,-0.7126970988948171,3.326043850038109,-2.285096703506097,-9.8782050900343,6.147431164253049,26.63482367486904,-12.0510502518315,5.845359922815277,-16.39762031949532,6.555062681571303,-26.185071499013805,29.62611195974481,38.25222391948962,42.90073980890766,1577396191.0,-27.68885206082333,-51.12810623511476,8.183826
76156,1577396191.98,-1.9742820470298208,5.780653920541158,8.417604270972275,-1.2908250657988751,3.936184319621761,14.171104440977514,-5.496911826231421,2.144971106850228,3.496877512564311,9.765438917206556,13.042170826981708,5.048612268959603,-5.783267137480945,-11.790577958269816,0.0301454125381097,-9.517762719131095,-17.9958808712843,2.2411811642530486,26.63482367486904,-12.416233592796091,5.845359922815277,-17.322243844118844,5.335516136162689,-22.10428113553113,29.67403480396561,37.9646868541648,42.99658549734927,1577396191.0,-27.68885206082333,-51.12810623511476,8.183826
76157,1577396191.99,1.5451943933998664,-2.5296200418611847,5.843837486304307,-0.6132659959746564,-2.5209775578196454,4.845688974668922,0.1605866967177969,12.083302198158822,7.521530503286967,-0.7326079577934451,-19.733708079268293,1.6001259408346038,-3.708071824980945,-1.6587420207698171,2.349481350038109,-5.611512719131097,-17.2939765744093,10.57247999237805,26.3049806572236,-12.416233592796091,5.845359922815277,-17.322243844118844,5.335516136162689,-22.10428113553113,29.62611195974481,38.25222391948962,43.04450834157007,1577396191.0,-27.68885206082333,-51.12810623511476,8.183826
76158,1577396192.0,-3.674165225740758,-0.4131457742830601,10.93630441745665,-1.6379843065215314,2.128562066203791,11.764931772520484,-1.5776037085556396,-7.628160069907583,7.751373862661967,-8.941836473418444,5.046565358231708,1.905301722084604,-2.853579637480945,-12.217824052019816,3.417596584413109,-6.313417016006097,-8.3523261837843,-2.3974907107469514,24.98560858664185,-13.146600274725271,6.553888398308031,-17.033298992673995,-4.26841290893015,-23.80461045364892,29.86572618084883,37.772995477281576,43.04450834157007,1577396192.0,-27.68878539369935,-51.12814515582705,8.244652
76159,1577396192.01,-0.2624278600181021,3.764736122689596,11.340924498023057,-1.7936074144316876,0.8859714045826972,11.56381883306736,8.84914452142483,-1.518157433188833,6.477658579458842,-5.798525926543445,-2.216618235518293,3.797391565834604,-0.6257964343559451,-3.184620927019817,2.135858303163109,-5.397889672256097,5.014373034965701,-0.7800590701219513,26.14005914840088,-11.138091899420024,5.313963566195704,-16.39762031949532,5.335516136162689,-20.0638859537898,29.72195764818641,38.10845538682721,43.04450834157007,1577396192.0,-27.68878539369935,-51.12814515582705,8.244652
76160,1577396192.02,-0.5329726476157584,0.1710394307950639,8.8102533432379,0.3276552564667488,-2.5616789860423017,3.959834360411109,9.81879619378811,15.471097547279916,8.340347471060404,-7.232852098418445,-23.731510813643293,1.3865028939596038,-3.067202684355945,-9.471242020769816,2.166375881288109,5.466368140243903,8.4933769412157,-5.845977038871951,25.975137639578165,-12.781416933760685,6.553888398308031,-16.166464438339442,6.25017604521915,-15.302963863060016,29.72195764818641,38.25222391948962,43.14035403001168,1577396192.0,-27.68878539369935,-51.12814515582705,8.244652
76161,1577396192.03,0.1302212122475218,0.1518858175138139,11.62583449558165,1.8934631422089363,2.195599712688166,16.361798960020483,0.7232240868545157,6.727473084389291,4.856784055533061,-7.965273973418445,-1.4536787823932926,3.827909143959604,-6.607241746855945,-18.35185725514481,2.318963771913109,4.489805640243903,27.9635917849657,21.65036085175305,26.14005914840088,-12.598825263278387,5.313963566195704,-17.322243844118844,6.859949317923458,-26.185071499013805,29.86572618084883,38.0605325426064,42.99658549734927,1577396192.0,-27.68878539369935,-51.12814515582705,8.244652
76162,1577396192.04,0.1397980188881468,-0.1545719949861851,9.624281907691026,-0.4025762498809064,-2.6071688175852707,5.032436704161109,-16.534181479551734,-16.723732176841175,9.812781492056498,-4.760928270293445,0.7741044207317074,3.736356409584604,-5.111880418730945,-3.581349442644817,-0.1224424780868902,-2.101991234756097,18.5641777224657,-8.13479539824695,26.3049806572236,-13.146600274725271,6.553888398308031,-16.859932081807084,8.384382499684225,-15.302963863060016,29.62611195974481,37.9646868541648,43.14035403001168,1577396192.0,-27.68878539369935,-51.12814515582705,8.244652
76163,1577396192.05,-0.0613149205649771,1.18857513636147,8.544496958960556,1.4553242384003426,1.774220220500666,9.957309519102514,1.9035655053115468,11.750508167397102,12.463162729849468,-4.455752489043445,-6.122868235518292,1.7527138314596038,-5.600161668730945,4.780466963605183,0.5489442406631098,2.750303687118903,-4.720734386909299,-13.35330125762195,26.3049806572236,-13.146600274725271,6.553888398308031,-15.472996794871795,8.384382499684225,-15.302963863060016,29.86572618084883,38.10845538682721,43.188276874232486,1577396192.0,-27.68878539369935,-51.12814515582705,8.244652
76164,1577396192.06,0.6641281824623665,-0.824948459829935,10.083968626441026,1.0267621412323744,-0.8558103031809742,10.79767430181736,-2.419165592100561,-2.4339395681986,12.570901804556495,-5.523867723418444,-0.1566817120807933,2.485135706459604,-3.387637254668445,-8.540455887957316,0.5947206078506094,-9.029481469131095,-17.4160468869093,2.7294624142530486,25.975137639578165,-12.233641922313796,4.959699328449323,-15.472996794871795,7.317279272451687,-45.90889158918005,29.578189115524005,38.036571120496006,42.92470123101806,1577396192.0,-27.68878539369935,-51.12814515582705,8.244652
76165,1577396192.07,-1.114763651033727,-0.2886472879549351,12.913914988745711,0.9238114698456552,1.151727788860041,12.64839218511814,11.193067946717797,6.222296534096322,4.7155261575838425,-19.775576707793444,-1.5757490948932926,1.2644325814596038,-9.048647996855944,3.559763838605183,1.0372254906631098,-7.778260766006097,-27.4258125119093,-2.9162895388719514,25.975137639578165,-13.511783615689868,5.491095685068893,-15.357418854293858,6.555062681571303,-86.03666349675964,29.72195764818641,38.10845538682721,43.04450834157007,1577396192.0,-27.68878539369935,-51.12814515582705,8.244652
76166,1577396192.08,0.4749862513100228,0.678610182748189,8.269163768042587,3.0331031324433115,-1.3909143742258954,8.018006174375952,-1.3357893408798582,9.291663062416635,4.86396666051353,-2.472109910918445,-2.643864329268293,4.285672815834603,-7.400698778105945,3.651316572980183,-2.1060850562118905,-10.311219750381095,-21.0171211056593,16.88961866425305,24.32592255135097,-12.781416933760685,4.782567209576139,-17.033298992673995,10.366145635973224,-93.85817836010143,29.67403480396561,38.10845538682721,42.99658549734927,1577396192.0,-27.68878539369935,-51.12814515582705,8.244652
76167,1577396192.09,-0.922030417391149,-0.12584157506431,8.683360655249619,3.150419013790968,-0.3566192570383955,5.068349729063453,-12.023505551817358,-9.964900890220084,14.76638472691978,-8.346743699980944,-4.978459055830792,2.088407190834604,-5.691714403105945,-4.405324052019817,0.9151551781631098,-9.243104516006095,-22.0547187619093,13.10543897675305,24.82068707781913,-12.0510502518315,5.491095685068896,-17.033298992673995,10.366145635973224,-93.85817836010143,29.67403480396561,38.0605325426064,43.04450834157007,1577396192.0,-27.68878539369935,-51.12814515582705,8.244652
76168,1577396192.1,0.4534384363686166,4.43271838587319,10.82138273776915,-0.5522138536406724,2.3991068538014475,14.033437845518533,3.208405410096703,8.800851722084603,7.200707480826029,7.476620557831555,-6.336491282393292,1.7527138314596038,-4.837222215605945,-4.390065262957317,0.5642030297256098,-17.5133681878811,-13.0520332150343,4.7436225705030495,26.14005914840088,-12.598825263278387,6.376756279434842,-17.091087962962966,10.213702317797145,-95.5585076782192,29.86572618084883,38.0126096983856,43.04450834157007,1577396192.0,-27.68878539369935,-51.12814515582705,8.244652
76169,1577396192.11,1.2028235559975229,-3.5591267557283723,13.80934640964415,3.567010102658155,0.5436005671803535,7.177641391661108,-1.0341199317001708,1.711620606361947,12.46076852818931,-23.193545457793444,-31.788151438643293,0.2268349252096037,-6.851382371855945,1.3930157917301829,0.9151551781631098,-6.893251000381097,6.204558581840701,17.01168897675305,25.975137639578165,-12.0510502518315,6.908152636054422,-17.033298992673995,5.792846090690919,-97.258836996337,29.72195764818641,37.91676400994399,42.90073980890766,1577396192.0,-27.68878539369935,-51.12814515582705,8.244652
76170,1577396192.12,0.5659659143959603,0.7264942159513139,11.685689537085556,2.0490862501190925,0.308968804485041,11.331581272032205,2.205234914491234,-10.122918199790396,9.757714853872905,2.1970795422065548,19.267756764481707,5.201200159584603,-7.797427293730945,0.1723126667301829,1.2813661156631098,-10.524842797256095,-2.3403632931592986,-3.0383598513719514,24.16100104252826,-10.407725217490844,6.022492041688465,-19.17149089336589,6.859949317923458,-90.11745386024232,29.72195764818641,38.10845538682721,43.04450834157007,1577396192.0,-27.68878539369935,-51.12814515582705,8.244652
76171,1577396192.13,0.0332560450111947,-1.708408872427592,9.415986363257431,-1.654743718142625,-1.2017724430735517,8.099409030821265,-6.00208837652439,-1.9179891104349267,21.893923069204934,-8.056826707793444,4.710871998856708,2.973416956459604,-4.837222215605945,-8.769337723894816,3.9058778344131095,-10.433290062881095,-22.3598945431593,-11.12551805449695,24.16100104252826,-10.407725217490844,6.022492041688465,-19.86495853683354,7.469722590627764,-23.46454459002536,29.602150537634408,38.25222391948962,42.90073980890766,1577396192.0,-27.68878539369935,-51.12814515582705,8.244652
76172,1577396192.14,-2.034137088533727,4.143019984994283,14.850824131812118,-0.4384892747832505,2.736689287883479,15.211385062315404,0.476621315858422,1.9749827889791356,9.611668552603373,-8.941836473418444,-0.0498701886432926,1.3559853158346038,-5.554385301543445,-12.217824052019816,2.547845607850609,-7.961366234756096,-37.7712714962843,5.2624213986280495,25.975137639578165,-12.0510502518315,4.782567209576139,-20.21169235856736,6.402619363395226,-18.02349077204846,29.62611195974481,38.06053254260641,43.2841225626741,1577396192.0,-27.68878539369935,-51.12814515582705,8.244652
76173,1577396192.15,-0.8178826451743522,-0.0444387186189976,8.671389646948837,4.761716731076124,0.2299601496998848,13.981962509825172,6.007227150819359,12.459191858803353,-1.1550563131192817,7.568173292206555,-0.4771162823932927,2.485135706459604,-0.8089019031059451,0.1723126667301829,-1.0074522437118902,-5.397889672256097,-26.0525214962843,11.39645460175305,25.645294621932727,-12.416233592796091,5.491095685068893,-17.322243844118844,5.640402772514843,-3.0605927726120044,29.67403480396561,38.0605325426064,43.14035403001168,1577396192.0,-27.68878539369935,-51.12814515582705,8.244652
76174,1577396192.16,-0.9208333165610708,-3.40110944615806,5.388939170874619,-0.0745706224395001,-1.857783697956364,4.199254526426734,-0.346984055235327,-10.283329711020864,7.844747727408061,-7.568545457793445,-2.521794016768293,4.224637659584603,-1.1140776843559452,2.430613447980183,0.1522157250381097,-6.588075219131097,-4.354523449409299,15.15011671112805,25.645294621932727,-12.0510502518315,6.199624160561654,-16.39762031949532,8.07949586333207,-4.420856227106225,29.62611195974481,38.15637823104801,43.188276874232486,1577396192.0,-27.68878539369935,-51.12814515582705,8.244652
76175,1577396192.17,-0.1894047093833365,-1.50490173131431,7.09959625705626,0.7011507154511244,-1.577662103718083,8.341223398497046,-5.165314896299781,-1.9706615469583648,7.619692771353373,-2.456851121855945,-10.822575266768292,1.6611610970846038,0.0455902843940549,-8.036915848894816,0.1827333031631094,-4.345033226943597,0.9860527224657014,-0.3833305544969514,25.645294621932727,-12.0510502518315,6.199624160561654,-16.85993208180708,5.945289408866996,-25.164873908143136,29.62611195974481,38.0126096983856,43.09243118579088,1577396192.0,-27.68878539369935,-51.12814515582705,8.244652
76176,1577396192.18,1.674481283048304,-0.6693253519197788,12.46141087497618,3.0809871656464365,0.7734439265553534,11.925343283750951,5.705557741639672,0.6485950692525722,9.173529648794778,4.424862745331555,-24.860661204268293,-0.1698935904153963,-4.867739793730945,-5.290333817644817,3.081903225038109,2.262022437118903,16.7026054568407,10.11471632050305,25.31545160428729,-12.0510502518315,5.136831447322516,-16.39762031949532,5.335516136162689,-24.14467631727247,29.5302662713032,38.25222391948962,42.90073980890766,1577396192.0,-27.68878539369935,-51.12814515582705,8.244652
76177,1577396192.19,1.6625102747475229,4.437506789193503,15.8204758041754,3.574192707638624,0.2802383845631661,17.594812815000953,-4.127428476622047,-4.288248753989614,8.812005198111185,10.955624464081556,-6.092350657393292,1.935819300209604,4.653744581269055,-13.102833817644816,-0.4886534155868902,7.968809546493903,14.5663749880907,-0.3222953982469513,25.48037311311001,-10.772908558455434,3.8969066152101823,-16.166464438339442,6.555062681571303,-23.46454459002536,29.62611195974481,38.10845538682721,43.14035403001168,1577396192.0,-27.68878539369935,-51.12814515582705,8.244652
76178,1577396192.2,1.741518929532679,-4.37794372350181,18.082996373023057,5.360267146115187,1.5204348445241034,8.33882919683689,1.3648701317763905,0.6533834725728846,12.70976550084556,-29.388613817168444,-12.867253001143292,-1.4211142935403962,0.9611176281440548,2.033884932355183,-0.6412413062118902,4.154112280868903,16.2448417849657,-4.014922351371951,25.975137639578165,-12.416233592796091,5.136831447322516,-16.39762031949532,6.555062681571303,-91.47771731473654,29.86572618084883,38.15637823104801,42.90073980890766,1577396192.0,-27.68878539369935,-51.12814515582705,8.244652
