,timestamp,acc_x_dashboard,acc_y_dashboard,acc_z_dashboard,acc_x_above_suspension,acc_y_above_suspension,acc_z_above_suspension,acc_x_below_suspension,acc_y_below_suspension,acc_z_below_suspension,gyro_x_dashboard,gyro_y_dashboard,gyro_z_dashboard,gyro_x_above_suspension,gyro_y_above_suspension,gyro_z_above_suspension,gyro_x_below_suspension,gyro_y_below_suspension,gyro_z_below_suspension,mag_x_dashboard,mag_y_dashboard,mag_z_dashboard,mag_x_above_suspension,mag_y_above_suspension,mag_z_above_suspension,temp_dashboard,temp_above_suspension,temp_below_suspension,timestamp_gps,latitude,longitude,speed
13282,1577399138.22,-0.6010643267822257,-0.7523778717041015,9.958562095336912,-0.4101676209984748,0.2781361587152252,10.210832116848083,-0.9153831013997392,-0.3065148173014322,8.816191575113931,-1.1821746826171875,1.227569580078125,4.854583740234375,3.0809728110708843,0.8930113257431405,5.760751119474085,2.865382603236607,0.5696614583333333,4.130408877418155,3.79606179410867,-7.805090260819425,-0.8131454772079686,0.454444595185325,-47.89299959299959,7.359186329744702,30.728337376823312,35.08931620091653,32.30979123610986,1577399138.0,-27.70281756993834,-51.1093230423028,25.340605
13283,1577399138.23,-1.4857218402099608,-0.2184709014892578,10.09503158996582,-2.3159521424828498,-0.7968603866949305,11.344486602932069,-1.3188060811360671,4.247256740315754,13.058716916910807,-1.8230438232421875,1.258087158203125,4.381561279296875,1.1888829673208845,-0.1140687523818597,4.280648580411585,-0.8119855608258928,4.643758138020833,3.779456728980655,3.79606179410867,-7.805090260819425,-0.8131454772079686,-4.108512338141983,-42.43272283272283,-5.835314412979392,30.728337376823312,35.28100757779974,32.357714080330666,1577399138.0,-27.70281756993834,-51.1093230423028,25.340605
13284,1577399138.24,-1.6628927630615231,-0.5057751007080078,10.15249242980957,-1.1044861024437873,-1.1631732406988369,11.485744500881289,1.5374764994303378,-2.7749367289225257,13.729093381754556,1.6559600830078125,2.295684814453125,5.113983154296875,3.2335607016958843,-2.2197816430068595,3.700814596036585,1.9040788922991072,9.801228841145834,3.748939150855655,2.892237557416128,-7.617015796703295,-0.3252581908831888,-6.255786189119516,-56.67692307692308,10.815773848261154,30.728337376823312,35.28100757779974,32.30979123610986,1577399138.0,-27.70281756993834,-51.1093230423028,25.340605
13285,1577399138.25,-1.2439074725341794,0.5620388397216797,12.419801401977535,1.8715065611304305,1.3028544692620996,12.151332562404724,-0.8112353291829424,1.7692580220540364,12.742682297770182,1.9611358642578125,2.112579345703125,5.236053466796875,-3.236165860804116,7.60687851324314,5.837045064786585,0.5002702985491072,16.484578450520832,6.556556338355655,3.253767252093146,-7.617015796703295,0.3252581908831954,-5.718967726375147,-59.05095645095645,11.038779494617051,30.680414532602512,35.13723904513733,32.45355976877228,1577399138.0,-27.70281756993834,-51.1093230423028,25.340605
13286,1577399138.26,-0.4837484454345693,-0.6853402252197265,9.752660752563475,-0.8578833314476941,-0.9297385788336022,7.860923187404724,-1.6863160359700515,-1.9142212320963536,9.868443204752603,-0.9227752685546876,1.136016845703125,4.869842529296875,2.9589024985708843,-0.81597304925686,4.524789205411585,-1.3765607561383928,14.668782552083334,6.007239932105655,3.073002404754639,-7.993164724935557,-0.162629095441591,-5.987376957747332,-46.94338624338624,3.568090341694401,30.704375954712912,35.32893042202055,32.21394554766826,1577399138.0,-27.70281756993834,-51.1093230423028,25.340605
13287,1577399138.27,-0.9063250384521476,-0.8577227447509765,10.118973606567382,-0.1156808167992561,0.7545822890863184,14.923818084865662,-0.8232063374837236,-0.7853551493326821,9.630220139567058,-2.2197723388671875,-2.068328857421875,5.236053466796875,2.9283849204458843,-1.5483949242568598,6.142220846036585,2.422877720424107,17.552693684895832,3.4132457914806547,4.157591488785688,-8.93353704551621,-0.162629095441591,3.943764603023849,-47.65559625559625,-1.5982071322172895,30.5845688441609,35.233084733578934,32.30979123610986,1577399138.0,-27.70281756993834,-51.1093230423028,25.340605
13288,1577399138.28,-0.0587776507568349,-0.2831143463134765,9.094255296020506,-0.7070486268578499,-1.3714687851324303,9.0771776307641,-0.9860120503743486,0.4763891255696605,8.873652414957682,1.6864776611328125,1.441192626953125,5.083465576171875,-1.4661463295541155,7.5153257788681405,5.287728658536585,2.392360142299107,16.789754231770832,3.779456728980655,2.892237557416128,-9.497760437864605,-0.9757745726495664,6.627856916745797,-44.33194953194953,7.545024368374619,30.728337376823312,35.233084733578934,32.16602270344745,1577399138.0,-27.70281756993834,-51.1093230423028,25.340605
13289,1577399138.29,-1.1349712969970691,-0.3824737152099609,10.666048685913085,-1.444462738185975,0.2302521255120997,10.714811566310974,0.3810770975748691,-1.3360215311686197,6.752389744059244,4.2041778564453125,6.125640869140625,5.159759521484375,0.0292149985708842,-6.58379531488186,3.334603658536585,0.6833757672991072,3.148396809895833,4.450843447730655,4.3383563361241935,-7.993164724935557,-0.3252581908831854,2.333309214790685,-46.23117623117623,7.545024368374619,30.680414532602512,35.08931620091653,32.357714080330666,1577399138.0,-27.70281756993834,-51.1093230423028,25.340605
13290,1577399138.3,-1.2223596575927724,-0.9151835845947264,10.126156211547851,-0.5945211488305061,-0.4736431625738374,9.303429687648864,0.571416129557291,0.5937050069173168,8.655780063883464,0.1300811767578124,-0.1762390136718749,4.778289794921875,5.797037264195884,3.2886412085556405,4.723153463224085,1.5378679547991072,-9.760538736979166,4.206702822730655,3.253767252093146,-7.240866868471033,-0.3252581908831888,2.333309214790685,-49.080016280016274,7.3220187220187185,30.728337376823312,35.13723904513733,32.30979123610986,1577399138.0,-27.70281756993834,-51.1093230423028,25.340605
13291,1577399138.31,-2.3763648577880856,-0.249595523071289,10.370364780883788,-1.942456683498475,-0.5933532455816491,11.109854840236755,-0.2031081075032549,-3.2226524393717444,12.7690185160319,-0.1750946044921875,-0.5729675292968749,4.991912841796875,-2.351156095179116,-0.6633851586318598,2.937875142911585,3.002711704799107,-1.6733805338541667,5.457923525855655,3.253767252093146,-7.240866868471033,-0.3252581908831888,-5.718967726375147,-50.029629629629625,9.923751262837555,30.872105909485725,35.28100757779974,32.30979123610986,1577399138.0,-27.70281756993834,-51.1093230423028,25.340605
13292,1577399138.32,-1.2654552874755858,0.6290764862060546,12.42458980529785,0.3248522886694928,2.236593116723037,12.34526289687738,-0.1073400410970048,0.375832655843098,11.897529111735023,1.0150909423828125,-3.838348388671875,5.754852294921875,2.6537267173208843,5.4401304663681405,5.592904439786585,1.4463152204241072,4.887898763020833,7.746741885230655,4.157591488785688,-8.93353704551621,-0.162629095441591,2.870127677535077,-47.65559625559625,7.024677860210852,30.48872315571929,35.233084733578934,32.26186839188906,1577399138.0,-27.70281756993834,-51.1093230423028,25.340605
13293,1577399138.33,-0.79619176208496,-0.5009866973876953,10.764210953979491,-1.9687929017601933,-1.4241412216558678,8.160198394924256,-1.797646413167317,0.8666439961751292,9.400376780192058,3.3954620361328125,1.654815673828125,5.541229248046875,5.705484529820884,3.853216403868141,3.944955221036585,3.429957798549107,2.812703450520833,7.350013369605655,3.524914523100908,-7.711053028761361,0.0813145477208022,-1.9612384871644155,-48.13040293040292,7.247683506566751,30.80022164315452,34.993470512474914,32.30979123610986,1577399138.0,-27.70281756993834,-51.1093230423028,25.340605
13294,1577399138.34,-0.9374496600341788,-0.383670816040039,9.388742100219726,-0.9847760194359754,-0.2497853073492282,11.079927319484804,-1.555832045491536,0.064586440022786,11.09068315226237,0.3742218017578124,-2.587127685546875,5.449676513671875,3.4929601157583843,-1.10589004144436,4.738412252286585,2.712794712611607,4.033406575520833,4.771278018043155,3.79606179410867,-9.685834901980732,0.8131454772079753,-1.1560107930478392,-45.99377289377289,2.527397325366865,30.680414532602512,35.304968999910145,32.33375265822026,1577399138.0,-27.70281756993834,-51.1093230423028,25.340605
13295,1577399138.35,-0.9350554583740224,-0.0436941802978515,9.63534487121582,-0.4484748475609749,0.9940024551019434,10.753118792873474,-2.649982204182942,1.802776845296224,13.185609604899089,1.3507843017578125,-1.702117919921875,5.266571044921875,-1.1304529701791155,-8.10967422113186,3.761849752286585,2.667018345424107,15.080769856770834,2.5892711821056547,3.79606179410867,-9.685834901980732,0.8131454772079753,-0.8876015616756432,-42.43272283272283,-1.9698832094771224,30.728337376823312,35.28100757779974,32.45355976877228,1577399138.0,-27.70281756993834,-51.1093230423028,25.340605
13296,1577399138.36,-1.452203016967773,0.0448912811279296,10.8731471295166,-2.5817085267601936,1.755358583031631,12.70918154922113,-2.973199428304036,0.9576236592610669,5.787526475016276,5.2265167236328125,5.896759033203125,4.991912841796875,8.604654451695884,8.21723007574314,5.714974752286585,4.650660923549108,4.338582356770833,4.237220400855655,3.9768266414471753,-7.993164724935555,-0.3252581908831888,-3.034875412653199,-50.029629629629625,-0.1858380386299179,30.728337376823312,35.08931620091653,32.16602270344745,1577399138.0,-27.70281756993834,-51.1093230423028,25.340605
13297,1577399138.37,-0.9996989031982416,-0.2041056915283203,10.43859952819824,0.4445623716773053,-0.8806574448003992,7.109143866115663,-0.0594560078938798,-0.2801785990397134,6.268761008707682,2.2510528564453125,1.090240478515625,5.342864990234375,3.935464998570884,8.03412460699314,3.487191549161585,2.941676548549107,-10.706583658854166,4.633948916480655,4.067209065116431,-8.463350885225882,0.0813145477208022,-2.4980569499088072,-48.60520960520961,7.470689152922654,30.608530266271305,34.993470512474914,32.30979123610986,1577399138.0,-27.70281756993834,-51.1093230423028,25.340605
13298,1577399138.38,-2.2135591448974608,0.0688332977294921,9.386347898559569,-0.2066604798851942,-0.8088313949957117,9.101119647365662,-0.9213686055501296,-2.103363163248698,11.395943863932292,2.2052764892578125,-1.152801513671875,5.480194091796875,6.544717928258384,-4.82903457269436,4.845223775724085,6.039210728236608,-14.414469401041668,5.503699893043155,3.434532099431656,-7.428941332587162,-1.138403668091164,4.212173834396039,-55.01509971509971,8.99456106968797,30.77626022104412,35.13723904513733,32.285829813999456,1577399138.0,-27.70281756993834,-51.1093230423028,25.340605
13299,1577399138.39,-1.820910072631836,0.2148795989990234,10.284173521118165,-1.4157323182640995,0.3116549819574122,7.4802451234398815,-0.6029397847493486,2.6311706197102853,12.48889692179362,2.1747589111328125,-2.831268310546875,5.693817138671875,0.1207677329458842,-3.1353089867568595,3.883920064786585,4.742213657924108,-0.7883707682291667,7.166907900855655,3.434532099431656,-7.428941332587162,-1.138403668091164,3.406946140279458,-48.13040293040292,11.261785140972956,30.680414532602512,35.13723904513733,32.26186839188906,1577399138.0,-27.70281756993834,-51.1093230423028,25.340605
13300,1577399138.4,-0.3197456317138661,-0.0173579620361328,10.652880576782223,-0.7908456849633186,-0.523921397437118,14.964519513088318,-1.938904311116536,-0.4932625467936197,11.021251304117838,3.2733917236328125,-1.519012451171875,5.297088623046875,7.292398592320884,3.792181247618141,5.287728658536585,-0.4457746233258928,-0.2085367838541666,7.472083682105655,5.061415725478226,-6.864717940238773,0.3252581908831954,3.406946140279458,-48.13040293040292,11.261785140972956,30.680414532602512,34.94554766825411,32.357714080330666,1577399138.0,-27.70281756993834,-51.1093230423028,25.340605
13301,1577399138.41,-1.0392032305908196,-0.2543839263916015,9.688017307739257,-1.6000858460961311,-1.136837022437118,8.670163348537537,-2.0753738057454423,2.5066721333821604,10.800984751383464,2.5714874267578125,-0.191497802734375,5.541229248046875,8.452066561070884,-8.53692031488186,4.341683736661585,6.146022251674108,-0.7883707682291667,5.305335635230655,3.796061794108672,-9.309685973748472,0.4878872863247898,-0.3507830989312626,-46.7059829059829,7.322018722018717,30.728337376823315,34.94554766825411,32.26186839188906,1577399138.0,-27.70281756993834,-51.1093230423028,25.340605
13302,1577399138.42,-0.5448005877685537,0.0329202728271484,8.790191685180663,0.1129654417456652,-0.2557708114996185,9.47940350967035,-0.8279947408040365,-1.4485490091959636,11.334891721598307,-0.2971649169921875,-2.312469482421875,5.358123779296875,4.728922029820884,0.3894712866806404,5.776009908536585,5.917140415736608,2.324422200520833,2.741859072730655,5.061415725478226,-9.12161150963234,-1.6262909544159505,3.406946140279458,-43.38233618233618,-2.2672240712849865,30.728337376823312,35.25704615568934,32.40563692455147,1577399138.0,-27.70281756993834,-51.1093230423028,25.340605
13303,1577399138.43,-1.2223596575927724,-0.077213003540039,11.246642588500976,-0.6567703919945687,-1.0147327377691493,10.913530304103944,-1.1512119649251298,-0.6824044779459634,7.822597886149088,3.1513214111328125,0.9834289550781252,5.632781982421875,0.5480138266958843,-7.8350160180068595,4.372201314786585,1.5989031110491072,-5.518595377604167,4.756019228980655,5.061415725478226,-9.12161150963234,-1.6262909544159505,28.637413889265726,-49.55482295482295,7.322018722018717,30.680414532602512,35.28100757779974,32.16602270344745,1577399138.0,-27.70281756993834,-51.1093230423028,25.340605
13304,1577399138.44,-0.5112817645263662,0.1550245574951171,11.464514939575194,0.0782495176733991,0.4648838882074122,13.717140448146912,-3.021083461507161,-1.6424793436686196,8.562406199137369,3.731155395507813,1.502227783203125,5.358123779296875,7.414468904820884,1.3812925757431402,4.646859517911585,0.4087175641741072,-8.539835611979166,5.824134463355655,3.615296946770161,-8.745462581400078,-0.9757745726495664,28.637413889265726,-49.55482295482295,7.322018722018717,30.680414532602512,35.08931620091653,32.30979123610986,1577399138.0,-27.70281756993834,-51.1093230423028,25.340605
13305,1577399138.45,-1.2810175982666014,0.6338648895263671,8.877580045776366,-0.8279558106957405,0.4134085525140533,9.357299225002382,-1.89820288289388,0.6739107625325521,9.795420054117836,1.7169952392578125,1.548004150390625,4.778289794921875,4.667886873570884,1.3202574194931405,4.952035299161585,0.9732927594866072,-6.251017252604167,4.923865908668155,2.349943015400606,-6.300494547890379,0.1626290954415977,0.9912630579297168,-48.84261294261295,3.716760772598335,30.680414532602512,35.233084733578934,32.21394554766826,1577399138.0,-27.70281756993834,-51.1093230423028,25.340605
13306,1577399138.46,-0.79619176208496,0.6314706878662109,10.51641108215332,0.7366549742163678,-0.0953593002691492,12.297378863674256,-1.258951039632161,-1.1564564066569007,11.191239621988933,1.2897491455078125,-1.152801513671875,5.113983154296875,2.3180333579458843,2.3578550757431405,5.135140767911585,1.5989031110491072,0.4323323567708333,5.946204775855655,2.892237557416128,-8.369313653167819,0.3252581908831954,-3.034875412653199,-53.82808302808303,10.964444279165088,30.728337376823312,35.08931620091653,32.16602270344745,1577399138.0,-27.70281756993834,-51.1093230423028,25.340605
13307,1577399138.47,-0.920690248413085,-0.2448071197509765,12.273755100708009,-2.222578277736756,-0.0043796371832117,10.27667266250238,-1.278104652913411,-1.996821189371745,11.10983676554362,1.0456085205078125,-1.732635498046875,5.663299560546875,-2.381673673304116,1.83905624761814,5.074105611661585,1.7514910016741072,0.7375081380208333,7.746741885230655,2.892237557416128,-8.369313653167819,0.3252581908831954,-3.034875412653199,-53.82808302808303,10.964444279165088,30.728337376823312,35.08931620091653,32.30979123610986,1577399138.0,-27.70281756993834,-51.1093230423028,25.340605
13308,1577399138.48,-0.5495889910888663,-0.1598129608154296,8.555559922485351,-1.097303497463319,-1.3786513901128992,10.554400055080505,-0.4856239034016923,2.882561794026692,9.551211484781902,1.1066436767578125,0.662994384765625,5.358123779296875,4.850992342320884,0.4657652319931402,3.578744283536585,6.237574986049108,2.477010091145833,4.908607119605655,4.067209065116433,-7.522978564645229,-0.5692018340455787,-3.034875412653199,-53.82808302808303,10.964444279165088,30.80022164315452,35.08931620091653,32.357714080330666,1577399138.0,-27.70281756993834,-51.1093230423028,25.340605
13309,1577399138.49,-0.5878962176513661,-0.3716998077392578,10.997645615844725,-1.378622192531678,-1.5905382370367278,10.08513652968988,-2.0729796040852864,-0.8356333841959634,12.279404276529949,-0.5718231201171875,-1.213836669921875,5.297088623046875,5.674966951695884,0.6336119116806405,6.401620260099085,-0.9798322405133928,4.369099934895833,4.481361025855655,2.530707862739113,-8.369313653167819,1.6262909544159574,-0.887601561675649,-46.70598290598291,2.8619057949007165,30.680414532602512,35.20912331146853,32.237906969778656,1577399138.0,-27.70281756993834,-51.1093230423028,25.340605
13310,1577399138.5,-1.6245855364990232,0.1789665740966796,11.62732065246582,-0.5849443421898811,-0.0402926620855554,11.612637188869568,1.3004505350748692,-0.6488856547037759,9.005333506266277,4.3415069580078125,5.194854736328125,4.839324951171875,-4.701009610804116,8.98016952886814,2.876839986661585,0.5307878766741072,7.848103841145833,5.183265322730655,3.434532099431656,-7.428941332587162,-0.162629095441591,-4.108512338141983,-65.22344322344321,7.396353937470683,30.680414532602512,34.94554766825411,32.357714080330666,1577399138.0,-27.70281756993834,-51.1093230423028,25.340605
13311,1577399138.51,-1.0380061297607412,0.1310825408935546,11.646474265747068,1.50758790878668,0.7450054824456934,9.6134788026391,0.0099758402506503,1.8267188618977863,9.165745017496745,2.1442413330078125,3.363800048828125,4.686737060546875,-2.351156095179116,13.55780624761814,5.928597799161585,-1.2087140764508928,6.261189778645833,4.572913760230655,3.434532099431656,-7.428941332587162,-0.162629095441591,-4.108512338141983,-65.22344322344321,7.396353937470683,30.5366459999401,35.08931620091653,32.30979123610986,1577399138.0,-27.70281756993834,-51.1093230423028,25.340605
13312,1577399138.52,-0.9015366351318348,0.3920505218505859,9.49528407409668,0.5211768248023053,-2.0346626449957115,4.628750946193788,0.0794076883951816,2.588074989827473,8.794643760172526,0.2979278564453125,1.776885986328125,4.930877685546875,3.2335607016958843,7.91205429449314,4.768929830411585,3.918239048549107,7.695515950520833,3.0775524321056547,3.073002404754637,-7.617015796703294,-0.4878872863247798,-3.034875412653199,-50.029629629629625,-2.118553640381053,30.656453110492105,35.233084733578934,32.45355976877228,1577399138.0,-27.70281756993834,-51.1093230423028,25.340605
13313,1577399138.53,-0.2886210101318349,1.0217255584716796,9.893918650512694,-1.9556247926293344,0.703106953392959,11.095489630275818,-0.9369309163411454,-2.194342826334635,6.885267936197916,-1.1821746826171875,0.1899719238281251,4.991912841796875,2.0433751548208843,5.0434019507431405,4.814706197599085,2.331324986049107,-2.604166666666667,3.840491885230655,4.519121183462703,-6.67664347612264,-0.4878872863247798,4.2121738343960455,-49.79222629222629,1.2636986626834306,30.5845688441609,35.11327762302693,32.26186839188906,1577399138.0,-27.70281756993834,-51.1093230423028,25.340605
13314,1577399138.54,-0.7602787371826162,0.4878185882568359,9.55154781311035,-2.244126092678162,-1.1320486191168055,10.951837530666443,-0.1217052510579423,-0.2969380106608072,7.329392344156901,-1.4568328857421875,0.1289367675781251,5.083465576171875,6.804117342320884,-8.53692031488186,6.203256002286585,5.413600376674108,-11.011759440104166,9.333655947730657,2.7114727100776186,-7.428941332587162,1.1384036680911775,28.637413889265726,-47.65559625559625,7.024677860210852,30.728337376823312,35.233084733578934,32.30979123610986,1577399138.0,-27.70281756993834,-51.1093230423028,25.340605
13315,1577399138.55,-0.6980294940185537,-0.3046621612548827,9.32170445373535,1.3064749693335551,-2.257323399390242,6.61354412246332,-1.586956667073567,0.2273921529134105,8.926324851481121,0.0690460205078124,2.814483642578125,4.686737060546875,-2.168050626429116,10.23139023199314,5.196175924161585,2.117701939174107,-13.331095377604166,7.472083682105655,2.7114727100776186,-7.428941332587162,1.1384036680911775,28.637413889265726,-47.65559625559625,7.024677860210852,30.728337376823312,35.233084733578934,32.30979123610986,1577399138.0,-27.70281756993834,-51.1093230423028,25.340605
13316,1577399138.56,-0.6896497882080068,-0.0604535919189453,9.186432059936523,0.662434722751524,0.3810868301019435,10.499333416896912,-0.9165802022298172,-0.7135290995279946,11.545581467692056,-0.3582000732421875,3.119659423828125,4.778289794921875,-0.9473475014291156,0.2826597632431402,4.768929830411585,3.063746861049107,-11.439005533854166,4.633948916480655,3.1633848284238897,-7.711053028761359,0.4065727386039943,-0.8876015616756432,-40.53349613349613,-3.60525794942039,30.632491688381705,35.13723904513733,32.16602270344745,1577399138.0,-27.70281756993834,-51.1093230423028,25.340605
13317,1577399138.57,-1.4761450335693358,-0.3022679595947265,10.231501084594726,-2.5685404176293343,-0.3443562729253996,11.1457678651391,-1.1990959981282547,-0.3208800272623702,9.824150474039714,-0.0530242919921875,5.927276611328125,4.869842529296875,3.0962316001333843,2.8613951148056405,5.318246236661585,0.0882829938616072,-11.576334635416666,4.862830752418155,2.7114727100776186,-7.805090260819425,0.4878872863247865,2.870127677535072,-46.23117623117623,8.88305824651002,30.728337376823312,35.233084733578934,32.30979123610987,1577399138.0,-27.70281756993834,-51.1093230423028,25.340605
13318,1577399138.58,-0.5495889910888662,0.2483984222412109,10.933002171020506,-0.9105557679711312,-0.954877696265243,12.07711231093988,1.3172099466959628,-0.4573495218912759,9.074765354410808,-1.8840789794921875,2.143096923828125,4.656219482421875,-3.083577970179116,14.07660507574314,5.348763814786585,0.4087175641741072,-19.648234049479168,4.115150088355655,4.338356336124197,-7.240866868471033,0.0,-4.108512338141983,-42.43272283272283,8.734387815606086,30.5845688441609,35.13723904513733,32.26186839188906,1577399138.0,-27.70281756993834,-51.1093230423028,25.340605
13319,1577399138.59,-1.8879477191162104,0.0951695159912109,10.449373435668944,-1.0015354310570683,2.1336424453363185,7.913595623928163,-0.8639077657063798,-1.7550068216959631,8.890411826578777,-3.684616088867188,1.105499267578125,4.778289794921875,-3.907552579554116,1.2592222632431402,5.592904439786585,-5.694798060825892,-21.570841471354168,3.871009463355655,4.338356336124197,-7.240866868471033,0.0,-5.718967726375147,-47.65559625559625,-4.868956612103822,30.5845688441609,35.13723904513733,32.45355976877228,1577399138.0,-27.70281756993834,-51.1093230423028,25.340605
13320,1577399138.6,-1.3360842364501946,1.054047280883789,7.925884885864256,-2.08610878310785,-1.0207182419195395,8.33018671279535,-0.0283313863118491,-2.1332906840006505,9.352492746988933,-2.0519256591796875,2.448272705078125,5.022430419921875,-2.229085782679116,2.0526792944931405,5.196175924161585,-3.055027553013393,-10.828653971354166,6.510779971168155,3.6152969467701626,-7.993164724935555,-0.1626290954415944,-5.987376957747332,-48.84261294261294,1.1150282317794984,30.68041453260251,35.185161889358135,32.38167550244107,1577399138.0,-27.70281756993834,-51.1093230423028,25.340605
13321,1577399138.61,-0.9518148699951162,0.2723404388427734,7.523659006958007,-0.3287647645531624,-0.3635098862066492,6.457921014553163,-2.400985231526692,-0.7231059061686196,7.973432590738932,-3.806686401367188,1.990509033203125,4.625701904296875,5.034097811070884,0.3742124976181402,7.179818502286585,-1.7275129045758928,-2.4668375651041665,9.150550478980657,3.615296946770161,-6.864717940238773,-0.3252581908831888,-4.645330800886364,-49.55482295482295,8.214041307442319,30.77626022104412,35.13723904513733,32.357714080330666,1577399138.0,-27.70281756993834,-51.1093230423028,25.340605
13322,1577399138.62,-0.9829394915771474,0.0903811126708984,8.759067063598632,0.1572581724585553,-0.0690230820074304,8.327792511135195,-0.9860120503743486,1.7932000386555988,9.917524338785809,-4.478073120117188,2.021026611328125,4.839324951171875,-10.102620938929116,8.64447616949314,4.982552877286585,-4.138401576450892,-5.030314127604167,6.892249697730655,4.519121183462703,-8.181239189051688,0.1626290954415977,3.406946140279458,-49.08001628001628,8.734387815606086,30.48872315571929,35.08931620091653,32.16602270344745,1577399138.0,-27.70281756993834,-51.1093230423028,25.340605
13323,1577399138.63,-0.8823830218505849,0.4471171600341797,9.733507139282226,0.5187826231421491,-0.1312723251714929,10.827339044338318,-1.2254322163899736,-2.487632529703776,11.334891721598307,-4.569625854492188,1.532745361328125,5.236053466796875,-1.4051111733041155,1.6864683569931402,7.668099752286585,-3.497532435825893,-4.755655924479167,5.396888369605655,2.892237557416128,-7.240866868471033,0.3252581908831954,-5.182149263630755,-45.28156288156288,-3.1592466567085857,30.680414532602512,35.233084733578934,32.30979123610986,1577399138.0,-27.70281756993834,-51.1093230423028,25.340605
13324,1577399138.64,-1.0427945330810535,-1.1091139190673829,10.1836170513916,-0.977593414455506,-1.8574917221441487,8.952679144435976,-2.39619682820638,-0.8547869974772133,9.45065501505534,-3.5625457763671875,3.485870361328125,4.808807373046875,-2.930990079554116,8.30878281011814,5.287728658536585,-2.856663295200893,-2.9551188151041665,5.305335635230655,3.9768266414471753,-6.864717940238773,0.3252581908831954,-5.182149263630755,-49.08001628001628,8.734387815606086,30.872105909485725,35.13723904513733,32.30979123610986,1577399138.0,-27.70281756993834,-51.1093230423028,25.340605
13325,1577399138.65,-1.4354436053466797,-1.216852993774414,10.195588059692382,0.9042490904273052,0.0458985976800685,10.470602996975035,-1.6204754903157546,1.1563423970540354,10.20961694132487,-3.5930633544921875,2.539825439453125,5.113983154296875,0.3343907798208843,9.04120468511814,7.271371236661585,-2.124241420200893,-8.600870768229166,5.000159853980655,2.349943015400604,-5.9243456196581175,-0.4878872863247798,-6.255786189119516,-50.029629629629625,9.031728677413954,30.728337376823312,34.993470512474914,32.16602270344745,1577399138.0,-27.70281756993834,-51.1093230423028,25.340605
13326,1577399138.66,-2.4386141009521483,-0.3669114044189452,10.753437046508788,-0.5969153504906624,-2.2166219711675867,6.003022699123476,-1.4648523824055983,-1.7238822001139322,13.0371691019694,-2.6775360107421875,1.441192626953125,5.510711669921875,3.1114903891958843,-6.91948867425686,6.294808736661585,2.239772251674107,-5.213419596354167,5.152747744605655,2.7114727100776186,-7.428941332587162,-0.4878872863247798,-2.4980569499088072,-46.23117623117623,-2.4158945021889204,30.728337376823312,35.13723904513733,32.45355976877228,1577399138.0,-27.70281756993834,-51.1093230423028,25.340605
13327,1577399138.67,-2.5080459490966795,0.1646013641357421,9.343252268676755,0.8515766539038678,1.480025392113662,10.374834930568786,-1.6276580952962234,0.5170905537923168,11.490514829508465,-0.9380340576171876,2.967071533203125,5.236053466796875,-3.510824063929116,-1.6704652367568598,5.745492330411585,-3.192356654575893,-2.9551188151041665,7.472083682105655,4.338356336124197,-6.488569012006511,-0.3252581908831888,-6.255786189119516,-64.27382987382987,7.99103566108642,30.48872315571929,34.993470512474914,32.26186839188906,1577399138.0,-27.70281756993834,-51.1093230423028,25.340605
13328,1577399138.68,-0.5304353778076162,0.3226186737060547,10.154886631469726,-0.2952459413109749,-0.7729183700933681,9.108302252346132,-1.421756752522786,-0.9457666605631508,10.001321396891276,-3.4099578857421875,-2.129364013671875,5.541229248046875,-2.778402188929116,12.52020859136814,7.027230611661585,-2.185276576450893,4.704793294270833,9.058997744605657,2.7114727100776186,-7.805090260819425,0.4878872863247865,-4.108512338141983,-47.18078958078958,9.923751262837555,30.728337376823312,34.993470512474914,32.30979123610986,1577399138.0,-27.70281756993834,-51.1093230423028,25.340605
13329,1577399138.69,-1.411501588745117,-0.4674678741455078,9.537182603149413,-1.1164571107445689,-1.9939612167730556,9.572777374416445,-2.0322781758626296,1.3742147481282552,12.321302805582684,-3.989791870117188,2.814483642578125,5.052947998046875,3.1420079673208843,-2.4028871117568595,6.691537252286585,-1.8495832170758928,8.000691731770834,7.899329775855655,5.242180572816732,-6.30049454789038,0.1626290954415977,-1.9612384871644155,-34.83581603581603,8.734387815606086,30.728337376823312,34.94554766825411,32.30979123610986,1577399138.0,-27.70281756993834,-51.1093230423028,25.340605
13330,1577399138.7,-1.1122263812255853,-0.5991489654541016,8.744701853637695,-1.2984164369164437,0.606141786156631,10.144991571193788,-1.7114551534016922,4.141911867268879,11.337285923258465,-1.502609252929688,1.410675048828125,5.388641357421875,5.552896639195884,-4.78325820550686,6.477914205411585,-2.215794154575893,18.010457356770832,3.4437633696056547,4.247973912454943,-7.146829636412969,0.0813145477207988,0.1860353638131292,-49.08001628001628,8.288376522894284,30.632491688381705,35.13723904513733,32.30979123610986,1577399138.0,-27.70281756993834,-51.1093230423028,25.340605
13331,1577399138.71,-0.8045714678955069,-0.7523778717041015,9.969336002807616,-0.5849443421898811,-0.1767621567144617,9.831351153713316,-0.1312820576985673,2.257675160725911,10.156944504801432,-1.0524749755859375,2.158355712890625,5.205535888671875,1.7381993735708845,-3.1047914086318595,6.050668111661585,1.5683855329241072,26.921590169270832,2.8944469633556547,3.4797233112662806,-7.475959948616197,-0.2032863693019904,-6.255786189119516,-59.52576312576312,6.9503426447588845,30.752298798933715,35.233084733578934,32.30979123610986,1577399138.0,-27.70281756993834,-51.1093230423028,25.340605
13332,1577399138.72,-0.4969165545654286,-0.9056067779541016,11.193970151977538,-0.5801559388695686,0.4217882583245997,11.85923995986566,-1.328382887776692,2.394144655354818,9.077159556070963,-0.6023406982421875,2.906036376953125,5.022430419921875,-6.532064298304116,4.3720152319931405,6.783089986661585,-2.795628138950893,13.310750325520834,3.932044619605655,2.7114727100776186,-7.805090260819425,-0.4878872863247798,-4.108512338141983,-63.32421652421653,8.585717384702155,30.872105909485725,35.13723904513733,32.30979123610986,1577399138.0,-27.70281756993834,-51.1093230423028,25.340605
13333,1577399138.73,-1.207994447631835,-0.4818330841064452,10.909060154418944,-2.998299615627381,-0.6747561020269618,11.174498285060974,-2.1184694356282545,0.6846846700032543,6.670986887613932,-2.3418426513671875,2.295684814453125,5.236053466796875,4.271158357945884,-0.7854554711318598,4.829964986661585,-1.2392316545758928,-2.7109781901041665,4.450843447730655,3.79606179410867,-6.67664347612264,0.1626290954415977,-1.9612384871644155,-48.13040293040292,-4.94329182755579,30.728337376823312,35.13723904513733,32.357714080330666,1577399138.0,-27.70281756993834,-51.1093230423028,25.340605
13334,1577399138.74,-1.430655202026367,-0.1322796417236328,9.539576804809569,-1.1403991273461311,1.288489259301162,7.655021844631288,-0.2246559224446611,-4.175544700113932,12.484108518473306,-0.6328582763671875,2.783966064453125,4.808807373046875,4.942545076695884,-4.02031875238186,5.653939596036585,2.270289829799107,-4.603068033854167,6.373450869605655,2.7114727100776186,-7.052792404354904,-0.162629095441591,-1.4244200244200351,-61.899796499796494,7.322018722018717,30.5366459999401,35.28100757779974,31.97433132656424,1577399138.0,-27.70281756993834,-51.1093230423028,25.340605
13335,1577399138.75,-0.8500612994384756,0.1191115325927734,8.750687357788085,-0.7597210633812874,-0.2701360214605559,11.235550427394958,-1.7713101949055987,1.5513856709798168,10.453825510660806,-1.4110565185546875,0.907135009765625,5.266571044921875,0.4869786704458844,0.5115415991806405,5.470834127286585,0.7444109235491072,4.079182942708333,8.433387393043155,3.9768266414471753,-7.993164724935555,-0.9757745726495664,11.190813850073091,-61.18758648758648,8.325544130620269,30.80022164315452,35.18516188935813,32.30979123610987,1577399138.0,-27.70281756993834,-51.1093230423028,25.340605
13336,1577399138.76,-1.5144522601318358,-0.2280477081298828,9.084678489379884,-1.3726366883812873,-0.5933532455816491,8.679740155178163,-1.6348407002766925,3.4859006123860667,10.437066099039711,0.8930206298828125,3.455352783203125,4.930877685546875,-0.1844080483041157,4.6466734351181405,4.768929830411585,0.6833757672991072,5.650838216145833,5.488441103980655,3.253767252093146,-7.993164724935555,-1.6262909544159505,-5.182149263630755,-50.029629629629625,-3.7539283803243206,30.5366459999401,34.94554766825411,32.357714080330666,1577399138.0,-27.70281756993834,-51.1093230423028,25.340605
13337,1577399138.77,-1.4282610003662108,-1.0085574493408205,10.813292088012696,-2.4835462586937878,0.2661651504144435,10.068377118068788,-0.6268818013509111,1.735739198811849,13.85359186808268,-1.1211395263671875,-1.061248779296875,5.297088623046875,0.6090489829458843,-2.9522035180068595,5.470834127286585,2.361842564174107,18.803914388020832,3.840491885230655,4.338356336124197,-7.993164724935555,0.9757745726495798,-1.9612384871644155,-50.029629629629625,-1.672542347669255,30.680414532602512,35.13723904513733,32.26186839188906,1577399138.0,-27.70281756993834,-51.1093230423028,25.340605
13338,1577399138.78,-1.4893131427001949,-0.8277952239990234,10.869555827026366,1.5961733702124614,-1.1152892074957117,9.127455865627384,-0.3036645772298174,-1.7454300150553383,14.916617405192056,1.3355255126953125,2.188873291015625,5.266571044921875,2.5011388266958843,0.5573179663681402,5.837045064786585,-2.673557826450893,30.125935872395832,1.9789196196056549,3.524914523100908,-6.958755172296836,-0.4065727386039843,-6.255786189119516,-57.62653642653642,7.842365230182486,30.656453110492105,35.52062179890376,32.45355976877228,1577399138.0,-27.70281756993834,-51.1093230423028,25.340605
13339,1577399138.79,-1.210388649291991,-0.7811082916259765,11.502822166137694,-1.6000858460961311,0.1715941848382721,12.110631134182068,-0.6771600362141927,-0.8954884256998698,7.031314237467448,1.4118194580078125,0.5256652832031251,5.388641357421875,0.4869786704458844,1.8237974585556405,5.013070455411585,0.3781999860491072,18.102010091145832,2.8486705961681547,3.9768266414471753,-7.240866868471033,-0.3252581908831888,-5.182149263630755,-57.62653642653642,9.477739970125754,30.48872315571929,35.04139335669572,32.237906969778656,1577399138.0,-27.70281756993834,-51.1093230423028,25.340605
13340,1577399138.8,-2.1249736834716795,0.1981201873779296,12.395859385375976,-1.425309124904725,0.2757419570550685,13.96613742080316,-3.617239674886067,-1.1325143900553385,8.988574094645182,1.2897491455078125,1.044464111328125,5.541229248046875,2.0738927329458843,-2.4028871117568595,4.280648580411585,2.209254673549107,-2.2837320963541665,4.756019228980655,4.338356336124197,-6.112420083774247,0.6505163817663843,0.1860353638131292,-57.62653642653642,9.329069539221818,30.5845688441609,35.233084733578934,32.30979123610986,1577399138.0,-27.70281756993834,-51.1093230423028,25.340605
13341,1577399138.81,-2.2782025897216798,-0.0029927520751953,10.68879360168457,-0.8674601380883186,0.299683973656631,8.454685199123476,-3.04741967976888,-2.336797825113932,10.051599631754558,1.8085479736328125,0.9223937988281252,5.510711669921875,1.4330235923208845,2.4799253882431405,4.860482564786585,1.9956316266741072,-3.1992594401041665,7.960364932105655,4.338356336124197,-8.369313653167819,0.0,-1.9612384871644155,-65.22344322344321,9.031728677413954,30.5845688441609,35.13723904513733,32.16602270344745,1577399138.0,-27.70281756993834,-51.1093230423028,25.340605
13342,1577399138.82,-1.0188525164794913,-0.211288296508789,9.549153611450194,0.4134377500952741,-0.3180200546636804,9.599113592678163,0.0554656717936191,1.0414207173665355,10.324538621012367,0.6488800048828125,-2.022552490234375,5.678558349609375,6.682047029820884,3.792181247618141,4.891000142911585,-0.1100812639508928,2.049763997395833,8.265540713355655,3.615296946770161,-7.052792404354904,0.1626290954415977,-5.182149263630755,-50.029629629629625,11.113114710069022,30.752298798933715,35.32893042202055,32.30979123610986,1577399138.0,-27.70281756993834,-51.1093230423028,25.340605
13343,1577399138.83,-1.16011041442871,-0.661398208618164,9.790967979125975,-0.6292370729027723,-0.3934374069586024,10.393988543850035,1.002372428385416,0.0933168599446614,12.58346788736979,2.7240753173828125,0.7392883300781251,5.236053466796875,1.9365636313833845,-3.15056777581936,5.013070455411585,3.582545689174107,14.317830403645832,6.480262393043155,3.615296946770161,-6.864717940238773,0.6505163817663843,-3.034875412653199,-49.080016280016274,8.139706091990352,30.92002875370653,35.065354778806125,32.40563692455147,1577399138.0,-27.70281756993834,-51.1093230423028,25.340605
13344,1577399138.84,-1.5671246966552732,-1.1953051788330078,10.751042844848632,-1.8706306336937872,-1.117683409155868,13.97332002578363,1.281296921793619,1.5609624776204427,14.526362534586587,1.4728546142578125,-0.9086608886718748,5.663299560546875,5.400308748570884,4.6466734351181405,4.860482564786585,3.094264439174107,32.38423665364584,0.3004528227306547,4.338356336124197,-8.369313653167819,0.3252581908831954,-1.4244200244200351,-43.85714285714285,7.619359583826587,30.872105909485725,35.13723904513733,32.30979123610986,1577399138.0,-27.70281756993834,-51.1093230423028,25.340605
13345,1577399138.85,-1.1289857928466789,-0.8672995513916015,11.39747729309082,-1.5306539979515998,0.558257752953506,12.484126593166444,-2.2022664937337235,-1.855563291422526,13.051534311930338,3.822708129882813,-1.580047607421875,5.663299560546875,3.2945958579458843,0.6488707007431402,3.853402486661585,0.4392351422991072,36.29048665364584,0.6056286039806548,1.807648473385084,-7.617015796703295,-0.6505163817663776,0.1860353638131292,-47.18078958078958,7.545024368374619,30.5845688441609,34.94554766825411,32.26186839188906,1577399138.0,-27.70281756993834,-51.1093230423028,25.340605
13346,1577399138.86,-1.570715999145507,-0.7511807708740234,12.11214648864746,1.1580344664038678,-0.8926284531011806,11.181680890041443,-1.4720349873860672,-0.3974944803873697,7.118702598063151,5.0891876220703125,1.929473876953125,5.480194091796875,5.369791170445884,5.7147886694931405,4.738412252286585,8.099147251674108,25.578816731770832,3.871009463355655,3.073002404754637,-6.488569012006511,0.1626290954415977,2.333309214790685,-63.32421652421653,9.923751262837555,30.704375954712912,34.94554766825411,32.45355976877228,1577399138.0,-27.70281756993834,-51.1093230423028,25.340605
13347,1577399138.87,-1.9501969622802733,-0.7451952667236328,11.548311997680663,-0.7645094667016005,0.112936244164444,9.74755409560785,-0.6544151204427083,-0.2945438090006514,8.461849729410806,3.3039093017578125,-2.129364013671875,5.602264404296875,8.375772615758384,3.700628513243141,4.265389791349085,5.123683384486608,0.096638997395833,5.061195010230655,3.253767252093146,-6.488569012006511,0.0,-5.182149263630755,-59.52576312576313,7.470689152922651,30.680414532602512,35.065354778806125,32.237906969778656,1577399138.0,-27.70281756993834,-51.1093230423028,25.340605
13348,1577399138.88,-3.027587709350586,0.8876502655029296,11.24424838684082,-1.5737496278344123,-0.0905708969488367,11.282237359768006,-2.101710024007161,-2.3679224466959634,10.575929795328776,5.5622100830078125,0.3425598144531251,5.449676513671875,1.3109532798208845,4.4025328101181405,4.372201314786585,5.993434361049108,-7.166544596354167,6.526038760230655,4.338356336124197,-6.864717940238773,0.6505163817663843,-6.255786189119516,-63.32421652421653,7.247683506566751,30.680414532602512,35.233084733578934,32.45355976877228,1577399138.0,-27.70281756993834,-51.1093230423028,25.340605
13349,1577399138.89,-1.7706318377685544,0.6793547210693359,10.825263096313476,-2.4931230653344123,-1.3714687851324303,11.033240387111755,0.5893726420084628,0.098105263264973,10.638179038492838,2.9987335205078125,-4.845428466796875,5.297088623046875,4.728922029820884,-4.87481093988186,4.738412252286585,5.077907017299108,-3.4434000651041665,7.411048525855655,3.253767252093146,-6.112420083774247,-0.3252581908831888,-6.255786189119516,-46.23117623117623,6.9503426447588845,30.728337376823312,35.233084733578934,32.16602270344745,1577399138.0,-27.70281756993834,-51.1093230423028,25.340605
13350,1577399138.9,-1.4581885211181638,-0.163404263305664,10.08186348083496,-1.9903407167016,0.1153304458245997,11.7969907167016,-0.8710903706868486,0.0717690450032543,7.722041416422526,4.3720245361328125,-2.068328857421875,5.754852294921875,7.353433748570884,6.7218687476181405,3.456673971036585,6.115504673549108,-5.457560221354167,6.892249697730655,1.80764847338508,-7.240866868471033,-0.4878872863247832,29.17423235201012,-50.029629629629625,6.9503426447588845,30.728337376823312,34.94554766825411,32.26186839188906,1577399138.0,-27.70281756993834,-51.1093230423028,25.340605
13351,1577399138.91,-0.5543773944091787,-0.7715314849853515,8.531617905883788,-0.0318837586937879,-0.6891213119879,9.928316320949646,-0.7801107076009115,-0.6656450663248696,10.093498160807291,0.9235382080078124,-3.380584716796875,5.236053466796875,6.285318514195884,1.6406919898056405,4.601083150724085,3.170558384486608,-7.441202799479167,3.520057314918155,2.349943015400604,-7.052792404354904,0.1626290954415977,-3.034875412653199,-46.23117623117623,7.0990130756628185,30.5845688441609,35.16120046724773,32.21394554766825,1577399138.0,-27.70281756993834,-51.1093230423028,25.340605
13352,1577399138.92,-1.1337741961669912,-0.0556651885986328,11.471697544555663,-2.3231347474633184,-0.4401243393316492,12.055564495998476,-2.398591029866536,-2.047099424235026,13.410664560953776,4.3109893798828125,-3.655242919921875,5.937957763671875,3.691324373570884,-13.29766250238186,5.531869283536585,9.258815220424108,9.099324544270834,6.129310244605655,3.615296946770161,-7.993164724935555,0.3252581908831954,-3.034875412653199,-46.23117623117623,7.0990130756628185,30.680414532602512,35.28100757779974,32.30979123610986,1577399138.0,-27.70281756993834,-51.1093230423028,25.340605
13353,1577399138.93,-2.828868971557617,-0.3884592193603515,14.260942478637697,-0.6256457704125373,3.1296303359613185,11.598271978908633,-3.8614482442220046,1.5226552510579423,11.32052651163737,8.308792114257812,1.013946533203125,5.907440185546875,4.240640779820884,2.0526792944931405,2.083382955411585,3.490992954799107,-3.5044352213541665,5.579993838355655,2.892237557416128,-7.240866868471033,-1.6262909544159505,-6.255786189119516,-61.42498982498982,8.139706091990352,30.48872315571929,35.13723904513733,32.357714080330666,1577399138.0,-27.70281756993834,-51.1093230423028,25.340605
13354,1577399138.94,-1.2774262957763665,-0.1238999359130859,10.990463010864255,-0.3251734620629285,0.1189217483148346,10.827339044338318,0.1620076456705727,-0.6883899820963539,10.021672111002603,5.1044464111328125,0.251007080078125,5.525970458984375,3.828653475133384,2.4494078101181405,4.997811666349085,5.184718540736608,-10.462443033854166,3.1843639555431547,3.434532099431653,-8.181239189051686,0.3252581908831921,12.532860006934063,-42.43272283272283,3.6795931648723497,30.728337376823312,35.04139335669572,32.285829813999456,1577399138.0,-27.70281756993834,-51.1093230423028,25.340605
13355,1577399138.95,-2.1201852801513668,0.7894879974365234,9.324098655395506,-2.9935112123070686,-0.9333298813238368,7.439543695217226,0.7880913798014316,-2.1787805155436195,9.91513013712565,2.0832061767578125,-1.671600341796875,5.266571044921875,5.736002107945884,-9.39141250238186,2.266488424161585,-0.3542218889508928,-14.094034830729166,5.030677432105655,3.253767252093146,-7.240866868471033,0.6505163817663843,-3.034875412653199,-38.63426943426943,8.139706091990352,30.680414532602512,35.233084733578934,32.30979123610986,1577399138.0,-27.70281756993834,-51.1093230423028,25.340605
13356,1577399138.96,-1.612614528198242,1.3664905975341797,10.86117612121582,-1.8011987855492562,0.912599598656631,11.021269378810974,-1.201490199788411,-0.9361898539225258,7.801050071207682,3.2733917236328125,-5.425262451171875,5.846405029296875,-0.8863123451791157,9.37689804449314,4.921517721036585,5.261012486049108,-13.178507486979166,7.166907900855655,3.0730024047546407,-7.428941332587162,-0.4878872863247798,-6.255786189119516,-48.13040293040292,11.261785140972956,30.5366459999401,35.13723904513733,32.30979123610986,1577399138.0,-27.70281756993834,-51.1093230423028,25.340605
13357,1577399138.97,-1.331295833129882,0.3513490936279296,8.77343227355957,-0.3742545960961311,-0.0474752670660242,6.412431183010194,-0.9955888570149736,-2.552275974527994,6.802667978922526,2.1595001220703125,-3.289031982421875,5.602264404296875,9.855875154820884,-11.13091445550686,4.036507955411585,2.087184361049107,-16.474405924479168,9.333655947730657,3.886444217777923,-7.146829636412967,0.4065727386039909,-6.255786189119516,-48.13040293040292,11.261785140972956,30.5845688441609,35.233084733578934,32.16602270344745,1577399138.0,-27.70281756993834,-51.1093230423028,25.340605
13358,1577399138.98,-1.1720814227294911,0.1119289276123046,7.561966233520507,-1.519880090480897,0.0087884719476471,9.608690399318789,-1.8766550679524732,-1.0367463236490888,9.606278122965495,0.8625030517578125,-4.265594482421875,5.785369873046875,-3.068319181116616,5.6384947241806405,5.898080221036585,3.140040806361608,-10.645548502604166,5.976722353980655,2.892237557416128,-6.112420083774247,-0.9757745726495664,3.406946140279458,-57.15172975172975,7.247683506566751,30.728337376823312,35.13723904513733,32.357714080330666,1577399138.0,-27.70281756993834,-51.1093230423028,25.340605
13359,1577399138.99,-1.2750320941162108,-0.2328361114501953,10.705553013305662,-2.263279705959412,-1.290065928687118,10.36525812392816,-2.2405737202962235,-0.3304568339029947,10.40833567911784,0.6793975830078125,-3.655242919921875,5.388641357421875,-0.6421717201791157,1.6254332007431402,2.907357564786585,2.331324986049107,-8.814493815104166,3.840491885230655,2.892237557416128,-6.112420083774247,-0.9757745726495664,4.48058306576823,-65.22344322344321,6.9503426447588845,30.728337376823312,35.08931620091653,32.357714080330666,1577399138.0,-27.70281756993834,-51.1093230423028,25.340605
13360,1577399139.0,-1.516846461791992,-0.0724246002197265,12.055882749633788,0.1381045591773053,2.1360366469964744,13.618978180080504,-0.9333396138509112,3.306335487874348,6.642256467692057,3.1208038330078125,1.593780517578125,5.236053466796875,0.0597325766958842,2.3273374976181405,5.043588033536585,2.636500767299107,-23.646036783854168,2.2230602446056547,4.157591488785688,-7.052792404354904,0.4878872863247865,2.333309214790685,-65.22344322344321,7.545024368374619,30.728337376823312,35.08931620091653,32.26186839188906,1577399139.0,-27.7025916300738,-51.109378080565456,25.483974
13361,1577399139.01,-1.2463016741943351,0.4830301849365234,9.273820420532225,0.6600405210913678,-1.867068528784774,8.952679144435976,-3.0881211079915363,0.327948622639973,9.833727280680336,-0.6175994873046875,-0.603485107421875,5.358123779296875,3.4471837485708843,5.5011656226181405,4.982552877286585,9.167262486049108,-26.301066080729168,3.687903994605655,3.705679370439416,-7.3349041005291,-0.0813145477207921,2.870127677535077,-49.55482295482295,7.619359583826587,30.608530266271305,35.13723904513733,32.16602270344745,1577399139.0,-27.7025916300738,-51.109378080565456,25.483974
13362,1577399139.02,-1.0308235247802724,0.7894879974365234,8.62020336730957,-2.1746942445336312,0.5187534255609284,5.856976397853944,2.444878928629557,-4.076185331217448,11.14694689127604,-1.3347625732421875,-3.166961669921875,5.449676513671875,3.2030431235708843,-6.14129043206936,4.952035299161585,2.422877720424107,-20.517985026041668,5.717322939918155,3.0730024047546407,-7.052792404354904,-0.162629095441591,-3.5716938753975853,-50.029629629629625,6.9503426447588845,30.680414532602512,35.04139335669572,32.357714080330666,1577399139.0,-27.7025916300738,-51.109378080565456,25.483974
13363,1577399139.03,-0.2790442034912099,0.988206735229492,9.491692771606443,0.193171197360899,1.008367665062881,11.217593914943787,-1.9700289326985672,-0.6297320414225258,6.252001597086588,-0.3582000732421875,-3.685760498046875,5.510711669921875,-6.226888517054116,2.2663023413681405,4.952035299161585,-0.5373273577008928,-13.666788736979166,6.617591494605655,3.0730024047546407,-7.052792404354904,-0.162629095441591,-1.9612384871644155,-41.48310948310948,10.815773848261154,30.728337376823312,35.13723904513733,32.16602270344745,1577399139.0,-27.7025916300738,-51.109378080565456,25.483974
13364,1577399139.04,-1.3277045306396482,1.1079168182373047,10.523593687133788,-1.695853912502381,-0.600535850562118,6.503410846096132,-0.0259371846516923,-1.2594070780436195,6.733236130777994,-1.2432098388671875,0.4646301269531251,5.358123779296875,0.7311192954458843,-7.6213929711318595,6.355843892911585,-3.894260951450893,-14.460245768229166,7.868812197730655,3.434532099431656,-7.052792404354904,-0.4878872863247798,-6.255786189119516,-34.83581603581603,11.113114710069022,30.728337376823312,34.993470512474914,32.357714080330666,1577399139.0,-27.7025916300738,-51.109378080565456,25.483974
13365,1577399139.05,-0.826119282836913,0.2076969940185546,8.119815220336912,-2.653534576564881,1.1999037978753808,7.370111847072694,-2.781663295491536,0.6272238301595042,11.095471555582682,-3.715133666992188,-0.801849365234375,5.159759521484375,-6.654134610804116,-0.2361390648818597,5.379281392911585,-1.3002668108258928,-10.645548502604166,6.220862978980655,3.8864442177779246,-6.958755172296838,0.731830929487183,3.406946140279458,-49.08001628001628,6.9503426447588845,30.728337376823312,35.08931620091653,32.16602270344745,1577399139.0,-27.7025916300738,-51.109378080565456,25.483974
13366,1577399139.06,-1.6652869647216797,0.2316390106201172,10.518805283813476,-1.3941845033226936,-0.9824110153570402,9.51052813125238,-1.1703655782063798,-1.1504709025065103,9.227994260660807,-1.8535614013671875,2.234649658203125,5.358123779296875,-2.702108243616616,1.80853866949314,6.172738424161585,-1.3002668108258928,-0.1169840494791667,5.595252627418155,2.7114727100776186,-7.428941332587162,0.8131454772079753,5.017401528512627,-59.52576312576312,8.139706091990352,30.77626022104412,35.13723904513733,32.16602270344745,1577399139.0,-27.7025916300738,-51.109378080565456,25.483974
13367,1577399139.07,-1.14095680114746,-0.0796072052001953,10.600208140258788,0.4373797666968366,1.0514632949456937,12.922265496975037,-1.009954066975911,0.9767772725423168,8.751548130289713,-3.0437469482421875,1.715850830078125,4.595184326171875,0.3038732016958843,1.5643980444931402,6.813607564786585,-4.443577357700892,-6.861368815104167,3.687903994605655,3.79606179410867,-6.67664347612264,1.1384036680911775,6.627856916745797,-65.22344322344321,8.139706091990352,30.728337376823312,34.993470512474914,32.118099859226646,1577399139.0,-27.7025916300738,-51.109378080565456,25.483974
13368,1577399139.08,-1.0404003314208974,-0.9032125762939452,9.958562095336912,-1.4229149232445686,-1.4792078598394616,10.935078119045349,-1.019530873616536,1.007901894124348,12.0028739847819,-4.844284057617188,-1.824188232421875,4.991912841796875,-0.8557947670541157,3.761663669493141,6.111703267911585,-1.6054425920758928,-7.074991861979167,3.2911754789806547,3.79606179410867,-6.67664347612264,1.1384036680911775,0.1860353638131292,-50.029629629629625,7.247683506566751,30.680414532602512,35.13723904513733,32.16602270344745,1577399139.0,-27.7025916300738,-51.109378080565456,25.483974
13369,1577399139.09,-1.4845247393798822,0.0592564910888671,10.47810385559082,-0.3143995545922249,-0.0259274521246179,12.32132088027582,0.6659870951334629,-0.8116913675944009,12.381157847086588,-2.9521942138671875,-0.1609802246093748,5.388641357421875,-5.189290860804116,-7.2551820336318595,6.477914205411585,-3.283909388950893,3.239949544270833,4.420325869605655,3.9768266414471753,-6.676643476122642,0.3252581908831921,-5.182149263630755,-65.22344322344321,7.247683506566751,30.608530266271305,35.08931620091653,32.16602270344745,1577399139.0,-27.7025916300738,-51.109378080565456,25.483974
13370,1577399139.1,-0.4011484881591787,0.6171054779052734,10.011234531860351,-1.4516453431664436,-0.1839447616949309,9.14062397475824,-1.7808870015462237,-0.0826569620768233,10.774648533121743,-3.776168823242188,-0.1152038574218748,5.205535888671875,1.0362950766958845,-5.14946914300686,6.294808736661585,-0.7204328264508928,13.707478841145834,6.831214541480655,4.338356336124197,-7.617015796703295,-0.3252581908831888,-1.4244200244200351,-38.63426943426943,10.741438632809189,30.680414532602512,35.065354778806125,32.30979123610986,1577399139.0,-27.7025916300738,-51.109378080565456,25.483974
13371,1577399139.11,-0.9374496600341788,-0.038905776977539,8.519646897583007,-0.2976401429711311,-0.5358924057378992,9.199281915432069,-0.9716468404134112,0.1986617329915355,8.531281577555339,-5.149459838867188,0.2204895019531251,5.022430419921875,-4.426351407679116,-1.85357070550686,6.722054830411585,-0.4152570452008928,10.320027669270834,8.906409853980655,2.530707862739113,-6.864717940238773,-1.6262909544159505,2.333309214790685,-56.67692307692308,10.072421693741486,30.728337376823312,35.13723904513733,32.16602270344745,1577399139.0,-27.7025916300738,-51.109378080565456,25.483974
13372,1577399139.12,-0.6836642840576163,-1.063624087524414,7.504505393676757,-0.977593414455506,0.7138808608636622,8.588760492092225,-1.6635711201985672,0.3231602193196605,10.427489292399088,-4.569625854492188,-2.373504638671875,5.113983154296875,-7.050863126429116,-5.27153945550686,7.179818502286585,-0.7204328264508928,9.343465169270834,6.281898135230655,2.530707862739113,-6.864717940238773,-1.6262909544159505,6.627856916745797,-45.28156288156288,7.545024368374619,30.680414532602512,35.13723904513733,32.16602270344745,1577399139.0,-27.7025916300738,-51.109378080565456,25.483974
13373,1577399139.13,-0.6417657550048819,-0.8098387115478515,8.542391813354492,-1.4504482423363654,-0.3730866928472747,10.474194299465273,0.8132304972330723,-0.4022828837076826,7.172572135416666,-1.3805389404296875,2.722930908203125,5.159759521484375,-3.907552579554116,9.42267441168064,5.623422017911585,-4.687717982700892,-4.725138346354166,4.099891299293155,3.1633848284238937,-6.770680708180706,-0.5692018340455787,-6.255786189119516,-50.029629629629625,8.139706091990352,30.632491688381705,35.065354778806125,32.237906969778656,1577399139.0,-27.7025916300738,-51.109378080565456,25.483974
13374,1577399139.14,-1.091875667114257,-0.4997895965576172,8.790790235595702,-1.2571164582787482,-0.55504601901915,9.637420819240662,-0.4185862569173177,-0.1963815409342451,9.043042182413735,-1.7162322998046875,2.356719970703125,5.159759521484375,-1.2372644936166155,4.8221495093368905,5.814156881192835,-4.199436732700892,-8.318583170572916,4.504249209449405,4.067209065116433,-6.48856901200651,-0.162629095441591,-3.5716938753975795,-53.82808302808302,7.842365230182485,30.752298798933715,35.10129691197173,32.285829813999456,1577399139.0,-27.7025916300738,-51.109378080565456,25.483974
13375,1577399139.15,-1.5419855792236326,-0.1897404815673828,9.039188657836911,-1.0637846742211312,-0.7370053451910251,8.800647339016054,-1.6504030110677077,0.0095198018391923,10.913512229410808,-2.0519256591796875,1.990509033203125,5.159759521484375,1.433023592320884,0.2216246069931404,6.004891744474085,-3.711155482700893,-11.912027994791666,4.908607119605655,4.971033301808972,-6.2064573158323135,0.2439436431623965,-0.8876015616756432,-57.62653642653642,7.545024368374619,30.872105909485725,35.13723904513733,32.33375265822026,1577399139.0,-27.7025916300738,-51.109378080565456,25.483974
13376,1577399139.16,-1.536000075073242,-0.3693056060791015,10.214741672973632,-0.939286187893006,0.242223133812881,8.327792511135195,-0.9788294453938798,-1.5275576639811197,9.879217112223309,-4.203414916992188,-3.380584716796875,5.449676513671875,1.9518224204458845,1.1676695288681402,5.714974752286585,-4.504612513950892,-2.1616617838541665,7.075355166480655,3.615296946770161,-6.112420083774247,0.6505163817663843,1.7964907520463047,-64.74863654863654,7.916700445634452,30.680414532602512,35.13723904513733,32.357714080330666,1577399139.0,-27.7025916300738,-51.109378080565456,25.483974
13377,1577399139.17,-0.6836642840576163,1.0121487518310546,11.8691350201416,1.7063066465796488,-0.4042113144293054,11.741924078518004,-2.819970522054036,0.3375254292805981,10.504103745524088,-1.7009735107421875,-0.9696960449218748,5.480194091796875,-3.846517423304116,4.3109800757431405,5.928597799161585,-4.229954310825892,4.765828450520833,7.716224307105655,1.2653539313695563,-6.30049454789038,-0.162629095441591,-6.255786189119516,-46.23117623117623,10.518432986453288,30.5845688441609,35.08931620091653,32.26186839188906,1577399139.0,-27.7025916300738,-51.109378080565456,25.483974
13378,1577399139.18,-0.1389834063720698,-0.211288296508789,8.200020975952148,-1.3941845033226936,1.3459500991449125,11.076336016994569,-1.539072633870442,1.965582558186849,10.839291977945964,-2.7080535888671875,1.227569580078125,5.129241943359375,-3.754964688929116,-3.3794496117568595,6.722054830411585,1.3852800641741072,6.230672200520833,7.105872744605655,2.621090286408366,-6.582606244064577,-0.0813145477207955,1.2596722893019128,-53.82808302808303,10.518432986453288,30.704375954712912,34.993470512474914,32.30979123610986,1577399139.0,-27.7025916300738,-51.109378080565456,25.483974
13379,1577399139.19,-0.5807136126708974,-0.1514332550048828,8.397542612915037,-1.6168452577172248,-0.8543212265386814,10.714811566310974,-0.459287685139974,1.7572870137532548,12.551146164957682,-3.5320281982421875,0.3730773925781251,5.266571044921875,-0.3522547279916158,-0.0530335961318597,6.020150533536585,-1.1324201311383928,12.944539388020832,4.786536807105655,4.699886030801212,-7.240866868471033,0.6505163817663843,1.2596722893019128,-53.82808302808303,10.518432986453288,30.5845688441609,35.113277623026924,32.285829813999456,1577399139.0,-27.7025916300738,-51.109378080565456,25.483974
13380,1577399139.2,-1.200811842651366,0.0209492645263671,9.975321506958007,-0.9728050111351936,-0.4042113144293054,8.251178058010193,-1.3403538960774737,0.2178153462727855,12.589453391520182,-1.2432098388671875,3.607940673828125,5.297088623046875,2.3180333579458843,4.0058042944931405,4.646859517911585,-0.3237043108258928,22.343953450520832,2.8639293852306547,2.530707862739113,-6.112420083774247,0.9757745726495798,2.333309214790685,-63.32421652421653,7.545024368374619,30.728337376823312,35.08931620091653,32.357714080330666,1577399139.0,-27.7025916300738,-51.109378080565456,25.483974
13381,1577399139.21,-0.958997474975585,-0.3501519927978515,10.978492002563476,-0.9560455995140998,-0.456883750952743,12.788190204006286,0.2900974344889316,-1.9704849711100256,5.375723789469401,-1.3957977294921875,6.171417236328125,4.564666748046875,-1.4661463295541155,3.4259703101181405,5.898080221036585,-6.091526576450892,12.578328450520834,4.389808291480655,4.338356336124197,-5.736271155541987,-0.3252581908831888,3.406946140279458,-63.32421652421653,9.329069539221818,30.680414532602512,35.08931620091653,32.45355976877228,1577399139.0,-27.7025916300738,-51.109378080565456,25.483974
13382,1577399139.22,-1.350449446411132,-0.795473501586914,10.723509525756835,-0.2210256898461311,-0.2773186264410242,9.584748382717226,0.0219468485514316,-1.0511115336100258,7.79626166788737,-2.8301239013671875,2.356719970703125,5.159759521484375,-3.907552579554116,10.78070663824314,4.585824361661585,-2.978733607700893,2.690633138020833,5.061195010230655,4.157591488785686,-6.30049454789038,3.302913498259841e-15,1.2596722893019128,-57.62653642653642,7.247683506566751,30.632491688381705,34.993470512474914,32.30979123610986,1577399139.0,-27.7025916300738,-51.109378080565456,25.483974
13383,1577399139.23,-2.697187880249023,0.0808043060302734,10.672034190063476,-2.253702899318787,-0.0534607712164154,9.687699054103945,-1.019530873616536,-1.5538938822428388,11.16729760538737,1.0761260986328125,4.828643798828125,5.480194091796875,0.792154451695884,7.77472519293064,5.760751119474085,-1.3002668108258926,1.6682942708333333,6.114051455543155,4.699886030801212,-8.369313653167819,0.0,-6.255786189119516,-57.62653642653642,6.9503426447588845,30.728337376823312,35.04139335669572,32.26186839188906,1577399139.0,-27.7025916300738,-51.109378080565456,25.483974
13384,1577399139.24,-1.363617555541992,0.0999579193115234,10.494863267211914,1.8284109312476176,-0.4832199692144617,10.077953924709412,1.3291809549967442,-1.8052850565592449,15.057875303141277,-0.3276824951171875,2.173614501953125,5.052947998046875,-5.830160001429116,5.6842710913681405,3.975472799161585,1.7209734235491072,14.561971028645834,8.051917666480655,2.530707862739113,-7.617015796703295,0.6505163817663843,2.333309214790685,-65.22344322344321,7.0990130756628185,30.5845688441609,34.993470512474914,32.16602270344745,1577399139.0,-27.7025916300738,-51.109378080565456,25.483974
13385,1577399139.25,-1.7419014178466794,-0.6039373687744141,9.99926352355957,-0.6112805604515998,0.7258518691644434,12.4099063417016,-1.2637394429524735,0.3878036641438793,12.3476390238444,-1.4568328857421875,-1.091766357421875,5.724334716796875,-2.290120938929116,-4.38652968988186,7.881722799161585,1.0495867047991072,20.238240559895832,8.051917666480655,2.1691781680620985,-7.617015796703295,0.9757745726495798,28.10059542652133,-53.82808302808303,11.113114710069022,30.728337376823312,34.993470512474914,32.16602270344745,1577399139.0,-27.7025916300738,-51.109378080565456,25.483974
13386,1577399139.26,-0.8584410052490229,-1.2779051361083984,10.124959110717771,-2.634380963283631,-2.501531968726181,8.78987343154535,-0.8399657491048174,3.478718007405598,9.812179465738932,-2.5402069091796875,-1.885223388671875,5.678558349609375,2.8063146079458843,-3.77617812738186,4.768929830411585,1.9040788922991072,23.839314778645832,5.641028994605655,3.253767252093148,-7.428941332587164,0.6505163817663876,6.627856916745797,-49.08001628001628,7.545024368374619,30.632491688381705,34.8017791355917,32.16602270344745,1577399139.0,-27.7025916300738,-51.109378080565456,25.483974
13387,1577399139.27,-0.0635660540771474,-0.6781576202392577,9.453385545043943,-0.7645094667016005,0.8982343886956935,13.82607662368402,-3.0079153523763016,-0.8092971659342447,11.03322231241862,1.1676788330078125,2.234649658203125,5.480194091796875,3.3556310141958843,2.8461363257431405,4.967294088224085,1.1563982282366072,25.71614583333333,2.6045299711681547,2.349943015400604,-8.181239189051688,-0.162629095441591,6.627856916745797,-51.92885632885633,7.545024368374619,30.728337376823312,35.11327762302693,32.38167550244107,1577399139.0,-27.7025916300738,-51.109378080565456,25.483974
13388,1577399139.28,-1.210388649291991,-0.5009866973876953,12.235447874145509,0.3559769102515241,-1.3954108017339928,8.861699481350039,-0.7944759175618485,-1.3695403544108071,8.986179892985026,3.0292510986328125,2.692413330078125,5.724334716796875,-2.839437345179116,1.6254332007431402,4.372201314786585,2.789088657924107,21.611531575520832,4.572913760230655,3.253767252093146,-8.745462581400078,0.6505163817663843,2.333309214790685,-63.32421652421653,9.329069539221818,30.5845688441609,35.13723904513733,32.357714080330666,1577399139.0,-27.7025916300738,-51.109378080565456,25.483974
13389,1577399139.29,-0.8225279803466787,-0.6949170318603515,12.5586650982666,1.004805560153868,-1.021915342749618,14.83523262343988,0.859917429606119,1.587298695882161,9.036458127848308,3.944778442382813,4.584503173828125,5.724334716796875,-5.555501798304116,1.6254332007431402,5.592904439786585,2.087184361049107,11.235555013020834,4.603431338355655,2.892237557416128,-8.745462581400078,1.3010327635327683,-0.8876015616756432,-55.72730972730972,8.288376522894284,30.728337376823312,35.28100757779974,32.16602270344745,1577399139.0,-27.7025916300738,-51.109378080565456,25.483974
13390,1577399139.3,-1.1720814227294916,-0.5033808990478515,10.496060368041991,-2.388975293117616,0.8144373305902247,9.821774347072694,-0.9656613362630204,-2.242226859537761,10.699231180826825,1.2897491455078125,3.089141845703125,5.495452880859375,3.874429842320884,-2.1434876976943595,4.753671041349085,-2.6430402483258923,6.856282552083334,4.374549502418155,2.8018551337468733,-8.275276421109751,1.5449764066951617,-3.034875412653199,-64.27382987382987,-2.564564933092851,30.82418306526492,35.065354778806125,32.26186839188906,1577399139.0,-27.7025916300738,-51.109378080565456,25.483974
13391,1577399139.31,-1.3181277239990232,0.2962824554443359,11.433390317993164,0.1859885923804303,-0.3108374496832117,14.612571869045349,-1.1033279317220048,-0.756624729410807,8.677327878824869,2.6020050048828125,0.6477355957031251,5.663299560546875,1.4025060141958845,5.7147886694931405,4.067025533536585,-0.8730207170758928,-1.7038981119791667,5.946204775855655,2.892237557416128,-7.993164724935555,0.0,-6.255786189119516,-45.28156288156288,6.9503426447588845,30.728337376823312,35.32893042202055,32.16602270344745,1577399139.0,-27.7025916300738,-51.109378080565456,25.483974
13392,1577399139.32,-1.830486879272461,0.4471171600341797,10.791744273071288,-0.5801559388695686,0.9197822036370996,7.3916596620141,-0.5598441548665362,-1.015198508707682,12.972525657145182,2.8156280517578125,4.218292236328125,5.449676513671875,3.843912264195884,-10.36797500238186,6.050668111661585,1.9956316266741072,-1.4597574869791667,7.075355166480655,2.7114727100776186,-7.052792404354904,0.4878872863247865,-0.8876015616756432,-65.22344322344321,7.0990130756628185,30.5366459999401,35.08931620091653,32.16602270344745,1577399139.0,-27.7025916300738,-51.109378080565456,25.483974
13393,1577399139.33,-1.7490840228271485,-1.121084927368164,9.077495884399411,-2.5649491151391,-1.0721935776128992,7.0301352113305065,-1.0841743184407548,2.559344569905598,10.769860129801431,3.1818389892578125,2.417755126953125,5.388641357421875,0.3343907798208843,1.5033628882431402,2.754769674161585,2.789088657924107,4.247029622395833,6.709144228980655,2.7114727100776186,-6.67664347612264,0.1626290954415977,2.333309214790685,-49.08001628001628,6.9503426447588845,30.728337376823312,34.89762482403331,32.45355976877228,1577399139.0,-27.7025916300738,-51.109378080565456,25.483974
13394,1577399139.34,-1.5132551593017576,-0.7104793426513671,10.500848771362303,0.7270781675757428,1.2453936294183496,11.00450996718988,0.3260104593912754,-0.0623062479654947,11.801761045328776,1.6254425048828125,0.540924072265625,5.480194091796875,0.7921544516958843,-0.7244203148818598,4.952035299161585,0.9885515485491072,12.090047200520834,3.657386416480655,2.7114727100776186,-6.67664347612264,0.1626290954415977,7.70149384223457,-49.08001628001628,6.9503426447588845,30.5845688441609,35.233084733578934,32.118099859226646,1577399139.0,-27.7025916300738,-51.109378080565456,25.483974
13395,1577399139.35,-1.3109451190185546,-0.556053335571289,11.878711826782226,-1.0410397584496467,-0.7501734543218841,11.21519971328363,-1.7485652791341142,0.8008034505208329,10.575929795328776,4.7992706298828125,4.157257080078125,5.388641357421875,3.5539952720083843,4.0515806616806405,4.097543111661585,4.421779087611608,15.981038411458332,4.069373721168155,2.7114727100776186,-7.428941332587162,0.8131454772079753,8.775130767723349,-54.77769637769637,8.43704695379822,30.5366459999401,35.04139335669572,32.40563692455147,1577399139.0,-27.7025916300738,-51.109378080565456,25.483974
13396,1577399139.36,-0.7483077288818349,-0.134673843383789,11.624926450805663,1.256196734470274,1.1208951430902248,9.201676117092225,-0.1288878560384111,-1.2187056498209634,8.366081663004557,3.5175323486328125,1.441192626953125,5.571746826171875,10.923990389195884,2.0831968726181405,4.982552877286585,2.422877720424107,1.9276936848958333,4.328773135230655,2.349943015400604,-8.181239189051688,-0.162629095441591,-0.3507830989312626,-57.15172975172975,7.024677860210852,30.5845688441609,35.13723904513733,32.30979123610986,1577399139.0,-27.7025916300738,-51.109378080565456,25.483974
13397,1577399139.37,-0.8943540301513662,-0.1203086334228515,11.526764182739257,-1.233772992092225,-2.278871214331649,10.868040472560974,0.3499524759928379,-2.190751523844401,10.997309287516275,1.2592315673828125,-0.6950378417968749,5.449676513671875,4.088052889195884,2.7545835913681405,2.846322408536585,4.009791782924108,1.1037190755208333,5.305335635230655,2.349943015400604,-7.428941332587162,-1.7889200498575484,-1.9612384871644155,-61.42498982498982,-2.2672240712849896,30.680414532602512,35.233084733578934,32.30979123610986,1577399139.0,-27.7025916300738,-51.109378080565456,25.483974
13398,1577399139.38,-0.6573280657958974,0.048482583618164,9.084678489379884,-0.5729733338891003,-0.3000635422125086,11.939445715480897,-2.108892628987629,0.4285050923665364,8.695284391276042,3.0902862548828125,0.891876220703125,5.342864990234375,5.110391756383384,5.6079771460556405,3.670297017911585,4.498073032924108,-2.421061197916667,5.671546572730655,1.626883626046571,-7.428941332587162,0.4878872863247865,-4.645330800886364,-45.75636955636956,7.470689152922654,30.656453110492105,35.13723904513733,32.118099859226646,1577399139.0,-27.7025916300738,-51.109378080565456,25.483974
13399,1577399139.39,-0.3556586566162099,0.4854243865966796,10.80850368469238,-1.0398426576195683,1.5111500136956937,6.41482538467035,-2.0562201924641923,-1.0558999369303383,8.842527793375652,4.6161651611328125,4.279327392578125,5.632781982421875,3.3556310141958843,1.2592222632431402,5.837045064786585,5.016871861049108,-9.638468424479166,7.319495791480655,2.530707862739113,-8.369313653167819,-0.9757745726495664,3.406946140279458,-64.27382987382987,7.247683506566751,30.728337376823312,35.233084733578934,32.16602270344745,1577399139.0,-27.7025916300738,-51.109378080565456,25.483974
13400,1577399139.4,-1.1241973895263662,-0.0628477935791015,9.096649497680662,-1.4803757630883183,-0.839956016577743,8.117102765041444,-1.539072633870442,1.8267188618977863,11.298978696695965,2.4188995361328125,4.676055908203125,4.839324951171875,0.9752599204458844,7.1185972632431405,5.013070455411585,3.796168736049107,-9.760538736979166,6.587073916480655,1.9884133207235888,-7.805090260819425,-0.162629095441591,1.7964907520463047,-45.75636955636956,-3.084911441256624,30.5845688441609,34.993470512474914,32.30979123610986,1577399139.0,-27.7025916300738,-51.109378080565456,25.483974
13401,1577399139.41,-0.8931569293212881,-0.0448912811279296,9.629359367065428,-0.9632282044945686,-1.3068253403082115,12.883958270412537,-1.6611769185384109,-2.5067861429850256,12.192015915934244,1.3507843017578125,1.059722900390625,5.159759521484375,4.362711092320884,1.83905624761814,2.876839986661585,2.270289829799107,-6.983439127604167,4.389808291480655,1.8076484733850804,-7.993164724935556,-0.9757745726495696,5.017401528512633,-45.75636955636956,-1.1521958395054854,30.608530266271305,35.08931620091653,32.26186839188906,1577399139.0,-27.7025916300738,-51.109378080565456,25.483974
13402,1577399139.42,-1.3205219256591796,0.4064157318115234,10.078272178344726,-1.5677641236840216,-0.6855300094976648,11.77783710342035,-0.6232904988606771,-1.6640271586100257,8.737182920328776,5.2570343017578125,9.589385986328123,4.717254638671875,4.225381990758384,-0.2056214867568597,4.738412252286585,4.772731236049108,-5.228678385416666,5.213782900855655,2.7114727100776186,-8.181239189051688,-0.162629095441591,4.48058306576823,-56.67692307692308,0.5575141158897479,30.728337376823312,34.94554766825411,32.21394554766826,1577399139.0,-27.7025916300738,-51.109378080565456,25.483974
13403,1577399139.43,-1.1074379779052723,-0.134673843383789,9.40550151184082,-1.8466886170922248,0.558257752953506,8.488204022365663,0.1655989481608066,1.1731018086751293,11.471361216227214,1.9611358642578125,5.377960205078125,4.839324951171875,-0.1233728920541157,4.9213316382431405,4.891000142911585,3.765651157924107,-9.913126627604166,4.817054385230655,1.9884133207235888,-9.30968597374847,0.1626290954415977,5.554219991257025,-54.77769637769637,7.545024368374619,30.5845688441609,34.94554766825411,32.118099859226646,1577399139.0,-27.7025916300738,-51.109378080565456,25.483974
13404,1577399139.44,-1.7514782244873044,0.3154360687255859,10.73428343322754,-0.5059356874047249,-0.4161823227300867,8.526511248928163,-1.1607887715657548,-2.430171689860026,12.71874028116862,0.4657745361328124,2.173614501953125,4.778289794921875,3.752359529820884,3.0292417944931405,4.860482564786585,4.131862095424108,-6.006876627604167,3.687903994605655,2.1691781680620985,-8.369313653167819,-1.6262909544159505,-6.255786189119516,-53.82808302808303,-4.94329182755579,30.5845688441609,35.233084733578934,32.118099859226646,1577399139.0,-27.7025916300738,-51.109378080565456,25.483974
13405,1577399139.45,-1.8963274249267577,0.498592495727539,11.648868467407226,-2.229760882717225,0.5750171645745997,12.991697345119569,-0.0786096211751298,-1.558682285563151,10.511286350504555,0.5725860595703125,0.662994384765625,5.312347412109375,-2.961507657679116,1.2897398413681402,3.670297017911585,1.5378679547991072,-5.457560221354167,4.664466494605655,2.9826199810853824,-6.958755172296837,-0.7318309294871765,-6.255786189119516,-49.08001628001628,9.626410401029688,30.680414532602512,35.13723904513733,32.357714080330666,1577399139.0,-27.7025916300738,-51.109378080565456,25.483974
13406,1577399139.46,-0.6429628558349599,1.4000094207763671,8.287409336547851,-2.4883346620141,-0.9045994614019616,9.199281915432069,-2.7289908589680985,-1.1420911966959637,8.599516324869791,1.1676788330078125,5.133819580078125,4.808807373046875,5.369791170445884,-1.88408828363186,5.287728658536585,0.5918230329241072,-4.313151041666667,8.250281924293155,3.253767252093146,-5.736271155541987,0.3252581908831954,2.333309214790685,-47.18078958078958,10.221092124645423,30.872105909485725,34.96950909036451,32.33375265822026,1577399139.0,-27.7025916300738,-51.109378080565456,25.483974
13407,1577399139.47,-0.6166266375732412,-0.6302735870361328,8.88835395324707,-0.9105557679711312,0.347568006859756,10.116261151271912,-1.2421916280110672,0.7612991231282542,9.575153501383465,-1.2432098388671875,1.837921142578125,5.327606201171875,0.8531896079458843,9.80414413824314,6.355843892911585,-0.8730207170758928,-7.868448893229167,5.244300478980655,2.349943015400604,-7.805090260819425,0.4878872863247865,-6.255786189119516,-42.43272283272283,-3.7539283803243206,30.728337376823312,34.94554766825411,32.16602270344745,1577399139.0,-27.7025916300738,-51.109378080565456,25.483974
13408,1577399139.48,-1.0954669696044912,-1.2455834136962889,9.63534487121582,0.2865450621069928,-2.2429581894293054,13.0228219667016,-0.7920817159016923,0.8953744160970042,9.742747617594402,-2.1892547607421875,0.9834289550781252,5.297088623046875,-0.4590662514291157,15.51093124761814,5.104623189786585,1.1411394391741072,-4.603068033854167,3.5658336821056547,3.0730024047546407,-8.93353704551621,-0.8131454772079686,-6.255786189119516,-57.62653642653642,-2.118553640381053,30.728337376823312,35.28100757779974,32.30979123610986,1577399139.0,-27.7025916300738,-51.109378080565456,25.483974
13409,1577399139.49,-1.4569914202880858,0.5799953521728515,9.201994370727538,-1.236167193752381,-1.5989179428472742,8.368493939357851,-0.8854555806477861,-1.5993837137858071,9.99174459025065,1.2897491455078125,7.254791259765625,4.930877685546875,3.5997716391958843,-14.33526015863186,4.952035299161585,0.7444109235491072,-6.525675455729167,4.084632510230655,2.4403254390698583,-8.275276421109753,-1.7076055021367464,28.637413889265726,-42.9075295075295,9.10606389286592,30.77626022104412,35.13723904513733,32.45355976877228,1577399139.0,-27.7025916300738,-51.109378080565456,25.483974
13410,1577399139.5,-1.3660117572021482,-1.0492588775634766,8.682452610473632,-0.7381732484398811,-0.4437156418218841,7.695723272853944,-1.7952522115071616,0.7948179463704422,7.395232889811197,-3.684616088867188,0.4341125488281251,5.266571044921875,1.570352693883384,4.7840025366806405,6.661019674161585,0.2408708844866072,-17.298380533854168,5.869910830543155,2.7114727100776186,-8.181239189051688,-0.8131454772079686,13.606496932422845,-48.6052096052096,2.7875705794487486,30.728337376823312,35.04139335669572,32.21394554766826,1577399139.0,-27.7025916300738,-51.109378080565456,25.483974
13411,1577399139.51,-2.170463515014648,0.4016273284912109,9.09904369934082,-1.0805440858422248,0.328414393578506,10.003733673244568,-0.4281630635579423,-1.0511115336100258,9.812179465738932,-1.2432098388671875,2.783966064453125,5.113983154296875,6.529459139195884,-16.50200820550686,5.745492330411585,1.0801042829241072,-19.770304361979168,4.359290713355655,3.434532099431656,-8.181239189051688,-0.4878872863247798,-0.8876015616756432,-50.029629629629625,-1.9698832094771224,30.728337376823312,35.233084733578934,32.30979123610986,1577399139.0,-27.7025916300738,-51.109378080565456,25.483974
13412,1577399139.52,-1.4641740252685544,0.2460042205810546,10.322480747680665,-3.034212640529725,-0.4089997177496179,10.484968206935974,-1.057838100179036,-2.219481943766276,9.958225767008464,-2.1587371826171875,1.136016845703125,5.388641357421875,-0.3064783608041157,-1.1211488305068598,5.837045064786585,1.3242449079241072,-16.718546549479168,7.166907900855655,5.242180572816732,-8.55738811728395,-0.4878872863247798,0.1860353638131292,-46.23117623117623,9.329069539221818,30.680414532602512,35.13723904513733,32.357714080330666,1577399139.0,-27.7025916300738,-51.109378080565456,25.483974
13413,1577399139.53,-0.9578003741455072,0.2807201446533203,8.812936600952147,-0.6866979127465223,-0.6567995895757899,7.070836639553163,-2.532666322835286,-0.9864680887858072,7.97462969156901,-2.1739959716796875,2.600860595703125,5.175018310546875,-0.3980310951791157,0.5725767554306402,6.172738424161585,-0.1253400530133928,-12.613932291666666,10.188148135230657,4.428738759793449,-7.899127492877492,-0.5692018340455787,-1.9612384871644268,-43.382336182336175,9.403404754673788,30.608530266271305,35.065354778806125,32.33375265822026,1577399139.0,-27.7025916300738,-51.109378080565456,25.483974
13414,1577399139.54,-1.459385621948242,-0.2855085479736328,8.158122446899414,-2.7756388612328498,0.7186692641839747,7.935143438869569,0.4361437357584629,-0.8021145609537759,9.888793918863932,-3.2878875732421875,2.417755126953125,5.205535888671875,0.3343907798208843,0.6488707007431402,6.691537252286585,5.718776157924108,-11.744181315104166,9.821937197730657,5.60371026749375,-8.181239189051688,-0.8131454772079686,-5.718967726375147,-41.95791615791616,-5.463638335719557,30.680414532602512,34.993470512474914,32.30979123610986,1577399139.0,-27.7025916300738,-51.109378080565456,25.483974
13415,1577399139.55,-1.1936292376708977,-0.2088940948486328,9.233118992309567,-1.8251408021508184,-1.6084947494878992,10.27667266250238,-0.6005455830891924,-1.0798419535319008,11.758665415445964,-5.424118041992188,1.136016845703125,5.358123779296875,-0.0318201576791157,0.9540464819931402,8.095345846036585,-6.823948451450892,-5.701700846354167,7.624671572730655,3.615296946770161,-7.993164724935555,-0.6505163817663776,-4.645330800886364,-48.60520960520961,-6.058320059335285,30.680414532602512,35.28100757779974,32.07017701500584,1577399139.0,-27.7025916300738,-51.109378080565456,25.483974
13416,1577399139.56,-2.340451832885742,-0.4267664459228515,10.789350071411132,-1.035054254299256,-2.9109404526129,10.001339471584412,-1.3595075093587234,1.5418088643391927,7.93033696085612,-2.0977020263671875,2.936553955078125,4.930877685546875,-6.013265470179116,2.2968199194931405,3.853402486661585,-0.9340558733258928,-1.7649332682291667,6.526038760230655,4.519121183462703,-7.428941332587162,-1.138403668091164,-0.8876015616756432,-47.18078958078958,-1.07786062405352,30.5845688441609,35.13723904513733,32.16602270344745,1577399139.0,-27.7025916300738,-51.109378080565456,25.483974
13417,1577399139.57,-1.1206060870361318,-0.7128735443115234,8.777023576049803,-0.4688255616723035,-0.0103651413336028,6.44116160293207,-1.5773798604329423,0.7325687032063798,8.066806455485025,-4.676437377929688,2.204132080078125,4.763031005859375,2.6079503501333843,-3.04375625238186,8.232674947599085,2.880641392299108,-12.049357096354166,3.306434268043155,3.796061794108672,-6.300494547890379,-0.6505163817663776,-1.9612384871644155,-50.029629629629625,2.192888855833017,30.632491688381705,35.04139335669572,32.26186839188906,1577399139.0,-27.7025916300738,-51.109378080565456,25.483974
13418,1577399139.58,-2.146521498413086,0.3537432952880859,8.323322361450195,-2.3135579408226934,0.146455067406631,7.731636297756288,-0.4736528951009111,-1.462914219156901,11.3133439066569,-3.2878875732421875,2.082061767578125,4.717254638671875,-9.614339688929116,4.8908140601181405,4.799447408536585,-6.579807826450892,-6.251017252604167,3.4437633696056547,4.338356336124197,-6.488569012006511,-0.6505163817663776,0.7228538265575211,-49.55482295482295,7.322018722018717,30.34495462305688,35.13723904513733,32.26186839188906,1577399139.0,-27.7025916300738,-51.109378080565456,25.483974
13419,1577399139.59,-2.144127296752929,-0.1322796417236328,11.222700571899413,-1.7964103822289437,1.185538587914443,15.37871640029535,-0.1887428975423173,-2.2075109354654945,10.870416599527994,-4.386520385742188,-0.5119323730468749,4.717254638671875,-0.3369959389291157,-3.1963441430068595,5.226693502286585,0.3171648297991072,-3.870646158854168,6.281898135230655,3.434532099431656,-6.67664347612264,-0.8131454772079686,-2.4980569499088072,-41.95791615791616,9.700745616481653,30.680414532602512,34.94554766825411,32.30979123610986,1577399139.0,-27.7025916300738,-51.109378080565456,25.483974
13420,1577399139.6,-0.7159860064697255,-0.5871779571533203,8.678861307983398,-1.5545960145531623,-0.4281533310308679,12.17288037734613,-0.8663019673665361,-1.1444853983561196,8.569588804117839,-4.584884643554688,0.5561828613281252,4.961395263671875,-5.891195157679116,5.5316832007431405,7.210336080411585,-5.511692592075892,-5.671183268229167,8.631751650855655,4.699886030801212,-7.052792404354904,-0.4878872863247832,-1.9612384871644155,-57.62653642653642,9.477739970125754,30.680414532602512,34.89762482403331,32.30979123610986,1577399139.0,-27.7025916300738,-51.109378080565456,25.483974
13421,1577399139.61,-1.0475829364013662,-0.891241567993164,7.806174802856445,-1.7197959291039435,-0.9201617721929782,8.825786456447693,-2.5949155659993486,-0.1089931803385415,11.87478419596354,-5.546188354492188,0.2815246582031251,4.900360107421875,-0.2607019936166157,-4.76799941644436,6.126962056974085,-0.0795636858258928,0.2797444661458332,8.448646182105655,3.79606179410867,-4.795898834961333,0.1626290954415977,-0.082373867559061,-33.64879934879934,2.230056463558998,30.728337376823312,35.11327762302693,32.14206128133705,1577399139.0,-27.7025916300738,-51.109378080565456,25.483974
13422,1577399139.62,-0.6956352923583975,-1.542464419555664,7.810963206176757,0.298516070407774,-1.886222142066024,9.812197540432068,1.1687694437662752,-2.0878008524576823,11.478543821207682,-5.454635620117188,-0.1457214355468749,4.808807373046875,-2.137533048304116,-0.0835511742568597,5.348763814786585,-4.443577357700892,4.765828450520833,3.0470348539806547,3.79606179410867,-4.795898834961333,0.1626290954415977,-5.182149263630755,-49.08001628001628,-4.794621396651859,30.5845688441609,35.13723904513733,31.97433132656424,1577399139.0,-27.7025916300738,-51.109378080565456,25.483974
13423,1577399139.63,-1.0092757098388665,-0.4291606475830078,10.389518394165036,-1.6886713075219124,-0.4257591293707117,9.570383172756287,-0.4784412984212236,-1.83401547648112,8.052441245524088,-1.8230438232421875,2.021026611328125,4.900360107421875,3.1725255454458843,-3.5930726586318595,5.989632955411585,-1.4833722795758928,5.528767903645833,2.4977184477306547,4.157591488785688,-5.9243456196581175,-1.4636618589743595,-5.182149263630755,-49.08001628001628,-4.794621396651859,30.728337376823312,35.13723904513733,32.16602270344745,1577399139.0,-27.7025916300738,-51.109378080565456,25.483974
13424,1577399139.64,-1.0787075579833971,-1.0564414825439452,10.217135874633788,0.9257969053687116,0.6157185927972559,12.929448101955506,-1.9867883443196608,-1.223494053141276,7.243201084391275,-2.6470184326171875,3.180694580078125,4.442596435546875,-3.907552579554116,11.42157577886814,5.867562642911585,-2.917698451450893,-4.786173502604167,4.389808291480655,6.146004809509271,-4.23167544261294,-0.9757745726495664,-4.108512338141983,-46.23117623117623,7.396353937470683,30.680414532602512,35.28100757779974,32.16602270344745,1577399139.0,-27.7025916300738,-51.109378080565456,25.483974
13425,1577399139.65,-2.041176625366211,-0.7811082916259765,8.919478574829101,-2.624804156643006,-2.144795921362899,11.243930133205506,-1.0793859151204424,-1.5514996805826822,11.883163901774088,-4.294967651367188,1.258087158203125,4.473114013671875,1.3719884360708845,-4.08135390863186,4.738412252286585,0.5918230329241072,-2.5889078776041665,4.725501650855655,6.146004809509271,-4.23167544261294,-0.9757745726495664,-1.9612384871644155,-3.4985754985755,-4.794621396651859,30.728337376823312,34.94554766825411,32.30979123610986,1577399139.0,-27.7025916300738,-51.109378080565456,25.483974
13426,1577399139.66,-2.350028639526367,-0.8864531646728515,10.61936175354004,-3.539389190822693,2.1719496718988185,13.240694317775818,-0.2916935689290361,-2.7749367289225257,8.809008970133464,-4.691696166992188,-1.946258544921875,4.442596435546875,-2.839437345179116,10.96381210699314,4.097543111661585,-1.4528547014508928,-2.4058024088541665,7.319495791480655,3.253767252093146,-5.736271155541987,0.3252581908831954,-1.9612384871644155,-34.83581603581603,9.329069539221818,30.728337376823312,34.993470512474914,32.16602270344745,1577399139.0,-27.7025916300738,-51.109378080565456,25.483974
13427,1577399139.67,-1.8400636859130857,0.019752163696289,9.799347684936524,-0.6519819886742562,-1.847914915503524,10.549611651760191,-0.9860120503743486,2.370202638753255,8.397206284586588,-0.9227752685546876,0.891876220703125,4.763031005859375,-0.9168299233041156,13.10004257574314,5.837045064786585,-1.7275129045758928,-2.0090738932291665,8.235023135230655,4.609503607131957,-6.582606244064576,-0.8944600249287707,-1.9612384871644155,-34.83581603581603,9.329069539221818,30.704375954712912,35.233084733578934,32.16602270344745,1577399139.0,-27.7025916300738,-51.109378080565456,25.483974
13428,1577399139.68,-1.8280926776123043,-1.121084927368164,8.550771519165037,-0.6938805177269906,-0.8890371506109461,7.432361090236757,0.5690219278971348,0.2501370686848954,10.080330051676432,-3.1047821044921875,-1.122283935546875,4.412078857421875,0.7158605063833844,-3.40996718988186,6.035409322599085,-2.200535365513393,-3.199259440104167,7.212684268043155,3.615296946770161,-6.112420083774247,-0.9757745726495664,-3.034875412653199,-34.83581603581603,9.923751262837555,30.728337376823312,35.11327762302693,32.18998412555785,1577399139.0,-27.7025916300738,-51.109378080565456,25.483974
13429,1577399139.69,-1.902312929077148,-0.8481459381103515,9.47493335998535,-1.494740973049256,-3.135995408667587,10.037252496486756,-1.1967017964680986,0.3040066060384105,12.436224485270182,-3.5930633544921875,-4.692840576171875,5.297088623046875,6.010660311070884,-5.17998672113186,5.531869283536585,0.0119890485491072,4.369099934895833,3.1996227446056547,3.615296946770161,-6.112420083774247,-0.9757745726495664,2.870127677535077,-41.95791615791616,-4.125604457584156,30.392877467277685,34.993470512474914,32.357714080330666,1577399139.0,-27.7025916300738,-51.109378080565456,25.483974
13430,1577399139.7,-1.2846089007568358,-1.0803834991455077,11.828433591918945,-0.9799876161156624,-0.1336665268316492,12.826497430568788,-3.174312367757161,1.3191481099446614,12.828873557535807,-3.1963348388671875,-5.577850341796875,4.961395263671875,-5.952230313929116,-0.5413148461318598,5.653939596036585,-3.711155482700893,7.481892903645833,2.6503063383556547,3.615296946770161,-6.112420083774247,-0.9757745726495664,28.10059542652133,-2.548962148962147,7.545024368374619,30.728337376823312,35.08931620091653,32.16602270344745,1577399139.0,-27.7025916300738,-51.109378080565456,25.483974
13431,1577399139.71,-1.3289016314697255,-0.8732850555419921,9.276214622192382,-1.7940161805687873,-0.5706083298101648,11.856845758205504,-0.8375715474446614,-1.7202908976236977,9.837318583170571,0.5115509033203125,1.532745361328125,4.747772216796875,-1.6187342201791155,4.9518492163681405,4.936776510099085,1.5683855329241072,1.6988118489583337,3.535316103980655,2.982619981085384,-6.582606244064576,-0.4065727386039843,28.369004657893527,-22.253439153439157,7.284851114292736,30.704375954712912,35.11327762302693,32.285829813999456,1577399139.0,-27.7025916300738,-51.109378080565456,25.483974
13432,1577399139.72,-1.2750320941162108,-1.2000935821533203,9.573095628051757,0.4637159849585553,-1.155990635718368,12.9462075135766,-0.5215369283040361,-2.547487571207682,10.168915513102212,-1.3652801513671875,-2.129364013671875,5.144500732421875,1.6466466391958845,0.0690367163681402,5.714974752286585,1.0801042829241072,-2.0395914713541665,4.756019228980655,3.0730024047546407,-5.548196691425854,-0.162629095441591,-6.255786189119516,-38.63426943426943,-5.835314412979392,30.728337376823312,35.08931620091653,32.26186839188906,1577399139.0,-27.7025916300738,-51.109378080565456,25.483974
13433,1577399139.73,-1.8568230975341795,-0.2711433380126953,11.24424838684082,-1.3319352601586312,-1.321190550269149,8.406801165920351,0.4936045756022129,-3.177162607828776,9.421924595133463,-1.5178680419921875,-1.580047607421875,4.869842529296875,-0.7337244545541157,-2.9216859398818595,3.944955221036585,-6.579807826450892,-2.8940836588541665,5.641028994605655,3.0730024047546407,-5.548196691425854,-0.162629095441591,-1.9612384871644155,-38.63426943426943,-6.727336998402988,30.680414532602512,35.13723904513733,32.45355976877228,1577399139.0,-27.7025916300738,-51.109378080565456,25.483974
13434,1577399139.74,-1.0392032305908194,-0.7535749725341796,10.50204587219238,-2.2824333192406625,0.950906825219131,8.890429901271913,-0.8663019673665361,-1.9680907694498695,9.948648960367835,-0.3124237060546876,-2.220916748046875,5.083465576171875,0.6090489829458843,-5.54619765863186,5.074105611661585,2.117701939174107,4.216512044270833,9.364173525855657,2.801855133746877,-5.26608499525166,-0.4065727386039843,-1.9612384871644155,-46.23117623117623,-9.700745616481662,30.680414532602512,34.993470512474914,32.16602270344745,1577399139.0,-27.7025916300738,-51.109378080565456,25.483974
13435,1577399139.75,-1.7993622576904296,-1.140238540649414,8.952997398071288,-1.2002541688500374,-1.7282048324957116,6.462709417873476,-0.960872932942708,-0.8284507792154951,9.492553544108072,-0.2971649169921875,-0.7255554199218749,4.656219482421875,3.0962316001333843,0.89301132574314,5.013070455411585,-1.8190656389508928,-1.5665690104166663,9.593055361793157,3.0730024047546407,-5.172047763193596,-2.439436431623926,0.1860353638131348,-40.05868945868946,2.5645649330928464,30.680414532602512,35.065354778806125,32.237906969778656,1577399139.0,-27.7025916300738,-51.109378080565456,25.483974
13436,1577399139.76,-0.7411251239013662,-1.7579425689697266,8.249102109985351,0.4254087583960553,-1.943682981909774,7.4299668885766,-2.1136810323079422,-1.0870245585123697,10.851262986246743,-3.776168823242188,-6.127166748046875,4.900360107421875,-3.144613126429116,-12.44317031488186,4.829964986661585,-0.5373273577008928,-0.0864664713541666,4.145667666480655,3.79606179410867,-6.67664347612264,0.1626290954415977,2.333309214790685,-32.936589336589336,-4.348610103940056,30.872105909485725,34.993470512474914,32.16602270344745,1577399139.0,-27.7025916300738,-51.109378080565456,25.483974
13437,1577399139.77,-1.6557101580810545,-0.7739256866455078,9.39831890686035,-2.1890594544945685,-2.381821885718368,10.32934509902582,-2.7984227071126297,-1.7286706034342447,11.617407517496744,1.2287139892578125,-1.244354248046875,4.747772216796875,-2.015462735804116,-8.35381484613186,5.104623189786585,1.9345964704241072,6.749471028645833,4.206702822730655,3.79606179410867,-6.67664347612264,0.1626290954415977,5.017401528512633,-3.973382173382172,7.024677860210852,30.5845688441609,34.94554766825411,32.16602270344745,1577399139.0,-27.7025916300738,-51.109378080565456,25.483974
13438,1577399139.78,-1.2379219683837883,-1.5508441253662109,10.01243163269043,-0.3287647645531624,-1.1224718124761806,9.431519476467226,-1.2996524678548171,0.7804527364095042,9.11786098429362,0.5420684814453125,-1.412200927734375,4.701995849609375,-1.954427579554116,3.700628513243141,4.280648580411585,-0.3542218889508928,5.009969075520833,3.2911754789806547,3.886444217777923,-6.7706807081807066,-0.7318309294871764,3.943764603023849,-3.0237688237688283,8.214041307442319,30.680414532602512,35.13723904513733,32.118099859226646,1577399139.0,-27.7025916300738,-51.109378080565456,25.483974
13439,1577399139.79,-1.6245855364990232,-0.1849520782470703,11.787732163696289,-2.1471609254418342,0.3655245193109283,11.574329962307068,0.3810770975748696,-0.9397811564127602,7.376079276529947,0.7709503173828125,-1.396942138671875,4.534149169921875,6.514200350133384,-3.2726380883193595,5.119881978849085,1.5683855329241072,-8.036295572916666,1.8110729399181549,5.242180572816732,-5.172047763193596,-0.8131454772079686,3.675355371651653,-20.35421245421245,2.899073402626699,30.680414532602512,35.065354778806125,32.14206128133705,1577399139.0,-27.7025916300738,-51.109378080565456,25.483974
13440,1577399139.8,-2.512834352416992,-0.5201403106689453,11.498033762817382,0.1907769957007428,-2.1854973495855554,6.680581768947694,-0.8591193623860673,-1.5706532938639322,10.753100718180338,-1.6094207763671875,-4.174041748046875,4.534149169921875,-5.097738126429116,-0.5413148461318598,3.426156392911585,3.002711704799107,-7.441202799479167,6.251380557105655,2.7114727100776186,-5.548196691425854,-1.7889200498575484,2.333309214790685,-33.88620268620268,-4.94329182755579,30.680414532602512,34.993470512474914,32.16602270344745,1577399139.0,-27.7025916300738,-51.109378080565456,25.483974
13441,1577399139.81,-1.5048754534912108,-0.3788824127197265,8.553165720825195,-1.712613324123475,-0.2054925766363367,10.461026190334412,-0.7657454976399736,-1.1133607767740883,11.689233567301432,-0.3276824951171875,-4.021453857421875,4.412078857421875,-0.7947596108041157,-0.5107972680068598,4.402718892911585,2.270289829799107,-4.389444986979167,7.350013369605655,2.7114727100776186,-5.548196691425854,-1.7889200498575484,-1.9612384871644155,-34.83581603581603,11.707796433684758,30.5845688441609,35.13723904513733,32.07017701500584,1577399139.0,-27.7025916300738,-51.109378080565456,25.483974
13442,1577399139.82,-1.4306552020263663,-0.9810241302490234,8.586684544067381,-1.5067119813500374,-1.1859181564703212,8.605519903713319,-0.3515486104329428,0.5434267720540354,11.095471555582682,-0.1750946044921875,-4.143524169921875,4.747772216796875,2.7757970298208843,-3.4862611351943595,4.509530416349085,1.2326921735491072,-4.587809244791667,4.954383486793155,3.073002404754637,-5.9243456196581175,-1.3010327635327583,13.069678469678458,-32.936589336589336,9.700745616481656,30.608530266271305,34.993470512474914,32.118099859226646,1577399139.0,-27.7025916300738,-51.109378080565456,25.483974
13443,1577399139.83,-1.363617555541992,-1.8944120635986328,8.730336643676758,-1.2864454286156624,-2.084940879858993,11.148162066799255,-1.6204754903157546,1.67109575398763,13.1903980082194,-1.0906219482421875,-5.760955810546875,4.747772216796875,0.3649083579458843,-14.82354140863186,4.829964986661585,1.2326921735491072,5.345662434895833,1.2464977446056549,5.60371026749375,-4.795898834961333,-0.8131454772079686,-0.8876015616756432,-4.448188848188844,-4.199939673036125,30.728337376823312,35.13723904513733,32.118099859226646,1577399139.0,-27.7025916300738,-51.109378080565456,25.483974
13444,1577399139.84,-1.794573854370117,-0.326209976196289,10.77737906311035,-2.205818866115662,-2.029874241675399,9.170551495510194,-0.7657454976399736,-2.5498817728678382,14.792118918863933,2.0221710205078125,-2.770233154296875,4.839324951171875,0.8531896079458843,0.8930113257431402,5.745492330411585,2.239772251674107,19.688924153645832,1.1549450102306549,5.242180572816732,-5.9243456196581175,0.4878872863247865,2.333309214790685,-4.448188848188844,6.9503426447588845,30.728337376823312,34.8017791355917,32.118099859226646,1577399139.0,-27.7025916300738,-51.109378080565456,25.483974
13445,1577399139.85,-1.0571597430419912,-0.623090982055664,11.445361326293945,-1.545019207912537,0.4002404433831935,12.860016253810974,-2.3674664082845047,-1.6712097635904948,8.129055698649088,0.1911163330078124,-3.899383544921875,4.778289794921875,2.2569982016958843,-3.62359023675686,4.097543111661585,-0.2931867327008928,18.040974934895832,1.2159801664806549,5.422945420155245,-5.736271155541987,-0.6505163817663776,2.333309214790685,0.299877899877894,8.288376522894284,30.77626022104412,34.993470512474914,32.16602270344745,1577399139.0,-27.7025916300738,-51.109378080565456,25.483974
13446,1577399139.86,-0.3939658831787099,-1.0851719024658202,8.507675889282226,0.8803070738257428,-0.5119503891363367,12.170486175685976,-0.6005455830891924,-1.9633023661295568,5.828227903238932,0.1911163330078124,-2.983856201171875,4.564666748046875,3.3251134360708843,-2.0366761742568595,5.348763814786585,-0.9950910295758928,8.946736653645834,1.5821911039806549,5.422945420155245,-5.736271155541987,-0.6505163817663776,-1.9612384871644155,0.299877899877894,7.0990130756628185,30.728337376823312,34.993470512474914,32.16602270344745,1577399139.0,-27.7025916300738,-51.109378080565456,25.483974
13447,1577399139.87,-1.2774262957763665,-0.6147112762451171,9.728718735961913,-1.0494194642601935,-0.9895936203375084,12.942616211086364,0.1404598307291665,-3.1280814737955724,10.762677524820964,0.2216339111328125,-3.990936279296875,4.778289794921875,2.8520909751333843,-7.3162171898818595,3.746590963224085,1.3700212751116072,-4.923502604166667,5.869910830543155,4.790268454470467,-6.2064573158323135,-0.7318309294871731,-6.255786189119516,-34.83581603581604,4.125604457584151,30.704375954712912,35.065354778806125,32.14206128133705,1577399139.0,-27.7025916300738,-51.109378080565456,25.483974
13448,1577399139.88,-0.2024297503662099,-0.5943605621337891,9.793362180786133,-1.1619469422875373,0.0458985976800685,9.577565777736757,0.9221666727701816,-0.8164797709147134,11.318132309977212,-0.1140594482421875,-3.044891357421875,4.961395263671875,-5.341878751429116,1.83905624761814,4.311166158536585,3.063746861049107,3.087361653645833,8.540198916480655,5.242180572816732,-7.052792404354904,-0.8131454772079686,3.406946140279458,-34.83581603581603,10.518432986453288,30.680414532602512,35.13723904513733,32.45355976877228,1577399139.0,-27.7025916300738,-51.109378080565456,25.483974
13449,1577399139.89,-0.5136759661865224,-0.0556651885986328,10.236289487915036,-0.3167937562523811,0.6085359878167872,12.730729364162537,0.7904855814615879,-0.0910366678873697,13.987667161051432,0.3131866455078124,-4.021453857421875,4.717254638671875,3.3251134360708843,0.1605894507431402,4.005990377286585,-1.0256086077008928,2.934773763020833,6.892249697730655,4.157591488785688,-5.548196691425854,-1.138403668091164,-3.571693875397591,-34.36100936100936,7.619359583826587,30.5845688441609,35.13723904513733,32.26186839188906,1577399139.0,-27.7025916300738,-51.109378080565456,25.483974
13450,1577399139.9,-0.5495889910888663,-1.1091139190673829,8.79138878601074,-2.289615924221131,-0.5957474472418054,7.949508648830506,-0.2988761739095049,3.1315587666829416,10.537622568766276,-0.6786346435546875,-4.219818115234375,4.839324951171875,2.6537267173208843,-7.8350160180068595,4.982552877286585,0.9275163922991072,18.040974934895832,3.2911754789806547,3.0730024047546407,-5.172047763193596,-1.4636618589743595,0.1860353638131292,-41.48310948310948,7.545024368374619,30.728337376823312,34.993470512474914,32.30979123610986,1577399139.0,-27.7025916300738,-51.109378080565456,25.483974
13451,1577399139.91,-0.4633977313232412,-0.9127893829345702,10.446979234008788,1.1340924498023053,0.3619332168206934,11.8736051698266,1.302844736735025,-2.8192294596354164,12.739090995279946,2.3273468017578125,-1.702117919921875,4.808807373046875,4.316934725133384,-1.82305312738186,4.570565572599085,-0.4915509905133928,30.55318196614584,0.4682995024181548,2.7114727100776186,-7.052792404354904,-0.8131454772079686,-2.7664661812810087,-22.253439153439157,7.359186329744702,30.92002875370653,34.96950909036451,32.18998412555785,1577399139.0,-27.7025916300738,-51.109378080565456,25.483974
13452,1577399139.92,-1.2798204974365233,0.0377086761474609,12.896247532348632,-2.907319952541444,-1.9939612167730556,12.467367181545349,-4.076926393636067,-0.5650885965983071,8.215246958414713,3.731155395507813,-0.9391784667968748,4.686737060546875,-3.846517423304116,-1.4568421898818598,4.158578267911585,-1.3918195452008928,17.705281575520832,2.2230602446056547,4.157591488785688,-5.172047763193596,-0.8131454772079686,28.637413889265726,-49.55482295482295,7.024677860210852,30.728337376823312,35.28100757779974,32.26186839188906,1577399139.0,-27.7025916300738,-51.109378080565456,25.483974
13453,1577399139.93,-1.861611500854492,-1.006163247680664,12.326427537231444,-0.7549326600609749,-0.7561589584722742,9.520104937893006,0.0291294535319003,1.5849044942220052,9.898370725504558,2.6935577392578125,0.2815246582031251,4.381561279296875,2.4095860923208843,-8.68950820550686,4.311166158536585,0.7444109235491072,7.573445638020833,4.542396182105655,4.699886030801212,-4.983973299077465,0.3252581908831954,3.406946140279458,-4.448188848188844,-1.3752014858613844,30.5366459999401,34.94554766825411,31.97433132656424,1577399139.0,-27.7025916300738,-51.109378080565456,25.483974
13454,1577399139.94,-1.8280926776123043,-1.2240355987548828,10.05073885925293,-0.6543761903344124,-1.8311555038824303,12.3332918885766,-0.8974265889485673,0.1579603047688793,12.299754990641276,0.0537872314453124,-3.395843505859375,4.549407958984375,0.2428380454458842,3.2123472632431405,6.020150533536585,0.7749285016741072,2.232869466145833,4.511878603980655,5.061415725478226,-4.983973299077465,-1.3010327635327552,-0.3507830989312626,-2.074155474155475,-6.058320059335285,30.77626022104412,35.13723904513733,32.30979123610986,1577399139.0,-27.7025916300738,-51.109378080565456,25.483974
13455,1577399139.95,-0.8560468035888662,-1.0588356842041016,9.599431846313475,-1.7652857606469123,-0.9632574020757902,11.56595025649652,-1.577379860432942,0.1376095906575521,11.547975669352214,0.9540557861328124,-1.854705810546875,4.808807373046875,-1.7560633217416155,-2.1587464867568595,3.029427877286585,-2.337864467075893,8.061726888020834,7.304237002418155,4.519121183462703,-6.67664347612264,0.4878872863247865,0.454444595185325,-32.69918599918599,9.812248439659603,30.680414532602512,34.94554766825411,32.285829813999456,1577399139.0,-27.7025916300738,-51.109378080565456,25.483974
13456,1577399139.96,-0.729154115600585,-1.4921861846923827,9.661681089477538,-1.8538712220726936,-0.7753125717535243,11.636579205471133,-0.8040527242024736,0.1220472798665355,12.026816001383462,0.7099151611328125,-3.502655029296875,5.480194091796875,1.8602696860708845,-6.33965468988186,4.860482564786585,-1.4528547014508928,12.852986653645834,4.847571963355655,3.615296946770161,-3.855526514380679,-0.6505163817663776,28.10059542652133,-34.83581603581603,8.139706091990352,30.680414532602512,34.8017791355917,32.16602270344745,1577399139.0,-27.7025916300738,-51.109378080565456,25.483974
13457,1577399139.97,-1.6868347796630858,-1.3269862701416015,11.964903086547851,-0.1611706483422249,-2.1998625595464927,8.916766119533632,-0.3539428120930986,-1.6903633768717448,10.461008115641276,1.7780303955078125,-5.425262451171875,5.846405029296875,3.965982576695884,7.8815367163681405,5.135140767911585,3.094264439174107,16.393025716145832,4.450843447730655,3.253767252093146,-6.112420083774247,-0.9757745726495664,-5.718967726375147,-0.1749287749287778,-4.868956612103822,30.728337376823312,34.94554766825411,32.357714080330666,1577399139.0,-27.7025916300738,-51.109378080565456,25.483974
13458,1577399139.98,-1.3755885638427732,-1.2623428253173827,12.407830393676756,0.8467882505835553,-1.8574917221441487,10.044435101467224,0.4313553324381504,-1.992032786051432,13.587835483805335,2.4188995361328125,-5.242156982421875,5.419158935546875,8.146890779820884,-4.32549453363186,4.189095846036585,0.2866472516741072,21.397908528645832,2.3451305571056547,4.519121183462703,-5.172047763193596,0.1626290954415977,-3.034875412653199,-0.6497354497354497,-3.7539283803243206,30.728337376823312,35.233084733578934,32.45355976877228,1577399139.0,-27.7025916300738,-51.109378080565456,25.483974
13459,1577399139.99,-0.9637858782958976,-0.8732850555419921,11.481274351196287,-0.1695503541527722,-0.0079709396734466,12.28061945205316,-2.290851955159505,-1.4317895975748698,10.24193866373698,3.5785675048828125,-2.709197998046875,5.419158935546875,1.1278478110708845,-3.3947084008193595,4.021249166349085,0.7596697126116072,18.590291341145832,3.611610049293155,3.253767252093146,-5.736271155541987,0.0,-6.255786189119516,-25.33968253968253,7.76803001473052,30.728337376823312,35.04139335669572,32.33375265822026,1577399139.0,-27.7025916300738,-51.109378080565456,25.483974
13460,1577399140.0,-0.2311601702880849,-0.4004302276611328,10.54753570373535,-0.3551009828148811,-0.9500892929449304,13.360404400783631,-2.1352288472493486,0.4620239156087231,4.851393625895182,2.9987335205078125,-2.434539794921875,5.052947998046875,0.6090489829458843,-4.66118789300686,4.585824361661585,5.291530064174108,1.0426839192708333,5.427405947730655,3.0730024047546407,-5.548196691425854,-0.8131454772079686,-6.255786189119516,-48.13040293040292,6.9503426447588845,30.680414532602512,35.13723904513733,32.07017701500584,1577399140.0,-27.70237307635104,-51.10945613271453,25.552118
13461,1577399140.01,-1.109832179565429,-1.3964181182861328,11.426207713012694,-1.0470252626000374,-0.4066055160894617,8.967044354396913,-0.3994326436360673,0.155566103108723,8.708452500406901,0.4352569580078124,-5.699920654296875,5.419158935546875,6.651529451695884,-8.04863906488186,3.853402486661585,5.352565220424108,-6.495157877604167,4.756019228980655,5.422945420155245,-5.360122227309726,-0.9757745726495664,-4.108512338141983,-47.18078958078958,9.626410401029688,30.728337376823312,34.993470512474914,32.118099859226646,1577399140.0,-27.70237307635104,-51.10945613271453,25.552118
13462,1577399140.02,-0.8321047869873037,0.1358709442138671,10.279385117797853,0.2626030455054308,-0.826787907446884,10.256321948391053,0.4912103739420571,-3.1580089945475254,11.769439322916666,3.822708129882813,-3.289031982421875,5.510711669921875,4.500040193883384,-2.50969863519436,3.929696431974085,2.331324986049107,-7.364908854166666,4.923865908668155,4.157591488785688,-5.172047763193596,-0.4878872863247798,-5.718967726375147,-33.41139601139601,9.403404754673788,30.5845688441609,34.873663401922904,32.16602270344745,1577399140.0,-27.70237307635104,-51.10945613271453,25.552118
13463,1577399140.03,-0.6788758807373038,-0.5943605621337891,10.063906968383789,-0.8459123231469123,-1.5534281113043054,11.93106600967035,-0.7848991109212236,0.021490810139973,11.20560483194987,3.914260864257813,-1.976776123046875,5.556488037109375,-5.616536954554116,-3.95928359613186,3.578744283536585,5.047389439174108,-4.358927408854167,6.007239932105655,2.892237557416128,-6.112420083774247,-1.3010327635327552,28.10059542652133,-34.83581603581603,8.139706091990352,30.656453110492105,35.13723904513733,31.97433132656424,1577399140.0,-27.70237307635104,-51.10945613271453,25.552118
13464,1577399140.04,-1.2630610858154294,-0.1801636749267578,9.994475120239256,-2.0669551698266,1.113712538109756,10.484968206935974,-1.3810553243001298,1.948823146565755,10.319750217692055,1.7780303955078125,-2.037811279296875,5.297088623046875,5.919107576695884,-3.2573792992568595,4.707894674161585,4.559108189174108,-6.922403971354167,5.976722353980655,3.9768266414471753,-3.855526514380679,-0.9757745726495664,3.406946140279458,-2.548962148962147,6.9503426447588845,30.728337376823312,34.993470512474914,32.16602270344745,1577399140.0,-27.70237307635104,-51.10945613271453,25.552118
13465,1577399140.05,-0.6980294940185537,-0.5105635040283203,9.549153611450194,-2.8761953309594124,-0.5622286239996179,10.049223504787538,-0.4880181050618486,-3.612907309977213,10.310173411051432,-0.8464813232421875,-5.944061279296875,5.327606201171875,5.797037264195884,0.0385191382431402,4.433236471036585,1.6599382672991072,-6.769816080729167,3.4742809477306547,3.434532099431656,-5.9243456196581175,-0.162629095441591,2.333309214790685,-2.548962148962147,6.9503426447588845,30.5845688441609,34.993470512474914,32.30979123610986,1577399140.0,-27.70237307635104,-51.10945613271453,25.552118
13466,1577399140.06,-0.4155136981201162,-1.2431892120361328,9.546759409790038,-1.6551524842797247,0.203915907250381,11.883181976467224,0.2661554178873691,-1.4389722025553384,9.345310142008463,2.2052764892578125,-1.641082763671875,5.052947998046875,0.3038732016958843,-3.77617812738186,4.128060689786585,5.779811314174108,-5.793253580729167,5.396888369605655,4.8806508781397175,-5.9243456196581175,-0.162629095441591,3.943764603023849,-43.85714285714285,7.024677860210852,30.680414532602512,35.13723904513733,32.30979123610986,1577399140.0,-27.70237307635104,-51.10945613271453,25.552118
13467,1577399140.07,-1.0571597430419912,-0.5165490081787109,11.23706578186035,0.1895798948706652,-0.4999793808355554,10.419127661281678,-2.225011409505208,-1.069068046061198,11.191239621988933,3.3191680908203125,0.785064697265625,5.083465576171875,6.422647615758384,-3.60833144769436,4.875741353849085,2.255031040736607,-12.522379557291668,4.923865908668155,3.253767252093146,-4.23167544261294,0.9757745726495798,0.7228538265575208,-40.53349613349613,8.734387815606087,30.728337376823312,34.993470512474914,32.40563692455147,1577399140.0,-27.70237307635104,-51.10945613271453,25.552118
13468,1577399140.08,-1.3109451190185546,-0.1801636749267578,9.431837730102538,-3.2616617982445684,-1.292460130347274,11.219988116603943,-1.768915993245442,-1.9249951395670573,10.836897776285808,-1.4263153076171875,-5.394744873046875,5.144500732421875,-3.053060392054116,2.2357847632431405,4.189095846036585,1.9956316266741072,-7.471720377604167,5.244300478980655,3.253767252093146,-4.23167544261294,0.9757745726495798,-5.182149263630755,-31.03736263736264,8.437046953798218,30.77626022104412,34.94554766825411,32.26186839188906,1577399140.0,-27.70237307635104,-51.10945613271453,25.552118
13469,1577399140.09,-0.8368931903076162,-0.4866214874267577,9.345646470336913,1.2370431211890238,-0.3611156845464929,9.424336871486757,-0.9788294453938798,2.530614149983723,8.751548130289713,-0.2666473388671875,-4.204559326171875,5.175018310546875,-4.151693204554116,1.90009140386814,3.609261861661585,4.803248814174108,-4.633585611979167,5.366370791480655,4.699886030801212,-5.360122227309726,0.3252581908831954,-0.8876015616756432,-4.448188848188844,12.005137295492622,30.5845688441609,34.993470512474914,32.07017701500584,1577399140.0,-27.70237307635104,-51.10945613271453,25.552118
13470,1577399140.1,-0.146166011352538,0.0760159027099609,9.579081132202148,-0.6855008119164436,0.7426112807855372,10.382017535549256,-1.0793859151204424,-3.4357363871256505,8.88801762491862,0.6793975830078125,-0.511932373046875,5.388641357421875,0.5480138266958843,-4.60015273675686,5.623422017911585,-1.6969953264508928,-5.671183268229167,7.472083682105655,3.524914523100908,-5.454159459367791,0.0813145477207988,2.333309214790685,-4.448188848188844,11.856466864588688,30.5606074220505,34.993470512474914,32.16602270344745,1577399140.0,-27.70237307635104,-51.10945613271453,25.552118
13471,1577399140.11,0.0872686505126953,-0.7428010650634765,8.878777146606444,-1.2625034120141003,-0.740596647681259,10.41074795547113,-1.461261079915364,-0.1137815836588545,10.422700889078776,-1.2126922607421875,-0.7865905761718749,5.113983154296875,6.559976717320884,-5.89714980706936,5.165658346036585,0.9580339704241072,-3.382364908854167,5.366370791480655,3.79606179410867,-5.9243456196581175,0.1626290954415977,15.216952320656008,-39.109076109076106,8.511382169250185,30.5845688441609,35.18516188935813,32.07017701500585,1577399140.0,-27.70237307635104,-51.10945613271453,25.552118
13472,1577399140.12,-0.0228646258544912,-0.527322915649414,10.506834275512697,2.261761431735899,-0.8423502182378992,12.220764410549256,-1.6683595235188795,0.7229918965657542,9.67331576944987,-0.3887176513671875,-0.2983093261718749,5.510711669921875,-7.447591642054116,2.1442320288681405,5.257211080411585,-1.5138898577008928,-0.6052652994791667,2.4672008696056547,3.79606179410867,-5.9243456196581175,0.1626290954415977,-5.718967726375147,-41.95791615791616,7.322018722018717,30.680414532602512,35.13723904513733,32.26186839188906,1577399140.0,-27.70237307635104,-51.10945613271453,25.552118
13473,1577399140.13,-0.1377863055419912,-0.517746109008789,10.468527048950197,-1.025477447658631,-0.514344590796493,8.543270660549256,-0.0642444112141923,-2.513968747965494,9.148985605875652,-0.2361297607421875,1.227569580078125,4.686737060546875,4.301675936070884,-4.44756484613186,5.867562642911585,2.636500767299107,-1.6428629557291667,3.3827282133556547,3.434532099431656,-5.9243456196581175,-0.8131454772079686,2.333309214790685,-53.82808302808303,7.693694799278552,30.392877467277685,34.8017791355917,32.26186839188906,1577399140.0,-27.70237307635104,-51.10945613271453,25.552118
13474,1577399140.14,-0.824922182006835,0.1550245574951171,10.96891519592285,0.193171197360899,-0.8519270248785242,12.182457183986756,1.3219983500162753,0.7732701314290354,9.247147873942058,0.3131866455078124,2.753448486328125,4.412078857421875,-3.266683438929116,6.0199644507431405,4.280648580411585,-1.4833722795758928,-11.469523111979166,5.427405947730655,3.253767252093146,-4.983973299077465,0.6505163817663843,4.48058306576823,-46.23117623117623,-1.2265310549574535,30.680414532602512,34.993470512474914,32.07017701500584,1577399140.0,-27.70237307635104,-51.10945613271453,25.552118
13475,1577399140.15,-1.5264232684326169,-0.5392939239501953,11.181999143676755,-0.7812688783226936,-2.2836596176519617,9.888811993557068,-0.6029397847493486,0.806788954671223,12.038787009684244,-0.6633758544921875,1.807403564453125,4.564666748046875,0.4259435141958843,-4.32549453363186,5.623422017911585,0.3171648297991072,-3.657023111979168,4.633948916480655,3.79606179410867,-4.419749906729072,1.4636618589743662,-6.255786189119516,-46.23117623117623,-1.2265310549574535,30.872105909485725,34.89762482403331,32.07017701500584,1577399140.0,-27.70237307635104,-51.10945613271453,25.552118
13476,1577399140.16,-1.1253944903564448,-1.1546037506103517,9.592249241333008,-2.907319952541444,-0.8615038315191492,7.899230413967225,-0.1959255025227861,-3.6488203348795567,13.281377671305338,-1.6857147216796875,-0.542449951171875,4.824066162109375,2.3790685141958843,-3.86773086175686,4.982552877286585,-1.3918195452008928,2.507527669270833,6.312415713355655,4.067209065116433,-6.206457315832315,0.7318309294871865,-1.4244200244200351,-57.15172975172975,7.173348291114784,30.656453110492105,34.993470512474914,32.26186839188906,1577399140.0,-27.70237307635104,-51.10945613271453,25.552118
13477,1577399140.17,-1.188840834350585,0.3178302703857422,12.307273923950197,0.3835102293433209,-1.042266056860946,10.209635016018003,-1.4887943990071608,-0.7207117045084633,12.350033225504555,-1.4263153076171875,-1.335906982421875,5.449676513671875,-0.2149256264291159,-3.3641908226943595,5.043588033536585,2.911158970424108,13.249715169270832,6.159827822730655,2.7114727100776186,-5.548196691425854,-0.4878872863247798,0.4544445951853253,-3.735978835978836,10.55560059417927,30.5845688441609,35.08931620091652,32.07017701500584,1577399140.0,-27.70237307635104,-51.10945613271453,25.552118
13478,1577399140.18,-0.8225279803466787,-0.9534908111572266,10.195588059692382,-2.8666185243187874,-0.8950226547613368,7.506581341701601,-1.89820288289388,3.763628004964192,9.927101145426432,-1.3042449951171875,0.1899719238281251,4.930877685546875,-5.586019376429116,3.2428648413681405,5.531869283536585,-5.847385951450892,18.803914388020832,4.237220400855655,2.7114727100776186,-5.548196691425854,-0.4878872863247798,-5.182149263630755,-34.83581603581603,7.0990130756628185,30.680414532602512,34.993470512474914,32.26186839188906,1577399140.0,-27.70237307635104,-51.10945613271453,25.552118
13479,1577399140.19,-0.4490325213623036,-1.4682441680908205,8.158122446899414,0.3511885069312116,-1.2302108871832116,11.485744500881289,-2.6188575826009117,-2.2913079935709635,11.43544819132487,-1.7314910888671875,-0.6340026855468749,4.717254638671875,6.590494295445884,-1.4873597680068598,5.013070455411585,-3.802708217075893,21.123250325520832,2.1009899321056547,2.7114727100776186,-5.172047763193596,-1.138403668091164,-5.182149263630755,-34.83581603581603,7.0990130756628185,30.5845688441609,34.993470512474914,32.30979123610986,1577399140.0,-27.70237307635104,-51.10945613271453,25.552118
13480,1577399140.2,0.214161338500977,-0.6781576202392577,9.178052354125976,-0.3359473695336311,-1.3259789535894615,11.19604610000238,-2.4512634663899733,-1.3647519510904946,6.922378061930338,-1.6857147216796875,1.700592041015625,4.442596435546875,1.0668126548208845,2.2052671851181405,4.707894674161585,-0.8730207170758928,17.644246419270832,2.8334118071056547,4.157591488785686,-5.172047763193595,-0.4878872863247832,7.70149384223457,-46.23117623117623,7.99103566108642,30.5845688441609,34.94554766825411,32.26186839188906,1577399140.0,-27.70237307635104,-51.10945613271453,25.552118
13481,1577399140.21,0.0537498272705078,-0.5512649322509765,11.105384690551755,0.2614059446753527,-0.0175477463140715,10.095910437160583,0.6935204142252598,-1.608960520426432,6.202920463053385,-0.4497528076171875,2.906036376953125,4.656219482421875,-6.547323087366616,-1.77727676019436,4.280648580411585,-1.1171613420758928,-11.713663736979168,4.496619814918155,3.0730024047546407,-4.419749906729072,-0.8131454772079686,1.7964907520462936,-43.85714285714285,7.6193595838265855,30.728337376823312,35.04139335669572,32.26186839188906,1577399140.0,-27.70237307635104,-51.10945613271453,25.552118
13482,1577399140.22,-1.4929044451904294,-0.1777694732666015,10.935396372680662,-2.026253741603944,-1.9556539902105552,10.21442341933832,1.032299949137369,1.9224869283040364,12.429041880289711,-0.2666473388671875,5.377960205078125,4.503631591796875,-0.4285486733041157,-5.94292617425686,4.341683736661585,-1.3307843889508928,-12.140909830729166,6.251380557105655,3.0730024047546407,-4.419749906729072,-0.8131454772079686,-0.8876015616756432,-34.83581603581603,7.545024368374619,30.680414532602512,34.993470512474914,32.30979123610986,1577399140.0,-27.70237307635104,-51.10945613271453,25.552118
13483,1577399140.23,-1.6485275531005856,-1.906383071899414,10.34881696594238,-1.6790945008812874,0.223069520531631,12.177668780666442,-0.6508238179524736,-2.0494936258951824,12.632549021402994,-0.4497528076171875,3.913116455078125,4.930877685546875,1.4940587485708845,-0.8770082055068598,4.555306783536585,-3.100803920200893,-8.295694986979166,6.098792666480655,4.519121183462703,-5.172047763193596,-0.162629095441591,-0.8876015616756432,-34.83581603581603,7.545024368374619,30.680414532602512,35.08931620091653,32.16602270344745,1577399140.0,-27.70237307635104,-51.10945613271453,25.552118
13484,1577399140.24,-1.3085509173583978,-0.7835024932861328,11.023981834106444,-0.291654638820741,-0.7753125717535243,8.366099737697695,-0.2354298299153646,-1.4210156901041666,10.684865970865886,-0.7854461669921875,0.662994384765625,5.129241943359375,-1.1457117592416155,2.8919126929306405,4.875741353849085,0.7749285016741072,-3.0008951822916665,6.480262393043155,3.6152969467701626,-6.300494547890379,0.4878872863247865,15.216952320656008,-18.217582417582417,8.660052600154119,30.77626022104412,34.993470512474914,32.21394554766825,1577399140.0,-27.70237307635104,-51.10945613271453,25.552118
