,timestamp,acc_x_dashboard,acc_y_dashboard,acc_z_dashboard,acc_x_above_suspension,acc_y_above_suspension,acc_z_above_suspension,acc_x_below_suspension,acc_y_below_suspension,acc_z_below_suspension,gyro_x_dashboard,gyro_y_dashboard,gyro_z_dashboard,gyro_x_above_suspension,gyro_y_above_suspension,gyro_z_above_suspension,gyro_x_below_suspension,gyro_y_below_suspension,gyro_z_below_suspension,mag_x_dashboard,mag_y_dashboard,mag_z_dashboard,mag_x_above_suspension,mag_y_above_suspension,mag_z_above_suspension,temp_dashboard,temp_above_suspension,temp_below_suspension,timestamp_gps,latitude,longitude,speed
61715,1577397674.88,2.4480419999285434,-0.4200947986137572,9.74901397466892,2.302287674471227,-0.5629877611113752,8.33701894680116,2.8756642130533847,-0.5945600789388017,8.12136005045573,0.2058075695503048,-0.1019733708079267,-6.413157393292683,-0.8222998642339938,0.4674399771341463,-7.001365103372713,0.0401451474144345,-17.18539283389137,-7.661546979631696,5.087265181075743,-27.486972298534795,2.866098646723648,-0.2900363814426315,-37.18350478610895,-5.991727197119726,30.5366459999401,34.17878216072124,34.17878216072124,1577397673.999,-27.7085472744395,-51.12246742028885,14.145406
61716,1577397674.89,2.118839271657059,-0.2094050525200072,9.593390866758766,1.8557690648520864,-0.2720922594023912,9.073235957299207,1.9586849772135413,-0.535902138264974,11.991587034098306,-0.0841094226371951,-0.9869831364329268,-6.428416182355183,-1.8598975204839936,-3.1183754525533534,-6.162131704935213,-0.2497718447730654,-6.885710216703869,-4.213060651506696,5.136656105163857,-27.00754836309524,2.7296177587844244,-2.379739502395749,-49.59682171609254,-16.570651524824548,30.41683888938808,34.10689789439003,34.27462784916285,1577397673.999,-27.7085472744395,-51.12246742028885,14.145406
61717,1577397674.9,2.4719840165301066,-0.2094050525200072,9.763379184629857,2.927174307772008,-0.5222863328887188,9.740021119652722,1.9922038004557288,1.2753114176432283,9.593794071451825,0.5415009289253049,-1.383711652057927,-6.230051924542683,-2.378696348608994,1.7186606802591464,-6.604636587747713,-0.5702064150855655,2.071198962983631,-6.837572370256696,5.087265181075743,-26.208508470695968,3.412022198480529,-2.379739502395749,-49.59682171609254,-25.97413981611772,30.48872315571929,34.46631922604607,34.03501362805883,1577397673.999,-27.7085472744395,-51.12246742028885,14.145406
61718,1577397674.91,2.333120320241043,-0.2788369006645385,11.216659592344705,2.0101950719321646,0.0451394605683113,8.521372474633193,2.02332842203776,-2.739764766438802,9.086223319498698,0.3889130383003049,-0.8649128239329268,-6.657298018292683,-4.209751036108994,-1.8213783822408536,-6.665671743997713,-1.0584876650855657,-1.896086193266369,-6.959642682756696,5.087265181075743,-26.208508470695968,3.412022198480529,-10.73855198620824,-44.48545592139342,-4.816291160708081,30.5366459999401,34.370473537604454,34.17878216072124,1577397673.999,-27.7085472744395,-51.12246742028885,14.145406
61719,1577397674.92,2.9304736344500286,-0.2141934558403202,8.893086881163061,1.8258415441001328,-0.1942807054473126,8.686572389183974,1.7336300211588538,-0.165997981770833,10.23304591471354,-1.3200713366996952,-0.6207721989329268,-6.626780440167683,-1.0664404892339938,-0.1429115853658536,-6.177390493997713,-1.1195228213355657,-1.163664318266369,-5.769457135881696,4.988483332899516,-28.12620421245421,2.5931368708452016,-10.73855198620824,-44.48545592139342,-4.816291160708081,30.46476173360889,34.08293647227963,34.370473537604454,1577397673.999,-27.7085472744395,-51.12246742028885,14.145406
61720,1577397674.93,2.601270906178544,-0.293202110625476,9.938155905821263,2.746412082430211,0.0379568555878431,8.963102680932021,2.2783108988444005,0.0626482767740883,8.455351182047526,0.0227021008003048,-0.5292194645579268,-6.199534346417683,-2.363437559546494,-1.0584389291158536,-5.963767447122713,-0.4023597353980654,-1.774015880766369,-7.447923932756696,4.889701484723288,-28.12620421245421,2.866098646723648,-1.4654943869787624,-50.327016829621,-1.8777010696789656,30.5366459999401,34.39443495971486,34.15482073861084,1577397673.999,-27.7085472744395,-51.12246742028885,14.145406
61721,1577397674.94,2.1224305741472933,0.1449367931831167,10.385871616270483,1.8737255773032584,-0.7784659105254377,7.630729457055068,3.1318437906901035,-1.863486958821614,9.529150626627604,0.6330536633003049,-0.4376667301829268,-6.199534346417683,-1.0969580673589938,-0.7532631478658537,-6.207908072122713,-0.1734778994605654,-6.992521740141369,-6.379808698381696,4.889701484723288,-28.12620421245421,2.866098646723648,-2.1185266122766127,-50.327016829621,-2.4654190878847912,30.728337376823312,34.27462784916285,34.17878216072124,1577397673.999,-27.7085472744395,-51.12246742028885,14.145406
61722,1577397674.95,2.184679817311356,-0.4895266467582885,10.112932627012672,3.432350858064977,-0.4289124681426251,8.7344564223871,2.8182033732096348,0.3655147867838535,10.05348079020182,-0.7097197741996951,-0.8649128239329268,-6.870921065167683,-4.911655332983994,0.5895102896341463,-6.329978384622713,-1.9740150088355648,-5.466642833891369,-5.159105573381696,4.889701484723288,-28.12620421245421,2.866098646723648,-2.379739502395749,-46.67604126197876,-7.167163233531377,30.5366459999401,34.27462784916285,34.27462784916285,1577397673.999,-27.7085472744395,-51.12246742028885,14.145406
61723,1577397674.96,2.099685658375809,-0.5457903857719604,9.265385239317355,2.1251167516196645,0.7849477735565926,9.684954481469129,2.301055814615885,-1.0494583943684892,9.778147599283852,-0.8317900866996952,-1.139571027057927,-6.565745283917683,-3.416294004858994,-2.248624475990854,-6.146872915872713,-0.0819251650855654,-0.5838303338913691,-5.769457135881696,4.889701484723287,-25.888892513736263,1.228327991452986,-2.2491330573361834,-45.58074859168609,-25.82721031156625,30.5366459999401,34.22670500494204,34.17878216072124,1577397673.999,-27.7085472744395,-51.12246742028885,14.145406
61724,1577397674.97,1.9213176346941685,-0.3841817737114135,10.56064833746189,2.030545786043493,-0.925709312625047,9.324627131615614,2.404006486002604,0.6552131876627597,10.211498099772134,0.7246063976753049,-1.627852277057927,-6.352122237042683,-2.485507872046494,0.2995932974466463,-6.329978384622713,-0.6465003603980656,3.520783923921132,-6.684984479631696,6.272647359190478,-25.56927655677656,1.774251543209873,-2.1185266122766127,-35.35801700228783,-24.798703779706077,30.5366459999401,34.32255069338365,34.058975050169224,1577397673.999,-27.7085472744395,-51.12246742028885,14.145406
61725,1577397674.98,2.06018133098323,-0.283625303984851,11.120891525938452,2.867319266268101,-0.0171097825957501,10.036902125512098,0.8932652384440101,-0.6017426839192704,9.790118607584636,-0.6181670398246951,-1.658369855182927,-6.291087080792683,0.7646141982660062,-0.8448158822408537,-6.177390493997713,-0.3260657900855654,5.061921619233631,-7.508959089006696,6.272647359190478,-25.56927655677656,1.774251543209873,-2.379739502395749,-50.327016829621,-5.991727197119726,30.5366459999401,34.22670500494204,34.08293647227963,1577397673.999,-27.7085472744395,-51.12246742028885,14.145406
61726,1577397674.99,2.560569477955888,-0.599659923125476,9.801686411192357,2.6063512853110704,-0.8048021287871564,9.67777187648866,1.4415374186197911,-0.0726241170247392,7.467742997233072,-1.3811064929496952,-0.6818073551829268,-6.626780440167683,-3.111118223608994,2.542635289634146,-5.872214712747713,-0.5396888369605655,-2.048674083891369,-6.532396589006696,6.272647359190478,-25.56927655677656,1.774251543209873,-2.379739502395749,-50.327016829621,-5.991727197119726,30.48872315571929,34.27462784916285,34.27462784916285,1577397673.999,-27.7085472744395,-51.12246742028885,14.145406
61727,1577397675.0,2.28403918620784,0.3819627575385859,9.16722297125095,1.5660706639731805,0.4018755079315926,7.970706092797255,1.4511142252604163,-1.346339400227864,7.176847495524088,-0.8470488757621952,-1.612593487995427,-6.718333174542683,-1.1274756454839938,-4.201749475990853,-6.391013540872713,-0.0971839541480654,-14.88131568545387,-7.524217878069196,5.482392573780654,-27.486972298534795,1.5012897673314267,-0.6818557166213414,-50.327016829621,-5.9917271971197295,30.440800311498485,34.32255069338365,34.058975050169224,1577397674.999,-27.708421106402223,-51.12242318892099,14.676555
61728,1577397675.01,2.850267878834794,-0.2716542956840698,8.367559616758765,2.460304984041539,-0.8095905321074689,6.783182069359755,1.7144764078776038,-0.5035804158528643,10.048692386881507,-1.0454131335746952,-2.1161335270579267,-6.687815596417683,-3.385776426733994,-2.004483850990854,-5.780661978372713,-1.4552161807105657,-14.774504162016369,-4.487718854631696,4.988483332899515,-27.16735634157509,3.684983974358964,-0.5512492715617705,-50.327016829621,-7.167163233531377,30.249108934615272,34.41839638182526,34.41839638182526,1577397674.999,-27.708421106402223,-51.12242318892099,14.676555
61729,1577397675.02,2.7664708207293254,-0.0585703479301635,8.343617600157202,2.2951050694907584,-0.2230111253691876,8.59319852443788,3.289861100260416,-1.940101411946614,11.059045487467444,-0.7097197741996951,-1.688887433307927,-6.596262862042683,-3.202670957983994,-3.469327600990854,-6.238425650247713,-2.0960853213355657,-5.985441662016369,-3.4806387765066966,4.988483332899515,-27.16735634157509,3.684983974358964,-1.33488794191919,-50.327016829621,-25.97413981611772,30.5845688441609,34.27462784916285,33.939167939617214,1577397674.999,-27.708421106402223,-51.12242318892099,14.676555
61730,1577397675.03,2.4624072098894816,-0.6619091662895386,10.242219516661107,2.563255655428258,-0.5701703660918439,9.29469961086366,3.2371886637369784,0.782105875651041,10.587387760416664,-0.1298857898246951,-2.3297565739329267,-6.504710127667683,-1.7683447861089938,-0.7837807259908537,-6.055320181497713,-1.5772864932105657,0.5148024786086309,-4.945482526506696,4.988483332899515,-27.16735634157509,3.684983974358964,-9.693700425731672,-44.48545592139342,-7.167163233531377,30.680414532602512,34.27462784916285,34.03501362805883,1577397674.999,-27.708421106402223,-51.12242318892099,14.676555
61731,1577397675.04,1.9308944413347933,-0.6690917712700073,12.128850424864233,1.8258415441001328,-0.7174137681914533,9.508980659447646,1.8066531717936196,0.964065201822916,9.30170146891276,-0.1298857898246951,-1.719405011432927,-6.413157393292683,-2.393955137671494,-1.3788734994283536,-6.528342642435213,-0.5091712588355655,-2.155485607328869,-7.631029401506696,5.2848288774282,-26.84774038461538,2.866098646723648,-9.693700425731672,-48.8666266025641,-5.404009178913907,30.5366459999401,34.39443495971486,34.22670500494204,1577397674.999,-27.708421106402223,-51.12242318892099,14.676555
61732,1577397675.05,2.2876304886980745,-0.202222447539539,10.352352793028295,3.394043631502477,0.7586115552948738,10.333783131371474,2.0113574137369787,-1.968831831868489,11.161996158854166,-1.7320586413871952,-2.4518268864329267,-6.687815596417683,-3.263706114233994,-1.4551674447408536,-5.811179556497713,-0.9669349307105656,-1.438322521391369,-7.264818464006696,5.383610725604427,-27.167356341575086,2.320175094966761,-0.8124621616809122,-47.406236375507206,-0.4084060241644108,30.512684577829692,34.46631922604607,34.17878216072124,1577397674.999,-27.708421106402223,-51.12242318892099,14.676555
61733,1577397675.06,2.242140657155106,-0.3482687488090698,10.160816660215795,2.347777506014196,-1.7145987596465313,8.99542440334413,0.8741116251627601,0.0470859659830722,10.218680704752602,-1.1674834460746952,-2.4213093083079267,-6.687815596417683,-4.209751036108994,-1.6993080697408536,-5.628074087747713,-0.7838294619605655,-1.957121349516369,-6.623949323381696,4.593355940194604,-28.44582016941392,0.9553662155745456,-1.33488794191919,-44.48545592139342,-2.4654190878847912,30.392877467277685,34.08293647227963,34.08293647227963,1577397674.999,-27.708421106402223,-51.12242318892099,14.676555
61734,1577397675.07,2.4121289750261994,-0.695427989531726,9.1480693579697,1.8569661656821643,-0.3953936449004376,9.227661964379283,2.5644179972330723,-0.9393251180013016,9.361556510416666,-1.0759307116996952,-2.5128620426829267,-6.870921065167683,-2.653354551733994,-3.591397913490854,-7.031882681497713,-2.1571204775855657,-2.842131115141369,-6.471361432756696,5.383610725604427,-27.806588255494503,3.684983974358964,-1.33488794191919,-44.48545592139342,-7.167163233531377,30.392877467277685,34.370473537604454,34.08293647227963,1577397674.999,-27.708421106402223,-51.12242318892099,14.676555
61735,1577397675.08,2.980751869313309,0.1820469189155391,8.978081040098608,2.5093861180747425,0.233084290890577,9.094783772240614,1.4846330485026038,-0.363519618733724,9.298110166422523,-0.7707549304496952,-1.429488019245427,-6.947215010480183,-4.911655332983994,0.5589927115091464,-6.284202017435213,-1.4704749697730657,-0.354948497953869,-5.174364362444196,4.988483332899516,-26.84774038461538,3.684983974358964,-1.204281496859622,-49.23172415932832,-23.623267743294427,30.44080031149849,34.34651211549405,34.22670500494204,1577397674.999,-27.708421106402223,-51.12242318892099,14.676555
61736,1577397675.09,2.8909693070574503,-0.5781121081840698,9.995616745665014,1.3326360021079455,-0.1607618822051251,8.91880995021913,1.113531791178385,0.0758163859049472,10.920181791178385,-1.4726592273246952,-0.8649128239329268,-6.931956221417683,-1.1579932236089938,0.4064048208841463,-5.689109243997713,-2.5843665713355657,4.970368884858631,-5.708421979631696,5.2848288774282,-25.56927655677656,3.412022198480529,-0.2900363814426315,-48.8666266025641,-23.623267743294427,30.5366459999401,34.370473537604454,34.03501362805883,1577397674.999,-27.708421106402223,-51.12242318892099,14.676555
61737,1577397675.1,2.7042215775652627,-1.0473756335746949,10.014770358946263,2.544102042147008,-1.195056999392625,9.26836339260194,1.75517783610026,0.3559379801432285,12.134042032877602,-1.2590361804496952,-0.4681843083079268,-6.779368330792683,-5.003208067358994,4.282137242759147,-6.024802603372713,-2.0655677432105657,11.592683337983631,-6.898607526506696,5.482392573780656,-26.84774038461538,0.1364808879392175,-1.8573137221574736,-34.992919445523604,-7.167163233531377,30.728337376823312,34.370473537604454,34.27462784916285,1577397674.999,-27.708421106402223,-51.12242318892099,14.676555
61738,1577397675.11,2.189468220631668,-0.724158409453601,10.718665647032202,3.975834634920445,-0.934089018435594,11.09035085598085,3.0241047159830723,0.054268570963541,11.667172709147131,-0.2519561023246951,-0.1019733708079267,-6.687815596417683,-0.7307471298589938,-1.4856850228658536,-5.689109243997713,-1.6383216494605657,14.888581775483631,-8.027757917131696,5.77873811830934,-27.806588255494503,3.139060422602083,-1.8573137221574736,-24.039992742596905,-16.570651524824545,30.34495462305688,34.370473537604454,34.08293647227963,1577397674.999,-27.708421106402223,-51.12242318892099,14.676555
61739,1577397675.12,2.487546327321122,0.0982498608100703,10.449317960264624,1.919215408846227,-0.0793590257598131,9.759174732933976,1.5001953592936197,0.8347783121744785,9.325643485514322,-1.2437773913871952,0.0658733088795732,-6.947215010480183,-1.8751563095464936,2.512117711509146,-7.016623892435213,-0.6007239932105655,8.632478259858631,-7.859911237444196,5.877519966485568,-28.12620421245421,1.501289767331427,-1.2695847193894074,-34.08017555361305,-10.620006590490586,30.608530266271305,34.370473537604454,34.22670500494205,1577397674.999,-27.708421106402223,-51.12242318892099,14.676555
61740,1577397675.13,2.9651895585222943,-0.6595149646293823,8.252637937071265,2.965481534334508,-1.0011266649199688,10.372090357933974,2.52132236735026,1.5051547770182283,8.07587021891276,-1.9609404773246952,0.3252727229420732,-7.420237471417683,-0.8528174423589938,-2.370694788490854,-6.055320181497713,-1.1500403994605657,-2.750578380766369,-8.149828229631696,5.679956270133111,-28.12620421245421,3.412022198480529,-2.379739502395749,-47.406236375507206,-18.33380557944201,30.48872315571929,34.370473537604454,34.17878216072124,1577397674.999,-27.708421106402223,-51.12242318892099,14.676555
61741,1577397675.14,2.570146284596513,-0.398546983672351,9.459315573790011,1.545719949861852,0.1959741651581551,9.692137086449598,2.935519254557291,-0.8674990681966143,10.209103898111977,-0.6792021960746951,-0.1324909489329268,-6.809885908917683,-0.7917822861089938,-1.4246498666158536,-6.146872915872713,-1.4857337588355657,-3.421965099516369,-5.769457135881696,4.099446699313464,-27.486972298534795,2.3201750949667663,-1.596100832038332,-49.59682171609254,-20.97853666136822,30.48872315571929,34.370473537604454,34.17878216072124,1577397674.999,-27.708421106402223,-51.12242318892099,14.676555
61742,1577397675.15,2.0266625077410434,-0.4775556384575072,10.527129514219702,3.0193510716880234,0.2486466016815926,8.277163905297256,1.7743314493815097,-1.1033279317220046,10.823216623942056,-0.3740264148246951,0.0811320979420732,-6.992991377667683,-2.195590879858994,0.9252036490091464,-6.680930533060213,-2.3097083682105657,7.213410877046131,-4.640306745256696,4.889701484723288,-28.765436126373626,2.3201750949667663,-10.60794554114867,-50.327016829621,-7.167163233531377,30.392877467277685,34.27462784916285,34.22670500494205,1577397674.999,-27.708421106402223,-51.12242318892099,14.676555
61743,1577397675.16,2.249323262135575,-0.2692600940239135,9.567054648497043,2.7308497716391957,-0.7760717088652814,8.023378529320693,2.552446988932291,0.408610416666666,10.374303812662758,0.0379608898628048,0.2642375666920732,-6.825144697980183,-2.256626036108994,2.298494664634146,-5.841697134622713,-1.6688392275855657,15.956697009858631,-6.898607526506696,4.988483332899516,-27.806588255494503,1.5012897673314327,-10.73855198620824,-50.327016829621,-7.167163233531377,30.5606074220505,34.562164914487674,34.08293647227963,1577397674.999,-27.708421106402223,-51.12242318892099,14.676555
61744,1577397675.17,2.560569477955888,-0.7744366443168822,8.872736167051732,1.4858649083579458,-1.2525178392363752,9.91479784084413,1.0512825480143226,1.5434620035807285,7.4485893839518225,-1.2285186023246952,-0.8649128239329268,-7.298167158917683,-2.866977598608994,-2.035001429115854,-7.550681509622713,-1.4857337588355657,16.56704857235863,-8.485521589006696,4.889701484723288,-26.84774038461538,3.412022198480529,-1.8573137221574736,-44.48545592139342,-1.8777010696789656,30.5366459999401,34.22670500494204,34.08293647227963,1577397674.999,-27.708421106402223,-51.12242318892099,14.676555
61745,1577397675.18,2.3067841019793245,-0.5469874866020386,8.946956418516576,4.155399759432164,-0.2397705369902813,11.001765394555068,1.803061869303385,-3.0749529988606765,8.238675931803385,-0.3129912585746951,-0.6207721989329268,-6.748850752667683,-1.7073096298589938,3.427645055259146,-5.383933462747713,-1.2110755557105657,8.662995837983631,-7.173265729631696,4.099446699313464,-26.84774038461538,1.2283279914529803,-2.2491330573361834,-49.96191927285677,-2.0246305742304176,30.34495462305688,34.41839638182526,34.17878216072124,1577397674.999,-27.708421106402223,-51.12242318892099,14.676555
61746,1577397675.19,2.5150796464129197,-1.1479321033012573,10.548677329161109,1.191378104158727,-1.367439518923875,8.858954908715223,1.7144764078776038,-0.1612095784505205,8.238675931803385,0.8161591320503049,0.0811320979420732,-6.901438643292683,-1.2190283798589938,-4.201749475990853,-6.787742056497713,-0.7533118838355655,2.528962634858631,-7.783617292131696,5.087265181075743,-27.486972298534795,0.1364808879392175,-2.379739502395749,-48.13643148903565,-6.873304224428462,30.680414532602512,34.22670500494204,34.08293647227963,1577397674.999,-27.708421106402223,-51.12242318892099,14.676555
61747,1577397675.2,2.349879731862137,-0.3853788745414921,11.452488455870093,2.9990003575766955,-0.0135184801055162,11.846918580590224,1.753980735270182,-1.0291076802571617,10.661608011881508,1.6706513195503048,0.2337199885670732,-6.825144697980183,-0.7460059189214938,-0.1886879525533538,-6.406272329935213,0.0554039364769345,0.3316970098586309,-5.906786237444196,5.2848288774282,-28.12620421245421,1.774251543209873,-1.0736750518000513,-44.48545592139342,-23.623267743294427,30.512684577829692,34.34651211549405,33.91520651750682,1577397674.999,-27.708421106402223,-51.12242318892099,14.676555
61748,1577397675.21,1.997932087819168,-0.4727672351371947,11.11610312261814,1.871331375643102,-0.1631560838652813,8.157453822289442,1.46787363688151,2.280876114908853,11.463665568033852,0.9382294445503048,-0.1630085270579268,-6.870921065167683,-1.6462744736089938,1.1388266958841464,-6.452048697122713,0.7725670224144345,6.282624744233631,-5.525316510881696,4.297010395665918,-27.486972298534795,2.866098646723648,-1.204281496859622,-47.04113881874298,-18.774594093096383,30.728337376823312,34.562164914487674,34.27462784916285,1577397674.999,-27.708421106402223,-51.12242318892099,14.676555
61749,1577397675.22,2.330726118580887,-0.3386919421684448,10.55346573248142,3.2839103551352893,-0.3570864183379376,9.38328507228944,1.87009951578776,2.697467203776042,9.41662314860026,0.0532196789253048,-0.1630085270579268,-6.413157393292683,0.0016747451410061,2.786775914634146,-6.513083853372713,0.6199791317894345,7.045564197358631,-7.081712995256696,4.889701484723288,-26.84774038461538,4.503869301994293,-2.1185266122766127,-39.37409012669429,-4.816291160708081,30.680414532602512,34.370473537604454,34.17878216072124,1577397674.999,-27.708421106402223,-51.12242318892099,14.676555
61750,1577397675.23,2.536627461354325,-0.9468191638481324,10.967662619688452,3.1450466588462267,-1.8630392625762189,9.656224061547254,2.020934220377604,-0.367110921223958,7.087064933268229,0.1752899914253048,-0.1019733708079267,-7.115061690167683,-0.6086768173589938,2.756258336509146,-6.665671743997713,1.7186119442894343,-1.285734630766369,-9.065355573381696,4.494574092018373,-27.486972298534795,3.412022198480529,-0.2900363814426315,-50.327016829621,-13.044343415589609,30.5845688441609,34.27462784916285,34.27462784916285,1577397674.999,-27.708421106402223,-51.12242318892099,14.676555
61751,1577397675.24,1.82435246745784,0.0946585583198359,8.559095749571265,1.525369235750524,0.1576669385956556,8.93796356350038,2.236412369791666,0.059056974283854,7.795748624674479,0.9229706554878048,0.3557903010670732,-6.672556807355183,-0.7460059189214938,-1.2720619759908538,-7.398093618997713,1.1845543271019343,-12.348356701078869,-7.188524518694196,5.136656105163857,-28.605628147893768,2.7296177587844244,-1.33488794191919,-44.85055347815765,-7.167163233531377,30.440800311498485,34.29858927127325,34.17878216072124,1577397674.999,-27.708421106402223,-51.12242318892099,14.676555
61752,1577397675.25,1.9787784745379184,0.2095802380073354,9.229472214415011,2.584803470369664,-1.1208367479277814,8.052108949242568,1.46787363688151,-1.2529655354817704,10.06066339518229,1.0602997570503048,-0.5902546208079268,-6.840403487042683,-3.416294004858994,0.7420981802591463,-5.750144400247713,0.7420494442894345,-9.983244396391369,-6.440843854631696,5.087265181075743,-27.486972298534795,2.3201750949667663,-1.33488794191919,-50.327016829621,-17.158369543030368,30.392877467277685,34.370473537604454,34.22670500494204,1577397674.999,-27.708421106402223,-51.12242318892099,14.676555
61753,1577397675.26,2.668308552662919,-1.028222020293445,8.79133331060642,1.6366996129477895,0.9405708814667488,7.846207606469131,1.7001111979166663,-2.667938716634114,10.197132889811195,0.1447724133003048,-0.7428425114329268,-6.474192549542683,-2.439731504858994,-1.5467201791158536,-6.329978384622713,0.0706627255394345,-3.727140880766369,-4.548754010881696,4.988483332899515,-23.97119677197802,3.684983974358964,-1.33488794191919,-50.327016829621,-19.80310062495657,30.392877467277685,34.22670500494204,34.27462784916285,1577397674.999,-27.708421106402223,-51.12242318892099,14.676555
61754,1577397675.27,2.4995173356219027,-0.5781121081840698,9.938155905821263,3.406014639803258,-0.9077528001738752,10.99937119289491,2.569206400553385,0.5833871378580723,8.681603238932292,1.2586640148628048,-0.5292194645579268,-6.352122237042683,-0.7307471298589938,6.479402867759147,-6.696189322122713,-0.4176185244605654,-4.245939708891369,-5.647386823381696,5.087265181075743,-28.12620421245421,5.595716405508078,-10.216126205969957,-50.327016829621,-5.991727197119726,30.36891604516728,34.17878216072124,34.17878216072124,1577397674.999,-27.708421106402223,-51.12242318892099,14.676555
61755,1577397675.28,2.615636116139481,0.2215512463081167,10.414602036192358,1.888090787264196,-0.39419654407036,9.69093998561952,0.3797089823404944,-1.8048290181477864,10.777726792399086,2.0673798351753048,-0.1019733708079267,-6.291087080792683,-1.3868750595464938,-1.9129311166158536,-6.665671743997713,0.9709312802269344,-4.993620372953869,-6.379808698381696,5.087265181075743,-25.56927655677656,3.412022198480529,-6.297932854182853,-50.327016829621,-3.493925619744978,30.5845688441609,34.32255069338365,34.250666427052444,1577397674.999,-27.708421106402223,-51.12242318892099,14.676555
61756,1577397675.29,2.8095664506121376,0.338867127655773,10.955691611387673,3.0875858190024768,-0.1535792772246564,9.366525660668348,2.4806209391276037,4.421292399088542,10.44373566080729,1.3349579601753048,0.4778606135670732,-6.138499190167683,-1.5852393173589938,1.2608970083841464,-5.811179556497713,1.0472252255394343,3.291902087983631,-3.7858145577566966,6.272647359190478,-26.84774038461538,2.3201750949667663,-0.8124621616809122,-50.327016829621,-2.4654190878847912,30.249108934615272,34.08293647227963,34.17878216072124,1577397674.999,-27.708421106402223,-51.12242318892099,14.676555
61757,1577397675.3,3.0920822465105755,-1.028222020293445,10.096173215391577,3.5951565709556017,0.5670754224823739,9.45989952541444,2.9594612711588533,0.9137869669596348,7.620971903483072,1.1518524914253048,0.6914836604420732,-6.382639815167683,-1.2800635361089938,1.9322837271341464,-7.001365103372713,0.8641197567894345,-1.133146740141369,-9.706224714006696,4.593355940194604,-29.08505208333333,3.139060422602083,-1.33488794191919,-43.75526080786497,-1.8777010696789656,30.392877467277685,34.27462784916285,34.41839638182526,1577397674.999,-27.708421106402223,-51.12242318892099,14.676555
61758,1577397675.31,2.268476875416825,-0.2668658923637573,9.702327042295874,1.2919345738852896,-0.9293006151152814,5.976336109887099,2.523716569010416,-4.161920552571615,7.810113834635416,-0.3435088366996952,0.0811320979420732,-6.535227705792683,2.290493104516006,-0.4480873666158537,-5.750144400247713,-0.5396888369605655,-5.344572521391369,-6.379808698381696,4.889701484723288,-30.683131868131863,2.866098646723648,-1.33488794191919,-43.75526080786497,-1.8777010696789656,30.46476173360889,34.370473537604454,34.370473537604454,1577397674.999,-27.708421106402223,-51.12242318892099,14.676555
61759,1577397675.32,2.4528304032488566,-0.235741270781726,7.091450131895484,2.219687717195836,-0.1978720079375475,8.505810163842177,2.851722196451822,-0.280919661458333,8.73906407877604,0.3278778820503049,0.5999309260670732,-6.687815596417683,-1.9972266220464936,1.3677085318216462,-7.062400259622713,0.7573082333519344,-5.115690685453869,-7.249559674944196,5.087265181075743,-24.93004464285714,3.412022198480529,-1.7267072770979013,-45.58074859168609,-11.428118865523594,30.392877467277685,34.298589271273244,34.130859316500434,1577397674.999,-27.708421106402223,-51.12242318892099,14.676555
61760,1577397675.33,1.916529231373856,1.363585438202648,10.402631027891577,1.5385373448813833,0.6197478590058113,9.328218434105848,1.3840765787760412,-4.018268452962239,8.964119034830729,0.8771942883003049,0.1726848323170732,-5.924876143292683,-1.9819678329839936,-0.6617104134908537,-6.482566275247713,-1.4552161807105657,-3.025236583891369,-5.037035260881696,4.692137788370832,-30.683131868131863,2.866098646723648,-2.379739502395749,-50.327016829621,-20.3908186431624,30.5845688441609,34.17878216072124,34.27462784916285,1577397674.999,-27.708421106402223,-51.12242318892099,14.676555
61761,1577397675.34,3.262070564381669,-1.4184768908989134,8.595008774473609,1.153070877596227,-0.7162166673613751,9.40962129055116,1.783908256022135,0.3248133585611972,9.261000040690105,-1.6557646960746952,0.9051067073170732,-6.718333174542683,-5.460971739233994,4.556795445884147,-6.238425650247713,-1.1195228213355657,-0.6448654901413691,-4.487718854631696,4.790919636547059,-28.44582016941392,1.5012897673314385,-2.379739502395749,-50.327016829621,-7.167163233531377,30.680414532602512,34.370473537604454,34.17878216072124,1577397674.999,-27.708421106402223,-51.12242318892099,14.676555
61762,1577397675.35,2.354668135182449,-0.4727672351371947,9.861541452696263,1.919215408846227,-0.6443906175566876,9.85733700100038,1.5684301066080726,-2.991155940755208,8.253041141764323,-0.8928252429496951,1.179764910442073,-6.535227705792683,0.0932274795160061,-0.2954994759908537,-6.085837759622713,-0.6007239932105655,-6.839933849516369,-7.081712995256696,5.2848288774282,-29.40466804029304,1.2283279914529803,-2.379739502395749,-50.327016829621,-15.395215488412898,30.680414532602512,34.08293647227963,34.27462784916285,1577397674.999,-27.708421106402223,-51.12242318892099,14.676555
61763,1577397675.36,1.562187385670731,0.4897018322456167,9.444950363829076,1.861754569002477,0.1002060987519051,9.129499696312878,0.7663725504557288,0.8419609171549473,10.537109525553385,0.9382294445503048,1.179764910442073,-6.138499190167683,-5.399936582983994,5.777498570884147,-6.665671743997713,0.1316978817894345,-10.135832287016369,-6.349291120256696,5.383610725604427,-27.16735634157509,2.593136870845201,-1.8573137221574736,-47.406236375507206,-4.816291160708081,30.872105909485725,34.370473537604454,34.22670500494204,1577397674.999,-27.708421106402223,-51.12242318892099,14.676555
61764,1577397675.37,2.072152339284012,0.2023976330268667,11.092161106016578,1.7899285191977896,0.0283800489472176,9.902826832543347,2.925942447916666,-1.1835336873372393,11.58576985270182,0.1142548351753048,0.9356242854420732,-6.321604658917683,-2.348178770483994,2.939363805259146,-6.055320181497713,-0.8448646182105655,-6.687345958891369,-7.539476667131696,5.18604702925197,-25.88889251373626,0.9553662155745456,-1.0736750518000513,-50.327016829621,-18.33380557944201,30.5366459999401,34.370473537604454,34.17878216072124,1577397674.999,-27.708421106402223,-51.12242318892099,14.676555
61765,1577397675.38,2.1703146073504183,-0.819926475859851,10.51515850591892,2.003012466951696,-1.3889873338652814,9.03852003322694,2.890029423014322,1.2681288126627597,11.245793216959632,-2.3576689929496952,0.3863078791920732,-6.596262862042683,-0.4560889267339938,-2.950528772865854,-5.994285025247713,-0.4786536807105654,0.9725661504836308,-4.640306745256696,5.482392573780656,-28.12620421245421,1.2283279914529803,-1.0736750518000513,-50.327016829621,-18.33380557944201,30.680414532602512,34.370473537604454,34.08293647227963,1577397674.999,-27.708421106402223,-51.12242318892099,14.676555
61766,1577397675.39,2.342697126881668,-0.2285586658012572,9.389883725645484,2.223279019686071,0.0954176954315926,8.777552052269911,3.2324002604166657,0.5570509195963534,9.447747770182293,-1.4116240710746952,-0.1630085270579268,-6.199534346417683,-2.500766661108994,-0.6922279916158537,-6.940329947122713,-0.6617591494605655,0.3622145879836309,-6.837572370256696,4.790919636547059,-29.08505208333333,2.593136870845201,-10.73855198620824,-50.327016829621,-6.873304224428462,30.392877467277685,34.370473537604454,34.08293647227963,1577397674.999,-27.708421106402223,-51.12242318892099,14.676555
61767,1577397675.4,2.208621833912918,0.3173193127143667,9.318057675840794,2.208913809725133,-0.1870981004668439,9.07203885646913,2.717646903483072,-0.8459512532552079,7.920247111002603,-2.0830107898246952,-0.8649128239329268,-6.718333174542683,-2.439731504858994,0.1622641958841463,-5.841697134622713,-1.5162513369605657,-0.9805588495163692,-6.929125104631696,4.494574092018373,-31.32236378205128,3.412022198480529,-2.2491330573361834,-49.96191927285677,-0.5553355287158628,30.680414532602512,34.27462784916285,34.17878216072124,1577397674.999,-27.708421106402223,-51.12242318892099,14.676555
61768,1577397675.41,2.6790824601336216,-0.0633587512504765,9.393475028135718,2.1490587682212268,0.4976435743378426,8.776354951439833,2.7487715250651035,0.5809929361979165,10.114532932535806,-0.6639434070121952,0.1269084651295732,-6.703074385480183,-3.858798887671494,1.9170249380716464,-5.917991079935213,-1.5315101260230657,2.910432361421131,-5.357469831194196,4.8403105606351735,-26.68793240613553,3.548503086419746,-1.2695847193894074,-50.14446805123889,-1.5103773083003271,30.512684577829692,34.34651211549405,34.22670500494205,1577397674.999,-27.708421106402223,-51.12242318892099,14.676555
61769,1577397675.42,1.993143684498856,-0.0322341296684447,11.34594648199314,1.603180789705602,-1.0035208665801252,10.594751112328504,1.9227719523111972,-0.491609407552083,9.624918693033854,-0.4655791491996951,0.7525188166920732,-6.413157393292683,-0.8833350204839938,-3.866056116615854,-6.055320181497713,-1.5162513369605657,-0.278654552641369,-8.302416120256696,4.593355940194604,-26.52812442765568,3.684983974358964,-0.2900363814426315,-49.59682171609254,-2.4654190878847912,30.5366459999401,34.370473537604454,34.17878216072124,1577397674.999,-27.708421106402223,-51.12242318892099,14.676555
61770,1577397675.43,2.189468220631668,-0.7385236194145385,9.988434140684546,0.9567463414634146,-0.7904369188262189,8.408844996605849,1.7671488444010413,-1.8491217488606768,10.95370061442057,-1.2590361804496952,-0.1019733708079267,-6.230051924542683,-2.805942442358994,0.1317466177591463,-6.726706900247713,-1.4552161807105657,-3.086271740141369,-7.753099714006696,4.593355940194604,-26.52812442765568,3.684983974358964,-2.379739502395749,-46.67604126197876,-5.404009178913907,30.5366459999401,34.17878216072124,34.03501362805883,1577397674.999,-27.708421106402223,-51.12242318892099,14.676555
61771,1577397675.44,2.2589000687761995,-0.8342916858207885,10.318833969786107,3.348553799959508,0.8160723951386238,9.311459022484756,1.4918156534830724,0.3463611735026035,11.588164054361975,-0.9843779773246952,0.5083781916920732,-6.413157393292683,-3.568881895483994,2.542635289634146,-4.865134634622713,-1.3941810244605657,3.383454822358631,-5.037035260881696,4.395792243842147,-28.44582016941392,2.593136870845201,0.2323893987956463,-50.327016829621,-23.32940873419151,30.728337376823312,34.17878216072124,33.939167939617214,1577397674.999,-27.708421106402223,-51.12242318892099,14.676555
61772,1577397675.45,1.9356828446551055,-0.202222447539539,11.879853452207984,2.775142502352086,-0.3714516282988756,8.860152009545303,1.4594939310709631,-0.2629631490071616,10.25219952799479,0.2668427258003048,0.4168254573170732,-6.107981612042683,-1.9056738876714936,0.4521811880716464,-5.979026236185213,-0.0056312197730654,1.6592116582961312,-7.096971784319196,4.692137788370832,-29.08505208333333,3.139060422602083,-1.0736750518000513,-49.59682171609255,-24.65177427515461,30.632491688381705,34.32255069338365,34.22670500494205,1577397674.999,-27.708421106402223,-51.12242318892099,14.676555
61773,1577397675.46,2.359456538502762,-0.005897911406726,10.44572665777439,1.1889839024985709,-1.0322512865020002,12.165347401391005,2.126279093424478,-0.7669425984700518,9.371133317057293,-0.8317900866996951,0.1726848323170732,-6.016428877667683,-0.4560889267339938,-3.835538538490854,-5.872214712747713,-0.2650306338355654,-5.924406505766369,-6.868089948381696,4.593355940194604,-27.806588255494503,5.868678181386513,-9.563093980672102,-48.50152904579988,-2.318489583333339,30.392877467277685,33.939167939617214,34.17878216072124,1577397674.999,-27.708421106402223,-51.12242318892099,14.676555
61774,1577397675.47,1.8303379716082309,-0.159126817656726,10.443332456114234,0.5832508824790397,-1.2549120408965313,10.415185987816786,3.0432583292643223,-0.6496267171223955,9.37831592203776,-0.8317900866996951,-0.0409382145579267,-6.352122237042683,-1.5547217392339938,-1.5467201791158536,-5.444968618997713,0.1622154599144345,-6.382170177641369,-4.914964948381696,4.593355940194604,-27.806588255494503,5.868678181386513,-2.379739502395749,-50.327016829621,-7.167163233531377,30.680414532602512,34.08293647227963,34.370473537604454,1577397674.999,-27.708421106402223,-51.12242318892099,14.676555
61775,1577397675.48,1.3658628495379184,-0.379393370391101,9.246231626036108,2.8768960729087265,-0.0195039842559063,7.99943651271913,2.516533964029948,-0.1420559651692705,9.064675504557291,-0.6181670398246951,-0.5902546208079268,-5.924876143292683,-0.4560889267339938,-2.950528772865854,-5.506003775247713,-1.0584876650855657,-4.734220958891369,-4.670824323381696,4.494574092018373,-28.12620421245421,2.3201750949667663,-2.1185266122766127,-50.327016829621,-6.579445215325552,30.5845688441609,34.41839638182526,34.03501362805883,1577397674.999,-27.708421106402223,-51.12242318892099,14.676555
61776,1577397675.49,1.8171698624773716,0.2442961620796011,9.121733139707985,1.3290446996177114,-0.1212575548125475,7.410462904320693,2.1514182108561197,1.2789027201334628,8.306910679117838,-0.6181670398246952,-1.002241925495427,-6.123240401105183,-3.751987364233994,0.6200278677591464,-5.368674673685213,-0.8448646182105655,-6.611052013578869,-5.891527448381696,4.346401319754033,-29.244860061813185,2.4566559829059726,-1.8573137221574691,-47.77133393227143,-5.9917271971197295,30.5845688441609,34.49028064815647,34.130859316500434,1577397674.999,-27.708421106402223,-51.12242318892099,14.676555
61777,1577397675.5,2.1918624222918246,-0.7457062243950072,8.79851591558689,2.113145743318883,-0.9029643968535628,10.946698756371472,1.7815140543619787,-0.4269659627278642,9.928982303873696,-1.5642119616996952,-0.8343952458079268,-6.230051924542683,-0.8528174423589938,-1.3636147103658536,-5.414451040872713,-1.0279700869605657,-6.321135021391369,-6.044115339006696,4.494574092018373,-28.765436126373626,2.866098646723648,-1.8573137221574736,-49.59682171609254,-7.167163233531377,30.5366459999401,34.22670500494204,34.22670500494204,1577397674.999,-27.708421106402223,-51.12242318892099,14.676555
61778,1577397675.51,2.1918624222918246,-0.5685353015434448,9.44255616216892,0.9328043248618522,0.0882350904511238,10.218861451683974,2.77031934000651,0.399033610026041,9.74941717936198,-0.3129912585746951,-1.658369855182927,-5.802805830792683,-1.4936865829839938,-7.222989710365853,-5.506003775247713,-1.2415931338355657,-2.872648693266369,-4.976000104631696,4.494574092018373,-28.765436126373626,2.866098646723648,-10.477339096089098,-49.59682171609254,-6.873304224428462,30.48872315571929,34.17878216072124,34.27462784916285,1577397674.999,-27.708421106402223,-51.12242318892099,14.676555
61779,1577397675.52,2.275659480397293,-0.618813536406726,11.017940854551734,2.84936275381693,-0.4408834764434064,9.07682725978944,1.8282009867350253,0.0147642435709634,9.5566839457194,0.0837372570503048,-0.9564655583079268,-5.955393721417683,-1.7073096298589938,1.3829673208841466,-5.795920767435213,-0.9211585635230656,-6.427946544828869,-5.906786237444196,4.889701484723288,-26.84774038461538,2.866098646723648,-6.559145744301994,-49.59682171609255,-4.669361656156626,30.392877467277685,34.32255069338365,34.202743582831644,1577397674.999,-27.708421106402223,-51.12242318892099,14.676555
61780,1577397675.53,2.2972072953387,-0.0094892138969604,9.489243094541967,2.563255655428258,1.2709707105683117,8.935569361840223,3.4383016031901037,-0.5275224324544268,9.114953739420573,-0.5571318835746951,-1.261641339557927,-6.214793135480183,-3.935092832983994,1.3829673208841464,-5.689109243997713,-1.5467689150855657,-7.511320568266369,-5.098070417131696,4.889701484723287,-27.806588255494503,3.4120221984805235,-0.2900363814426315,-45.94584614845031,-2.4654190878847912,30.632491688381705,34.370473537604454,34.22670500494204,1577397674.999,-27.708421106402223,-51.12242318892099,14.676555
61781,1577397675.54,2.5198680497332315,-0.1447616076957885,9.701129941465796,1.9599168370688835,-0.2708951585723126,8.741639027367567,1.1350796061197912,1.0430738566080722,11.082987504069008,-0.4960967273246951,-1.017500714557927,-6.321604658917683,-0.8528174423589938,-1.4856850228658536,-4.956687368997713,-0.9974525088355656,-0.7669358026413691,-5.403246198381696,4.790919636547059,-29.08505208333333,2.593136870845201,-2.2491330573361834,-42.6599681375723,0.0323824894899568,30.392877467277685,34.27462784916285,34.17878216072124,1577397674.999,-27.708421106402223,-51.12242318892099,14.676555
61782,1577397675.55,2.560569477955888,-0.226164464141101,9.916608090879858,2.697330948397008,-0.3379328050566876,8.846983900414441,2.4016122843424474,-0.175574788411458,10.063057596842446,0.1447724133003048,-1.017500714557927,-6.016428877667683,-0.9443701767339938,-1.1194740853658536,-6.085837759622713,-0.7838294619605655,2.620515369233631,-5.128587995256696,4.790919636547059,-29.08505208333333,2.593136870845201,-2.2491330573361834,-48.50152904579988,-4.669361656156629,30.249108934615272,34.370473537604454,34.17878216072124,1577397674.999,-27.708421106402223,-51.12242318892099,14.676555
61783,1577397675.56,2.333120320241043,0.0383948193061641,9.87710376348728,2.340594901033727,0.3228668531464363,9.124711292992568,1.2715491007486974,2.472412247721353,9.496828904215494,-0.5113555163871951,-0.5444782536204268,-6.443674971417683,-1.0816992782964938,-0.5243813119283537,-5.902732290872713,-0.0666663760230655,5.153474353608631,-7.264818464006696,4.988483332899516,-27.167356341575093,3.412022198480529,-1.2695847193894074,-47.953882710653545,-12.97087866331388,30.5606074220505,34.32255069338365,34.29858927127325,1577397674.999,-27.708421106402223,-51.12242318892099,14.676555
61784,1577397675.57,2.483955024830888,-0.1327905993950072,9.590996665098608,2.161029776522008,0.2486466016815926,10.39363817287538,0.9243898600260412,-3.912923579915364,10.88426876627604,-1.3200713366996952,-0.0104206364329267,-6.474192549542683,-3.843540098608994,6.540438024009147,-5.628074087747713,-1.5162513369605657,2.132234119233631,-6.898607526506696,4.790919636547059,-27.16735634157509,2.593136870845201,-0.1594299363830607,-47.04113881874298,-25.53335130246335,30.5845688441609,34.41839638182526,33.939167939617214,1577397674.999,-27.708421106402223,-51.12242318892099,14.676555
61785,1577397675.58,2.8239316605730758,-0.4488252185356323,8.832034738829078,4.33017648062357,-1.2549120408965313,8.375326173363662,2.4686499308268224,0.073422184244791,10.15643146158854,-0.6181670398246951,0.4168254573170732,-6.748850752667683,-1.7683447861089938,-0.2039467416158536,-5.506003775247713,-0.1124427432105654,6.069001697358631,-4.426683698381696,4.395792243842147,-29.08505208333333,3.684983974358964,-1.33488794191919,-50.327016829621,-1.2899830514731403,30.392877467277685,34.17878216072124,34.41839638182526,1577397674.999,-27.708421106402223,-51.12242318892099,14.676555
61786,1577397675.59,2.3833985551043244,-0.8558395007621947,10.34995859136814,2.8266178380454456,0.3228668531464363,8.475882643090223,1.2523954874674474,0.8084420939127598,8.049534000651041,0.6330536633003049,0.5388957698170732,-6.107981612042683,-3.294223692358994,-3.164151819740854,-6.177390493997713,-1.1195228213355657,1.277741931733631,-6.379808698381696,4.395792243842147,-29.08505208333333,3.684983974358964,-2.1185266122766127,-32.07213899140982,-6.873304224428462,30.5845688441609,34.370473537604454,34.08293647227963,1577397674.999,-27.708421106402223,-51.12242318892099,14.676555
61787,1577397675.6,1.7034452836199496,0.4370293957221792,10.542691825010715,0.0517381139243521,0.6604492872284676,8.495036256371474,1.132685404459635,-0.5945600789388017,7.831661649576822,0.1447724133003048,0.4015666682545732,-6.352122237042683,-1.7073096298589938,-1.8518959603658536,-5.872214712747713,-0.1124427432105654,-15.384855724516369,-6.990160260881696,4.395792243842148,-28.12620421245421,3.139060422602083,-2.379739502395749,-50.327016829621,-6.579445215325552,30.5366459999401,34.22670500494204,34.27462784916285,1577397674.999,-27.708421106402223,-51.12242318892099,14.676555
61788,1577397675.61,2.1152479691668247,-0.2117992541801635,9.033147678282202,2.3932673375571643,0.0247887464569837,7.874938026391005,2.717646903483072,-0.3347891988118486,10.049889487711589,-2.1135283679496952,-0.2545612614329268,-6.565745283917683,-2.287143614233994,1.8559897818216464,-5.628074087747713,-0.4939124697730654,-10.105314708891369,-6.013597760881696,4.988483332899515,-27.806588255494503,0.9553662155745456,-1.8573137221574691,-50.327016829621,-11.281189360972135,30.680414532602512,34.34651211549405,34.22670500494205,1577397674.999,-27.708421106402223,-51.12242318892099,14.676555
61789,1577397675.62,2.275659480397293,-0.3147499255668822,8.755420285704078,1.5145953282798208,0.2151277784394051,9.222873561058972,2.248383378092448,0.5450799112955722,9.948135917154946,-0.4960967273246951,-0.8649128239329268,-6.443674971417683,0.7646141982660062,-6.032804163490853,-5.963767447122713,-0.3565833682105654,-4.520597912016369,-6.196703229631696,4.593355940194604,-29.08505208333333,5.322754629629632,-2.379739502395749,-27.69096831023914,-19.80310062495657,30.48872315571929,34.41839638182526,34.27462784916285,1577397674.999,-27.708421106402223,-51.12242318892099,14.676555
61790,1577397675.63,1.772877131764481,-0.015474718047351,10.01237615728611,2.3741137242759147,-0.0602054124785626,9.189354737816783,2.897212027994791,-2.627237288411458,11.173967167154949,-0.0688506335746951,-0.8038776676829268,-6.565745283917683,-5.003208067358994,0.7420981802591463,-6.787742056497713,-1.1805579775855657,1.582917712983631,-4.762377057756696,4.593355940194604,-29.08505208333333,5.322754629629632,-10.607945541148668,-47.04113881874298,-3.4939256197449784,30.680414532602512,34.41839638182526,34.27462784916285,1577397674.999,-27.708421106402223,-51.12242318892099,14.676555
61791,1577397675.64,2.296010194508621,-0.4009411853325073,10.357141196348609,2.2974992711509143,-0.2038575120879376,9.457505323754283,1.4750562418619788,2.0606095621744784,11.181149772135416,-0.0383330554496951,-0.9412067692454268,-6.321604658917683,-3.141635801733994,2.267977086509146,-6.604636587747713,-0.9364173525855656,4.115876697358631,-5.189623151506696,4.198228547489691,-29.08505208333333,2.866098646723648,-10.607945541148668,-47.04113881874298,-3.4939256197449784,30.5366459999401,34.370473537604454,34.27462784916285,1577397674.999,-27.708421106402223,-51.12242318892099,14.676555
61792,1577397675.65,2.926882331959794,-0.120819591094226,9.511988010313452,2.8481656529868515,0.3288523572968274,9.221676460228895,2.5404759806315096,0.6647899943033847,10.027144571940102,-0.7707549304496951,-0.8038776676829268,-6.596262862042683,-2.256626036108994,-0.7074867806783537,-5.460227408060213,-0.6617591494605656,7.823762439546131,-7.081712995256696,4.889701484723288,-27.486972298534795,3.9579457502374105,-2.2491330573361834,-49.96191927285677,-4.669361656156629,30.392877467277685,34.442357803935664,34.32255069338365,1577397674.999,-27.708421106402223,-51.12242318892099,14.676555
61793,1577397675.66,2.397763765065262,0.1880324230659292,10.333199179747046,2.8816844762290392,0.6029884473847176,9.708896498070692,0.4599147379557287,-0.510763020833333,9.653649112955728,-0.1604033679496951,-0.6512897770579268,-6.565745283917683,-3.599399473608994,3.610750524009146,-6.360495962747713,-1.3636634463355657,8.479890369233631,-6.990160260881696,4.889701484723288,-26.208508470695968,1.774251543209873,-2.379739502395749,-50.327016829621,-1.8777010696789656,30.392877467277685,34.370473537604454,34.03501362805883,1577397674.999,-27.708421106402223,-51.12242318892099,14.676555
61794,1577397675.67,2.5485984696551065,0.1353599865424917,9.734648764707982,2.706907755037633,-0.6252370042754376,8.909233143578504,1.9682617838541665,0.006384537760416,10.285718351236978,-0.3129912585746951,-0.4987018864329268,-6.443674971417683,0.9782372451410062,-4.903653772865853,-5.689109243997713,-0.9364173525855656,7.228669666108631,-6.532396589006696,4.889701484723288,-26.208508470695968,1.774251543209873,-2.2491330573361834,-49.96191927285677,-4.081643637950798,30.5366459999401,34.46631922604607,34.08293647227963,1577397674.999,-27.708421106402223,-51.12242318892099,14.676555
61795,1577397675.68,2.386989857594559,-0.211799254180164,9.025965073301734,2.2963021703208364,-0.35588931750786,9.25040688015077,2.244792075602213,0.2266510904947914,9.009608866373698,-0.7249785632621951,-0.1782673161204268,-6.748850752667683,-2.729648497046494,1.1693442740091462,-6.665671743997713,-0.5244300478980655,5.962190173921131,-6.868089948381696,4.445183167930261,-29.244860061813185,1.9107324311490963,-1.987920167217043,-49.96191927285677,-5.110150169810988,30.440800311498485,34.370473537604454,34.01105220594842,1577397674.999,-27.708421106402223,-51.12242318892099,14.676555
61796,1577397675.69,2.550992671315263,0.0707165417182729,9.74901397466892,0.8681608800376334,0.7011507154511238,9.16062431789491,2.0568472452799478,-1.748565279134114,8.494855509440104,0.4499481945503049,-0.1019733708079267,-6.840403487042683,-2.805942442358994,0.9252036490091464,-5.902732290872713,-0.6312415713355655,4.024323962983631,-6.013597760881696,5.087265181075743,-29.40466804029304,3.9579457502374105,-8.648848865255117,-47.406236375507206,-25.386421797911897,30.5366459999401,34.370473537604454,34.08293647227963,1577397674.999,-27.708421106402223,-51.12242318892099,14.676555
61797,1577397675.7,2.242140657155106,-0.475161436797351,10.179970273497046,3.2288437169516957,-0.4265182664824689,9.55087918850038,1.994598002115885,1.0837752848307285,8.054322403971353,0.2363251476753048,-0.1630085270579268,-6.352122237042683,-1.4936865829839938,0.9557212271341464,-6.299460806497713,-0.8753821963355655,-2.262297130766369,-6.990160260881696,4.494574092018373,-27.486972298534795,2.3201750949667663,-0.2900363814426315,-29.15135853729603,-7.167163233531377,30.5366459999401,34.27462784916285,34.27462784916285,1577397674.999,-27.708421106402223,-51.12242318892099,14.676555
61798,1577397675.71,2.2876304886980745,-0.5876889148246948,11.10892051763767,1.7875343175376333,-0.2852603685332501,10.491800440941786,1.496604056803385,-0.4652731892903642,8.116571647135416,0.2973603039253049,0.3863078791920732,-6.413157393292683,1.3139306045160062,-4.537442835365853,-5.811179556497713,0.1927330380394345,-8.945646740141369,-7.753099714006696,4.494574092018373,-27.486972298534795,2.3201750949667663,-2.2491330573361834,-29.516456094060256,-7.020233728979919,30.5845688441609,34.08293647227963,34.17878216072124,1577397674.999,-27.708421106402223,-51.12242318892099,14.676555
61799,1577397675.72,2.155949397389481,0.2167628429878042,9.002023056700171,1.5002301183188833,-0.7186108690215314,7.824659791527724,1.6258909464518223,0.523532096354166,8.482884501139322,-0.6334258288871952,-0.2393024723704267,-6.458933760480183,-2.683872129858994,5.533357945884147,-6.909812368997713,0.1622154599144345,-10.441008068266369,-6.532396589006696,4.593355940194604,-27.4869722985348,1.774251543209879,-1.596100832038332,-38.64389501316584,-4.816291160708081,30.5366459999401,34.370473537604454,34.27462784916285,1577397674.999,-27.708421106402223,-51.12242318892099,14.676555
61800,1577397675.73,2.936459138600419,0.9709363659370228,8.628527597715797,2.2244761205161487,1.2159040723847176,8.413633399926162,2.0472704386393223,1.0586361673990885,8.60618588663737,-0.1604033679496951,-0.1019733708079267,-6.565745283917683,-2.561801817358994,0.2385581411966462,-6.314719595560213,-0.6312415713355656,-7.694426037016369,-6.013597760881696,4.494574092018373,-29.40466804029304,1.2283279914529803,-1.7267072770979028,-44.12035836462919,-11.868907379177962,30.392877467277685,34.41839638182526,34.32255069338365,1577397674.999,-27.708421106402223,-51.12242318892099,14.676555
61801,1577397675.74,2.455224604909013,0.2335222546088979,9.337211289122044,1.8545719640220084,-0.0913300340605938,7.297935426293349,2.4518905192057283,1.0861694864908846,9.52436222330729,-1.0759307116996952,-0.2240436833079268,-6.748850752667683,-0.1203955673589938,-0.6922279916158537,-6.818259634622713,-0.9669349307105656,-6.687345958891369,-6.227220807756696,3.901883002961006,-27.486972298534795,6.141639957264959,-2.1185266122766127,-50.327016829621,-20.096959634059484,30.392877467277685,34.22670500494204,34.27462784916285,1577397674.999,-27.708421106402223,-51.12242318892099,14.676555
61802,1577397675.75,1.9787784745379184,-0.9180887439262572,9.191164987852511,1.3757316319907584,0.1744263502167488,8.179001637230849,3.2467654703776034,-0.7549715901692705,8.262617948404948,-0.2214385241996951,-0.8649128239329268,-6.413157393292683,-2.989047911108994,-0.2649818978658537,-6.818259634622713,-0.9364173525855656,-8.274260021391369,-7.234300885881696,4.494574092018373,-28.12620421245421,3.412022198480529,-1.596100832038332,-47.406236375507206,-21.27239567047113,30.5366459999401,34.22670500494204,34.27462784916285,1577397674.999,-27.708421106402223,-51.12242318892099,14.676555
61803,1577397675.76,2.0506045243426057,-0.1447616076957885,9.443753262998998,2.4052383458579456,-0.97479044665825,8.3896913833246,2.784684549967447,-0.635261507161458,8.980878446451822,-0.4503203601371951,-1.185347394245427,-6.367381026105183,-3.660434629858994,2.634188024009146,-6.513083853372713,-1.4246986025855657,-6.962004162016369,-6.257738385881696,4.346401319754033,-28.286012190934063,2.7296177587844244,-10.73855198620824,-41.56467546727963,-6.285586206222642,30.512684577829692,34.22670500494204,34.08293647227963,1577397674.999,-27.708421106402223,-51.12242318892099,14.676555
61804,1577397675.77,2.905334517018388,0.721939393280773,9.823234226133764,1.6007865880454455,0.7550202528046395,9.316247425805066,2.342954343668619,-0.6161078938802079,9.068266807047523,-0.7402373523246951,-0.8649128239329268,-6.169016768292683,-1.7378272079839938,-1.0431801400533536,-5.979026236185213,-1.0279700869605657,-5.893888927641369,-6.929125104631696,4.297010395665918,-30.04389995421245,2.866098646723648,-2.2491330573361807,-40.10428524022274,-1.7307715651275082,30.728337376823312,34.17878216072124,34.202743582831644,1577397674.999,-27.708421106402223,-51.12242318892099,14.676555
61805,1577397675.78,2.4624072098894816,0.5016728405463979,10.261373129942358,2.3573543126548206,0.1049945020722176,8.224491468773818,3.457455216471353,-1.4014060384114575,9.373527518717449,-0.6181670398246951,-1.078535870807927,-6.352122237042683,-3.996127989233994,3.732820836509146,-5.963767447122713,-2.8285071963355657,-6.809416271391369,-5.220140729631696,4.297010395665918,-28.12620421245421,3.9579457502374105,-2.1185266122766127,-50.327016829621,-2.4654190878847912,30.5845688441609,34.370473537604454,33.84332225117561,1577397674.999,-27.708421106402223,-51.12242318892099,14.676555
61806,1577397675.79,2.196650825612137,-0.1543384143364135,8.633316001036109,2.1825775914634145,0.1385133253144051,7.013025428734755,1.7863024576822912,1.3830504923502598,8.96890743815104,-1.9609404773246952,-1.597334698932927,-6.657298018292683,0.3373681045160062,-3.286222132240854,-6.513083853372713,-1.3026282900855657,-4.886808849516369,-5.372728620256696,3.901883002961006,-27.486972298534795,2.866098646723648,-2.1185266122766127,-50.327016829621,-2.4654190878847912,30.680414532602512,34.27462784916285,34.08293647227963,1577397674.999,-27.708421106402223,-51.12242318892099,14.676555
61807,1577397675.8,2.735346199147294,-0.2680629931938354,8.401078440000953,2.4052383458579456,0.1444988294647962,9.209705451928114,2.205287748209635,-0.3802790303548173,9.804483817545572,-1.0911895007621952,-0.9717243473704268,-6.519968916730183,-4.270786192358994,-0.2039467416158537,-6.482566275247713,-1.1195228213355657,-0.370207287016369,-6.852831159319196,3.852492078872893,-27.96639623397436,3.5485030864197524,-1.9879201672170408,-49.59682171609255,-24.06405625694879,30.440800311498485,34.32255069338365,34.250666427052444,1577397674.999,-27.708421106402223,-51.12242318892099,14.676555
61808,1577397675.81,2.9795547684832315,1.1457130871284291,10.05068338384861,2.096386331697789,-0.0649938157988751,8.921204151879286,0.9267840616861976,1.270523014322916,11.128477335611976,-0.4045439929496951,0.0200969416920732,-6.077464033917683,-5.186313536108994,2.908846227134146,-5.872214712747713,-2.4928138369605657,2.223786853608631,-6.898607526506696,4.494574092018373,-31.32236378205128,3.412022198480529,-9.693700425731672,-50.327016829621,-25.386421797911897,30.5845688441609,34.46631922604607,34.08293647227963,1577397674.999,-27.708421106402223,-51.12242318892099,14.676555
61809,1577397675.82,2.572540486256669,0.0826875500190542,10.531917917540015,2.433968765779821,1.12492440929878,10.592356910668348,1.6737749796549477,-1.3271857869466142,11.97602472330729,-0.6181670398246951,-0.2545612614329268,-6.352122237042683,-4.270786192358994,-2.950528772865854,-5.414451040872713,-2.7674720400855657,7.472810291108631,-4.640306745256696,4.297010395665918,-28.765436126373626,2.3201750949667663,-9.693700425731672,-35.72311455905206,-21.86011368867695,30.48872315571929,34.41839638182526,34.17878216072124,1577397674.999,-27.708421106402223,-51.12242318892099,14.676555
61810,1577397675.83,2.522262251393388,-0.2285586658012572,10.019558762266575,1.9790704503501333,-0.6611500291777814,8.758398438988662,2.0831834635416664,3.1356061075846355,8.023197782389323,-2.2050811023246952,0.2337199885670732,-6.901438643292683,-1.3105811142339938,-2.035001429115854,-5.414451040872713,-1.6993568057105657,5.275544666108631,-6.807054792131696,4.198228547489692,-28.44582016941392,3.139060422602083,-9.693700425731672,-35.72311455905206,-21.86011368867695,30.680414532602512,34.370473537604454,34.17878216072124,1577397674.999,-27.708421106402223,-51.12242318892099,14.676555
61811,1577397675.84,2.5677520829363565,0.1868353222358516,9.89027187261814,2.4148151524985706,0.2558292066620618,9.146259107933972,2.427948502604166,-1.4840059956868483,7.514429929606119,-1.8236113757621952,0.6457072932545732,-6.596262862042683,-4.179233457983994,2.603670445884146,-5.826438345560213,-1.8824622744605657,-6.031218029203869,-6.791796003069196,4.050055775225349,-27.96639623397436,2.183694207027532,-1.0736750518000513,-49.961919272856775,-11.575048370075049,30.5366459999401,34.41839638182526,34.130859316500434,1577397674.999,-27.708421106402223,-51.12242318892099,14.676555
61812,1577397675.85,2.208621833912918,0.3723859508979605,9.945338510801731,1.4044620519126334,-0.4265182664824689,8.461517433129286,3.088748160807291,4.933651554361979,8.978484244791666,-1.5031768054496952,0.5388957698170732,-6.199534346417683,-1.6157568954839938,-1.4856850228658536,-5.109275259622713,-1.8214271182105648,-7.419767833891369,-7.295336042131696,4.099446699313464,-28.12620421245421,0.1364808879392175,-2.379739502395749,-33.53252921846671,-21.27239567047113,30.728337376823312,34.27462784916285,34.22670500494204,1577397674.999,-27.708421106402223,-51.12242318892099,14.676555
61813,1577397675.86,2.847873677174638,0.2933772961128042,7.996458359434546,2.321441287752477,0.7633999586151863,9.52454297023866,1.9227719523111972,-1.5139335164388017,10.644848600260415,-2.2661162585746952,0.2947551448170732,-6.718333174542683,-4.148715879858994,2.939363805259146,-6.299460806497713,-2.8895423525855657,-4.184904552641369,-6.623949323381696,4.099446699313464,-30.683131868131863,3.9579457502374105,-10.607945541148668,-35.35801700228783,-25.82721031156625,30.249108934615272,34.08293647227963,34.22670500494204,1577397674.999,-27.708421106402223,-51.12242318892099,14.676555
61814,1577397675.87,1.9021640214129183,-0.0023066089164921,9.826825528624,2.263980447908727,-0.7904369188262189,8.832618690453506,2.6242730387369786,-0.367110921223958,10.68076162516276,-1.2132598132621952,-0.0256794254954267,-6.519968916730183,-2.134555723608994,-3.286222132240854,-5.109275259622713,-2.2486732119605657,0.1180739629836309,-3.4501211983816966,4.395792243842147,-29.724283997252744,2.04721331908832,-10.607945541148668,-35.35801700228783,-25.82721031156625,30.48872315571929,34.27462784916285,34.03501362805883,1577397674.999,-27.708421106402223,-51.12242318892099,14.676555
61815,1577397675.88,2.6443665360613564,0.0635339367378042,9.011599863340797,1.939566122957555,-0.1188633531523912,8.515386970482803,2.688916483561197,0.4457205423990878,8.633719205729166,-1.9304228991996952,-0.5902546208079268,-6.657298018292683,-2.821201231421494,-0.6922279916158537,-5.643332876810213,-2.4317786807105657,-2.002897716703869,-6.471361432756696,4.593355940194604,-30.36351591117216,2.04721331908832,-2.314436279865966,-48.68407782418199,-2.098095326506147,30.680414532602512,34.32255069338365,34.22670500494205,1577397674.999,-27.708421106402223,-51.12242318892099,14.676555
61816,1577397675.89,3.156725691334794,0.2790120861518667,10.395448422911109,2.005406668611852,1.268576508908155,8.4663058364496,3.984179581705728,0.7988652872721347,6.421476871744791,-1.9609404773246952,-0.6207721989329268,-6.718333174542683,-2.287143614233994,4.434725133384147,-5.322898306497713,-1.4552161807105657,-13.736906505766369,-8.332933698381696,4.494574092018373,-27.486972298534795,4.503869301994293,-2.379739502395749,-48.8666266025641,-1.2899830514731403,30.392877467277685,34.27462784916285,34.17878216072124,1577397674.999,-27.708421106402223,-51.12242318892099,14.676555
61817,1577397675.9,2.280447883717606,0.549556873749523,9.112156333067356,2.716484561678258,-1.0083092699004377,8.435181214867567,0.22288877360026,-2.277683846028645,9.828425834147131,-1.9304228991996952,-0.5902546208079268,-6.565745283917683,-1.1274756454839938,-1.0279213509908536,-5.963767447122713,-1.2110755557105657,-12.272062755766369,-6.410326276506696,4.099446699313464,-26.84774038461538,5.595716405508078,-2.379739502395749,-44.48545592139342,-5.404009178913907,30.48872315571929,34.17878216072124,34.03501362805883,1577397674.999,-27.708421106402223,-51.12242318892099,14.676555
61818,1577397675.91,2.359456538502762,-0.3398890429985229,9.261793936827123,0.8992855016196646,-0.9652136400176252,9.893250025902724,0.9770622965494788,-1.0901598225911455,14.786817472330728,-1.4421416491996952,-0.7123249333079268,-6.703074385480183,-3.965610411108994,-1.0279213509908536,-6.085837759622713,-1.7298743838355657,2.651032947358631,-1.4359610421316964,4.395792243842147,-25.24966059981685,1.5012897673314385,-2.379739502395749,-45.94584614845031,-6.579445215325552,30.53664599994009,34.27462784916285,34.27462784916285,1577397674.999,-27.708421106402223,-51.12242318892099,14.676555
61819,1577397675.92,2.572540486256669,0.3268961193549917,10.704300437071264,3.683742032381383,-0.3247646959258287,10.220058552514052,2.4698470316569003,2.711832413736979,12.18551736857096,-0.4045439929496951,0.5694133479420732,-6.474192549542683,-7.185214903296494,2.237459508384146,-6.345237173685213,-2.4928138369605657,23.29617454892113,-5.891527448381696,4.099446699313464,-30.04389995421245,1.2283279914529803,-1.6614040545681172,-48.31898026741776,-24.284450513775973,30.48872315571929,34.32255069338365,34.17878216072124,1577397674.999,-27.708421106402223,-51.12242318892099,14.676555
61820,1577397675.93,2.962795356862138,-0.2189818591606323,10.357141196348609,0.7221145787681021,0.5886232374237801,9.845365992699598,1.8006676676432287,0.561839322916666,6.450207291666667,-1.5336943835746952,-0.1324909489329268,-6.779368330792683,-1.9209326767339936,-0.3870522103658537,-4.712546743997713,-2.0045325869605657,20.22915794735863,-9.217943464006696,4.593355940194604,-29.08505208333333,2.04721331908832,-8.648848865255117,-37.18350478610895,-20.68467765226531,30.680414532602512,34.08293647227963,34.17878216072124,1577397674.999,-27.708421106402223,-51.12242318892099,14.676555
61821,1577397675.94,2.869421492116044,0.4106931774604604,9.3779127173447,1.9694936437095083,1.4098344068573738,9.878884815941786,1.23803027750651,0.5833871378580723,5.621813517252604,-2.3271514148246952,0.5694133479420732,-6.535227705792683,-1.9514502548589936,5.838533727134147,-4.926169790872713,-2.2181556338355657,2.895173572358631,-10.011400495256696,4.297010395665918,-28.12620421245421,2.866098646723648,-8.648848865255117,-37.18350478610895,-20.68467765226531,30.680414532602512,34.370473537604454,34.08293647227963,1577397674.999,-27.708421106402223,-51.12242318892099,14.676555
61822,1577397675.95,2.1152479691668247,0.3005599010932729,9.35397070074314,3.477840689607945,1.8599443189667488,9.079221461449595,1.2045114542643225,-2.711034346516927,6.404717460123697,-2.3118926257621952,0.5388957698170732,-7.023508955792683,-2.256626036108994,-0.5091225228658537,-6.207908072122713,-1.6078040713355657,-13.523283458891369,-6.898607526506696,4.593355940194603,-27.806588255494503,2.3201750949667663,-9.693700425731672,-50.327016829621,-14.807497470207078,30.704375954712912,34.08293647227963,34.27462784916285,1577397674.999,-27.708421106402223,-51.12242318892099,14.676555
61823,1577397675.96,2.618030317799638,0.329290321015148,8.140110459043921,2.008997971102086,-0.9556368333770008,5.793179682885146,2.0783950602213537,-0.2198675191243491,8.498446811930338,-1.8999053210746952,0.8440715510670732,-6.626780440167683,-3.507846739233994,-0.3412758431783536,-6.803000845560213,-1.7909095400855657,-17.85677955264137,-5.265917096819196,4.889701484723288,-27.486972298534795,2.3201750949667663,-1.33488794191919,-50.327016829621,-10.546541838214852,30.249108934615272,34.32255069338365,34.250666427052444,1577397674.999,-27.708421106402223,-51.12242318892099,14.676555
61824,1577397675.97,2.261294270436356,0.128177381562023,9.306086667540011,2.7188787633384144,0.6029884473847176,8.971482386742567,3.744759415690104,0.6719725992838534,10.611329777018229,-1.4116240710746952,0.2947551448170732,-6.809885908917683,-5.979770567358994,5.624910680259147,-5.872214712747713,-1.8824622744605648,-10.105314708891369,-4.121507917131696,4.494574092018373,-28.765436126373626,2.866098646723648,-6.820358634421136,-29.88155365082448,-25.97413981611772,30.392877467277685,34.27462784916285,34.27462784916285,1577397674.999,-27.708421106402223,-51.12242318892099,14.676555
61825,1577397675.98,2.175103010670731,0.1473309948432729,9.358759104063452,1.411644656893102,0.0834466871308113,8.492642054711318,2.746377323404947,2.6663425821940105,10.944123807779944,-1.2895537585746952,-0.9259479801829268,-6.565745283917683,-2.195590879858994,-3.042081507240854,-5.750144400247713,-2.9810950869605657,-4.581633068266369,-7.844652448381696,4.000664851137237,-28.44582016941392,2.593136870845201,-6.820358634421136,-29.88155365082448,-25.97413981611772,30.5366459999401,34.370473537604454,34.08293647227963,1577397674.999,-27.708421106402223,-51.12242318892099,14.676555
61826,1577397675.99,1.9871581803484653,-0.173492027617664,10.156028256895484,2.190957297273961,-0.2649096544219225,9.350963349877333,2.6649744669596345,-0.8172208333333328,11.448103257242837,-1.3048125476371952,-1.261641339557927,-6.779368330792683,-3.874057676733994,-0.2497231088033535,-5.994285025247713,-1.9129798525855657,0.0265212286086309,-6.684984479631696,3.9512739270491215,-28.92524410485348,2.456655982905984,-10.412035873559317,-50.14446805123889,-21.78664893640122,30.5366459999401,34.32255069338365,34.130859316500434,1577397674.999,-27.708421106402223,-51.12242318892099,14.676555
61827,1577397676.0,2.5102912430926065,0.128177381562023,9.765773386290014,2.76676279654154,1.5965821363495614,9.17977793117616,3.139026395670572,2.673525187174479,11.511549601236975,-2.2050811023246952,-1.170088605182927,-6.352122237042683,-4.698032286108994,-0.9668861947408536,-6.421531118997713,-2.3402259463355657,3.261384509858631,-7.447923932756696,3.80310115478478,-29.08505208333333,2.593136870845201,-1.465494386978761,-49.96191927285677,-2.0246305742304176,30.680414532602512,34.370473537604454,34.03501362805883,1577397675.999,-27.70829689950112,-51.12236258520296,15.033771
61828,1577397676.01,3.54219215861995,-0.1926456408989135,8.695565244200171,2.891261282869664,0.9214172681854989,8.990636000023816,2.7487715250651035,-0.2114878133138017,8.909052396647136,-2.2050811023246952,-1.017500714557927,-7.054026533917683,-2.226108457983994,1.5660727896341464,-5.597556509622713,-2.4622962588355657,3.536042712983631,-6.684984479631696,4.297010395665918,-28.765436126373626,2.866098646723648,-5.775507073944574,-50.327016829621,-2.4654190878847912,30.5845688441609,34.27462784916285,34.370473537604454,1577397675.999,-27.70829689950112,-51.12236258520296,15.033771
61829,1577397676.02,2.208621833912918,0.7626408215034292,10.182364475157202,1.7061314610923208,-0.0602054124785626,8.1215407973871,1.5875837198893226,-2.179521577962239,7.264235856119791,-0.0993682116996951,-1.139571027057927,-6.809885908917683,-3.141635801733994,-2.706388147865854,-6.665671743997713,-3.8050696963355657,1.674470447358631,-5.708421979631696,3.5067556102560955,-30.04389995421245,2.3201750949667663,-5.775507073944574,-50.327016829621,-2.4654190878847912,30.48872315571929,34.27462784916285,34.08293647227963,1577397675.999,-27.70829689950112,-51.12236258520296,15.033771
61830,1577397676.03,2.724572291676591,-0.4428397143852416,9.278553348448217,2.0712472142661484,0.67840579967964,9.507783558617568,0.9363608683268224,-0.4042210469563803,11.594149558512369,-1.6099883288871952,-0.9564655583079268,-6.992991377667683,-3.446811582983994,1.6576255240091464,-5.994285025247713,-1.7603919619605657,8.861360095796131,-6.044115339006696,4.395792243842148,-30.043899954212456,2.320175094966761,-1.9879201672170408,-41.56467546727963,-14.072849947449798,30.53664599994009,34.39443495971486,34.250666427052444,1577397675.999,-27.70829689950112,-51.12236258520296,15.033771
61831,1577397676.04,2.7185867875262004,0.5184322521674917,9.990828342344702,3.300669766756383,-1.228575822634813,10.417580189476942,2.954672867838541,-0.8890468831380205,13.860261429850258,-0.5266143054496951,-0.3461139958079268,-6.687815596417683,-2.134555723608994,3.244539586509146,-6.452048697122713,-2.3707435244605657,27.40078880673363,-4.792894635881696,4.593355940194604,-28.44582016941392,1.5012897673314385,-2.379739502395749,-33.53252921846671,-20.97853666136822,30.5845688441609,34.370473537604454,34.27462784916285,1577397675.999,-27.70829689950112,-51.12236258520296,15.033771
61832,1577397676.05,2.876604097096513,0.1233889782417104,10.48403388433689,3.080403214022008,0.6508724805878426,12.227596644555067,2.585965812174478,2.697467203776042,10.972854227701822,-0.1604033679496951,0.2337199885670732,-6.779368330792683,-6.223911192358994,-2.767423304115854,-5.536521353372713,-2.7979896182105657,36.12881615048363,-7.264818464006696,3.30919191390364,-28.12620421245421,2.3201750949667663,-2.2491330573361834,-34.627821888759385,-18.48073508399348,30.48872315571929,34.41839638182526,34.08293647227963,1577397675.999,-27.70829689950112,-51.12236258520296,15.033771
61833,1577397676.06,2.6036651078387,-0.4619933276664916,10.542691825010715,2.381296329256384,0.3468088697479988,10.180554225121474,1.9131951456705725,2.019908133951822,6.885951993815104,-0.9691191882621952,0.6151897151295732,-6.962473799542683,-1.7378272079839938,-1.1194740853658536,-6.116355337747713,-0.1124427432105654,28.31631615048363,-10.225023542131696,4.593355940194603,-30.043899954212453,2.04721331908832,-8.648848865255117,-38.64389501316584,-5.991727197119726,30.392877467277685,34.17878216072124,34.17878216072124,1577397675.999,-27.70829689950112,-51.12236258520296,15.033771
61834,1577397676.07,2.582117292897294,-0.2094050525200072,10.15842245855564,2.736835275789586,0.2378726942108899,9.47426473537538,1.88925312906901,-1.0099540669759108,6.093471244303385,-0.5266143054496951,0.9966594416920732,-6.840403487042683,-2.287143614233994,2.039095250571646,-6.833518423685213,-0.5244300478980655,-0.1413254510788686,-8.744921003069196,4.889701484723288,-30.04389995421245,1.774251543209873,-6.03671996406371,-38.64389501316584,-6.579445215325551,30.48872315571929,34.32255069338365,34.08293647227963,1577397675.999,-27.70829689950112,-51.12236258520296,15.033771
61835,1577397676.08,2.177497212330887,-0.0896949695121947,11.13525673589939,1.402067850252477,-1.5996770799590314,8.4663058364496,1.1255027994791662,-0.3958413411458329,11.310436661783852,0.2668427258003049,0.9051067073170732,-6.565745283917683,0.5204735732660062,-3.866056116615854,-5.872214712747713,-0.8448646182105655,-9.342375255766369,-5.220140729631696,4.889701484723288,-30.04389995421245,1.774251543209873,-1.33488794191919,-49.59682171609254,-18.92152359764784,30.48872315571929,34.41839638182526,34.22670500494204,1577397675.999,-27.70829689950112,-51.12236258520296,15.033771
61836,1577397676.09,2.500714436451981,0.4250583874213979,9.753802377989231,0.7771812169516958,1.0243679395722176,9.414409693871471,2.248383378092448,2.2305978800455724,11.487607584635414,0.2973603039253049,0.8135539729420732,-6.657298018292683,-2.256626036108994,-1.0584389291158536,-6.207908072122713,0.0706627255394345,-3.238859630766369,-5.220140729631696,3.704319306608551,-29.40466804029304,3.9579457502374105,-1.33488794191919,-49.59682171609254,-18.92152359764784,30.48872315571929,34.27462784916285,34.17878216072124,1577397675.999,-27.70829689950112,-51.12236258520296,15.033771
61837,1577397676.1,2.2146073380633093,0.4298467907417105,10.146451450254858,4.540866226717321,0.5598928175019051,10.577991700707411,2.4686499308268224,0.1787670572916659,10.103759025065102,0.3889130383003048,0.2642375666920732,-6.504710127667683,-2.104038145483994,5.716463414634147,-6.360495962747713,-0.7838294619605655,2.498445056733631,-3.8773672921316966,4.198228547489691,-30.04389995421245,2.5931368708452016,-2.379739502395749,-48.8666266025641,-20.096959634059484,30.392877467277685,34.41839638182526,34.17878216072124,1577397675.999,-27.70829689950112,-51.12236258520296,15.033771
61838,1577397676.11,1.9117408280535435,-0.9683669787895384,8.75302608404392,2.028151584383336,-0.4097588548613751,8.036546638451552,2.4925919474283846,0.5343060038248696,8.067490513102213,-0.3129912585746951,0.0811320979420732,-6.718333174542683,-3.324741270483994,-1.1805092416158538,-7.016623892435213,-0.5396888369605656,0.2248854864211309,-7.051195417131696,4.000664851137237,-29.08505208333333,0.4094426638176527,-10.73855198620824,-50.327016829621,-5.991727197119726,30.5845688441609,34.250666427052444,34.10689789439003,1577397675.999,-27.70829689950112,-51.12236258520296,15.033771
61839,1577397676.12,2.6730969559832314,-0.6690917712700073,7.709154160215796,2.0293486852134146,0.1433017286347176,8.978664991723035,3.5460406778971345,1.366291080729166,9.375921720377605,-0.5571318835746951,-0.4681843083079268,-6.901438643292683,-1.4631690048589938,-0.8753334603658537,-5.109275259622713,0.8641197567894345,-3.971281505766369,-9.523119245256696,4.000664851137237,-29.08505208333333,0.4094426638176527,-10.607945541148668,-49.96191927285677,-4.669361656156629,30.5366459999401,34.41839638182526,34.08293647227963,1577397675.999,-27.70829689950112,-51.12236258520296,15.033771
61840,1577397676.13,3.171090901295732,0.1808498180854604,8.949350620176732,2.845771451326696,1.3571619703339364,9.081615663109757,3.955449161783853,-1.9424956136067704,7.853209464518229,0.8161591320503049,-1.048018292682927,-6.748850752667683,-2.226108457983994,1.9322837271341464,-6.391013540872713,0.7115318661644345,-8.060636974516369,-7.661546979631696,3.901883002961006,-31.32236378205128,3.9579457502374105,-2.2491330573361834,-47.04113881874298,-2.318489583333339,30.5366459999401,34.46631922604607,34.08293647227963,1577397675.999,-27.70829689950112,-51.12236258520296,15.033771
61841,1577397676.14,1.9967349869890905,0.6812379650581167,9.866329856016575,3.3126407750571643,-0.4552486864043439,9.368919862328504,2.8182033732096348,-0.8148266316731767,9.277759452311198,1.7927216320503048,-0.3918903629954267,-6.367381026105183,2.290493104516006,-3.652433069740854,-6.299460806497713,0.4063560849144345,-11.387052990141369,-5.769457135881696,3.901883002961006,-29.08505208333333,1.7742515432098735,-2.2491330573361834,-48.50152904579988,-2.9062076015391587,30.53664599994009,34.46631922604607,34.17878216072124,1577397675.999,-27.70829689950112,-51.12236258520296,15.033771
61842,1577397676.15,1.6675322587176058,-0.8175322741996948,10.21588329839939,1.9563255345786488,-1.203436705203172,9.74241532131288,0.8417899027506511,-0.8615135640462236,12.48000417277018,-0.0078154773246951,-1.048018292682927,-6.413157393292683,-0.1203955673589938,-3.0115639291158534,-7.138694204935213,0.5131676083519345,-3.3151535760788686,-3.679003034319196,3.901883002961006,-28.12620421245421,0.1364808879392175,-2.379739502395749,-46.67604126197876,-23.917126752397337,30.392877467277685,34.202743582831644,34.22670500494205,1577397675.999,-27.70829689950112,-51.12236258520296,15.033771
61843,1577397676.16,2.261294270436356,-0.7026105945121948,10.658810605528297,2.244826834627477,1.4074402051972177,10.5732032973871,2.4016122843424474,2.0797631754557284,8.858774161783854,0.6330536633003049,-1.353194073932927,-6.413157393292683,-3.477329161108994,3.061434117759146,-5.750144400247713,0.4063560849144345,0.7894606817336309,-6.623949323381696,3.901883002961006,-28.12620421245421,0.1364808879392175,-2.1185266122766127,-49.59682171609254,-21.27239567047113,30.5366459999401,34.27462784916285,34.370473537604454,1577397675.999,-27.70829689950112,-51.12236258520296,15.033771
61844,1577397676.17,2.792807038991044,0.405904774140148,10.749790268614234,2.6255048985923204,0.0666872755097176,8.74642743068788,2.303450016276041,0.9209695719401034,9.794907010904948,1.1518524914253048,-1.200606183307927,-6.169016768292683,1.3444481826410062,-2.645352991615854,-6.635154165872713,0.8336021786644345,-3.391447521391369,-9.034837995256696,4.000664851137237,-27.806588255494503,2.593136870845201,-2.1185266122766127,-49.59682171609254,-21.27239567047113,30.680414532602512,34.370473537604454,33.939167939617214,1577397675.999,-27.70829689950112,-51.12236258520296,15.033771
61845,1577397676.18,2.1248247758074497,0.8236929638374135,9.383898221495093,2.329820993563024,0.8005100843476083,8.125132099877334,2.0592414469401032,-0.0606531087239584,9.598582474772131,0.9534882336128048,-0.6665485661204268,-6.428416182355183,-1.1732520126714938,-2.569059046303354,-6.513083853372713,1.4744713192894343,-5.787077404203869,-7.005419049944196,4.050055775225349,-28.92524410485348,1.9107324311490907,-2.183829834806398,-31.52449265626348,-11.060795104144956,30.512684577829692,34.41839638182526,34.15482073861084,1577397675.999,-27.70829689950112,-51.12236258520296,15.033771
61846,1577397676.19,2.033845112721512,-0.130396397734851,8.96371583013767,2.0078008702720083,-1.08971212634575,7.958735084496474,2.71285850016276,-0.2186704182942705,8.729487272135415,0.4804657726753049,-0.9564655583079268,-6.535227705792683,0.7646141982660062,-3.469327600990854,-6.574119009622713,1.1387779599144343,-8.518400646391369,-7.386888776506696,4.099446699313464,-29.40466804029304,2.3201750949667663,-1.7267072770979026,-39.00899256993007,-14.072849947449797,30.48872315571929,34.08293647227963,34.22670500494204,1577397675.999,-27.70829689950112,-51.12236258520296,15.033771
61847,1577397676.2,2.5294448563738565,-0.1256079944145385,9.172011374571264,0.6526827306235709,0.2342813917206551,10.84614228664491,2.186134134928385,-2.8139850179036454,9.871521464029946,0.8771942883003049,-1.780440167682927,-6.382639815167683,-4.698032286108994,-0.6006752572408537,-5.536521353372713,0.5284263974144345,-7.663908458891369,-5.250658307756696,4.099446699313464,-29.40466804029304,2.3201750949667663,-1.7267072770979026,-39.00899256993007,-14.072849947449797,30.34495462305688,34.27462784916285,34.27462784916285,1577397675.999,-27.70829689950112,-51.12236258520296,15.033771
61848,1577397676.21,2.755696913258622,0.2143686413276479,10.201518088438451,2.860136661287633,0.1002060987519051,6.943593580590224,2.27232539469401,1.107717301432291,10.52753271891276,1.0755585461128048,-1.414229230182927,-6.169016768292683,3.328090760766006,-7.284024866615853,-5.780661978372713,1.0472252255394343,-4.978361583891369,-4.823412214006696,3.852492078872894,-29.564476018772893,2.729617758784425,-2.379739502395749,-50.327016829621,-21.27239567047113,30.53664599994009,34.370473537604454,34.17878216072124,1577397675.999,-27.70829689950112,-51.12236258520296,15.033771
61849,1577397676.22,2.3953695634051058,0.951782752655773,10.96287421636814,3.231237918611852,1.3356141553925305,9.028943226586316,3.021710514322916,2.386220987955729,9.897857682291663,1.7011688976753048,-0.9564655583079268,-6.291087080792683,-0.1509131454839938,0.5895102896341463,-6.513083853372713,1.1998131161644343,-4.429045177641369,-7.203783307756696,3.80310115478478,-30.36351591117216,5.322754629629632,-2.379739502395749,-47.406236375507206,-25.97413981611772,30.5366459999401,34.27462784916285,34.08293647227963,1577397675.999,-27.70829689950112,-51.12236258520296,15.033771
61850,1577397676.23,2.579723091237138,-0.6882453845512573,9.586208261778294,3.5544551427329454,-0.2206169237090313,8.588410121117567,1.2883085123697913,-2.3758461140950518,12.095734806315102,-0.7707549304496951,-0.9869831364329268,-6.657298018292683,-2.317661192358994,1.0472739615091464,-6.604636587747713,-0.9058997744605656,-4.398527599516369,-3.8468497140066966,4.000664851137237,-30.36351591117216,3.139060422602083,-1.204281496859622,-35.35801700228783,-6.4325157107741,30.5366459999401,34.22670500494204,34.08293647227963,1577397675.999,-27.70829689950112,-51.12236258520296,15.033771
61851,1577397676.24,2.7335505479021767,-0.0867022174369999,9.57124450140232,3.571214554354039,0.0642930738495613,9.785510951195691,2.5404759806315096,1.8235835978190096,10.529926920572915,-0.3282500476371951,-0.5063312809641768,-6.748850752667683,-2.470249082983994,1.5050376333841464,-6.848777212747713,0.5894615536644345,2.101716541108631,-7.173265729631696,3.852492078872894,-30.043899954212456,2.7296177587844186,-1.204281496859622,-35.35801700228783,-6.4325157107741,30.584568844160906,34.17878216072124,34.08293647227963,1577397675.999,-27.70829689950112,-51.12236258520296,15.033771
61852,1577397676.25,2.887378004567216,0.5148409496772574,9.556280741026342,1.8988646947348984,1.122530207638624,7.484683155785537,1.0632535563151038,-0.1312820576985678,9.029959580485023,0.1142548351753049,-0.0256794254954267,-6.840403487042683,-0.2577246689214937,-0.6464516244283538,-6.207908072122713,-0.1887366885230654,-1.438322521391369,-7.386888776506696,3.704319306608551,-29.724283997252748,2.320175094966755,-4.469442623348874,-43.390163251100745,-7.020233728979919,30.632491688381705,34.34651211549405,34.32255069338365,1577397675.999,-27.70829689950112,-51.12236258520296,15.033771
61853,1577397676.26,2.8047780472918253,0.4681540173042104,8.542336337950172,3.6382522008384144,-0.7210050706816876,8.418421803246474,2.4111890909830724,-0.8555280598958329,10.173190873209634,-0.0993682116996951,-0.0104206364329267,-6.809885908917683,-2.165073301733994,1.2608970083841464,-6.452048697122713,0.4063560849144345,-0.5227951776413691,-6.318773542131696,3.30919191390364,-29.40466804029304,3.412022198480529,-8.648848865255117,-34.992919445523604,-22.447831706882774,30.48872315571929,34.22670500494204,34.27462784916285,1577397675.999,-27.70829689950112,-51.12236258520296,15.033771
61854,1577397676.27,2.977160566823075,0.4585772106635855,9.00920566168064,0.9639289464438834,1.0890113843964364,10.264351283226942,1.9634733805338536,-2.3064142659505205,7.872363077799479,-0.4655791491996951,0.9051067073170732,-6.596262862042683,-1.2800635361089938,-1.9739662728658536,-5.963767447122713,-0.9974525088355656,0.1485915411086309,-5.220140729631696,4.000664851137237,-28.44582016941392,3.684983974358964,-2.379739502395749,-49.59682171609254,-21.86011368867695,30.5366459999401,34.27462784916285,34.03501362805883,1577397675.999,-27.70829689950112,-51.12236258520296,15.033771
61855,1577397676.28,3.050183717457841,-0.0214602221977421,9.151660660459935,1.8569661656821643,-1.3411033006621564,7.455952735863661,3.5220986612955723,0.8467493204752597,8.135725260416667,-0.7554961413871952,1.408646746379573,-6.825144697980183,-1.3716162704839938,2.206941930259146,-6.909812368997713,-1.3331458682105657,0.3622145879836309,-5.433763776506696,3.9512739270491215,-28.60562814789377,2.456655982905972,-1.8573137221574736,-50.327016829621,-25.97413981611772,30.36891604516728,34.17878216072124,34.17878216072124,1577397675.999,-27.70829689950112,-51.12236258520296,15.033771
61856,1577397676.29,2.651549141041825,0.1808498180854604,10.057865988829075,3.025336575838414,0.7777651685761239,8.53573768459413,1.6438474589029943,1.1544042338053384,7.895107993570963,-0.1298857898246951,2.1258098323170733,-6.596262862042683,-4.286044981421494,2.985140172446646,-6.787742056497713,-0.7990882510230656,-4.718962169828869,-7.386888776506696,4.099446699313464,-30.04389995421245,3.412022198480529,-2.183829834806398,-35.54056578066994,-15.468680240688627,30.5366459999401,34.32255069338365,34.202743582831644,1577397675.999,-27.70829689950112,-51.12236258520296,15.033771
61857,1577397676.3,1.7058394852801058,0.539980067108898,9.34678809576267,1.0884274327720085,0.3085016431854988,4.649948390160536,2.638638248697916,-0.4389369710286455,6.9027114054361975,-0.9843779773246952,1.820634051067073,-6.931956221417683,-4.148715879858994,0.1927817740091463,-6.238425650247713,-1.0279700869605657,-15.476408458891369,-7.600511823381696,3.704319306608551,-28.12620421245421,1.2283279914529803,-2.1185266122766127,-38.64389501316584,-5.404009178913907,30.5366459999401,34.22670500494204,34.17878216072124,1577397675.999,-27.70829689950112,-51.12236258520296,15.033771
61858,1577397676.31,1.8997698197527624,0.4490004040229605,9.114550534727512,2.156241373201696,0.1433017286347176,7.420039710961317,2.0736066569010414,-0.1420559651692705,8.693574247233073,-0.7707549304496951,0.6609660823170732,-6.718333174542683,-2.989047911108994,3.793855992759146,-6.177390493997713,-1.0584876650855657,-15.323820568266369,-5.677904401506696,3.80310115478478,-31.00274782509157,4.230907526115857,-2.379739502395749,-38.64389501316584,-5.697868188016817,30.48872315571929,34.17878216072124,34.17878216072124,1577397675.999,-27.70829689950112,-51.12236258520296,15.033771
61859,1577397676.32,1.7285844010515905,0.3783714550483511,9.853161746885718,2.42199775747904,-1.5015148118926251,7.127947108422255,3.040864127604166,0.5594451212565098,10.00320255533854,-1.1980010241996952,-0.2850788395579268,-6.672556807355183,-3.141635801733994,2.084871617759146,-5.261863150247713,-1.0890052432105657,-13.492765880766369,-5.830492292131696,4.099446699313464,-30.683131868131863,2.593136870845201,-1.0736750518000513,-41.56467546727963,-17.746087561236187,30.32099320094648,34.27462784916285,34.17878216072124,1577397675.999,-27.70829689950112,-51.12236258520296,15.033771
61860,1577397676.33,1.8470973832293245,0.4849134289253042,9.6077560767197,2.3286238927329457,0.9453592847870614,9.60235452419374,1.247607084147135,0.643242179361979,11.59295245768229,-2.1440459460746952,-0.7428425114329268,-6.870921065167683,-3.263706114233994,0.6505454458841464,-5.979026236185213,-2.0350501650855657,-1.3772873651413688,-4.731859479631696,4.000664851137237,-31.00274782509157,-0.6824044396961103,-6.232629631653071,-49.41427293771044,-21.786648936401225,30.5845688441609,34.29858927127325,34.17878216072124,1577397675.999,-27.70829689950112,-51.12236258520296,15.033771
61861,1577397676.34,2.129613179127762,0.0563513317573354,8.934985410215795,1.0405433995688833,-0.0434460008574688,7.683401893578505,1.3266157389322912,-0.0367110921223955,10.280929947916665,-2.0219756335746952,-0.3766315739329268,-6.626780440167683,-5.094760801733994,-4.201749475990853,-6.207908072122713,-2.6148841494605657,8.601960681733631,-5.403246198381696,4.198228547489692,-29.08505208333333,2.04721331908832,-2.2491330573361834,-49.96191927285677,-22.30090220233132,30.728337376823312,34.27462784916285,34.370473537604454,1577397675.999,-27.70829689950112,-51.12236258520296,15.033771
61862,1577397676.35,2.716192585866044,0.1712730114448354,9.09060851812595,2.862530862947789,-0.1463966722441876,7.994648109398818,2.8182033732096348,3.6958492960611977,9.390286930338542,-1.8999053210746952,-1.383711652057927,-6.474192549542683,-4.148715879858994,3.336092320884146,-5.963767447122713,-1.8214271182105648,15.193757556733631,-6.776537214006696,3.0128463693749543,-32.2812116529304,3.684983974358964,-2.379739502395749,-49.59682171609254,-2.171560078781876,30.392877467277685,34.27462784916285,34.17878216072124,1577397675.999,-27.70829689950112,-51.12236258520296,15.033771
61863,1577397676.36,2.6443665360613564,-0.1184253894340702,9.175602677061498,2.1442703649009145,0.4318030286835457,8.647068061791396,2.053255942789713,-0.151632771809896,7.178044596354166,-1.9151641101371952,-0.5292194645579268,-6.397898604230183,-3.355258848608994,0.3911460318216463,-5.582297720560213,-0.8448646182105656,8.296784900483631,-9.065355573381696,3.161019141639297,-31.162555803571426,2.456655982905972,-2.314436279865966,-49.04917538094621,-2.685813344711975,30.44080031149849,34.17878216072124,34.130859316500434,1577397675.999,-27.70829689950112,-51.12236258520296,15.033771
61864,1577397676.37,1.9045582230730749,0.8057364513862417,9.82084002447361,2.601562881990758,-0.4863733079863751,9.21808515773866,2.0951544718424477,-0.6185020955403643,8.595411979166666,-1.5947295398246952,0.0506145198170732,-6.230051924542683,-2.805942442358994,-1.7908608041158536,-5.658591665872713,-2.7369544619605657,-1.529875255766369,-2.6566641671316966,3.407973762079867,-30.36351591117216,3.684983974358964,-1.8573137221574736,-50.327016829621,-25.386421797911897,30.5366459999401,34.46631922604607,34.27462784916285,1577397675.999,-27.70829689950112,-51.12236258520296,15.033771
61865,1577397676.38,1.8303379716082309,0.3795685558784292,9.016388266661108,0.8083058385337272,0.1911857618378426,9.864519605980847,0.6394798624674476,1.7062677164713531,11.126083133951822,-1.5336943835746952,-0.1019733708079267,-6.321604658917683,-4.942172911108994,-2.004483850990854,-5.597556509622713,-1.9129798525855648,0.5758376348586309,-4.304613385881696,4.099446699313464,-28.12620421245421,2.3201750949667663,-1.8573137221574736,-50.327016829621,-25.386421797911897,30.48872315571929,34.41839638182526,34.22670500494204,1577397675.999,-27.70829689950112,-51.12236258520296,15.033771
61866,1577397676.39,2.4097347733660435,-0.456007823516101,9.164828769590796,2.515371622225133,0.2510408033417489,8.550102894555067,2.2507775797526035,0.1572192423502597,11.276917838541666,-2.7849150866996952,-0.0714557926829267,-6.657298018292683,-3.782504942358994,4.099031774009147,-5.475486197122713,-2.3402259463355657,3.719148181733631,-5.647386823381696,3.80310115478478,-29.08505208333333,-0.6824044396961103,-1.8573137221574736,-50.327016829621,-25.386421797911897,30.5845688441609,34.27462784916285,34.17878216072124,1577397675.999,-27.70829689950112,-51.12236258520296,15.033771
61867,1577397676.4,2.355865236012528,0.1269802807319453,10.689935227110327,2.342989102693883,0.0954176954315926,10.267942585717178,2.129870395914713,0.6504247843424472,11.166784562174476,-1.4726592273246952,0.1574260432545732,-6.062205244855183,-1.9972266220464936,-0.5701576791158537,-5.200827993997713,-2.4165198916480657,5.840119861421131,-5.830492292131696,4.050055775225349,-29.56447601877289,0.5459235517568815,-9.693700425731675,-44.48545592139342,-7.167163233531377,30.5606074220505,34.29858927127325,34.250666427052444,1577397675.999,-27.70829689950112,-51.12236258520296,15.033771
61868,1577397676.41,2.1822856156512,0.2766178844917104,10.57980195074314,2.170606583162633,0.9381766798065926,10.81501766506288,1.6737749796549477,-0.5754064656575517,8.95693642985026,-0.7707549304496951,0.8745891291920732,-5.680735518292683,-2.866977598608994,0.0707114615091463,-5.109275259622713,-1.7603919619605657,-1.590910412016369,-6.501879010881696,3.5067556102560955,-28.12620421245421,1.2283279914529803,-8.648848865255117,-44.48545592139342,-7.167163233531377,30.5366459999401,34.370473537604454,33.939167939617214,1577397675.999,-27.70829689950112,-51.12236258520296,15.033771
61869,1577397676.42,1.861462593190262,0.444212000702648,10.469668674375953,1.3565780187095082,-0.3786342332793439,8.87332011867616,1.0728303629557288,-0.175574788411458,8.736669877115885,-0.8623076648246951,0.9661418635670732,-5.497630049542683,-1.9514502548589936,-2.370694788490854,-5.353415884622713,-1.6078040713355657,-5.527677990141369,-5.586351667131696,3.5067556102560955,-28.12620421245421,1.2283279914529803,-0.1594299363830607,-42.6599681375723,-5.257079674362449,30.680414532602512,34.370473537604454,34.22670500494204,1577397675.999,-27.70829689950112,-51.12236258520296,15.033771
61870,1577397676.43,2.2289725480242466,-0.034628331328601,9.20074179449314,1.7157082677329458,-0.5462283494902814,7.451164332543349,1.1949346476236975,0.5283204996744785,9.323249283854166,-1.9761992663871952,0.5999309260670731,-5.650217940167683,-0.9748877548589938,-4.659513147865853,-4.590476431497713,-0.6922767275855655,-6.107511974516369,-4.731859479631696,3.80310115478478,-31.64197973901099,1.5012897673314385,-0.2900363814426315,-40.83448035375118,-5.991727197119726,30.48872315571929,34.370473537604454,34.08293647227963,1577397675.999,-27.70829689950112,-51.12236258520296,15.033771
61871,1577397676.44,2.1344015824480747,0.2766178844917104,9.20553019781345,2.2220819188559924,0.0930234937714368,9.519754566918348,1.9802327921549472,-0.6268818013509115,8.768991599527995,-0.1604033679496951,0.5388957698170732,-5.497630049542683,-3.095859434546494,3.076692906821646,-4.727805533060213,-2.2028968447730657,-4.856291271391369,-5.082811628069196,3.111628217551183,-28.12620421245421,1.774251543209873,-4.0123200656403775,-39.19154134831218,-15.762539249791535,30.5366459999401,34.32255069338365,34.15482073861084,1577397675.999,-27.70829689950112,-51.12236258520296,15.033771
61872,1577397676.45,1.413746882741043,-0.0106863147270385,9.46170977545017,0.8968912999595083,1.1704142408417488,8.80388827053163,1.2500012858072913,1.1675723429361973,9.081434916178384,-0.4045439929496951,0.5083781916920732,-5.161936690167683,-3.416294004858994,-0.0818764291158536,-5.170310415872713,-2.5233314150855657,-4.764738537016369,-4.243578229631696,3.5067556102560955,-29.40466804029304,4.503869301994293,-6.297932854182853,-47.406236375507206,-5.991727197119726,30.872105909485725,34.22670500494204,33.939167939617214,1577397675.999,-27.70829689950112,-51.12236258520296,15.033771
61873,1577397676.46,1.7441467118426055,0.0156499035346792,9.459315573790011,0.3462249181235709,-1.5063032152129376,8.104781385766005,1.81263867594401,-0.9632671346028642,9.845185245768228,-0.2824736804496951,-0.0409382145579267,-4.795725752667683,0.1237450576410061,-3.469327600990854,-5.567038931497713,-2.1876380557105657,-4.978361583891369,-5.250658307756696,2.7165008248462725,-30.683131868131863,2.866098646723648,-10.73855198620824,-50.327016829621,-5.991727197119726,30.48872315571929,34.27462784916285,34.08293647227963,1577397675.999,-27.70829689950112,-51.12236258520296,15.033771
61874,1577397676.47,2.212213136403153,-0.1519442126762573,9.338408389952123,2.905626492830602,-0.5318631395293439,7.511019374047255,2.018540018717448,2.067792167154947,9.651254911295572,-1.3811064929496952,-0.2850788395579267,-5.055125166730183,-1.9819678329839936,0.7420981802591463,-4.651511587747713,0.1622154599144345,-4.093351818266369,-4.762377057756696,3.704319306608551,-31.961595695970693,4.503869301994293,-2.379739502395749,-50.327016829621,-5.991727197119726,30.632491688381705,34.370473537604454,34.27462784916285,1577397675.999,-27.70829689950112,-51.12236258520296,15.033771
61875,1577397676.48,1.8159727616472932,0.405904774140148,10.182364475157202,1.909638602205602,0.4653218519257337,8.65065936428163,1.9131951456705725,0.3331930643717447,9.584217264811196,-0.7402373523246951,0.3252727229420732,-5.222971846417683,-1.3258399032964938,-1.3941322884908536,-4.483664908060213,0.4826500302269345,-6.244841076078869,-5.464281354631696,3.80310115478478,-29.08505208333333,1.5012897673314385,-4.077623288170164,-49.23172415932832,-4.669361656156629,30.48872315571929,34.34651211549405,34.08293647227963,1577397675.999,-27.70829689950112,-51.12236258520296,15.033771
61876,1577397676.49,1.478390327565262,-0.0202631213676635,9.847176242735328,0.8825260899985709,-0.9173296068145002,9.910009437523817,1.9993864054361972,-0.1995168050130205,10.264170536295572,-0.1909209460746951,0.2642375666920732,-5.009348799542683,-1.0969580673589938,-1.2415443978658536,-5.475486197122713,-0.6617591494605655,-8.274260021391369,-4.640306745256696,3.5067556102560955,-29.40466804029304,5.049792853751174,-1.33488794191919,-50.327016829621,-23.32940873419151,30.48872315571929,34.41839638182526,34.08293647227963,1577397675.999,-27.70829689950112,-51.12236258520296,15.033771
61877,1577397676.5,2.321149311940262,0.7506698132026479,8.968504233457983,2.156241373201696,-0.8742339769316876,9.08400986476991,1.745601029459635,0.3080539469401035,10.225863309733072,-1.1674834460746952,-0.1630085270579268,-5.314524580792683,-2.470249082983994,1.7796958365091464,-4.468406118997713,-1.8214271182105648,-4.795256115141369,-4.274095807756696,3.704319306608551,-30.04389995421245,2.866098646723648,-2.2491330573361834,-47.04113881874298,-23.18247922964006,30.5366459999401,34.370473537604454,34.17878216072124,1577397675.999,-27.70829689950112,-51.12236258520296,15.033771
61878,1577397676.51,2.288827589528153,0.0683223400581172,9.10497372808689,2.2041254064048204,1.4529300367401865,8.793114363060926,2.229229764811197,-0.5933629781087236,10.559854441324868,-1.1369658679496952,0.1269084651295732,-5.024607588605183,-3.019565489233994,0.7115806021341463,-3.995383658060213,-2.9353187197730657,5.412873767671131,-2.4582999093191966,4.297010395665918,-31.32236378205128,3.412022198480529,-1.7920104996276869,-30.79429754273504,-13.26473767241679,30.608530266271305,34.250666427052444,34.22670500494205,1577397675.999,-27.70829689950112,-51.12236258520296,15.033771
61879,1577397676.52,1.7034452836199496,0.4418177990424917,10.29249775152439,2.1011747350181023,0.0690814771698738,9.66580086818788,0.33781045328776,3.645571061197917,10.819625321451822,-1.3505889148246952,0.7830363948170732,-4.978831221417683,-1.2190283798589938,-2.126554163490854,-3.980124868997713,-1.4552161807105657,13.088044666108631,-5.067552839006696,4.297010395665918,-30.04389995421245,2.3201750949667663,-1.33488794191919,-26.230578083182245,-6.579445215325552,30.48872315571929,34.08293647227963,34.08293647227963,1577397675.999,-27.70829689950112,-51.12236258520296,15.033771
61880,1577397676.53,1.406564277760575,-0.0873007678520385,10.072231198790014,1.421221463533727,0.5790464307831551,8.775157850609755,1.1111375895182287,-0.0965661336263017,8.468519291178385,-1.8083525866996952,1.301835222942073,-4.826243330792683,-3.690952207983994,-4.445890100990853,-4.315818228372713,-1.9434974307105648,9.486970447358631,-5.891527448381696,4.099446699313464,-26.208508470695968,3.412022198480529,-1.8573137221574736,-47.406236375507206,-7.167163233531377,30.5845688441609,34.370473537604454,34.08293647227963,1577397675.999,-27.70829689950112,-51.12236258520296,15.033771
61881,1577397676.54,2.1152479691668247,-0.4727672351371947,9.48804599371189,0.9016797032798208,-0.9508484300566876,7.278781813012099,2.427948502604166,1.1340535196940098,6.043193009440103,-1.1369658679496952,0.9661418635670732,-4.765208174542683,0.6730614638910062,-1.0279213509908536,-4.956687368997713,-0.6922767275855655,0.4232497442336309,-7.417406354631696,4.099446699313464,-31.32236378205128,1.774251543209873,-1.8573137221574736,-37.18350478610895,-15.395215488412898,30.5845688441609,34.08293647227963,34.27462784916285,1577397675.999,-27.70829689950112,-51.12236258520296,15.033771
61882,1577397676.55,1.8662509965105745,-0.072935557891101,9.1863765845322,1.181801297518102,-0.2756835618926251,10.331388929711318,1.3122505289713535,-1.1739568806966143,8.796524918619792,-0.9233428210746952,0.7525188166920732,-4.582102705792683,-2.043002989233994,0.9557212271341464,-3.705466665872713,-0.5396888369605655,-5.954924083891369,-5.861009870256696,2.914064521198728,-30.04389995421245,0.6824044396960991,-2.1185266122766127,-48.13643148903565,-25.97413981611772,30.5366459999401,34.46631922604607,34.08293647227963,1577397675.999,-27.70829689950112,-51.12236258520296,15.033771
61883,1577397676.56,1.7249930985613555,0.5615278820503042,9.930973300840796,1.878513980623571,0.2785741224335463,8.993030201683974,1.00818691813151,-0.468864491780599,10.772938389078774,-0.0078154773246951,0.6914836604420732,-4.612620283917683,-2.058261778296494,-1.1042152963033538,-4.010642447122713,-1.2721107119605657,1.0488600957961312,-1.4207022530691964,3.111628217551183,-30.683131868131863,2.3201750949667663,-4.600049068408443,-42.6599681375723,-16.27679251572163,30.608530266271305,34.34651211549405,34.08293647227963,1577397675.999,-27.70829689950112,-51.12236258520296,15.033771
61884,1577397676.57,1.839914778248856,-0.6595149646293823,9.81365741949314,1.816264737459508,0.0930234937714363,10.075209352074598,1.7863024576822912,1.2082737711588534,10.173190873209634,0.5415009289253049,1.118729754192073,-4.185374190167683,-2.989047911108994,1.7491782583841464,-4.407370962747713,-0.3260657900855654,6.740388416108631,-2.9008047921316966,3.111628217551183,-30.683131868131863,2.3201750949667663,-1.8573137221574736,-35.72311455905206,-6.873304224428462,30.5845688441609,34.27462784916285,33.939167939617214,1577397675.999,-27.70829689950112,-51.12236258520296,15.033771
61885,1577397676.58,2.3929753617449494,-0.0944833728325072,10.565436740782202,1.84738935904154,-1.5350336351348126,9.395256080590222,3.6202609293619785,0.715068229166666,9.842791044108072,-0.9233428210746952,0.8440715510670732,-4.246409346417683,0.2152977920160061,2.786775914634146,-3.766501822122713,-0.3260657900855654,7.655915759858631,-4.792894635881696,3.5067556102560955,-32.6008276098901,1.774251543209873,-1.8573137221574736,-35.72311455905206,-6.873304224428462,30.48872315571929,34.17878216072124,34.22670500494204,1577397675.999,-27.70829689950112,-51.12236258520296,15.033771
61886,1577397676.59,2.2110160355730746,-0.4105179919731322,10.36192959966892,2.194548599764196,1.5965821363495614,11.380049256859754,0.8669290201822913,1.1196883097330723,10.52753271891276,-0.2519561023246951,1.301835222942073,-4.307444502667683,-2.775424864233994,0.9557212271341464,-3.797019400247713,-0.2039954775855654,8.571443103608631,-5.464281354631696,2.914064521198728,-29.40466804029304,1.2283279914529803,-2.379739502395749,-50.327016829621,-2.4654190878847912,30.5845688441609,34.41839638182526,34.22670500494204,1577397675.999,-27.70829689950112,-51.12236258520296,15.033771
61887,1577397676.6,1.850688685719559,0.3532323376167104,10.40023682623142,2.394464438387242,-0.0614025133086412,9.227661964379283,0.8633377176920569,-0.0498792012532553,10.256987931315102,0.0989960461128048,1.423905535442073,-4.414256026105183,-0.8222998642339938,0.2385581411966463,-4.270041861185213,-0.2802894228980654,9.792146228608631,-4.045213971819196,3.901883002961006,-30.04389995421245,-0.9553662155745456,-2.1185266122766127,-48.50152904579987,-22.741690715985687,30.392877467277685,34.27462784916285,34.130859316500434,1577397675.999,-27.70829689950112,-51.12236258520296,15.033771
61888,1577397676.61,2.0553929276629184,0.1018411633003042,9.689158933165016,0.6191639073813834,-0.3115965867949689,11.188513124047256,0.7927087687174476,-0.7932788167317705,10.67357902018229,0.5415009289253049,1.637528582317073,-4.246409346417683,-2.989047911108994,2.237459508384146,-4.407370962747713,-0.8448646182105655,13.606843494233631,-3.4196036202566966,3.901883002961006,-30.04389995421245,-0.9553662155745456,-1.8573137221574736,-48.8666266025641,-22.74169071598569,30.5366459999401,34.370473537604454,34.27462784916285,1577397675.999,-27.70829689950112,-51.12236258520296,15.033771
61889,1577397676.62,1.9739900712176055,-0.1447616076957885,9.875906662657204,1.3972794469321643,0.1385133253144051,11.952263453637098,1.02734053141276,-0.2354298299153642,9.153260965983073,-0.7097197741996951,2.4615031916920733,-4.551585127667683,0.5815087295160062,4.861971227134147,-3.4613260408727133,-0.8143470400855655,12.416657947358631,-3.6332266671316966,3.80310115478478,-30.36351591117216,2.04721331908832,-2.379739502395749,-48.13643148903565,-23.0355497250886,30.5845688441609,34.17878216072124,34.17878216072124,1577397675.999,-27.70829689950112,-51.12236258520296,15.033771
61890,1577397676.63,2.0937001542254183,-0.1315934985649291,9.690356033995092,2.093992130037633,0.8112839918183113,8.653053565941786,0.6586334757486976,0.1620076456705722,7.644913920084635,0.7398651867378049,2.2021037776295733,-4.124339033917683,-2.928012754858994,5.594393102134147,-3.705466665872713,-0.2039954775855654,4.726228259858631,-4.884447370256696,3.5561465343442085,-31.162555803571426,1.3648088793922093,-1.33488794191919,-30.611748764352928,-15.982933506618718,30.46476173360889,34.08293647227963,34.27462784916285,1577397675.999,-27.70829689950112,-51.12236258520296,15.033771
61891,1577397676.64,1.0522224320574496,0.2838004894721792,9.7226777564072,1.98745015616068,0.6496753797577645,8.747624531517959,1.7216590128580724,0.3882597025553383,7.25226484781901,0.5415009289253049,2.6751262385670733,-3.910715987042683,-0.3492774032964938,3.580232945884146,-4.209006704935213,0.5589439755394345,-9.281340099516369,-4.747118268694196,3.6055374584323214,-31.64197973901099,0.9553662155745456,-2.2491330573361834,-44.12035836462919,-6.4325157107741,30.392877467277685,34.298589271273244,34.130859316500434,1577397675.999,-27.70829689950112,-51.12236258520296,15.033771
61892,1577397676.65,0.9851847855730748,0.1209947765815542,10.079413803770484,0.3174944982016959,-0.953242631716844,9.282728602562878,1.4535084269205725,-0.1205081502278642,10.400640030924478,1.5790985851753048,2.0952922541920733,-3.819163252667683,1.4970360732660062,1.8407309927591464,-4.712546743997713,0.8946373349144345,-9.952726818266369,-3.9994376046316966,3.6055374584323214,-31.64197973901099,0.9553662155745456,-2.1185266122766127,-40.10428524022274,-7.167163233531377,30.5845688441609,34.27462784916285,33.891245095396414,1577397675.999,-27.70829689950112,-51.12236258520296,15.033771
61893,1577397676.66,1.133625288502762,0.4130873791206167,9.447344565489232,1.3565780187095082,-0.1056952440215313,9.653829859887098,1.4750562418619788,1.0741984781901035,12.330366569010415,0.3278778820503049,1.423905535442073,-3.636057783917683,-0.7002295517339938,3.244539586509146,-3.4918436189977133,0.6810142880394345,-2.079191662016369,-2.8397696358816966,4.000664851137237,-31.64197973901099,0.9553662155745456,-2.379739502395749,-37.91369989963739,-20.096959634059484,30.5845688441609,34.370473537604454,34.08293647227963,1577397675.999,-27.70829689950112,-51.12236258520296,15.033771
61894,1577397676.67,2.0757436417742463,-0.1962369433891479,10.128494937803689,2.4196035558188838,0.3683566846894051,8.468700038109755,1.3840765787760412,1.385444694010416,11.157207755533852,0.9992646008003048,1.256058855754573,-3.819163252667683,-3.813022520483994,2.206941930259146,-3.613913931497713,0.4368736630394345,5.519685291108631,-3.6332266671316966,3.259800989815525,-30.84293984661172,2.1836942070275374,-10.477339096089098,-38.64389501316584,-23.0355497250886,30.5366459999401,34.27462784916285,34.17878216072124,1577397675.999,-27.70829689950112,-51.12236258520296,15.033771
61895,1577397676.68,1.6866858719988558,-0.0992717761528197,10.51515850591892,2.072444315096227,0.449759541134718,8.955920075951552,1.5588532999674476,0.6540160868326816,9.731460666910806,0.9382294445503048,1.942704363567073,-3.544505049542683,-0.6086768173589938,1.4440024771341462,-4.163230337747713,1.1998131161644343,4.894074939546131,-3.5264151436941966,3.5067556102560955,-29.40466804029304,2.3201750949667663,-10.73855198620824,-50.327016829621,-23.0355497250886,30.34495462305688,34.298589271273244,34.17878216072124,1577397675.999,-27.70829689950112,-51.12236258520296,15.033771
61896,1577397676.69,2.1607378007097933,0.444212000702648,10.347564389707983,1.2536273473227897,-1.0035208665801252,11.27470438381288,3.2754958902994784,-0.0103748738606767,8.628930802408854,1.5180634289253048,1.484940691692073,-3.666575362042683,0.9477196670160062,2.756258336509146,-3.0035623689977133,0.1316978817894345,-0.9805588495163692,-4.640306745256696,3.5067556102560955,-29.40466804029304,2.3201750949667663,-2.2491330573361834,-48.50152904579988,-4.963220665259539,30.5366459999401,34.22670500494204,34.27462784916285,1577397675.999,-27.70829689950112,-51.12236258520296,15.033771
61897,1577397676.7,1.756117720143387,0.3221077160346792,11.041882871153296,1.335030203768102,0.6628434888886239,11.059226234398816,0.9818506998697912,-0.1013545369466142,9.172414579264322,1.2739228039253048,2.2173625666920733,-3.483469893292683,3.083950135766006,-0.3565346322408537,-3.1561502596227133,0.8336021786644345,-2.872648693266369,-3.3585684640066966,3.901883002961006,-30.04389995421245,3.412022198480529,-8.387635975135975,-50.327016829621,-1.583842060576056,30.5845688441609,34.27462784916285,34.17878216072124,1577397675.999,-27.70829689950112,-51.12236258520296,15.033771
61898,1577397676.71,1.3790309586687777,0.4621685131538203,9.601770572569311,1.87252847647318,-0.3307502000762189,9.388073475609756,1.753980735270182,0.3918510050455727,11.150025150553384,0.6788300304878049,1.149247332317073,-3.910715987042683,0.0321923232660062,0.4979575552591463,-3.797019400247713,0.4216148739769345,1.9491286504836312,-1.8937247140066964,3.901883002961007,-29.40466804029304,1.774251543209879,-2.2491330573361807,-50.327016829621,-15.542144992964351,30.53664599994009,34.32255069338365,34.27462784916285,1577397675.999,-27.70829689950112,-51.12236258520296,15.033771
61899,1577397676.72,1.1479904984636995,-0.5398048816215698,9.816051621153296,0.4779060094321646,1.6636197828339363,5.911692665062881,1.867705314127604,-1.2840901570638017,10.467677677408853,1.3654755383003048,1.210282488567073,-3.452952315167683,-4.514926817358994,1.3829673208841464,-4.071677603372713,0.2232506161644345,10.921296619233631,-2.2294180733816966,3.2104100657274097,-29.08505208333333,3.139060422602083,-2.1185266122766127,-50.327016829621,-25.09256278880898,30.680414532602512,34.41839638182526,34.17878216072124,1577397675.999,-27.70829689950112,-51.12236258520296,15.033771
61900,1577397676.73,1.9356828446551055,0.2478874645698354,10.596561362364234,1.6558532262290395,-0.7305818773223126,10.321812123070693,1.62110254313151,1.088563688151041,11.583375651041663,1.5790985851753048,1.759598894817073,-3.605540205792683,1.8327294326410064,1.3219321646341464,-3.735984243997713,0.1927330380394345,16.32290794735863,-3.5416739327566966,3.2104100657274097,-29.08505208333333,3.139060422602083,-2.1185266122766127,-32.80233410493827,-19.21538260675075,30.728337376823312,34.41839638182526,34.08293647227963,1577397675.999,-27.70829689950112,-51.12236258520296,15.033771
61901,1577397676.74,1.7704829301043246,-0.4009411853325073,10.958085813047829,2.678177335115758,-0.4624312913848126,13.846076966820691,-0.1146936604817702,0.5570509195963534,10.848355741373696,1.5180634289253048,1.393387957317073,-3.300364424542683,-2.134555723608994,2.359529820884146,-3.613913931497713,1.3218834286644343,18.64224388485863,-6.013597760881696,3.0128463693749543,-32.2812116529304,2.04721331908832,-2.1185266122766127,-38.64389501316584,-2.171560078781876,30.728337376823312,34.41839638182526,33.50786234162997,1577397675.999,-27.70829689950112,-51.12236258520296,15.033771
61902,1577397676.75,1.927303138844559,0.5160380505073354,10.779717789366186,1.027375290438024,0.5886232374237801,10.898814723168348,0.7903145670572913,-0.1312820576985678,7.613789298502604,1.6706513195503048,2.0037395198170733,-3.468211104230183,0.2305565810785061,4.037996617759147,-4.041160025247713,2.0848228817894343,6.480989002046131,-3.755296979631696,3.4573646861679808,-28.286012190934063,0.2729617758784352,-1.33488794191919,-41.56467546727963,-7.167163233531377,30.392877467277685,34.298589271273244,34.22670500494205,1577397675.999,-27.70829689950112,-51.12236258520296,15.033771
61903,1577397676.76,1.6459844437761997,-0.1327905993950072,9.6077560767197,2.7404265782798203,0.0786582838104988,8.332230543480849,0.1127554972330725,0.7366160441080722,7.664067533365885,0.6025360851753049,2.7666789729420733,-3.575022627667683,-1.1885108017339938,3.641268102134146,-3.5833963533727133,1.0777428036644343,-9.128752208891369,-3.9689200265066966,3.407973762079867,-27.16735634157509,0.4094426638176527,-1.33488794191919,-40.10428524022274,-15.689074497515808,30.5366459999401,34.27462784916285,33.939167939617214,1577397675.999,-27.70829689950112,-51.12236258520296,15.033771
61904,1577397676.77,1.5669757889910434,0.8153132580268667,10.086596408750951,0.8442188634360709,-0.0602054124785626,5.9356346816644425,1.33379834391276,0.6815494059244785,9.816454825846352,1.7011688976753048,2.1258098323170733,-3.513987471417683,3.114467713891006,0.6200278677591463,-3.766501822122713,2.4815513974144343,-9.800138927641369,-2.8397696358816966,3.407973762079867,-27.16735634157509,0.4094426638176527,-1.33488794191919,-40.10428524022274,-15.982933506618718,30.5366459999401,34.370473537604454,34.08293647227963,1577397675.999,-27.70829689950112,-51.12236258520296,15.033771
61905,1577397676.78,1.2461527665301058,-0.3362977405082885,9.624515488340794,2.9750583409751328,0.4976435743378426,7.898880042992568,0.5149813761393225,-0.663991927083333,11.923352286783851,1.2739228039253048,1.973221941692073,-3.269846846417683,-1.1885108017339938,3.793855992759146,-3.858054556497713,1.8711998349144343,-3.208342052641369,-2.2599356515066966,3.407973762079867,-27.16735634157509,1.5012897673314385,-10.73855198620824,-50.327016829621,-21.56625467957404,30.392877467277685,34.22670500494204,34.22670500494204,1577397675.999,-27.70829689950112,-51.12236258520296,15.033771
61906,1577397676.79,0.6859095780535434,0.4011163708198355,10.507975900938453,0.8669637792075553,-0.3427212083770006,9.209705451928114,2.2615514872233065,0.0351149576822915,9.395075333658852,2.1131562023628048,1.668046160442073,-3.285105635480183,0.9324608779535062,-0.8905922494283536,-3.766501822122713,1.3676597958519343,-4.032316662016369,-2.8092520577566966,3.259800989815525,-31.80178771749084,1.091847103513769,-2.1185266122766127,-50.327016829621,-6.579445215325552,30.44080031149849,34.32255069338365,34.17878216072124,1577397675.999,-27.70829689950112,-51.12236258520296,15.033771
61907,1577397676.8,0.6547849564715121,-0.0202631213676635,9.792109604551731,1.2560215489829458,0.2270987867401863,7.089639881859755,1.1302912027994787,0.2266510904947909,9.114953739420573,0.7551239758003049,0.8135539729420732,-3.483469893292683,-1.4326514267339938,1.7186606802591464,-3.949607290872713,2.3594810849144343,-9.769621349516369,-4.090990339006696,3.407973762079867,-31.64197973901099,3.139060422602083,-10.477339096089098,-50.327016829621,-1.8777010696789656,30.48872315571929,34.370473537604454,34.08293647227963,1577397675.999,-27.70829689950112,-51.12236258520296,15.033771
61908,1577397676.81,1.3491034379168243,0.3795685558784292,9.885483469297828,1.5337489415610708,0.1385133253144051,9.30667061916444,1.783908256022135,-0.5993484822591142,8.636113407389322,0.4499481945503049,0.1726848323170732,-3.117258955792683,0.3068505263910062,2.359529820884146,-2.5152811189977133,1.0167076474144343,-11.051359630766369,-3.3585684640066966,3.407973762079867,-31.64197973901099,3.139060422602083,-7.603997304778556,-49.59682171609254,-1.583842060576056,30.5845688441609,34.27462784916285,34.08293647227963,1577397675.999,-27.70829689950112,-51.12236258520296,15.033771
61909,1577397676.82,1.564581587330887,0.0767020458686636,9.818445822813452,1.7013430577720083,0.4497595411347176,8.293923316918349,1.1925404459635414,0.887450748697916,9.012003068033854,1.5028046398628048,0.1726848323170732,-3.086741377667683,2.229457948266006,-1.2110268197408536,-2.9425272127477133,2.0237877255394343,-11.173429943266369,-2.9618399483816966,3.111628217551182,-30.36351591117216,2.866098646723642,-7.212177969599843,-49.96191927285677,-6.4325157107741,30.48872315571929,34.370473537604454,34.27462784916285,1577397675.999,-27.70829689950112,-51.12236258520296,15.033771
61910,1577397676.83,1.0091268021746371,0.5327974621284293,10.486428085997046,1.3290446996177114,0.3132900465058118,10.482223634301162,1.1458535135904944,-0.8076440266927079,11.494790189615884,1.6401337414253048,0.7220012385670732,-2.903635908917683,0.1084862685785062,-0.1581703744283537,-3.644431509622713,0.6962730771019344,-4.322233654203869,-1.3901846749441966,3.704319306608551,-30.683131868131863,2.866098646723648,-2.1185266122766127,-33.53252921846671,-25.6802808070148,30.48872315571929,34.22670500494204,34.298589271273244,1577397675.999,-27.70829689950112,-51.12236258520296,15.033771
61911,1577397676.84,1.353891841237137,0.2311280529487417,10.558254135801734,1.1291288609946646,0.3492030714081551,7.839025001488661,1.1853578409830725,1.4285403238932284,9.63928390299479,1.3959931164253048,0.1421672541920732,-2.934153487042683,-3.141635801733994,1.0472739615091464,-4.041160025247713,0.5284263974144345,-0.248136974516369,-1.9242422921316964,2.8152826730225,-31.64197973901099,0.9553662155745456,-0.2900363814426315,-30.611748764352928,-24.210985761500247,30.728337376823312,34.27462784916285,34.17878216072124,1577397675.999,-27.70829689950112,-51.12236258520296,15.033771
61912,1577397676.85,1.4496599076433871,0.1497251965034292,10.335593381407202,0.7891522252524771,-0.1583676805449689,10.400820777855849,1.1733868326822914,0.370303190104166,8.387116434733072,0.8771942883003049,0.0811320979420732,-2.873118330792683,3.175502870141006,-2.218106897865854,-2.9730447908727133,2.0848228817894343,-1.468840099516369,-3.7552969796316966,2.8152826730225,-31.64197973901099,0.9553662155745456,-0.2900363814426315,-30.611748764352928,-24.210985761500247,30.5845688441609,34.370473537604454,34.27462784916285,1577397675.999,-27.70829689950112,-51.12236258520296,15.033771
61913,1577397676.86,1.189889027516434,0.3927366650092886,9.816051621153296,0.8968912999595083,0.3348378614472176,8.025772730980849,0.2947148234049475,1.356714274088541,8.265012150065104,-0.0688506335746951,0.0506145198170732,-3.040965010480183,0.7340966201410062,0.2538169302591463,-2.4542459627477133,1.5965416317894343,-4.001799083891369,-3.1449454171316966,3.407973762079867,-29.08505208333333,2.866098646723648,-1.204281496859622,-42.6599681375723,-7.020233728979919,30.48872315571929,34.03501362805883,34.08293647227963,1577397675.999,-27.70829689950112,-51.12236258520296,15.033771
61914,1577397676.87,1.392199067799637,0.1736672131049917,8.355588608457984,0.6071928990806021,0.2737857191132337,10.204496241723035,0.5844132242838538,-0.5382963399251303,9.386695627848306,0.2058075695503048,0.4778606135670732,-2.934153487042683,-1.2342871689214938,2.527376500571646,-3.0340799471227133,-0.0056312197730654,-9.159269787016369,-4.060472760881696,3.6055374584323214,-31.00274782509157,1.5012897673314385,-2.379739502395749,-38.64389501316584,-7.167163233531377,30.48872315571929,34.27462784916285,34.15482073861084,1577397675.999,-27.70829689950112,-51.12236258520296,15.033771
61915,1577397676.88,1.2796715897722934,0.7482756115424917,9.861541452696263,1.6486706212485709,-0.5941123826934064,6.287582325707412,0.7855261637369788,0.6432421793619785,8.868350968424478,0.7856415539253049,0.1726848323170732,-3.086741377667683,0.1847802138910061,0.8336509146341463,-3.2477029939977133,1.0472252255394343,-9.037199474516369,-3.2059805733816966,3.111628217551183,-29.40466804029304,4.503869301994293,-1.7267072770979026,-49.23172415932832,-23.47633823874296,30.728337376823312,34.27462784916285,34.17878216072124,1577397675.999,-27.70829689950112,-51.12236258520296,15.033771
