,timestamp,acc_x_dashboard,acc_y_dashboard,acc_z_dashboard,acc_x_above_suspension,acc_y_above_suspension,acc_z_above_suspension,acc_x_below_suspension,acc_y_below_suspension,acc_z_below_suspension,gyro_x_dashboard,gyro_y_dashboard,gyro_z_dashboard,gyro_x_above_suspension,gyro_y_above_suspension,gyro_z_above_suspension,gyro_x_below_suspension,gyro_y_below_suspension,gyro_z_below_suspension,mag_x_dashboard,mag_y_dashboard,mag_z_dashboard,mag_x_above_suspension,mag_y_above_suspension,mag_z_above_suspension,temp_dashboard,temp_above_suspension,temp_below_suspension,timestamp_gps,latitude,longitude,speed
41525,1577395845.67,0.4982333654785156,1.1591527337646483,10.505337899475096,-0.0105695244021527,0.223361496343845,9.994332052091272,-2.450237379964192,0.4529031473795566,9.338184541829428,-0.0362396240234375,2.297401428222656,-7.064056396484375,-0.2534447646722559,5.002835901772103,-7.185214903296494,-0.5171639578683034,24.02677990141369,-4.410153343563988,5.219303025292609,-3.797839809000523,-3.1015691773504224,31.80632380229421,-8.398420400990494,-106.77215099715102,35.13723904513733,35.13723904513733,35.13723904513733,1577395845.0,-27.692358533761062,-51.125951579818704,2.441861
41526,1577395845.68,1.0752359655761718,1.5434221002197264,9.013750265197752,-1.2016848503298871,0.2508948154356418,11.574505147794396,-2.384396834309895,0.4576915506998691,4.661111598714193,-0.6160736083984375,4.464149475097656,-6.316375732421875,-1.5046654677972562,4.667142542397103,-6.376499082983994,0.1237051827566965,4.14457775297619,-7.294064476376488,5.3798969645323815,-3.6079478185504974,-1.4595619658119638,31.61298147210978,-8.561496525281571,-111.7576210826211,35.233084733578934,35.20912331146853,35.18516188935813,1577395845.0,-27.692358533761062,-51.125951579818704,2.441861
41527,1577395845.69,1.3194445349121091,1.1483788262939452,7.713698763732909,-0.7312242241091839,1.298358041754001,8.68709794564596,-1.138214870198567,2.5693774149576822,9.410010591634114,-0.3719329833984375,6.020545959472656,-5.583953857421875,-0.1008568740472559,5.948880823647103,-4.102939512671494,0.8256094796316966,-12.80793689546131,-5.539303734188988,5.3798969645323815,-3.6079478185504974,-1.4595619658119638,30.646269821187605,-8.724572649572648,-111.7576210826211,34.993470512474914,35.233084733578934,35.32893042202055,1577395845.0,-27.692358533761062,-51.125951579818704,2.441861
41528,1577395845.7,0.1319205114746093,1.5745467218017577,8.10874203765869,-0.7072822075076214,0.0533731784727512,7.74857089486471,-1.0639946187337233,4.578112607828776,11.852096284993491,-0.0362396240234375,6.752967834472656,-5.461883544921875,-3.000026795922256,9.519437464272103,-3.889316465796494,0.3068106515066966,-3.1948997860863093,-8.774167015438987,5.3798969645323815,-3.6079478185504974,-1.4595619658119638,31.419639141925344,-8.724572649572648,-7.8936609686609795,35.233084733578934,35.233084733578934,35.08931620091653,1577395845.0,-27.692358533761062,-51.125951579818704,2.441861
41529,1577395845.71,0.7532158422851563,2.2114043634033203,9.656593410949704,1.4786239082150336,3.539330795660251,11.500284896329552,-2.7471183858235677,-0.4904123067220048,10.599928816731774,2.2678375244140625,7.500648498535156,-5.797576904296875,-5.716091249047256,3.385404261147104,-5.750888731421494,0.1542227608816966,2.4813697451636907,-7.950192406063988,5.219303025292609,-3.607947818550495,-1.824452457264953,33.73974710413857,5.136897915168943,-7.8936609686609795,35.11327762302693,35.424776110462155,35.13723904513733,1577395845.0,-27.692358533761062,-51.125951579818704,2.441861
41530,1577395845.72,0.6634332800292969,2.015079827270508,10.838131930236816,0.962673450451362,3.727275625982517,11.38057481332174,-0.7383831929524732,3.888582529703776,8.99820790608724,1.0013580322265625,9.560585021972656,-6.285858154296875,-0.0550805068597559,11.304715784584603,-5.674594786108994,0.1694815499441966,-2.8439476376488093,-6.912594749813987,5.219303025292609,-4.55740777080063,-1.6420072115384547,31.419639141925344,5.707664350187715,-4.985470085470105,34.993470512474914,35.376853266241355,35.28100757779974,1577395845.0,-27.692358533761062,-51.125951579818704,2.441861
41531,1577395845.73,1.2715605017089844,2.393363689575195,8.372104220275878,-0.4750446464724652,0.9152857761290012,9.065381807950647,-1.317779994710286,0.8431580179850253,9.833784285481777,1.1234283447265625,9.346961975097656,-6.285858154296875,-1.870876405297256,7.383206995522103,-5.506748106421494,0.3678458077566966,-8.29133533296131,-7.248288109188988,5.8616787822517,-3.418055828100472,-2.006897702991451,32.19300846266308,5.789202412333252,-1.2463675213675387,34.993470512474914,34.993470512474914,35.233084733578934,1577395845.0,-27.692358533761062,-51.125951579818704,2.441861
41532,1577395845.74,0.0960074865722656,2.3191434381103515,10.002555550842285,-0.2763259086794964,1.978311313238376,10.523450618985803,-2.182086794026692,-1.7832812032063796,9.18974403889974,-0.2193450927734375,10.628700256347656,-6.682586669921875,-3.152614686547256,12.449124964272103,-5.659335997046494,-0.3645760672433034,-8.56599353608631,-3.006344749813988,5.8616787822517,-3.418055828100472,-2.006897702991451,55.78077274516421,5.299974039460021,-7.062749287749304,35.13723904513733,35.32893042202055,35.13723904513733,1577395845.0,-27.692358533761062,-51.125951579818704,2.441861
41533,1577395845.75,0.3078943334960937,1.3399149591064452,8.422382455139159,0.1869521125607373,1.0457697666075167,6.952498842862757,0.1905670511881511,3.142788712565104,6.795542378743489,-0.6160736083984373,10.888099670410156,-6.240081787109375,-0.3297387099847559,12.098172815834603,-4.560703184546494,0.1237051827566966,-14.71528552827381,-3.830319359188988,5.460193934152268,-4.652353766025642,-1.5507845886752132,55.49075924988755,-1.6715302739835436,-0.623183760683778,35.04139335669572,35.20912331146853,35.25704615568934,1577395845.0,-27.692358533761062,-51.125951579818704,2.441861
41534,1577395845.76,-0.0069431848144521,1.6774973931884765,8.623495394592284,-1.190910942859184,2.737273239507908,5.725470492032679,1.8066531717936196,1.779290867106119,7.954335982259114,-0.9212493896484376,10.354042053222656,-6.316375732421875,-2.359157655297256,8.451322229897103,-4.774326231421494,0.6119864327566966,-20.80354236421131,-6.637936546688988,4.416333329093747,-4.3675157803506,-2.9191239316239352,55.394088084795335,6.278430785206488,1.2463675213675056,34.94554766825411,35.32893042202055,35.08931620091653,1577395845.0,-27.692358533761062,-51.125951579818704,2.441861
41535,1577395845.77,0.0289698400878906,0.954448491821289,6.751229696350097,1.5528441596798774,3.3094874362852518,7.181145101407679,0.1307120096842444,0.1248975199381503,7.774770857747396,-1.0433197021484375,9.377479553222656,-6.896209716796875,-4.098659608422256,10.251859339272103,-6.086582090796494,-0.0288827078683033,-19.79646228608631,-8.255368187313987,5.701084843011927,-5.127083742150708,-0.7297809829059857,55.394088084795335,6.278430785206488,1.2463675213675056,35.08931620091653,35.28100757779974,35.13723904513733,1577395845.0,-27.692358533761062,-51.125951579818704,2.441861
41536,1577395845.78,-0.3541024255371083,1.5458163018798827,9.46864858062744,0.9614763496212836,1.8753606418516573,7.616889803556116,0.1474714213053381,1.530293894449869,9.40043378499349,1.7032623291015625,8.980751037597656,-6.926727294921875,-1.596218202172256,8.878568323647103,-5.201572325171494,-0.2119881766183033,-17.04988025483631,-5.661374046688988,5.701084843011927,-5.127083742150708,-0.7297809829059857,56.94082672627082,-8.724572649572648,-8.724572649572671,35.13723904513733,35.52062179890376,35.32893042202055,1577395845.0,-27.692358533761062,-51.125951579818704,2.441861
41537,1577395845.79,-0.5025429284667958,2.303581127319336,10.623850881652832,0.2958882880978467,3.7165017185118137,8.629637105802209,1.73602422281901,4.292005509440104,10.694499782307943,1.4286041259765625,7.699012756347656,-7.598114013671875,-3.030544374047256,7.078031214272103,-7.612460997046494,0.0321524483816966,-12.41120837983631,-7.141476585751487,5.460193934152269,-5.032137746925695,-0.821003605769231,55.97411507534864,-8.64303458742711,-8.309116809116826,34.96950909036451,35.35289184413095,35.113277623026924,1577395845.0,-27.692358533761062,-51.125951579818704,2.441861
41538,1577395845.8,-0.3876212487792958,2.742917131958008,9.696097738342283,1.509748529797065,3.824240793218845,7.296066781095179,2.208879050699869,4.068147654215495,8.686961690266926,1.0013580322265625,5.990028381347656,-8.727264404296875,-0.589138124047256,9.214261683022103,-5.811923887671494,0.3068106515066966,-10.54963611421131,-9.689694359188987,4.255739389853973,-3.418055828100472,-0.5473357371794875,55.394088084795335,-8.561496525281571,-8.724572649572671,35.13723904513733,35.32893042202055,35.28100757779974,1577395845.0,-27.692358533761062,-51.125951579818704,2.441861
41539,1577395845.81,-0.8425195642089842,1.4476540338134765,9.41118774078369,-0.4319490165896527,1.2935696384336886,7.207481319669398,1.3828794779459632,3.869428916422526,7.125942207845052,-0.8296966552734375,4.372596740722656,-8.574676513671875,-0.4670678115472559,5.308011683022103,-8.070224668921494,1.1613028390066966,-17.47712634858631,-9.903317406063987,5.3798969645323815,-4.747299761250656,-2.9191239316239352,58.4875653677463,-8.724572649572648,1.2463675213675056,35.13723904513733,35.13723904513733,35.13723904513733,1577395845.0,-27.692358533761062,-51.125951579818704,2.441861
41540,1577395845.82,-0.3385401147460937,2.584899822387696,9.12388354156494,0.8202184516720649,5.423567502203221,7.334374007657679,1.6677894755045568,3.517481272379557,6.35500927327474,0.8945465087890625,3.502845764160156,-9.780120849609377,-4.373317811547256,-1.6194785513528964,-9.535068418921494,1.7716544015066966,-25.68635486421131,-10.635739281063987,5.861678782251699,-4.367515780350603,-2.371788194444444,58.4875653677463,5.626126288042176,-7.062749287749304,35.13723904513733,35.28100757779974,34.993470512474914,1577395845.0,-27.692358533761062,-51.125951579818704,2.441861
41541,1577395845.83,0.1127668981933593,2.458007134399414,8.850944552307128,0.6801576545529244,3.45074533423447,8.56738786263815,0.8405928019205725,0.5630364237467441,5.697800917561849,1.0929107666015625,1.7175674438476562,-10.405731201171877,-0.573879334984756,3.736356409584604,-10.648960020483994,1.4969961983816966,-38.97676013764881,-6.637936546688987,5.8616787822517,-4.937191751700682,-3.831350160256404,55.97411507534864,5.9522785366243305,-7.062749287749304,34.8017791355917,35.233084733578934,35.065354778806125,1577395845.0,-27.692358533761062,-51.125951579818704,2.441861
41542,1577395845.84,0.1630451330566406,1.833120501098633,7.378510531311035,0.3389839179806587,3.8457886081602513,6.527528048185022,1.782711155192057,8.210116526285807,7.504226070149739,0.5435943603515625,1.5344619750976562,-11.565399169921877,-2.481227967797256,-2.870699254477896,-12.159580137671494,2.0768301827566966,-48.54402087983631,-8.316403343563987,6.022272721491472,-4.3675157803506,-1.4595619658119638,56.55414206590194,6.115354660915408,-7.062749287749304,35.13723904513733,35.28100757779974,34.94554766825411,1577395845.0,-27.692358533761062,-51.125951579818704,2.441861
41543,1577395845.85,0.902853446044922,1.7541118463134764,7.107965743713378,1.126676264172065,3.2065367648985323,8.026298287442835,1.775528550211588,4.853445798746745,8.605558833821615,0.8182525634765625,2.633094787597656,-12.328338623046877,-1.138454530297256,5.674222620522103,-11.793369200171494,1.8326895577566968,-51.90095447358631,-14.877682640438987,6.022272721491472,-5.50686772305076,-2.554233440170939,57.13416905645526,5.707664350187715,5.816381766381765,35.28100757779974,35.28100757779974,34.993470512474914,1577395845.0,-27.692358533761062,-51.125951579818704,2.441861
41544,1577395845.86,-0.1290474694824209,1.373433782348633,7.766371200256347,-0.5325054863162152,1.6407288791563448,7.169174093106898,-0.1158907613118483,0.3020684427897128,5.1196012166341145,1.2454986572265625,2.099037170410156,-13.213348388671877,-1.992946717797256,2.134183558022104,-12.769931700171494,1.3138907296316966,-56.23445056733631,-14.053708031063987,5.9419757518715866,-5.032137746925695,-1.915675080128202,55.394088084795335,5.626126288042176,-5.400925925925935,35.20912331146853,35.28100757779974,35.28100757779974,1577395845.0,-27.692358533761062,-51.125951579818704,2.441861
41545,1577395845.87,0.6801926916503906,2.091694280395508,7.941147921447753,-0.1733752372927783,2.29554303320908,8.137628664640099,-0.0332908040364582,-1.6408262044270836,6.009047133382161,2.4051666259765625,1.870155334472656,-14.586639404296877,-2.893215272484756,6.391385706459603,-12.892002012671494,0.2457754952566966,-59.53034900483631,-6.912594749813987,5.3798969645323815,-5.127083742150708,-2.1893429487179423,56.94082672627082,-8.724572649572648,0.4154558404558297,35.28100757779974,35.20912331146853,35.25704615568934,1577395845.0,-27.692358533761062,-51.125951579818704,2.441861
41546,1577395845.88,-0.8760383874511718,0.628837066040039,8.103953634338378,-3.0200810112185588,4.166611630621189,7.248182747892054,5.091497849527994,9.699309958902994,14.847242561848962,-1.1348724365234375,2.938270568847656,-13.762664794921877,-5.197292420922256,-1.5889609732278964,-14.814609434546494,0.3373282296316966,-50.80232166108631,-9.964352562313987,5.219303025292609,-3.797839809000523,-2.006897702991451,56.94082672627082,-8.724572649572648,0.4154558404558297,35.32893042202055,35.424776110462155,35.13723904513733,1577395845.0,-27.692358533761062,-51.125951579818704,2.441861
41547,1577395845.89,1.297896719970703,4.004661406860351,7.656237923889159,-0.6306677543826215,4.6765765842344695,7.233817537931117,-2.5675532613118484,-2.6284343892415363,16.097015828450523,0.5435943603515625,-1.0290145874023438,-15.319061279296877,-8.157497499047256,4.941800745522103,-16.889804747046494,-1.829419817243304,-27.36482166108631,-14.114743187313987,5.058709086052835,-2.84837985675039,-1.094671474358975,56.94082672627082,-8.561496525281571,2.0772792022791817,35.08931620091653,35.13723904513733,35.28100757779974,1577395845.0,-27.692358533761062,-51.125951579818704,2.441861
41548,1577395845.9,-0.0153228906249995,3.804745568237305,7.835803048400878,-1.892412029284966,1.7041752231504856,10.918493892911584,-2.869222670491536,5.4244628946940106,10.88723301595052,1.4591217041015625,1.961708068847656,-14.311981201171877,-2.755886170922256,-0.1698935904153961,-13.639682676733994,-1.3563973563058034,12.67424083891369,-2.731686546688988,4.898115146813064,-3.797839809000523,-1.824452457264957,55.87744391025643,-1.8346063982746217,-4.362286324786345,35.11327762302693,35.20912331146853,35.13723904513733,1577395845.0,-27.692358533761062,-51.125951579818704,2.441861
41549,1577395845.91,-0.9885658654785155,-0.3767276312255859,8.309854977111815,-1.5596179985232466,-0.4733511867616227,14.830619405606896,-0.1637747945149733,2.0426530497233064,11.856884688313803,-5.1326751708984375,3.426551818847656,-15.288543701171877,-4.617458436547256,9.366849573647103,-15.150302793921494,-5.125318254743304,24.82023693266369,-17.898922874813987,7.14643029616988,-4.937191751700682,-2.006897702991451,55.58743041497977,-8.64303458742711,-1.2463675213675387,35.28100757779974,35.32893042202055,35.13723904513733,1577395845.0,-27.692358533761062,-51.125951579818704,2.441861
41550,1577395845.92,0.8908824377441407,-0.2067393133544921,4.95557845123291,0.9734473579220648,-1.9098721828553729,7.003974178556116,3.06360904337565,-4.539007314046224,5.818708101399739,-7.787704467773437,6.722450256347656,-14.830780029296877,-7.241970155297256,3.110746058022104,-11.640781309546494,-5.277906145368304,22.83659435453869,-17.441159202938987,5.3798969645323815,-4.747299761250656,-2.1893429487179423,55.58743041497977,-8.64303458742711,-0.8309116809117091,34.993470512474914,35.32893042202055,35.08931620091653,1577395845.0,-27.692358533761062,-51.125951579818704,2.441861
41551,1577395845.93,3.749559219970703,2.2928072198486324,6.820661544494628,2.6374175117306584,2.85698332251572,-0.5736740758384136,0.4036509989420568,4.918089243570963,9.268752693684895,-1.6536712646484375,5.105018615722656,-14.586639404296877,-8.188015077172256,8.420804651772103,-12.190097715796494,-4.270826067243304,34.09758068266369,-14.603024437313987,4.255739389853973,-3.418055828100472,-2.006897702991451,55.58743041497977,-8.64303458742711,-0.8309116809117091,35.13723904513733,35.13723904513733,35.233084733578934,1577395845.0,-27.692358533761062,-51.125951579818704,2.441861
41552,1577395845.94,-0.4307168786621093,3.1571140191650398,9.183738583068846,0.4359490852169874,4.8812808261778295,10.768856289151818,-3.9310511067708327,0.123700419108073,12.53803506062826,4.1751861572265625,4.982948303222656,-15.273284912109377,-7.791286561547256,6.803373011147103,-14.707797911108994,-5.491529192243304,48.71550060453869,-18.738156273251487,4.255739389853973,-4.367515780350603,-2.006897702991451,55.394088084795335,-8.561496525281571,-7.062749287749304,34.96950909036451,35.32893042202055,35.233084733578934,1577395845.0,-27.692358533761062,-51.125951579818704,2.441861
41553,1577395845.95,-2.820130135498047,1.473990252075195,11.453441756896972,-6.7191225761599656,-3.952126198968655,3.312115218595179,0.2288742777506506,6.131949485270182,8.995813704427084,-0.7991790771484375,7.210731506347656,-13.915252685546877,-4.190212342797256,-2.382418004477896,-13.319248106421494,-5.369458879743304,46.88444591703869,-12.192135765438987,5.701084843011927,-3.987731799450549,-1.824452457264953,55.394088084795335,-8.561496525281571,-7.062749287749304,35.233084733578934,35.424776110462155,35.28100757779974,1577395845.0,-27.692358533761062,-51.125951579818704,2.441861
41554,1577395845.96,-0.1434126794433584,2.170702935180664,9.528503622131346,1.0069661811642523,-0.0376064846131852,9.218610714200649,-0.7814788228352858,8.360951230875651,6.706956917317708,-2.904891967773437,5.959510803222656,-13.488006591796877,-11.483913514672256,23.893216761147105,-10.755771543921494,-4.820142473493304,43.92424083891369,-18.753415062313987,5.8616787822517,-3.797839809000523,-0.1824452457264983,57.71419604700856,5.626126288042176,-7.062749287749304,35.32893042202055,35.424776110462155,35.13723904513733,1577395845.0,-27.692358533761062,-51.125951579818704,2.441861
41555,1577395845.97,-1.1896788049316405,0.620457360229492,10.793839199523925,0.17857240675019,2.68460080298447,15.369314779142051,-2.59867788289388,-5.060943275960287,10.09714646809896,-2.706527709960937,7.012367248535156,-12.526702880859377,-10.782009217797256,-2.290865270102896,-8.833164122046494,-5.125318254743304,41.05558849516369,-16.678219749813987,5.3798969645323815,-4.3675157803506,-1.094671474358975,56.94082672627082,6.60458303378864,-108.43397435897435,35.185161889358135,35.233084733578934,35.13723904513733,1577395845.0,-27.692358533761062,-51.125951579818704,2.441861
41556,1577395845.98,-0.3732560388183583,1.4955380670166014,14.51323147857666,0.1223086677365185,3.2077338657286107,10.276847847989709,-0.4726268086751296,3.634797153727213,11.099119862874351,2.4356842041015625,6.997108459472656,-11.779022216796877,-3.167873475609756,9.046415003334603,-11.106723692358994,-4.255567278180804,35.16569591703869,-15.320187523251487,5.8616787822517,-5.316975732600733,-0.5473357371794875,56.45747090080973,-8.60226555635434,-107.81079059829062,35.13723904513733,35.472698954682954,35.25704615568934,1577395845.0,-27.692358533761062,-51.125951579818704,2.441861
41557,1577395845.99,0.0002394201660156,4.895304424438477,10.117477230529785,-0.0919723808474652,2.8043108859922827,5.055094027188929,-1.8301391499837236,-0.4952007100423173,9.331001936848958,5.6400299072265625,6.752967834472656,-13.152313232421877,-9.103542420922256,7.383206995522103,-12.220615293921494,-3.4773690359933034,40.07902599516369,-9.323483421688987,5.219303025292609,-4.55740777080063,-2.371788194444441,57.32751138663969,-8.561496525281571,-108.43397435897435,35.28100757779974,35.08931620091653,35.13723904513733,1577395845.0,-27.692358533761062,-51.125951579818704,2.441861
41558,1577395846.0,-1.721191573486328,2.912905449829102,8.807848922424315,-3.1326084892459027,2.7755804660704078,9.094112227872523,0.4228046122233069,4.331509836832682,9.93194655354818,-0.0362396240234375,7.027626037597656,-12.114715576171877,-5.105739686547256,4.911283167397103,-11.213535215796494,-2.7449471609933034,38.91935802641369,-10.910397484188987,5.058709086052835,-3.987731799450549,-1.824452457264953,58.10088070737744,6.278430785206488,-108.43397435897435,34.993470512474914,35.233084733578934,35.28100757779974,1577395846.0,-27.69236963376311,-51.12596738099581,1.9992365
41559,1577395846.01,-0.4630386010742182,2.2736536065673825,9.522518117980956,-3.6665154594607454,0.0174601535704075,13.20735068002096,-0.735988991292317,2.2916500223795566,9.103552779134114,-1.0128021240234375,6.234169006347656,-10.634613037109377,-1.077419374047256,7.810453089272103,-9.260410215796494,-2.8975350516183034,38.91935802641369,-13.626461937313987,6.022272721491472,-4.3675157803506,-0.7297809829059857,55.58743041497977,-8.64303458742711,-114.66581196581198,35.28100757779974,35.233084733578934,35.424776110462155,1577395846.0,-27.69236963376311,-51.12596738099581,1.9992365
41560,1577395846.02,-0.4235342736816396,1.8522741143798829,10.232398910217285,-1.1370414055056683,2.2081546726133765,9.109674538663535,-1.4015770528157547,2.966814890543619,9.281920802815756,-0.8296966552734375,8.828163146972656,-10.100555419921877,-2.572780702172256,6.864408167397103,-8.894199278296494,-1.8599373953683036,37.75969005766369,-13.779049827938987,6.182866660731244,-3.797839809000523,-2.006897702991451,55.78077274516421,6.930735282370796,-115.08126780626785,35.28100757779974,35.47269895468296,35.065354778806125,1577395846.0,-27.69236963376311,-51.12596738099581,1.9992365
41561,1577395846.03,2.0089746130371093,2.6351780572509766,8.278730355529785,4.485741193371283,7.429908493414158,8.998344161466274,0.4659002421061193,3.754507236735026,11.928710738118491,2.7103424072265625,8.126258850097656,-10.161590576171877,-6.417995545922256,8.695462854897103,-10.694736387671494,-1.5852791922433034,36.41691662016369,-13.840084984188987,4.095145450614201,-4.747299761250656,-2.1893429487179423,57.32751138663969,6.60458303378864,-110.92670940170945,34.993470512474914,35.424776110462155,34.993470512474914,1577395846.0,-27.69236963376311,-51.12596738099581,1.9992365
41562,1577395846.04,-0.0907402429199209,6.315066008911133,11.781447384338378,0.4203867744259712,3.515388779058689,11.394940023282675,-0.8820352925618483,0.3738944925944004,11.088345955403648,8.111953735351562,8.736610412597656,-10.283660888671877,-1.565700624047256,20.688871058022105,-7.398837950171494,-2.2871834891183034,37.72917247953869,-8.652096702938987,5.3798969645323815,-3.22816383765045,-1.824452457264953,56.94082672627082,-8.724572649572648,-108.43397435897435,35.28100757779974,35.28100757779974,35.32893042202055,1577395846.0,-27.69236963376311,-51.12596738099581,1.9992365
41563,1577395846.05,-1.462617794189453,2.331114446411133,10.2479612210083,-5.009662590808403,0.5968569553282199,10.889763472989708,-0.2116588277180983,6.031393015543619,10.04686823323568,0.5588531494140625,8.339881896972656,-9.551239013671877,0.265354063452744,7.291654261147103,-9.046787168921494,-0.9749276297433034,38.55314708891369,-7.858639671688988,4.898115146813064,-4.177623789900575,-1.6420072115384547,55.394088084795335,6.278430785206488,-108.43397435897435,35.233084733578934,35.52062179890376,35.28100757779974,1577395846.0,-27.69236963376311,-51.12596738099581,1.9992365
41564,1577395846.06,-2.6788722375488283,5.0509275323486325,12.89714535797119,-1.2411891777224653,5.491802249517674,12.022220858243616,-2.7507096883138016,3.5162841715494797,9.194532442220051,3.9310455322265625,8.950233459472656,-9.246063232421877,-3.564601991234756,5.994657190834603,-8.634799864233994,-0.5476815359933034,30.08451915922619,-10.193234398251487,4.898115146813064,-4.177623789900575,-1.6420072115384547,55.394088084795335,6.60458303378864,-104.27941595441597,35.13723904513733,35.25704615568934,35.18516188935813,1577395846.0,-27.69236963376311,-51.12596738099581,1.9992365
41565,1577395846.07,-2.161724678955078,1.9097349542236328,12.988125021057128,-0.0369057426638714,-1.5818665554139664,6.333597713712367,1.5217431742350256,6.443195701090494,10.595140413411462,-1.3790130615234375,8.767127990722656,-9.673309326171877,3.500217344702744,17.423490198647105,-9.626621153296494,0.1542227608816966,19.08293224516369,-14.114743187313987,4.737521207573292,-4.747299761250656,-1.4595619658119638,56.16745740553308,6.278430785206488,-115.08126780626785,35.08931620091653,35.13723904513733,35.13723904513733,1577395846.0,-27.69236963376311,-51.12596738099581,1.9992365
41566,1577395846.08,0.9746794958496092,0.6312312677001952,8.027339181213378,1.452287689953315,2.648687778082126,8.009538875821741,1.3876678812662755,1.1232796122233066,9.673372774251302,1.5811920166015625,7.943153381347656,-8.635711669921875,-4.342800233422256,1.0965859017721036,-8.283847715796494,0.8256094796316966,17.49601818266369,-13.534909202938987,5.701084843011927,-7.026003646650973,-0.7297809829059857,56.16745740553308,7.25688753095295,-112.5885327635328,35.13723904513733,35.47269895468296,35.08931620091653,1577395846.0,-27.69236963376311,-51.12596738099581,1.9992365
41567,1577395846.09,-0.4678270043945312,2.6603171746826173,11.114662221984862,0.2456100532345654,4.9578952793028295,11.513453005460413,-0.2966529866536452,2.8267540934244786,10.599928816731774,3.6411285400390634,7.256507873535156,-9.505462646484377,1.3182105087652438,10.511258753334603,-9.596103575171494,1.3291495186941966,16.39738537016369,-8.591061546688987,5.219303025292609,-5.696759713500785,-3.1015691773504264,57.32751138663969,6.930735282370796,-112.5885327635328,35.233084733578934,35.20912331146853,35.28100757779974,1577395846.0,-27.69236963376311,-51.12596738099581,1.9992365
41568,1577395846.1,-2.391568038330078,1.5290568902587889,10.371262606506347,-1.7679135429568402,1.3941261081602512,6.745400399259242,-0.3193979024251295,1.6116967508951816,8.65344286702474,4.7245025634765625,5.684852600097656,-9.856414794921877,-2.176052186547256,-0.2767051138528963,-11.915439512671494,1.7716544015066966,12.12492443266369,-9.811764671688987,5.219303025292609,-5.696759713500785,-3.1015691773504264,55.78077274516421,7.093811406661874,-113.41944444444444,35.32893042202055,35.233084733578934,35.13723904513733,1577395846.0,-27.69236963376311,-51.12596738099581,1.9992365
41569,1577395846.11,-3.0068778649902344,3.3534385552978514,12.116635616760252,-1.7583367363162152,1.8753606418516573,7.992779464200647,0.0828279764811194,6.131949485270182,9.352549751790365,6.8302154541015625,5.105018615722656,-10.619354248046877,-2.145534608422256,5.399564417397103,-11.793369200171494,2.2904532296316966,8.31022716703869,-11.764889671688987,4.898115146813064,-4.177623789900575,-1.6420072115384547,55.394088084795335,7.093811406661874,-115.08126780626785,35.08931620091653,35.616467487345375,35.13723904513733,1577395846.0,-27.69236963376311,-51.12596738099581,1.9992365
41570,1577395846.12,-1.4793772058105468,0.159573540649414,7.218099020080565,-0.4008243950076215,5.253579184332127,10.003908858731895,0.2576046976725257,4.757677732340495,10.166578316243491,-0.5245208740234375,4.494667053222656,-10.863494873046877,0.265354063452744,5.246976526772103,-10.694736387671494,3.8163321358816966,4.739670526413691,-13.595944359188987,4.576927268333519,-4.55740777080063,-1.2771167200854656,55.58743041497977,7.012273344516337,-114.66581196581198,34.993470512474914,34.993470512474914,35.13723904513733,1577395846.0,-27.69236963376311,-51.12596738099581,1.9992365
41571,1577395846.13,-2.8548460595703125,3.644334057006836,13.629771065979003,-0.9909951042361372,3.930782767095798,10.228963814786583,-0.6557832356770826,2.3622789713541663,9.818221974690756,8.127212524414062,2.541542053222656,-10.909271240234377,3.988498594702744,4.163602503334603,-11.106723692358994,4.136766706194196,-3.2711937313988093,-11.307125999813987,4.737521207573292,-4.3675157803506,-0.3648904914529891,34.029760599415226,6.482275940570333,-51.72425213675216,35.376853266241355,35.233084733578934,35.233084733578934,1577395846.0,-27.69236963376311,-51.12596738099581,1.9992365
41572,1577395846.14,-4.00525995727539,0.3726574884033203,13.10783510406494,-1.839739592761528,0.7931814914610325,7.815608541349085,-1.365664027913411,2.5717716166178386,13.221579634602868,4.1141510009765625,0.5884170532226562,-11.260223388671877,-1.382595155297256,-2.718111363852896,-13.990634825171494,4.762377057756696,-10.79377673921131,-8.011227562313987,4.737521207573292,-4.3675157803506,-0.3648904914529891,33.93308943432301,6.359968847352024,-7.47820512820515,35.13723904513733,35.28100757779974,35.28100757779974,1577395846.0,-27.69236963376311,-51.12596738099581,1.9992365
41573,1577395846.15,-3.2103850061035155,2.2544999932861325,8.384075228576659,-2.558000090808403,4.882477927007908,13.39170420785299,-1.365664027913411,1.463256247965494,10.575986800130211,5.7621002197265625,-2.127647399902344,-11.168670654296877,1.913303282202744,-2.931734410727896,-13.075107481421494,4.060472760881696,-2.3098900204613093,-7.614499046688988,5.701084843011927,-3.987731799450549,-2.9191239316239352,33.93308943432301,5.707664350187715,-1.661823361823385,35.424776110462155,35.28100757779974,35.08931620091653,1577395846.0,-27.69236963376311,-51.12596738099581,1.9992365
41574,1577395846.16,-1.7786524133300785,2.121621801147461,10.615471175842284,-1.353716655749809,-0.063942702874904,12.316707662442834,0.2097206644694006,5.138355796305338,10.168972517903647,2.3288726806640625,-2.631187438964844,-11.656951904296877,6.155246641577744,9.733060511147103,-10.999912168921494,4.853929792131696,-1.7910911923363095,-10.086422874813987,6.343460599971017,-3.41805582810047,-1.6420072115384587,56.36079973571752,5.870740474478793,2.492735042735028,35.13723904513733,35.28100757779974,35.08931620091653,1577395846.0,-27.69236963376311,-51.12596738099581,1.9992365
41575,1577395846.17,-1.4171279626464843,3.013461919555664,7.953118929748534,-2.022896019763481,2.821070297613377,10.008697262052207,-2.276657759602864,2.1743341410319004,8.776744252522786,4.2057037353515625,-2.127647399902344,-11.534881591796877,0.021213438452744,-9.996553746665397,-12.525791075171494,4.655565534319196,-12.54853748139881,-13.656979515438987,6.343460599971017,-2.84837985675039,-2.1893429487179423,55.87744391025643,-1.4269160875469278,1.4540954415954204,35.13723904513733,35.304968999910145,35.233084733578934,1577395846.0,-27.69236963376311,-51.12596738099581,1.9992365
41576,1577395846.18,-1.876814681396484,3.5258210748291017,10.749546468811037,-1.1382385063357463,0.510665695562595,15.017367135099084,-1.7176116719563796,-0.3156355855305986,10.188126131184898,6.4945220947265625,-1.5172958374023438,-11.504364013671877,6.979221250952744,11.594632776772103,-10.786289122046494,4.152025495256696,-17.14143298921131,-11.154538109188987,6.343460599971017,-2.84837985675039,-2.1893429487179423,55.394088084795335,8.235344276699415,-8.724572649572671,35.08931620091653,35.233084733578934,35.13723904513733,1577395846.0,-27.69236963376311,-51.12596738099581,1.9992365
41577,1577395846.19,-2.283828963623047,0.427724126586914,10.802218905334472,-0.539688091296684,-2.333645876703029,8.651184920743617,-2.1677215840657547,1.039482554117838,12.225591743977867,6.4945220947265625,-2.493858337402344,-10.436248779296877,-0.3449974990472559,-6.441255895102897,-12.769931700171494,4.884447370256696,-16.71418689546131,-9.689694359188987,5.540490903772155,-4.55740777080063,-1.6420072115384547,55.97411507534864,8.316882338844955,-94.72393162393163,35.13723904513733,35.47269895468296,34.993470512474914,1577395846.0,-27.69236963376311,-51.12596738099581,1.9992365
41578,1577395846.2,-2.5854983728027343,3.653910863647461,10.474213277893066,-3.3002026054568403,4.532924484625095,12.046162874845178,-1.8947825948079424,2.248554392496744,12.431493086751304,5.1212310791015625,-3.653526306152344,-10.787200927734377,-2.389675233422256,-9.615084020102897,-10.511630918921494,4.457201276506696,-10.82429431733631,-8.896237327938987,6.50405453921079,-5.50686772305076,-0.9122262286324764,60.22764633940623,8.316882338844955,-101.3712250712251,35.113277623026924,34.993470512474914,35.13723904513733,1577395846.0,-27.69236963376311,-51.12596738099581,1.9992365
41579,1577395846.21,-2.453817281494141,1.6176423516845702,8.74081127593994,-1.737986022204887,0.5789004428770487,8.982781850675256,-1.8421101582845043,4.323130131022135,8.071651863606771,0.1773834228515625,-4.080772399902344,-9.825897216796877,5.087131407202744,1.3407265267721034,-10.938877012671494,4.457201276506696,-15.02046130952381,-10.818844749813987,6.50405453921079,-6.456327675300892,-0.5473357371794875,58.87425002811517,7.256887530952952,-101.78668091168092,35.32893042202055,35.18516188935813,35.233084733578934,1577395846.0,-27.69236963376311,-51.12596738099581,1.9992365
41580,1577395846.22,-2.1162348474121093,2.922482256469727,9.787077401428222,-1.430331108874809,4.769950448980564,9.891381380704551,-2.4334779683430985,-1.6994841451009108,7.851385310872396,3.6258697509765625,-5.698204040527344,-9.337615966796877,-3.793483827172256,-13.887544957602897,-11.579746153296494,4.304613385881696,-24.03840564546131,-10.330563499813987,6.50405453921079,-6.456327675300892,-0.5473357371794875,59.26093468848404,6.930735282370796,-101.78668091168092,35.233084733578934,35.32893042202055,35.13723904513733,1577395846.0,-27.69236963376311,-51.12596738099581,1.9992365
41581,1577395846.23,-3.095463326416016,4.105217876586914,11.376827303771972,-1.9307192558474653,4.085208774175876,10.094888521817834,-1.9450608296712235,-0.4880181050618486,9.91279294026693,5.8231353759765625,-5.393028259277344,-9.520721435546877,2.493137266577744,0.0895058236471036,-10.023349668921494,3.5111563546316966,-24.12995837983631,-5.447750999813988,6.50405453921079,-5.316975732600733,-0.9122262286324764,55.394088084795335,6.60458303378864,-7.062749287749304,34.94554766825411,35.28100757779974,35.616467487345375,1577395846.0,-27.69236963376311,-51.12596738099581,1.9992365
41582,1577395846.24,-1.7642872033691406,1.817558190307617,8.36372451446533,-3.471388024158012,0.75008586157822,9.458030880216272,-1.6960638570149733,2.8830178324381506,8.32783144124349,3.4275054931640625,-6.140708923339844,-9.627532958984377,0.6315650009527439,-8.669039098227897,-10.709995176733994,3.3890860421316966,-29.74519275483631,-9.170895531063987,5.941975751871586,-3.7028938137755114,-2.280565571581195,59.067592358299606,4.403055355859095,-6.647293447293474,34.96950909036451,35.18516188935813,35.16120046724773,1577395846.0,-27.69236963376311,-51.12596738099581,1.9992365
41583,1577395846.25,-1.3931859460449216,1.3255497491455075,8.860521358947754,-1.84452799608184,2.1722416477110325,11.931241195157678,-2.5914952779134106,1.202288267008463,8.912016646321614,-1.5926361083984375,-5.698204040527344,-10.100555419921877,1.974338438452744,-2.809664098227896,-9.992832090796494,2.7482169015066966,-29.62312244233631,-11.124020531063987,6.343460599971017,-3.987731799450549,-3.2840144230769246,55.394088084795335,4.484593418004634,-3.7391025641025832,35.13723904513733,35.28100757779974,35.13723904513733,1577395846.0,-27.69236963376311,-51.12596738099581,1.9992365
41584,1577395846.26,-1.673307540283203,1.1316194146728515,6.435195077209472,-2.340127739734184,-0.1046441310975602,9.956024825528772,-1.9690028462727855,0.2206655863444003,8.943141267903645,-0.1277923583984375,-3.958702087402344,-9.215545654296877,4.446262266577744,-5.190035191977897,-10.084384825171494,2.3514883858816966,-26.75447009858631,-8.621579124813987,6.343460599971017,-3.987731799450549,-3.2840144230769246,55.394088084795335,4.484593418004634,-5.400925925925935,35.32893042202055,34.993470512474914,35.32893042202055,1577395846.0,-27.69236963376311,-51.12596738099581,1.9992365
41585,1577395846.27,-2.408327449951172,3.269641497192383,10.895592770080563,-3.7503125175662153,1.2049841770079075,9.199457100919398,-0.7288063863118482,2.243765989176432,12.627817622884118,6.1588287353515625,-4.782676696777344,-9.062957763671877,-1.596218202172256,-4.945894566977897,-9.596103575171494,1.7411368233816966,-20.31526111421131,-9.109860374813987,6.9858363569301085,-3.6079478185504974,-1.824452457264953,55.58743041497977,-8.64303458742711,-96.385754985755,35.28100757779974,35.52062179890376,34.993470512474914,1577395846.0,-27.69236963376311,-51.12596738099581,1.9992365
41586,1577395846.28,-2.085110225830078,1.8163610894775395,10.112688827209473,-1.4530760246462937,2.4499690402891576,11.922861489347133,-1.9426666280110672,1.184331754557291,12.261504768880211,2.7713775634765625,-5.667686462402344,-9.780120849609377,-1.779323670922256,-6.273409215415397,-9.504550840796494,1.3291495186941966,-5.01069568452381,-8.667355492001487,6.022272721491472,-4.177623789900575,-2.554233440170939,56.94082672627082,4.810745666586788,-97.63212250712252,35.28100757779974,35.28100757779974,35.185161889358135,1577395846.0,-27.69236963376311,-51.12596738099581,1.9992365
41587,1577395846.29,-2.449028878173828,1.7828422662353514,9.844538241271971,-1.9714206840701212,1.6455172824766573,13.52577950082174,-1.0592062154134108,4.30756782023112,9.812236470540368,2.0084381103515625,-5.728721618652344,-9.886932373046877,2.218479063452744,-6.441255895102897,-10.847324278296494,1.0392325265066966,-2.4929954892113093,-10.208493187313987,7.14643029616988,-6.83611165620094,-2.371788194444441,55.394088084795335,4.64766954229571,-100.12485754985757,35.28100757779974,35.28100757779974,35.13723904513733,1577395846.0,-27.69236963376311,-51.12596738099581,1.9992365
41588,1577395846.3,-1.5895104821777342,2.8937518365478514,12.315354354553222,-1.564406401843559,1.4324333347227511,11.612812374356896,-2.2419418355305982,-0.1240994527180986,8.88328622639974,0.4825592041015625,-5.789756774902344,-10.314178466796877,2.218479063452744,-1.2837851919778964,-9.992832090796494,0.7035391671316966,-8.19978259858631,-10.879879906063987,7.14643029616988,-6.83611165620094,-2.371788194444441,55.58743041497977,5.381512101605561,-96.385754985755,35.13723904513733,35.28100757779974,35.13723904513733,1577395846.0,-27.69236963376311,-51.12596738099581,1.9992365
41589,1577395846.31,-1.481771407470703,1.5769409234619138,9.171767574768063,-1.7320005180544964,-0.1357687526795915,7.966443245938929,-1.5069219258626296,1.1304622172037753,8.524155977376301,-0.2193450927734375,-4.874229431152344,-9.886932373046877,-0.955349061547256,-6.899019566977897,-10.755771543921494,1.5885489327566966,-14.42536853608631,-11.032467796688987,6.6646484784505615,-4.3675157803506,-1.4595619658119638,55.394088084795335,4.64766954229571,-101.78668091168092,34.993470512474914,35.28100757779974,35.28100757779974,1577395846.0,-27.69236963376311,-51.12596738099581,1.9992365
41590,1577395846.32,-0.1769315026855459,1.414135210571289,6.776368813781738,-0.4104012016482469,0.9081031711485325,7.790469423917446,0.5844132242838543,2.440090525309244,8.305086525472005,-0.6008148193359375,-5.667686462402344,-9.703826904296877,-2.084499452172256,-3.8320029654153966,-8.894199278296494,0.4136221749441967,-13.05207752046131,-12.634640648251487,5.861678782251699,-4.177623789900577,-2.554233440170939,56.94082672627082,5.055359853023404,-101.78668091168092,35.25704615568934,35.25704615568934,35.25704615568934,1577395846.0,-27.69236963376311,-51.12596738099581,1.9992365
41591,1577395846.33,-0.8856151940917968,2.029445037231445,9.042480685119628,-1.4638499321169964,3.249632394781345,7.987991060880335,-1.5260755391438796,-2.132834645589192,9.283117903645833,1.1539459228515625,-5.972862243652344,-9.856414794921877,-3.549343202172256,-7.845064488852897,-10.145419981421494,-0.4561288016183034,-7.406325567336309,-7.980709984188988,7.467618174649426,-5.696759713500785,-0.5473357371794875,55.58743041497977,-8.64303458742711,-97.2166666666667,34.993470512474914,35.424776110462155,34.94554766825411,1577395846.0,-27.69236963376311,-51.12596738099581,1.9992365
41592,1577395846.34,-1.2567164514160154,1.5506047052001952,9.415976144104002,-0.4965924614138715,2.086050387945407,8.90497029672018,-0.0440647115071608,3.495933457438151,9.082004964192707,0.9098052978515624,-6.949424743652344,-9.520721435546877,-2.450710389672256,-5.556246129477897,-10.175937559546494,-0.0899178641183033,-5.544753301711309,-7.614499046688988,7.467618174649426,-5.696759713500785,-0.5473357371794875,55.58743041497977,-8.64303458742711,-97.2166666666667,34.993470512474914,35.233084733578934,35.13723904513733,1577395846.0,-27.69236963376311,-51.12596738099581,1.9992365
41593,1577395846.35,-0.8592789758300781,1.970787096557617,10.398795925598144,0.130688373547065,2.461940048589939,9.783642305997525,0.1785960428873694,3.661133371988932,10.262346382649742,2.2983551025390625,-7.529258728027344,-9.658050537109377,-3.732448670922256,-8.394380895102897,-10.542148497046494,0.3373282296316966,-7.650466192336309,-9.476071312313987,5.460193934152269,-4.272569785125588,-2.0981203258546968,57.13416905645526,5.218435977314481,-99.7094017094017,35.11327762302693,35.28100757779974,34.993470512474914,1577395846.0,-27.69236963376311,-51.12596738099581,1.9992365
41594,1577395846.36,-0.1362300744628896,2.1012710870361326,11.474989571838378,-0.3206186393923876,2.3805371921446263,11.271638637784632,0.5449088968912756,2.8758352274576824,10.763931630452475,2.2525787353515625,-7.254600524902344,-9.886932373046877,-1.0163842177972562,-6.654878941977897,-9.733432676733994,0.8713858468191966,-10.15290759858631,-11.642819359188987,7.467618174649426,-4.177623789900575,-1.6420072115384547,55.49075924988755,5.666895319114945,-101.578952991453,35.08931620091653,35.35289184413095,35.233084733578934,1577395846.0,-27.69236963376311,-51.12596738099581,1.9992365
41595,1577395846.37,-0.1553836877441396,0.4157531182861328,11.477383773498534,0.3557433296017525,2.009435934820407,10.530633223966271,-0.7192295796712233,1.855905320231119,9.570422102864583,0.9403228759765624,-7.620811462402344,-9.703826904296877,-1.077419374047256,-6.563326207602897,-10.755771543921494,1.4664786202566966,-13.63191150483631,-11.307125999813987,7.307024235409652,-3.6079478185504974,-2.1893429487179423,55.394088084795335,5.136897915168943,-106.77215099715102,35.13723904513733,35.13723904513733,35.28100757779974,1577395846.0,-27.69236963376311,-51.12596738099581,1.9992365
41596,1577395846.38,-0.7754819177246093,2.548986797485352,9.760741183166504,-0.8150212822146526,1.4635579563047822,8.92412391000143,-0.716835378011067,1.1232796122233066,8.533732784016927,1.9474029541015625,-7.346153259277344,-9.581756591796877,1.272434141577744,-5.891939488852897,-9.351962950171494,1.6495840890066966,-16.34797595796131,-11.154538109188987,7.307024235409652,-3.6079478185504974,-2.1893429487179423,55.58743041497977,5.707664350187715,-108.01851851851852,34.8017791355917,35.52062179890376,35.13723904513733,1577395846.0,-27.69236963376311,-51.12596738099581,1.9992365
41597,1577395846.39,-0.2559401574707021,1.2477381951904296,7.690953847961425,-1.5596179985232466,0.050978976812595,7.887434591153773,-1.4781915059407549,-2.8846139668782547,7.583234724934896,0.1621246337890625,-7.361412048339844,-9.154510498046877,-0.0398217177972559,-5.373140660727897,-10.847324278296494,0.3983633858816966,-14.63899158296131,-8.072262718563987,7.387321205029539,-4.272569785125589,-1.7332298344017074,55.58743041497977,5.707664350187715,-108.01851851851852,34.96950909036451,35.28100757779974,35.13723904513733,1577395846.0,-27.69236963376311,-51.12596738099581,1.9992365
41598,1577395846.4,0.8693346228027343,1.509903276977539,7.919600106506347,-0.6294706535525433,0.6076308627989231,7.898208498624477,0.4623089396158855,2.489171659342448,9.285512105305989,1.2149810791015625,-7.010459899902344,-8.940887451171875,-2.588039491234756,-7.677217809165397,-9.290927793921494,0.6577627999441966,-11.38886951264881,-7.431393577938987,6.9858363569301085,-5.127083742150708,-3.6489049145299135,55.78077274516421,6.03381659876987,-111.7576210826211,35.13723904513733,35.20912331146853,35.25704615568934,1577395846.0,-27.69236963376311,-51.12596738099581,1.9992365
41599,1577395846.41,1.3936647863769531,0.6527790826416014,8.393652035217285,1.1338588691525335,1.51623039282822,9.24973533578268,0.2576046976725257,2.490368760172526,8.732451521809896,1.1844635009765625,-6.583213806152344,-8.055877685546875,-0.772243592797256,-7.356783238852897,-8.253330137671494,0.8866446358816966,-10.45808337983631,-11.307125999813987,7.14643029616988,-2.6584878663003684,-1.2771167200854656,56.16745740553308,-8.724572649572648,-110.09579772079776,35.13723904513733,35.233084733578934,35.424776110462155,1577395846.0,-27.69236963376311,-51.12596738099581,1.9992365
41600,1577395846.42,0.3258508459472656,3.197815447387695,10.24197571685791,0.42756937940644,3.747626340093845,8.603300887540492,1.1817665384928382,0.3930481058756503,9.096370174153646,3.0155181884765625,-6.400108337402344,-8.238983154296875,-2.755886170922256,-8.333345738852897,-8.344882872046494,0.7645743233816966,-12.28913806733631,-11.246090843563987,7.14643029616988,-2.6584878663003684,-1.2771167200854656,55.394088084795335,-7.746115903826182,-115.08126780626785,35.32893042202055,35.32893042202055,35.13723904513733,1577395846.0,-27.69236963376311,-51.12596738099581,1.9992365
41601,1577395846.43,0.2085349645996099,2.630389653930664,9.647016604309082,0.5664330756955024,3.02936584204697,9.70702785287252,0.2839409159342449,3.04342934366862,9.94391756184896,0.7266998291015625,-7.193565368652344,-9.185028076171877,-2.298122499047256,-5.220552770102897,-8.970493223608994,-0.0288827078683033,-10.68696521577381,-9.842282249813987,6.744945448070448,-3.70289381377551,-1.915675080128202,30.646269821187605,-8.64303458742711,-115.08126780626785,35.20912331146853,35.20912331146853,35.28100757779974,1577395846.0,-27.69236963376311,-51.12596738099581,1.9992365
41602,1577395846.44,-0.5623979699707021,2.675879485473633,8.546880941467284,-1.6912990898318403,2.246461899175876,9.400570040372523,-0.391223952229817,0.5869784403483066,10.67893747151693,-1.0738372802734375,-6.369590759277344,-9.703826904296877,-1.474147889672256,-6.441255895102897,-9.565585997046494,-0.8223397391183034,-6.063552129836309,-11.703854515438987,7.14643029616988,-4.55740777080063,-1.6420072115384547,32.77303545321639,5.055359853023405,-113.00398860398865,35.13723904513733,35.52062179890376,35.13723904513733,1577395846.0,-27.69236963376311,-51.12596738099581,1.9992365
41603,1577395846.45,-0.0380678063964833,1.9576189874267576,9.183738583068846,0.4155983711056587,2.6319283664610325,10.561757845548303,0.0947989847819006,-0.1217052510579423,10.920751839192713,-0.6160736083984375,-7.071495056152344,-9.612274169921877,-4.159694764672256,-3.877779332602896,-10.053867247046494,-1.1275155203683034,-3.3169700985863093,-7.461911156063988,5.8616787822517,-5.316975732600733,-2.006897702991451,31.03295448155648,4.973821790877866,-115.08126780626785,34.993470512474914,35.28100757779974,35.08931620091653,1577395846.0,-27.69236963376311,-51.12596738099581,1.9992365
41604,1577395846.46,-0.1362300744628896,2.8937518365478514,9.64103110015869,0.8082474433712836,3.3861018894102517,9.853074154142051,1.3302070414225255,4.67148647257487,9.749987227376302,0.9708404541015624,-7.376670837402344,-9.276580810546877,-2.664333436547256,-7.143160191977897,-9.901279356421494,-0.7307870047433034,-0.2652122860863095,-7.370358421688988,5.8616787822517,-5.316975732600733,-2.006897702991451,31.03295448155648,4.973821790877866,-115.08126780626785,35.233084733578934,35.52062179890376,35.13723904513733,1577395846.0,-27.69236963376311,-51.12596738099581,1.9992365
41605,1577395846.47,0.5485116003417968,1.8786103326416013,8.7156721585083,0.2599752631955029,1.7688186679747042,8.195089504483851,0.467097342936198,3.0961017801920567,8.093199678548176,0.2079010009765625,-7.117271423339844,-9.520721435546877,-2.740627381859756,-6.578584996665397,-9.229892637671494,-0.3798348563058033,-3.698439825148809,-11.169796898251487,7.226727265789766,-2.9433258519754077,-1.7332298344017074,43.21352128317591,-1.7938373672018524,-61.07200854700857,35.08931620091653,35.25704615568934,35.28100757779974,1577395846.0,-27.69236963376311,-51.12596738099581,1.9992365
41606,1577395846.48,-0.1865083093261708,2.1922507501220703,9.588358663635251,0.1522361884884712,3.843394406500095,12.28797724252096,-0.2116588277180983,2.7992207743326825,9.615911934407553,-0.4024505615234375,-7.254600524902344,-10.466766357421877,-2.328640077172256,-6.990572301352897,-9.748691465796494,-0.2119881766183033,-10.94636462983631,-11.886959984188987,8.109993931608516,-2.6584878663003684,-2.371788194444441,57.71419604700856,-8.398420400990494,-1.2463675213675387,35.13723904513733,35.28100757779974,35.28100757779974,1577395846.0,-27.69236963376311,-51.12596738099581,1.9992365
41607,1577395846.49,0.3043030310058593,1.912129155883789,9.31541967437744,-0.3888533867068403,2.6223515598204075,11.473948678067831,-1.3034147847493485,2.7704903544108075,12.223197542317711,-0.8602142333984375,-6.430625915527344,-10.955047607421877,0.662082579077744,-2.046724645102896,-9.596103575171494,-0.3340584891183034,-4.964919317336309,-11.978512718563987,8.752369688567606,-4.55740777080063,-1.2771167200854656,58.4875653677463,5.626126288042176,1.2463675213675056,35.32893042202055,35.08931620091653,35.13723904513733,1577395846.0,-27.69236963376311,-51.12596738099581,1.9992365
41608,1577395846.5,-0.4510675927734364,2.373012975463867,8.809046023254394,0.4012331611447212,3.1323165134336888,7.516333333829554,-0.8533048726399732,1.6595807840983066,11.1458067952474,2.3746490478515625,-5.698204040527344,-10.832977294921877,-4.220729920922256,-7.936617223227897,-12.373203184546494,0.3983633858816966,-0.3262474423363095,-9.750729515438987,8.270587870848289,-4.177623789900577,-1.6420072115384583,55.394088084795335,4.973821790877866,-2.0772792022792146,35.01743193458532,34.94554766825411,35.28100757779974,1577395846.0,-27.69236963376311,-51.12596738099581,1.9992365
41609,1577395846.51,-0.0739808312988271,1.9743783990478516,9.732010763244627,-0.6737633842654345,3.515388779058689,12.104820815519004,-0.2810906758626301,4.503892356363932,10.27072608846029,2.5272369384765625,-5.484580993652344,-11.687469482421877,-1.1689721084222562,-5.602022496665397,-11.625522520483994,0.8561270577566966,2.4508521670386907,-11.536007835751487,7.14643029616988,-4.55740777080063,-1.2771167200854656,56.16745740553308,4.973821790877866,-0.4154558404558628,35.08931620091653,35.25704615568934,35.065354778806125,1577395846.0,-27.69236963376311,-51.12596738099581,1.9992365
41610,1577395846.52,-0.782664522705078,1.3973757989501951,10.493366891174317,0.8010648383908149,3.01021222876572,10.664708516935022,0.0660685648600256,5.454390415445963,9.460288826497395,3.6869049072265625,-5.087852478027344,-11.107635498046877,-0.4365502334222559,-4.579683629477897,-13.532871153296494,2.6871817452566966,-6.429763067336309,-12.497311546688987,6.343460599971017,-3.6079478185504974,-1.094671474358975,58.680907697930735,6.686121095934181,-8.309116809116826,35.28100757779974,35.13723904513733,35.233084733578934,1577395846.0,-27.69236963376311,-51.12596738099581,1.9992365
41611,1577395846.53,-0.6988674645996092,3.573705108032226,11.482172176818846,-0.4223722099490277,4.587991122808688,11.42606464486471,-0.0704009297688796,4.262077988688151,8.083622871907552,6.4640045166015625,-5.026817321777344,-12.114715576171877,1.547092344702744,-6.258150426352897,-11.884921934546494,3.1144278390066966,-12.99104236421131,-14.206295921688987,6.50405453921079,-4.937191751700682,-0.9122262286324764,59.067592358299606,7.012273344516337,3.3236467236467035,35.08931620091653,35.32893042202055,35.424776110462155,1577395846.0,-27.69236963376311,-51.12596738099581,1.9992365
41612,1577395846.54,-0.8640673791503906,1.5362394952392575,7.89206678741455,-0.7240416191287151,3.510600375738376,7.897011397794397,-0.9634381490071608,2.586136826578776,8.727663118489582,2.0542144775390625,-5.377769470214844,-12.999725341796877,3.256076719702744,0.8524452767721036,-12.983554747046494,4.121507917131696,-14.57795642671131,-12.649899437313987,6.50405453921079,-4.937191751700682,-0.9122262286324764,58.4875653677463,6.930735282370796,2.908190883190874,35.11327762302693,35.28100757779974,35.233084733578934,1577395846.0,-27.69236963376311,-51.12596738099581,1.9992365
41613,1577395846.55,0.1534683264160156,1.3423091607666011,7.694545150451659,0.288705683117378,1.8418418186094696,8.842721053556117,-0.4379108846028645,1.20468246866862,10.20608264363607,5.6095123291015625,-5.606651306152344,-13.304901123046877,0.2043189072027439,-5.876680699790397,-14.585727598608994,4.228319440569196,-9.72566150483631,-14.374142601376487,7.628212113889198,-3.22816383765045,-1.4595619658119638,57.90753837719299,-8.724572649572648,-0.8309116809116928,34.94554766825411,35.13723904513733,35.11327762302693,1577395846.0,-27.69236963376311,-51.12596738099581,1.9992365
41614,1577395846.56,0.6179434484863281,0.6551732843017577,8.120713045959471,-0.5157460746951215,1.8849374484922825,8.677521139005336,-0.822180251057942,1.269325913492838,9.022149922688802,4.6024322509765625,-4.446983337402344,-13.182830810546877,3.225559141577744,-3.542085973227896,-15.577548887671494,4.762377057756696,-6.979079473586309,-10.300045921688987,5.8616787822517,-5.316975732600733,-3.1015691773504264,56.94082672627082,6.115354660915408,5.400925925925918,34.993470512474914,35.47269895468296,35.28100757779974,1577395846.0,-27.69236963376311,-51.12596738099581,1.9992365
41615,1577395846.57,-0.0787692346191396,1.682285796508789,9.08557631500244,-0.9921922050662152,3.529753989019626,11.478737081388148,0.4467466288248694,4.051388242594401,10.116300081380212,8.234024047851562,-4.263877868652344,-13.060760498046877,1.028293516577744,-6.136080113852897,-15.913242247046494,5.006517682756696,-9.57307361421131,-11.917477562313987,5.701084843011927,-4.3675157803506,-0.7297809829059857,56.16745740553308,7.093811406661874,-2.908190883190908,34.993470512474914,35.233084733578934,35.13723904513733,1577395846.0,-27.69236963376311,-51.12596738099581,1.9992365
41616,1577395846.58,-0.8616731774902343,2.941635869750977,11.112268020324706,-1.1059167839236372,1.167874051275486,10.404937636808068,-0.9718178548177075,1.9049864542643224,10.85730549519857,10.019302368164062,-4.538536071777344,-13.503265380859377,4.644626524390244,-2.611299840415396,-14.082187559546494,5.250658307756696,-8.56599353608631,-12.802487327938987,5.701084843011927,-4.3675157803506,-0.7297809829059857,55.78077274516421,-1.0599948078920036,-4.570014245014259,35.065354778806125,35.28100757779974,35.13723904513733,1577395846.0,-27.69236963376311,-51.12596738099581,1.9992365
41617,1577395846.59,-0.1936909143066396,0.2290053887939453,8.374498421936034,-0.6689749809451214,2.208154672613376,9.42211785531393,0.5209668802897132,4.67148647257487,9.558451094563802,3.1986236572265625,-3.623008728027344,-13.671112060546877,-0.4365502334222559,-5.220552770102897,-14.967197325171494,5.159105573381696,-6.826491582961309,-17.227536156063987,7.949399992368741,-5.50686772305076,-1.094671474358975,55.58743041497977,-8.64303458742711,-7.47820512820515,35.233084733578934,35.13723904513733,35.13723904513733,1577395846.0,-27.69236963376311,-51.12596738099581,1.9992365
41618,1577395846.6,0.4647145422363281,2.32632604309082,9.399216732482907,0.475453412609565,1.9615519016172824,11.971942623380334,-0.6474035298665358,-0.6053339864095049,8.660625472005208,4.6024322509765625,-3.714561462402344,-13.213348388671877,2.950900938452744,-0.4903281607278963,-13.746494200171494,5.311693464006696,-8.26081775483631,-18.204098656063987,6.9858363569301085,-2.4685958758503426,-1.094671474358975,55.58743041497977,-8.64303458742711,-6.647293447293474,34.94554766825411,35.32893042202055,35.13723904513733,1577395846.0,-27.69236963376311,-51.12596738099581,1.9992365
41619,1577395846.61,0.5796362219238281,2.6710910821533203,9.402808034973145,-0.8102328788943401,1.6969926181700168,7.952078035977991,-0.5516354634602858,0.0662395792643228,8.776744252522786,5.9452056884765625,-3.561973571777344,-12.664031982421877,3.286594297827744,-2.123018590415396,-14.677280332983994,4.853929792131696,-9.74092029389881,-12.817746117001487,6.74494544807045,-2.373649880625329,-1.5507845886752132,55.68410158007199,-8.68380361849988,-1.0386396011396235,35.13723904513733,35.18516188935813,35.18516188935813,1577395846.0,-27.69236963376311,-51.12596738099581,1.9992365
41620,1577395846.62,0.6945579016113281,3.0158561212158204,9.40639933746338,-0.510957671374809,2.272798117437594,7.418171065763148,1.2320447733561195,2.684299094645182,7.887298335774739,7.287979125976562,-3.409385681152344,-12.114715576171877,0.906223204077744,-3.786226598227896,-13.715976622046494,4.365648542131696,-12.38069080171131,-12.466793968563987,6.50405453921079,-2.2787038854003168,-2.006897702991451,57.13416905645526,-8.64303458742711,4.985470085470055,35.32893042202055,35.13723904513733,35.28100757779974,1577395846.0,-27.69236963376311,-51.12596738099581,1.9992365
41621,1577395846.63,-0.0260967980957026,0.9975441217041014,8.399637539367674,0.1247028693966748,0.8877524570372047,7.093756740811977,0.6466624674479163,1.185528855387369,6.821878597005209,2.9087066650390625,-4.111289978027344,-12.038421630859377,2.874606993140244,-2.733370152915396,-13.090366270483994,3.7095206124441966,-17.61445545014881,-12.100583031063987,8.270587870848287,-3.987731799450549,-2.554233440170939,56.264128570625296,-8.68380361849988,4.777742165242141,35.16120046724773,35.185161889358135,35.01743193458532,1577395846.0,-27.69236963376311,-51.12596738099581,1.9992365
41622,1577395846.64,1.412818399658203,1.7517176446533202,8.218875314025878,-0.5133518730349652,-0.772626394281154,8.720616768888148,0.9710767923990882,1.0466651590983065,9.582393111165365,3.0460357666015625,-4.324913024902344,-11.595916748046877,-1.840358827172256,-2.992769566977896,-13.014072325171494,3.2670157296316966,-15.92072986421131,-14.664059593563987,8.270587870848287,-3.987731799450549,-2.554233440170939,58.4875653677463,-8.398420400990494,-8.724572649572671,35.08931620091653,35.233084733578934,35.233084733578934,1577395846.0,-27.69236963376311,-51.12596738099581,1.9992365
41623,1577395846.65,0.6394912634277344,2.8626272149658205,9.29147765777588,-0.6498213676638714,1.537778207769626,10.470778182462364,-0.7048643697102858,-4.017071352132161,9.122706392415363,5.3348541259765625,-3.897666931152344,-10.619354248046877,-0.1313744521722559,-3.511568395102896,-12.129062559546494,1.9547598702566968,-9.96980212983631,-8.407956077938987,7.949399992368741,-3.6079478185504974,-2.1893429487179423,56.36079973571752,-8.64303458742711,-3.323646723646737,34.94554766825411,35.424776110462155,35.13723904513733,1577395846.0,-27.69236963376311,-51.12596738099581,1.9992365
41624,1577395846.66,0.6083666418457031,2.4149115045166014,8.996990853576659,0.0660449287228462,2.361383578863376,8.100518538907679,0.1498656229654944,2.2509485941569003,8.543309590657552,4.6634674072265625,-3.348350524902344,-10.283660888671877,0.936740782202744,-2.748628941977896,-11.945957090796494,2.1989004952566966,-9.90876697358631,-6.332760765438988,5.701084843011927,-4.3675157803506,-1.824452457264953,56.55414206590194,-8.561496525281571,-2.908190883190908,35.08931620091653,35.28100757779974,35.08931620091653,1577395846.0,-27.69236963376311,-51.12596738099581,1.9992365
41625,1577395846.67,0.3031059301757817,1.7756596612548827,8.512165017395018,-0.3397722526736376,0.7237496433165013,8.590132778409632,-0.1122994588216139,3.1164524943033856,8.757590639241537,2.4204254150390625,-3.165245056152344,-10.161590576171877,0.097507383765244,-1.985689488852896,-10.145419981421494,1.6953604561941966,-10.35127185639881,-8.835202171688987,6.825242417690333,-4.177623789900575,-0.5473357371794875,56.74748439608639,-8.64303458742711,-53.17834757834762,35.20912331146853,35.304968999910145,35.18516188935813,1577395846.0,-27.69236963376311,-51.12596738099581,1.9992365
41626,1577395846.68,0.301908829345703,1.1316194146728515,9.111912533264158,0.5664330756955025,2.7061486179258765,9.984755245450646,0.8034826761881507,5.80154965616862,10.319807222493491,1.9474029541015625,-2.188682556152344,-9.734344482421877,-1.016384217797256,-2.809664098227896,-10.267490293921494,2.2599356515066966,-3.744216192336309,-15.182858421688987,6.825242417690333,-4.177623789900575,-0.5473357371794875,57.71419604700856,-8.561496525281571,-103.44850427350433,34.94554766825411,35.32893042202055,35.13723904513733,1577395846.0,-27.69236963376311,-51.12596738099581,1.9992365
41627,1577395846.69,1.0776301672363282,2.1108478936767576,9.825384627990722,0.23603324659394,2.658264584722751,11.13876044564596,-0.0727951314290358,-1.795252211507161,10.094752266438803,3.3206939697265625,-2.280235290527344,-10.070037841796877,0.814670469702744,2.225736292397104,-9.809726622046494,1.4054434640066966,-2.6761009579613093,-13.748532249813987,8.270587870848287,-3.22816383765045,-1.094671474358975,57.32751138663969,6.441506909497564,-106.77215099715102,34.993470512474914,35.32893042202055,35.13723904513733,1577395846.0,-27.69236963376311,-51.12596738099581,1.9992365
41628,1577395846.7,0.9291896643066406,3.971142583618164,9.540474630432128,0.4874244209103462,1.8202940036680637,8.938489119962368,-0.8149976460774733,-0.5023833150227861,8.91441084798177,4.2667388916015625,-1.7004013061523438,-10.070037841796877,0.295871641577744,-1.6805137076028964,-9.931796934546494,1.3138907296316966,-2.3404075985863093,-8.133297874813987,8.270587870848287,-3.987731799450549,-0.7297809829059857,55.78077274516421,-8.07226815240834,-108.43397435897435,35.13723904513733,35.28100757779974,35.08931620091653,1577395846.0,-27.69236963376311,-51.12596738099581,1.9992365
41629,1577395846.71,1.4247894079589845,1.175912145385742,7.8334088467407215,0.7627576118283149,2.0920358920957978,9.753714785245569,-0.1841255086263019,1.9923748148600264,8.501411061604818,0.5893707275390625,-0.5102157592773438,-10.298919677734377,-0.955349061547256,0.3641640267721037,-10.359043028296494,0.4746573311941966,-2.2793724423363093,-8.682614281063987,6.9858363569301085,-2.088811894950291,-2.554233440170939,55.78077274516421,-8.398420400990494,-105.11032763532764,35.13723904513733,35.472698954682954,35.28100757779974,1577395846.0,-27.69236963376311,-51.12596738099581,1.9992365
41630,1577395846.72,-0.7204152795410155,2.3406912530517574,9.22683421295166,-0.4702562431521527,1.4635579563047822,6.738217794278773,0.7077146097819007,3.019487327067057,7.638301363118489,1.1234283447265625,0.4358291625976562,-10.131072998046877,0.021213438452744,1.859525354897104,-10.694736387671494,1.0392325265066966,-6.857009161086309,-8.804684593563987,6.9858363569301085,-2.088811894950291,-2.554233440170939,58.87425002811517,-8.724572649572648,-101.78668091168092,35.32893042202055,34.993470512474914,35.08931620091653,1577395846.0,-27.69236963376311,-51.12596738099581,1.9992365
41631,1577395846.73,0.2109291662597656,1.490749663696289,8.336191195373534,-0.6953111992068401,0.2568803195860325,8.198680806974085,1.2511983866373697,3.170322031656901,10.671754866536462,2.3746490478515625,0.0085830688476562,-10.344696044921877,-2.481227967797256,0.8219276986471036,-9.962314512671494,1.0392325265066966,-3.3780052548363093,-12.405758812313987,7.307024235409652,-4.3675157803506,-1.824452457264953,58.4875653677463,-8.724572649572648,-108.43397435897435,35.13723904513733,35.28100757779974,35.13723904513733,1577395846.0,-27.69236963376311,-51.12596738099581,1.9992365
41632,1577395846.74,0.7232883215332031,1.7612944512939452,7.49582641265869,1.2870877754025338,4.391666586675877,10.085311715177207,-1.578747975667317,-0.8184179341634111,10.281499995930991,2.4356842041015625,0.2222061157226562,-10.375213623046877,-2.511745545922256,-3.999849645102896,-10.603183653296494,0.4593985421316966,2.1761939639136907,-9.384518577938987,8.270587870848287,-3.6079478185504974,-1.4595619658119638,58.4875653677463,-8.724572649572648,-111.7576210826211,35.13723904513733,35.28100757779974,35.13723904513733,1577395846.0,-27.69236963376311,-51.12596738099581,1.9992365
41633,1577395846.75,0.3222595434570312,0.9975441217041014,9.921152694396971,0.1091405586056592,1.3402565708067362,10.90173448129049,0.3976654947916668,2.558603507486979,9.86251470540365,1.8253326416015625,1.748085021972656,-11.687469482421877,-0.879055116234756,4.316190393959603,-10.908359434546494,-0.3493172781808034,3.3816382998511907,-12.497311546688987,7.78880605312897,-2.2787038854003168,-1.6420072115384547,56.940826726270814,-8.561496525281571,-108.43397435897438,35.13723904513733,35.13723904513733,35.35289184413095,1577395846.0,-27.69236963376311,-51.12596738099581,1.9992365
41634,1577395846.76,0.0050278234863281,0.6695384942626952,10.124659835510252,0.5688272773556587,1.1834363620665012,11.129183639005332,-0.4415021870930983,-1.4480929707845047,10.305442012532556,1.0318756103515625,2.846717834472656,-12.328338623046877,-2.938991639672256,-0.2156699576028963,-12.800449278296494,-0.5476815359933034,3.5800025576636907,-13.321286156063987,7.78880605312897,-2.2787038854003168,-1.6420072115384547,55.394088084795335,-8.398420400990494,-101.78668091168092,35.28100757779974,35.233084733578934,35.08931620091653,1577395846.0,-27.69236963376311,-51.12596738099581,1.9992365
41635,1577395846.77,0.0768538732910156,0.8969876519775389,10.28028294342041,0.1857550117306587,2.294345932379001,10.006303060392051,-0.1446211812337233,1.3507287699381505,11.236786458333336,1.5201568603515625,2.999305725097656,-12.602996826171877,-2.603298280297256,4.423001917397103,-12.190097715796494,-0.2730233328683034,4.190354120163691,-11.520749046688987,7.78880605312897,-2.2787038854003168,-2.736678685897437,55.78077274516421,-8.561496525281571,-105.94123931623932,35.13723904513733,35.08931620091653,34.89762482403331,1577395846.0,-27.69236963376311,-51.12596738099581,1.9992365
41636,1577395846.78,-0.3145980981445311,2.686653392944336,11.111070919494628,0.9806299629025336,3.2089309665586887,10.851456246427208,1.4020330912272132,2.758519346110026,9.254387483723958,2.5119781494140625,3.136634826660156,-13.716888427734377,-3.366237733422256,5.613187464272103,-13.319248106421494,-0.8833748953683034,2.1151588076636907,-14.114743187313987,6.90553938731022,-3.892785804225536,-1.18589409722222,55.78077274516421,-8.561496525281571,-105.94123931623932,35.28100757779974,34.993470512474914,35.233084733578934,1577395846.0,-27.69236963376311,-51.12596738099581,1.9992365
41637,1577395846.79,-0.3924096520996083,2.30717242980957,9.976219332580566,-0.0153579277224657,3.293925125494236,9.46042508187643,0.6418740641276038,1.7637285563151035,9.633868446858726,-0.0972747802734375,3.243446350097656,-15.196990966796877,-3.198391053734756,4.117826136147103,-13.319248106421494,-1.3106209891183034,1.443772088913691,-15.808468773251487,6.9858363569301085,-4.3675157803506,-1.824452457264953,55.394088084795335,-8.561496525281571,-100.95576923076926,34.94554766825411,35.376853266241355,35.25704615568934,1577395846.0,-27.69236963376311,-51.12596738099581,1.9992365
41638,1577395846.8,0.4072537023925781,1.5362394952392575,8.563640353088378,0.8369778632931587,3.524965585699314,7.597736190274866,1.047691245524088,2.535858591715495,9.805053865559897,-1.3484954833984375,3.487586975097656,-15.807342529296877,-5.777126405297256,6.437162073647103,-15.150302793921494,-2.4397713797433034,8.00505138578869,-14.908200218563987,6.9858363569301085,-4.3675157803506,-1.824452457264953,55.394088084795335,-8.398420400990494,-100.95576923076926,35.13723904513733,35.32893042202055,35.52062179890376,1577395846.0,-27.69236963376311,-51.12596738099581,1.9992365
41639,1577395846.81,-0.1362300744628896,2.711792510375977,9.16937337310791,0.5784040839962837,3.5034177707579075,9.570558358243618,0.0110019266764319,4.139973704020182,7.676608589680989,-0.1277923583984375,3.640174865722656,-16.356658935546875,-5.044704530297256,2.530912073647104,-15.180820372046494,-2.2261483328683034,6.357102167038691,-15.854245140438987,7.78880605312897,-1.8989199045002647,-2.006897702991451,58.4875653677463,6.278430785206488,-112.5885327635328,35.13723904513733,35.52062179890376,35.233084733578934,1577395846.0,-27.69236963376311,-51.12596738099581,1.9992365
41640,1577395846.82,-1.1573570825195312,2.489131755981445,8.81144022491455,-1.2076703544802776,3.479475754156345,8.165161983731897,0.3988625956217443,1.3531229715983066,5.392540205891927,-0.5855560302734375,2.419471740722656,-17.241668701171875,-4.617458436547256,4.972318323647103,-17.347568418921494,-2.8059823172433034,-3.1033470517113093,-16.708737327938987,7.628212113889198,-4.177623789900575,-2.006897702991455,58.4875653677463,6.278430785206488,-112.5885327635328,35.20912331146854,35.233084733578934,35.13723904513733,1577395846.0,-27.69236963376311,-51.12596738099581,1.9992365
41641,1577395846.83,-1.0556035119628906,2.838685198364258,8.31943178375244,-0.4726504448123095,2.606789249029392,6.668785946134242,1.1853578409830725,2.809994681803385,9.441135213216146,1.1539459228515625,1.0461807250976562,-17.546844482421875,-6.326442811547256,-0.8107627310403962,-15.913242247046494,-2.8364998953683034,-1.333327520461309,-16.922360374813987,7.14643029616988,-2.2787038854003168,-3.1015691773504264,56.94082672627082,-8.724572649572648,-101.78668091168092,35.13723904513733,35.233084733578934,35.18516188935813,1577395846.0,-27.69236963376311,-51.12596738099581,1.9992365
41642,1577395846.84,-1.7571045983886715,2.4101231011962887,9.32739068267822,-0.6617923759646527,4.7507968356993135,8.787654415372522,0.815453684488932,6.811902756754557,9.426770003255209,0.3910064697265625,-0.2660751342773437,-17.302703857421875,-4.861599061547256,3.141263636147104,-17.225498106421494,-1.4021737234933034,3.5189674014136907,-17.776852562313987,7.14643029616988,-2.2787038854003168,-3.1015691773504264,55.78077274516421,6.60458303378864,-7.062749287749304,35.13723904513733,35.233084733578934,35.13723904513733,1577395846.0,-27.69236963376311,-51.12596738099581,1.9992365
41643,1577395846.85,-1.8816030847167968,1.5721525201416011,10.761517477111816,-0.8724821220584027,2.3733545871641573,11.488313888028772,1.545685190836588,5.6219845316569,10.396421675618493,0.0858306884765625,-1.3036727905273438,-18.126678466796875,-2.145534608422256,0.3641640267721036,-16.401523497046494,-1.3106209891183034,6.387619745163691,-22.720700218563987,7.78880605312897,-4.55740777080063,-2.371788194444441,55.78077274516421,-8.724572649572648,-7.062749287749304,35.233084733578934,35.28100757779974,35.424776110462155,1577395846.0,-27.69236963376311,-51.12596738099581,1.9992365
41644,1577395846.86,-1.6768988427734373,2.035430541381836,9.078393710021972,-1.065215355700981,2.884516641607517,7.636043416837366,-0.926328023274739,1.165178141276041,8.955112276204428,1.3523101806640625,-3.104209899902344,-17.943572998046875,-4.113918397484756,-2.840181676352896,-18.30887212985899,-0.4103524344308034,7.48625255766369,-18.173581077938987,7.547915144269311,-4.842245756475666,-2.6454560630341843,57.4241825517319,-8.68380361849988,-3.531374643874652,35.113277623026924,35.32893042202055,35.25704615568934,1577395846.0,-27.69236963376311,-51.12596738099581,1.9992365
41645,1577395846.87,-1.4769830041503904,2.266471001586914,7.313867086486815,-0.8581169120974651,1.5210187961485324,10.51866221566549,-1.224406129964192,5.191028232828775,8.076440266927083,3.3206939697265625,-3.623008728027344,-17.363739013671875,-0.3144799209222559,-1.3143027701028964,-17.133945372046494,0.6119864327566966,0.4977271670386905,-16.464596702938987,8.591775749327834,-3.6079478185504974,-2.1893429487179423,55.78077274516421,7.25688753095295,-5.400925925925935,35.28100757779974,35.52062179890376,35.13723904513733,1577395846.0,-27.69236963376311,-51.12596738099581,1.9992365
41646,1577395846.88,-1.0196904870605468,1.1818976495361326,7.929176913146971,-2.2108408500857464,1.4060971164610323,7.399017452481898,-0.4462905904134108,2.950055478922526,8.852161604817708,2.8934478759765625,-3.317832946777344,-17.028045654296875,-2.176052186547256,-3.206392613852896,-17.957919981421494,1.9852774483816968,-2.5845482235863093,-19.058590843563987,8.591775749327834,-3.6079478185504974,-2.1893429487179423,56.94082672627082,7.583039779535106,-7.062749287749304,34.993470512474914,35.13723904513733,35.424776110462155,1577395846.0,-27.69236963376311,-51.12596738099581,1.9992365
41647,1577395846.89,0.2492363928222656,2.7453113336181643,8.771935897521972,-0.1422506157107465,2.8737427341368136,11.13157784066549,-0.3074268941243483,3.249330686442057,10.049262434895835,5.6095123291015625,-3.623008728027344,-16.478729248046875,-2.237087342797256,-3.572603551352896,-17.011875059546494,1.9547598702566968,-2.0352318173363093,-20.523434593563987,8.43118181008806,-3.797839809000523,-2.006897702991451,55.394088084795335,7.093811406661874,-3.7391025641025832,35.28100757779974,35.13723904513733,35.32893042202055,1577395846.0,-27.69236963376311,-51.12596738099581,1.9992365
41648,1577395846.9,0.0277727392578129,3.596450023803711,10.615471175842284,0.5137606391720649,3.520177182379001,9.563375753263148,-1.0256873921712233,0.1248975199381508,10.123482686360678,5.350112915039063,-2.448081970214844,-16.768646240234375,-0.4212914443597559,-2.031465856040396,-16.798252012671494,0.8256094796316966,4.938034784226191,-14.587765648251487,7.7085090835090835,-4.272569785125588,-2.0981203258546968,55.58743041497977,7.012273344516337,-4.985470085470089,35.065354778806125,35.28100757779974,35.28100757779974,1577395846.0,-27.69236963376311,-51.12596738099581,1.9992365
41649,1577395846.91,-0.3373430139160146,2.797983770141601,9.57159925201416,-2.3999827812380903,0.3694077976133762,10.676679525235803,-0.7407773946126295,3.3953769877115887,8.536126985677083,3.1375885009765625,-2.860069274902344,-16.753387451171875,0.509494688452744,-0.5513633169778964,-16.065830137671494,-0.0288827078683033,6.814865838913691,-12.924557640438987,7.467618174649426,-2.6584878663003684,0.1824452457264983,56.55414206590194,6.930735282370796,-83.50662393162395,35.28100757779974,35.28100757779974,35.28100757779974,1577395846.0,-27.69236963376311,-51.12596738099581,1.9992365
41650,1577395846.92,-0.5001487268066396,1.5075090753173828,7.728063973693847,-1.5237049736209027,0.3622251926329075,10.315155074552209,-1.3225683980305984,2.437696323649088,9.31663672688802,0.5130767822265625,-0.9374618530273438,-15.624237060546877,-2.389675233422256,-2.931734410727896,-16.584628965796494,0.7950919015066966,3.67155529203869,-14.084225609188987,7.467618174649426,-3.418055828100472,-3.1015691773504264,59.64761934885292,5.626126288042176,-85.1684472934473,34.94554766825411,35.47269895468296,35.08931620091653,1577395846.0,-27.69236963376311,-51.12596738099581,1.9992365
41651,1577395846.93,-0.6461950280761718,3.3749863702392577,9.186132784729002,-1.612290435046684,1.853812826910251,9.721393062833462,-0.592336891682942,3.9580143778483072,8.792306563313803,4.6939849853515625,-0.1440048217773437,-14.525604248046877,-1.931911561547256,-1.3143027701028964,-15.424960997046494,1.7716544015066966,-0.5398704892113095,-16.403561546688987,7.467618174649426,-3.418055828100472,-3.1015691773504264,57.71419604700856,5.626126288042176,-85.1684472934473,35.233084733578934,35.233084733578934,35.233084733578934,1577395846.0,-27.69236963376311,-51.12596738099581,1.9992365
41652,1577395846.94,0.0038307226562504,2.598067931518554,10.18331777618408,-0.5899663261599651,1.7257230380918918,10.87060985970846,-1.3908031453450516,1.811612589518229,9.949903065999353,3.5953521728515625,0.0848770141601562,-14.006805419921877,-0.985866639672256,0.9897743783346038,-13.868564512671494,1.0697501046316966,-2.8744652157738093,-17.380124046688987,8.190290901228401,-4.082677794675564,-1.0034488514957256,57.32751138663969,4.973821790877866,-7.062749287749304,35.11327762302693,35.28100757779974,35.20912331146854,1577395846.0,-27.69236963376311,-51.12596738099581,1.9992365
41653,1577395846.95,1.2811373083496094,1.950436382446289,8.168597079162597,-1.1310559013552777,1.4731347629454072,10.765264986661585,-0.391223952229817,1.5398707010904942,9.58478731282552,2.2525787353515625,1.1072158813476562,-13.426971435546877,-0.3755150771722559,2.408841761147104,-12.800449278296494,1.9852774483816968,-6.094069707961309,-14.694577171688987,8.43118181008806,-3.797839809000523,-2.006897702991451,57.13416905645526,4.729207604441248,-7.47820512820515,35.28100757779974,35.52062179890376,35.233084733578934,1577395846.0,-27.69236963376311,-51.12596738099581,1.9992365
41654,1577395846.96,1.285925711669922,1.0526107598876953,8.163808675842285,1.3301834052853465,1.55453761939072,9.929688607267051,-1.0544178120930985,1.204682468668619,11.143412593587245,0.2994537353515625,1.5954971313476562,-12.847137451171877,-0.558620545922256,3.202298792397104,-13.105625059546494,1.4969961983816966,-3.957839239211309,-12.649899437313987,7.628212113889198,-4.3675157803506,-2.554233440170939,55.394088084795335,4.973821790877866,-85.1684472934473,35.13723904513733,35.28100757779974,35.28100757779974,1577395846.0,-27.69236963376311,-51.12596738099581,1.9992365
41655,1577395846.97,0.225294376220703,1.7612944512939452,8.34576800201416,0.2863114814572212,2.639110971441501,11.270441536954552,-2.411930153401692,1.0179347391764315,10.597534615071618,2.2525787353515625,3.090858459472656,-12.114715576171877,-1.870876405297256,0.8829628548971036,-12.800449278296494,2.1989004952566966,-0.0210716610863094,-10.177975609188987,7.628212113889198,-4.3675157803506,-2.554233440170939,55.394088084795335,4.973821790877866,-85.1684472934473,35.32893042202055,35.233084733578934,35.28100757779974,1577395846.0,-27.69236963376311,-51.12596738099581,1.9992365
41656,1577395846.98,0.6442796667480469,2.5645491082763674,9.740390469055177,-1.662568669909965,0.6255873752500954,10.687453432706503,-0.5169195393880202,2.229400779215494,9.140662904866536,6.6165924072265625,4.372596740722656,-11.077117919921877,1.959079649390244,6.040433558022103,-12.464755918921494,2.3667471749441966,-0.3567650204613095,-9.064084007626487,8.43118181008806,-3.4180558281004734,-2.371788194444441,56.55414206590195,4.810745666586788,-86.83027065527068,35.04139335669572,35.304968999910145,35.25704615568934,1577395846.0,-27.69236963376311,-51.12596738099581,1.9992365
41657,1577395846.99,-0.1218648645019521,0.7078457208251953,8.498996908264159,-0.2475954887576214,1.011053842535251,9.644778609708462,0.0564917582194006,4.171098325602213,8.536126985677083,3.5953521728515625,4.464149475097656,-10.161590576171877,0.051731016577744,2.744535120522104,-10.481113340796494,3.2364981515066966,-4.781813848586309,-10.635739281063987,9.234151506286924,-4.3675157803506,-1.094671474358975,58.680907697930735,6.359968847352024,-93.0621082621083,35.13723904513733,35.52062179890376,35.28100757779974,1577395846.0,-27.69236963376311,-51.12596738099581,1.9992365
41658,1577395847.0,-0.6557718347167968,1.48356705871582,8.879674972229003,-0.1805578422732464,1.3606072849180637,7.628860811856898,0.7555986429850257,2.789643967692057,10.044474031575524,4.3888092041015625,3.212928771972656,-9.642791748046877,2.950900938452744,8.207181604897103,-9.077304747046494,3.0533926827566966,-2.8286888485863093,-13.351803734188987,8.43118181008806,-4.177623789900575,-0.5473357371794875,55.394088084795335,6.278430785206488,-88.49209401709405,34.993470512474914,35.233084733578934,35.13723904513733,1577395847.0,-27.692377538955107,-51.12598757561351,2.2160332
41659,1577395847.01,-0.5504269616699209,1.5769409234619138,12.104664608459473,0.1570245918087842,1.4276449314024389,9.653158315519008,0.0002280192057292,-0.2701457539876298,10.270726088460288,4.1751861572265625,3.334999084472656,-9.673309326171877,-0.634914491234756,3.7058388314596034,-10.572666075171494,2.9770987374441966,1.825241815476191,-11.719113304501487,8.43118181008806,-4.177623789900575,-0.5473357371794875,56.16745740553308,4.973821790877866,-88.49209401709405,35.233084733578934,35.18516188935813,35.20912331146853,1577395847.0,-27.692377538955107,-51.12598757561351,2.2160332
41660,1577395847.02,-0.3373430139160146,1.7660828546142575,9.369289211730957,0.2575810615353462,3.1897773532774387,11.828290523770958,-0.2810906758626296,2.7824613627115884,10.082781258138024,4.068374633789063,3.884315490722656,-10.527801513671877,0.753635313452744,2.378324183022104,-11.030429747046494,2.5651114327566966,0.2841041201636905,-8.224850609188987,9.07355756704715,-3.228163837650446,-0.3648904914529929,55.97411507534864,4.566131480150172,-88.07663817663818,35.18516188935813,35.233084733578934,35.424776110462155,1577395847.0,-27.692377538955107,-51.12598757561351,2.2160332
41661,1577395847.03,-0.5623979699707021,2.0414160455322263,9.705674544982909,-0.6953111992068401,3.1586527316954074,9.417329451993618,0.1259236063639319,1.8032328837076816,8.888074629720052,3.8394927978515625,3.457069396972656,-10.466766357421877,2.554172422827744,4.789212854897103,-11.244052793921494,2.7787344796316966,-3.3474876767113093,-8.468991234188987,8.591775749327834,-3.22816383765045,-1.824452457264953,56.16745740553308,5.9522785366243305,-100.95576923076926,35.32893042202055,35.233084733578934,35.28100757779974,1577395847.0,-27.692377538955107,-51.12598757561351,2.2160332
41662,1577395847.04,0.0241814367675781,2.580111419067383,9.40400513580322,-0.520534478015434,0.76923947485947,7.57618837533346,1.1650071268717443,4.266866392008463,10.054050838216147,4.0836334228515625,2.816200256347656,-10.131072998046877,1.638645079077744,4.972318323647103,-10.603183653296494,3.0839102608816966,-5.117507207961309,-11.246090843563987,8.752369688567606,-4.177623789900575,-2.006897702991451,55.394088084795335,5.9522785366243305,-101.78668091168092,35.08931620091653,34.993470512474914,35.28100757779974,1577395847.0,-27.692377538955107,-51.12598757561351,2.2160332
41663,1577395847.05,-0.2487575524902333,2.829108391723633,9.420764547424316,-0.2248505729861376,3.150273025884861,10.749702675870568,-0.0835690388997394,2.641203464762369,9.327410634358724,3.9920806884765625,2.572059631347656,-9.520721435546877,-0.4823266006097559,2.897123011147104,-10.328525450171494,2.8702872140066966,-0.1584007626488094,-10.452633812313987,8.752369688567606,-4.177623789900575,-2.006897702991451,55.394088084795335,5.136897915168943,-101.78668091168092,35.13723904513733,35.28100757779974,35.32893042202055,1577395847.0,-27.692377538955107,-51.12598757561351,2.2160332
41664,1577395847.06,-0.1458068811035146,2.33949415222168,10.123462734680174,-0.7695314506716839,2.323076352300876,6.608930904630335,-0.1158907613118483,0.3116452494303379,7.034962544759114,3.5037994384765625,3.502845764160156,-10.863494873046877,2.493137266577744,4.148343714272103,-10.694736387671494,2.2904532296316966,-10.00031970796131,-11.246090843563987,8.993260597427266,-2.7534338615253797,-1.5507845886752132,56.16745740553308,5.9522785366243305,-108.43397435897435,35.16120046724773,35.28100757779974,35.233084733578934,1577395847.0,-27.692377538955107,-51.12598757561351,2.2160332
41665,1577395847.07,-0.7275978845214843,1.591306133422851,8.97065463531494,-0.6210909477419965,2.624745761480564,9.17312088265768,0.6550421732584631,1.281296921793619,8.088411275227864,1.3675689697265625,3.121376037597656,-11.595916748046877,-3.000026795922256,5.124906214272103,-12.464755918921494,1.7106192452566966,-12.96052478608631,-10.361081077938987,7.949399992368741,-2.088811894950291,-2.1893429487179423,55.394088084795335,-8.724572649572648,-107.60306267806268,34.993470512474914,35.424776110462155,35.32893042202055,1577395847.0,-27.692377538955107,-51.12598757561351,2.2160332
41666,1577395847.08,-0.4307168786621083,2.2353463800048825,7.368933724670409,0.8848618964962837,2.58883273657822,9.49873230843893,-0.2547544576009108,5.571706296793619,10.00856100667318,1.9779205322265625,3.548622131347656,-12.114715576171877,-1.382595155297256,4.392484339272103,-12.373203184546494,1.7716544015066966,-11.37361072358631,-13.748532249813987,9.394745445526697,-2.2787038854003168,-1.2771167200854656,55.394088084795335,-8.724572649572648,-114.25035612535616,35.13723904513733,35.233084733578934,35.28100757779974,1577395847.0,-27.692377538955107,-51.12598757561351,2.2160332
41667,1577395847.09,-0.3373430139160146,1.538633696899414,9.27112694366455,-0.8030502739138714,3.003029623785251,10.31994347787252,-1.3920002461751295,-0.2988761739095049,10.386844868977867,3.2596588134765625,4.616737365722656,-12.877655029296877,-0.924831483422256,2.195218714272104,-13.075107481421494,1.0697501046316966,-9.78669666108631,-13.443356468563987,9.234151506286924,-3.797839809000525,-1.45956196581196,57.71419604700856,5.4630501637511,-115.08126780626785,35.065354778806125,35.32893042202055,35.233084733578934,1577395847.0,-27.692377538955107,-51.12598757561351,2.2160332
41668,1577395847.1,0.6873752966308594,0.561799419555664,9.24598782623291,-0.1338709099002001,0.9380306919004856,10.228963814786583,-0.0488531148274738,0.7892884806315097,10.377268062337242,3.5037994384765625,5.196571350097656,-13.274383544921877,-0.2076683974847559,7.566312464272103,-12.968295957983994,1.3291495186941966,-8.42866443452381,-10.834103538876487,8.270587870848287,-3.987731799450549,-1.094671474358975,56.264128570625296,-1.426916087546927,-114.87353988603992,35.47269895468296,35.32893042202055,35.233084733578934,1577395847.0,-27.692377538955107,-51.12598757561351,2.2160332
41669,1577395847.11,-0.0955286462402334,2.01986823059082,7.383298934631346,-0.051270952624809,4.3581477634336885,11.236922713712366,-1.4686146993001297,3.615643540445964,10.6095056233724,3.5037994384765625,5.959510803222656,-13.304901123046877,-2.420192811547256,2.500394495522104,-13.960117247046494,1.9547598702566968,-4.873366582961309,-9.384518577938987,9.394745445526697,-3.418055828100472,-2.371788194444441,55.394088084795335,5.299974039460021,-108.43397435897435,35.32893042202055,35.32893042202055,35.13723904513733,1577395847.0,-27.692377538955107,-51.12598757561351,2.2160332
41670,1577395847.12,-2.180878292236328,2.510679570922852,10.811795711975096,-0.8078386772341839,3.817058188238376,10.738928768399866,0.4251988138834631,6.728105698649088,10.815406966145837,4.9381256103515625,5.959510803222656,-13.884735107421877,1.791232969702744,10.892728479897103,-13.471835997046494,2.1989004952566966,-2.1267845517113093,-14.633542015438987,8.752369688567606,-3.418055828100472,-1.6420072115384547,55.394088084795335,5.299974039460021,-108.43397435897435,35.32893042202055,35.233084733578934,35.233084733578934,1577395847.0,-27.692377538955107,-51.12598757561351,2.2160332
41671,1577395847.13,-0.63422401977539,1.481172857055664,9.685323830871582,-1.6577802665896528,-0.1525281643006852,8.383034334806116,0.7053204081217445,3.12004379679362,10.10432907307943,4.0531158447265625,5.867958068847656,-14.647674560546877,0.082248594702744,8.878568323647103,-15.272373106421494,2.0157950265066966,-2.7371361142113093,-19.272213890438987,9.234151506286924,-3.607947818550498,-1.45956196581196,55.78077274516421,-8.07226815240834,-111.7576210826211,35.233084733578934,35.424776110462155,35.13723904513733,1577395847.0,-27.692377538955107,-51.12598757561351,2.2160332
41672,1577395847.14,-0.2224213342285146,3.607223931274414,10.347320589904784,0.6167113105587843,3.4040584018614237,9.52985693002096,0.4694915445963537,0.6827465067545566,8.323043037923178,3.2901763916015625,5.623817443847656,-15.746307373046877,-2.954250428734756,5.903104456459603,-14.845127012671494,1.5275137765066966,-4.797072637648809,-17.624264671688987,8.109993931608516,-4.55740777080063,-1.2771167200854656,56.94082672627082,-8.64303458742711,-100.12485754985757,34.993470512474914,35.304968999910145,35.04139335669572,1577395847.0,-27.692377538955107,-51.12598757561351,2.2160332
41673,1577395847.15,-0.0596156213378896,2.0629638604736327,6.945160030822753,0.0325261054806587,3.467504745855564,8.373457528165492,0.0157903299967444,0.4959987772623691,8.399657491048178,1.8863677978515625,5.257606506347656,-15.380096435546877,0.112766172827744,7.718900354897103,-15.394443418921494,0.9476797921316966,-3.805251348586309,-12.619381859188987,9.394745445526697,-4.937191751700682,-1.2771167200854656,56.55414206590194,-8.235344276699415,-7.062749287749304,35.13723904513733,35.233084733578934,35.13723904513733,1577395847.0,-27.692377538955107,-51.12598757561351,2.2160332
41674,1577395847.16,-1.0005368737792968,2.376604277954101,8.39604623687744,-1.7152411064334028,2.409267612066501,6.146849984220179,-0.324186305745442,3.934072361246745,8.028556233723958,2.3441314697265625,4.799842834472656,-15.715789794921877,-1.748806092797256,5.277494104897103,-16.004794981421494,0.4288809640066966,-6.033034551711309,-11.612301781063987,9.876527263246013,-4.3675157803506,-2.1893429487179423,56.55414206590194,-8.235344276699415,-7.062749287749304,35.08931620091653,35.52062179890376,35.424776110462155,1577395847.0,-27.692377538955107,-51.12598757561351,2.2160332
41675,1577395847.17,-1.6469713220214843,2.1084536920166013,9.919955593566891,-1.008951616687309,2.174635849371189,10.220584108976038,0.4168191080729168,2.7250005228678384,10.681331673177084,4.1446685791015625,4.616737365722656,-16.097259521484375,-4.373317811547256,4.804471643959603,-16.447299864233994,0.2915518624441966,-2.8134300595238093,-15.228634788876487,9.796230293626127,-4.462461775575616,-1.733229834401704,56.940826726270814,-8.64303458742711,-6.647293447293466,35.13723904513733,35.20912331146853,35.233084733578934,1577395847.0,-27.692377538955107,-51.12598757561351,2.2160332
41676,1577395847.18,-0.533667550048827,0.6455964776611327,9.77510639312744,-0.4965924614138715,1.815505600347751,9.618442391446742,-0.333763112386067,3.936466562906901,9.90561033528646,3.0765533447265625,4.525184631347656,-16.722869873046875,-2.023464295922256,8.390287073647103,-16.615146543921494,0.5204336983816966,-0.6314232235863095,-16.983395531063987,9.234151506286924,-3.987731799450549,-2.1893429487179423,56.94082672627082,-8.724572649572648,-7.8936609686609795,34.993470512474914,35.28100757779974,35.233084733578934,1577395847.0,-27.692377538955107,-51.12598757561351,2.2160332
41677,1577395847.19,-1.6613365319824218,1.4500482354736326,10.294648153381347,-1.554829595202934,1.9567634982969695,9.996726253751428,-0.2571486592610671,3.493539255777995,8.564857405598959,4.0225982666015625,4.525184631347656,-16.326141357421875,-2.237087342797256,4.789212854897103,-16.798252012671494,1.1002676827566966,-6.948561895461309,-19.791012718563987,8.912963627807379,-3.22816383765045,-1.094671474358975,58.4875653677463,-8.724572649572648,-7.8936609686609795,35.32893042202055,35.32893042202055,35.32893042202055,1577395847.0,-27.692377538955107,-51.12598757561351,2.2160332
41678,1577395847.2,-1.6314090112304689,1.7816451654052732,10.252749624328612,-1.267525395984184,1.4683463596250947,8.34233290658346,0.6646189798990881,1.7050706156412754,8.217698164876301,3.4122467041015625,3.167152404785156,-16.722869873046875,-0.4670678115472559,3.537992151772104,-16.462558653296494,1.4054434640066966,-10.82429431733631,-19.333249046688987,8.752369688567606,-3.797839809000523,0.1824452457264983,58.4875653677463,5.626126288042176,-8.724572649572671,35.25704615568934,35.28100757779974,35.47269895468296,1577395847.0,-27.692377538955107,-51.12598757561351,2.2160332
41679,1577395847.21,-2.192849300537109,2.970366289672852,8.836579342346191,-1.055638549060356,3.055702060308689,8.39979374642721,-0.6306441182454426,0.1213062174479159,9.741607521565756,3.6869049072265625,1.4734268188476562,-16.570281982421875,-2.511745545922256,2.454618128334604,-16.767734434546494,0.9324210030691966,-9.06953357514881,-15.610104515438987,9.234151506286924,-3.6079478185504974,-0.3648904914529891,55.58743041497977,-1.1415328700375418,-8.724572649572671,34.993470512474914,35.25704615568934,35.20912331146853,1577395847.0,-27.692377538955107,-51.12598757561351,2.2160332
41680,1577395847.22,-2.348472408447265,2.9152996514892577,8.827002535705565,-1.4518789238162153,1.8562070285704075,8.275295260099085,0.1091641947428381,2.9332960673014323,8.148266316731771,3.8089752197265625,1.3818740844726562,-16.997528076171875,-0.680690858422256,4.239896448647103,-16.828769590796494,0.1542227608816966,-8.68806384858631,-14.572506859188987,8.270587870848287,-3.987731799450549,-2.9191239316239352,55.78077274516421,5.626126288042176,-8.724572649572671,34.993470512474914,35.28100757779974,35.13723904513733,1577395847.0,-27.692377538955107,-51.12598757561351,2.2160332
41681,1577395847.23,-1.673307540283203,0.035075054321289,9.401610934143063,-1.6721454765505903,0.0821035983946262,5.92897763314596,0.681378391520182,2.478397751871745,7.054116158040364,1.4286041259765625,1.1682510375976562,-17.211151123046875,-1.687770936547256,0.9439980111471036,-17.194980528296494,0.1542227608816966,-13.02155994233631,-16.769772484188987,10.358309080965332,-2.2787038854003168,-0.9122262286324764,55.78077274516421,5.626126288042176,-8.724572649572671,34.993470512474914,35.28100757779974,35.233084733578934,1577395847.0,-27.692377538955107,-51.12598757561351,2.2160332
41682,1577395847.24,-2.170104384765625,2.410123101196289,8.349359304504393,-2.186898833484184,1.2432914035704072,8.153190975431116,-0.6497977315266921,2.1456037211100254,6.22093398030599,2.1457672119140625,-0.5865097045898438,-16.509246826171875,-3.610378358422256,-3.877779332602896,-17.225498106421494,0.3983633858816966,-19.91853259858631,-18.448239281063987,10.037121202485784,-3.797839809000523,-2.736678685897437,59.26093468848404,-8.561496525281571,-4.570014245014259,34.993470512474914,35.52062179890376,35.233084733578934,1577395847.0,-27.692377538955107,-51.12598757561351,2.2160332
41683,1577395847.25,-2.724362069091797,2.5298331842041017,9.044874886779784,-2.5568029899783244,1.528201401129001,8.769697902921353,-0.1649718953450519,2.1156762003580725,10.592746211751304,2.3441314697265625,-1.7614364624023438,-15.654754638671877,-2.130275819359756,0.5320107064596037,-15.455478575171494,0.2915518624441967,-20.34577869233631,-17.059689476376487,8.912963627807379,-3.6079478185504974,-1.824452457264953,57.327511386639685,-8.561496525281571,-4.570014245014259,35.28100757779974,35.13723904513733,35.20912331146853,1577395847.0,-27.692377538955107,-51.12598757561351,2.2160332
41684,1577395847.26,-2.008495772705078,3.719751409301758,10.814189913635254,-1.5859542167849652,3.520177182379001,9.38381062875143,-1.9642144429524733,-2.642799599202473,11.50254284261068,4.7245025634765625,-3.714561462402344,-15.258026123046877,-5.014186952172256,-4.457613316977897,-14.753574278296494,-1.829419817243304,-6.429763067336309,-10.849362327938987,10.037121202485784,-4.177623789900575,-3.1015691773504264,55.394088084795335,-8.724572649572648,-8.724572649572671,35.08931620091653,35.233084733578934,35.233084733578934,1577395847.0,-27.692377538955107,-51.12598757561351,2.2160332
41685,1577395847.27,-3.327700887451172,2.9967025079345704,12.047203768615722,-1.6242614433474651,2.6965718112852515,10.406134737638146,1.3613316630045569,3.665921775309245,9.618306136067709,2.1915435791015625,-4.324913024902344,-14.891815185546877,-1.077419374047256,-1.9856894888528964,-14.295810606421494,-1.2190682547433034,-1.5164329892113095,-9.811764671688987,9.71593332400624,-3.418055828100472,-1.2771167200854656,55.394088084795335,-8.724572649572648,-8.724572649572671,34.993470512474914,35.47269895468296,35.28100757779974,1577395847.0,-27.692377538955107,-51.12598757561351,2.2160332
41686,1577395847.28,-2.379597030029297,0.734181939086914,8.95150102203369,-2.450261016101372,0.223361496343845,9.304801973966274,0.2791525126139319,4.388970676676432,8.390080684407552,-0.8907318115234375,-4.736900329589844,-14.968109130859377,-0.772243592797256,-3.542085973227896,-15.028232481421494,-1.982007707868304,-6.582350957961309,-14.725094749813987,9.555339384766468,-4.3675157803506,-1.4595619658119638,58.4875653677463,4.973821790877866,-8.724572649572671,34.993470512474914,35.32893042202055,35.32893042202055,1577395847.0,-27.692377538955107,-51.12598757561351,2.2160332
41687,1577395847.29,-2.6453534143066406,2.5202563775634768,10.651384200744628,-2.696863787097465,1.191816067877048,9.175515084317835,-0.3301718098958331,2.0067400248209637,7.570066615804036,0.7266998291015625,-6.400108337402344,-14.220428466796877,-3.289943788109756,-5.617281285727897,-14.906162168921494,-0.2730233328683033,-19.93379138764881,-18.341427757626487,9.555339384766468,-4.3675157803506,-1.4595619658119638,58.4875653677463,6.278430785206488,-8.309116809116826,35.13723904513733,35.304968999910145,35.304968999910145,1577395847.0,-27.692377538955107,-51.12598757561351,2.2160332
41688,1577395847.3,-1.7259799768066404,3.173873430786133,7.593988680725097,-1.9139598442263717,1.142734933843845,7.971231649259241,-0.8533048726399732,2.566983213297526,11.861673091634117,0.6961822509765625,-6.491661071777344,-14.006805419921877,-4.464870545922256,-7.631441441977897,-13.441318418921494,-1.1580330984933034,-19.03352283296131,-18.509274437313987,9.394745445526697,-4.55740777080063,-0.5473357371794875,56.94082672627082,5.4630501637511,-8.724572649572671,35.13723904513733,35.424776110462155,35.13723904513733,1577395847.0,-27.692377538955107,-51.12598757561351,2.2160332
41689,1577395847.31,-1.7618930017089842,1.6607379815673826,8.19253909576416,-1.7703077446169966,2.2320966892149383,10.906522884610805,-3.436648463948567,-5.094462099202474,10.41078688557943,-0.5855560302734375,-6.796836853027344,-14.281463623046877,-5.227809999047256,-9.462496129477897,-13.044589903296494,-2.4702889578683034,-9.48152087983631,-11.917477562313987,10.19771514172556,-4.747299761250656,-1.4595619658119638,56.94082672627082,-8.724572649572648,-8.724572649572671,35.32893042202055,35.424776110462155,35.28100757779974,1577395847.0,-27.692377538955107,-51.12598757561351,2.2160332
41690,1577395847.32,-2.391568038330078,1.7624915521240232,9.761938283996582,-2.5939131157107465,0.4963004856016574,12.175449764493615,-0.8820352925618483,0.0818018900553378,8.335014046223959,0.4978179931640625,-7.315635681152344,-13.869476318359377,-0.2229271865472559,-3.114839879477896,-13.807529356421494,-3.1111580984933034,-7.986159551711309,-5.508786156063988,9.555339384766468,-4.3675157803506,-0.3648904914529891,56.94082672627082,5.4630501637511,-8.724572649572671,34.993470512474914,35.28100757779974,35.424776110462155,1577395847.0,-27.692377538955107,-51.12598757561351,2.2160332
41691,1577395847.33,-2.8632257653808595,2.1204247003173826,8.788695309143066,-2.759113030261528,2.3637777805235327,9.7848394068276,-0.5935339925130202,4.624799540201822,7.911240352376302,-0.9822845458984376,-8.444786071777344,-13.549041748046877,-5.944973084984756,-10.286470738852897,-14.631503965796494,-2.6686532156808034,-20.31526111421131,-11.291867210751487,9.555339384766468,-4.3675157803506,-0.3648904914529891,57.90753837719299,-1.7938373672018524,-7.062749287749304,35.08931620091653,35.47269895468296,35.25704615568934,1577395847.0,-27.692377538955107,-51.12598757561351,2.2160332
41692,1577395847.34,-3.653312313232422,3.0661343560791017,9.76313538482666,-2.376040764636528,1.0421784641172824,10.15474356332174,0.3844973856608069,3.7808434549967447,11.909557124837242,-0.6771087646484375,-9.207725524902344,-13.732147216796877,-1.382595155297256,-3.053804723227896,-12.892002012671494,-1.920972551618304,-21.59699939546131,-15.152340843563987,9.073557567047152,-3.797839809000523,-1.6420072115384547,58.4875653677463,-8.561496525281571,-5.400925925925935,35.08931620091653,35.28100757779974,35.13723904513733,1577395847.0,-27.692377538955107,-51.12598757561351,2.2160332
41693,1577395847.35,-2.401144844970703,2.01986823059082,8.350556405334471,-2.948254961413872,1.2361087985899386,8.162767782071741,0.8346072977701819,4.791196555582682,11.469024019368492,-1.2569427490234375,-9.238243103027344,-13.854217529296877,-6.417995545922256,-13.582369176352897,-12.983554747046494,-2.3482186453683034,-14.42536853608631,-18.631344749813987,9.394745445526697,-2.6584878663003684,-0.1824452457264983,56.55414206590194,5.299974039460021,-8.724572649572671,34.94554766825411,35.52062179890376,35.233084733578934,1577395847.0,-27.692377538955107,-51.12598757561351,2.2160332
41694,1577395847.36,-1.6804901452636718,2.9404387689208984,11.120647726135251,-1.2268239677615278,3.568061215582126,12.177843966153771,-2.197649104817708,-1.567803053792317,9.9307494527181,-0.2651214599609375,-9.863853454589844,-13.625335693359377,-5.105739686547256,-7.860323277915397,-13.258212950171494,-3.599439348493304,-8.48969959077381,-13.199215843563987,10.037121202485784,-6.83611165620094,-1.6420072115384547,55.58743041497977,5.707664350187715,-104.69487179487184,35.233084733578934,35.32893042202055,35.472698954682954,1577395847.0,-27.692377538955107,-51.12598757561351,2.2160332
41695,1577395847.37,-1.9845537561035156,1.3710395806884763,8.343373800354003,-2.7471420219607463,0.4986946872618137,9.738152474454555,-0.984985963948567,7.257224265543619,7.324660945638021,-3.423690795898437,-9.909629821777344,-14.373016357421877,-2.450710389672256,-5.678316441977897,-13.899082090796494,-2.8975350516183034,-13.72346423921131,-11.093502952938987,10.037121202485784,-6.83611165620094,-1.6420072115384547,58.4875653677463,6.60458303378864,-100.95576923076926,35.13723904513733,35.233084733578934,35.28100757779974,1577395847.0,-27.692377538955107,-51.12598757561351,2.2160332
41696,1577395847.38,-1.8887856896972652,1.6056713433837888,8.029733382873534,-2.914736138171684,1.30554064673447,9.668720626310025,-0.5157224385579421,1.760137253824869,6.517814986165365,-1.7452239990234375,-10.123252868652344,-13.793182373046877,-5.838161561547256,-12.636324254477897,-14.112705137671494,-3.0806405203683034,-22.72614978608631,-14.786129906063987,9.876527263246013,-3.6079478185504974,-0.7297809829059857,58.4875653677463,6.60458303378864,-100.95576923076926,35.32893042202055,35.424776110462155,35.52062179890376,1577395847.0,-27.692377538955107,-51.12598757561351,2.2160332
41697,1577395847.39,-2.227565224609375,2.734537426147461,8.318234682922363,-2.792631853503716,2.2680097141172824,9.939265413907677,-0.8054208394368483,3.9795621927897136,8.696538496907552,-1.5468597412109373,-9.482383728027344,-14.052581787109377,-4.251247499047256,-10.500093785727897,-13.563388731421494,-2.8364998953683034,-29.74519275483631,-15.060788109188987,9.635636354386351,-3.323109832875457,-1.7332298344017076,55.394088084795335,6.278430785206488,-101.78668091168092,35.11327762302693,35.13723904513733,35.233084733578934,1577395847.0,-27.692377538955107,-51.12598757561351,2.2160332
41698,1577395847.4,-0.792241329345703,1.1220426080322266,8.652225814514159,-1.3848412773318404,0.7441003574278292,8.596118282560024,-0.2595428609212238,0.3092510477701821,8.437964717610678,-1.4705657958984375,-10.184288024902344,-14.067840576171877,-5.197292420922256,-9.676119176352897,-12.754672911108994,-3.889356340680804,-27.54792712983631,-12.802487327938987,9.234151506286924,-3.6079478185504974,-2.554233440170939,57.327511386639685,5.789202412333253,-101.3712250712251,35.32893042202055,35.304968999910145,35.185161889358135,1577395847.0,-27.692377538955107,-51.12598757561351,2.2160332
41699,1577395847.41,-2.379597030029297,2.541804192504883,10.191697481994629,-1.4997629570193405,4.250408688726657,8.682309542325648,-0.1996878194173171,2.1384211161295563,9.639853951009114,-0.9212493896484376,-11.252403259277344,-13.579559326171877,-5.746608827172256,-10.622164098227897,-13.807529356421494,-4.209790910993304,-27.76155017671131,-10.086422874813987,9.234151506286924,-3.6079478185504974,-2.554233440170939,55.78077274516421,-8.724572649572648,-101.78668091168092,34.993470512474914,35.233084733578934,35.32893042202055,1577395847.0,-27.692377538955107,-51.12598757561351,2.2160332
41700,1577395847.42,-2.628594002685547,1.361462774047851,10.347320589904784,-1.5093397636599653,-0.0519716945741227,7.815608541349085,0.2959119242350256,3.2421480814615884,10.77470553792318,-2.538681030273437,-11.557579040527344,-14.220428466796877,-3.122097108422256,-10.652681676352897,-13.319248106421494,-4.301343645368304,-27.39533923921131,-10.849362327938987,10.19771514172556,-3.22816383765045,-1.824452457264953,55.97411507534864,-8.316882338844954,-94.72393162393163,35.28100757779974,35.616467487345375,35.28100757779974,1577395847.0,-27.692377538955107,-51.12598757561351,2.2160332
41701,1577395847.43,-2.194046401367187,2.0162769281005857,9.831370132141112,-2.136620598620903,1.4396159397032198,8.806808028653773,0.2983061258951819,6.6179724222819,11.842519478352868,-1.3332366943359375,-12.930870056152344,-13.808441162109377,-6.021267030297256,-16.206880895102895,-13.288730528296494,-3.2637459891183034,-20.07112048921131,-14.389401390438987,10.19771514172556,-3.797839809000523,-1.6420072115384583,57.52085371682413,-8.64303458742711,-97.2166666666667,35.20912331146853,35.28100757779974,35.08931620091653,1577395847.0,-27.692377538955107,-51.12598757561351,2.2160332
41702,1577395847.44,-1.4386757775878904,2.6926388970947266,10.37605100982666,-1.2364007744021528,3.5716525180723604,10.644357802823691,0.5616683085123695,1.6787343973795568,10.0073639058431,-0.0667572021484375,-13.236045837402344,-13.457489013671877,-5.395656678734756,-11.064668981040397,-12.464755918921494,-3.477369035993304,-15.98176502046131,-15.838986351376487,9.71593332400624,-3.0382718472004164,-2.006897702991451,57.23084022154747,-8.68380361849988,-101.578952991453,35.28100757779974,35.28100757779974,35.32893042202055,1577395847.0,-27.692377538955107,-51.12598757561351,2.2160332
41703,1577395847.45,-1.5033192224121092,3.892133928833008,9.748770174865722,-1.0496530449099652,0.8434597263243138,6.922571322110804,-1.2100409200032545,0.6228914652506504,6.359797676595052,-1.1348724365234375,-14.060020446777344,-13.335418701171877,-1.992946717797256,-12.910982457602897,-12.220615293921494,-3.996167864118304,-22.87873767671131,-12.985592796688987,9.71593332400624,-3.0382718472004164,-2.006897702991451,58.4875653677463,-8.724572649572648,-101.78668091168092,34.993470512474914,35.233084733578934,35.13723904513733,1577395847.0,-27.692377538955107,-51.12598757561351,2.2160332
41704,1577395847.46,-1.0077194787597654,0.4420893365478515,7.957907333068847,-2.124649590320121,0.0844978000547825,5.950525448087366,0.3054887308756506,1.6212735575358066,6.103618098958333,-6.5364837646484375,-13.754844665527344,-13.732147216796877,-4.556423280297256,-14.986177770102897,-12.861484434546494,-3.5994393484933034,-27.94465564546131,-11.612301781063987,11.00068483792442,-3.797839809000523,-1.6420072115384547,55.394088084795335,6.278430785206488,-85.99935897435897,34.94554766825411,35.32893042202055,35.28100757779974,1577395847.0,-27.692377538955107,-51.12598757561351,2.2160332
41705,1577395847.47,-0.2762908715820302,1.635598864135742,6.005435879211425,-0.5145489738650433,1.9639461032774388,8.908561599210413,0.0133961283365886,-0.4054181477864585,9.582393111165365,-3.7899017333984375,-14.258384704589844,-13.137054443359377,-6.814724061547256,-13.384004918540397,-12.403720762671494,-4.301343645368304,-20.45259021577381,-12.024289085751487,10.117418172105673,-3.1332178424254327,-1.9156750801281983,57.13416905645525,6.278430785206488,-88.07663817663821,35.08931620091653,35.28100757779974,35.18516188935813,1577395847.0,-27.692377538955107,-51.12598757561351,2.2160332
41706,1577395847.48,-0.974200655517578,1.471596050415039,9.222045809631346,-1.5883484184451215,1.0900624973204074,8.998344161466274,1.0213550272623697,2.169545737711588,8.753999336751303,-0.9822845458984376,-14.273643493652344,-13.091278076171877,-4.403835389672256,-14.833589879477897,-12.617343809546494,-5.583081926618304,-16.25642322358631,-10.452633812313987,9.394745445526697,-3.0382718472004164,-2.371788194444441,58.4875653677463,5.789202412333252,-87.66118233618238,35.08931620091653,35.32893042202055,35.13723904513733,1577395847.0,-27.692377538955107,-51.12598757561351,2.2160332
41707,1577395847.49,-0.7754819177246093,2.220981170043945,10.04325697906494,0.073227533703315,1.5425666110899383,8.64879071908346,1.6055402323404944,2.8423164042154947,9.237628072102863,2.0999908447265625,-14.914512634277344,-12.969207763671877,-7.150417420922256,-15.077730504477897,-12.556308653296494,-5.247388567243304,-17.99592517671131,-12.924557640438987,9.394745445526697,-3.0382718472004164,-2.371788194444441,58.4875653677463,5.789202412333252,-87.66118233618238,35.28100757779974,35.52062179890376,35.28100757779974,1577395847.0,-27.692377538955107,-51.12598757561351,2.2160332
41708,1577395847.5,-0.5025429284667958,1.1028889947509763,10.39520462310791,-0.376882378406059,1.3701840915586885,10.571334652188929,0.4395640238444006,2.210247165934244,11.378044356282556,-3.423690795898437,-14.883995056152344,-13.518524169921877,-7.211452577172256,-14.711519566977897,-12.434238340796494,-5.735669817243304,-12.19758533296131,-12.436276390438987,9.234151506286924,-3.987731799450549,-1.824452457264953,58.4875653677463,5.626126288042176,-7.8936609686609795,35.233084733578934,35.28100757779974,35.08931620091653,1577395847.0,-27.692377538955107,-51.12598757561351,2.2160332
41709,1577395847.51,-0.5827486840820307,2.0797232720947267,10.194091683654785,0.2611723640255806,2.4786994602110326,10.377404317716271,1.609131534830729,1.2010911661783856,12.164539601643884,-3.6220550537109375,-15.173912048339844,-13.488006591796877,-6.234890077172256,-12.514253941977897,-12.495273497046494,-5.552564348493304,-3.7289574032738098,-14.938717796688987,10.197715141725558,-3.607947818550495,-1.0946714743589712,57.71419604700856,5.707664350187715,-7.062749287749296,35.13723904513733,35.376853266241355,35.376853266241355,1577395847.0,-27.692377538955107,-51.12598757561351,2.2160332
41710,1577395847.52,-0.2272097375488271,1.8426973077392577,9.186132784729002,-0.1853462455935589,2.509824081793064,10.188262386563927,-0.927525124104817,1.7457720438639317,13.358049129231771,-3.8509368896484375,-14.914512634277344,-13.671112060546877,-5.624538514672256,-15.596529332602897,-12.617343809546494,-5.369458879743304,5.411057245163691,-12.802487327938987,10.037121202485784,-2.6584878663003684,-0.5473357371794875,56.16745740553308,6.278430785206488,-2.0772792022792146,35.13723904513733,35.28100757779974,35.13723904513733,1577395847.0,-27.692377538955107,-51.12598757561351,2.2160332
41711,1577395847.53,0.3713406774902343,1.4380772271728517,8.063252206115722,0.2575810615353462,2.3015285373594696,9.900958187345177,1.2535925882975256,3.400165391031901,10.42994049886068,-2.325057983398437,-14.456748962402344,-13.518524169921877,-7.364040467797256,-13.918062535727897,-13.868564512671494,-5.155835832868304,11.23991466703869,-13.412838890438987,10.679496959444878,-3.418055828100472,-0.9122262286324764,55.97411507534864,6.033816598769871,-4.985470085470089,35.13723904513733,35.233084733578934,35.233084733578934,1577395847.0,-27.692377538955107,-51.12598757561351,2.2160332
41712,1577395847.54,0.8166621862792969,1.1316194146728515,8.084800021057127,0.6669895454220649,1.0900624973204074,9.96320743050924,0.7555986429850257,2.351505063883463,8.880892024739584,-3.026962280273437,-14.517784118652344,-13.488006591796877,-4.800563905297256,-12.697359410727897,-12.830966856421494,-5.522046770368304,14.99357677641369,-14.114743187313987,10.679496959444878,-3.418055828100472,-0.9122262286324764,57.13416905645526,6.359968847352024,-4.985470085470089,35.13723904513733,35.28100757779974,35.13723904513733,1577395847.0,-27.692377538955107,-51.12598757561351,2.2160332
41713,1577395847.55,0.8525752111816406,0.619260259399414,8.159020272521971,0.068439130383003,1.8083229953672824,9.334729494718228,0.1546540262858074,1.424949021402994,8.771955849202474,-2.126693725585937,-13.159751892089844,-13.915252685546877,-4.449611756859756,-13.322969762290397,-13.639682676733994,-4.804883684430804,16.85514904203869,-13.519650413876487,9.475042415146582,-3.7028938137755114,-1.5507845886752134,57.327511386639685,7.012273344516336,-6.647293447293457,35.065354778806125,35.376853266241355,35.25704615568934,1577395847.0,-27.692377538955107,-51.12598757561351,2.2160332
41714,1577395847.56,0.8836998327636719,1.4500482354736326,9.346544295959472,1.3780674384884712,0.1994194797422825,7.310431991056117,2.0197371195475258,2.9332960673014323,7.748434639485677,0.4215240478515625,-13.327598571777344,-13.762664794921877,-6.082302186547256,-13.948580113852897,-13.136142637671494,-4.545484270368304,12.43010021391369,-13.260250999813987,9.71593332400624,-3.0382718472004164,-0.9122262286324764,55.58743041497977,7.6645778416806465,-7.47820512820515,35.13723904513733,35.52062179890376,35.13723904513733,1577395847.0,-27.692377538955107,-51.12598757561351,2.2160332
41715,1577395847.57,-0.1314416711425771,0.753335552368164,10.826160921936037,0.2336390449337837,2.09083879126572,10.734140365079552,0.9998072123209631,3.3211567362467447,7.755617244466146,-1.0128021240234375,-12.320518493652344,-14.311981201171877,-6.204372499047256,-14.558931676352897,-14.234775450171494,-3.721509660993304,5.075363885788691,-15.884762718563987,10.840090898684648,-3.22816383765045,-1.4595619658119638,55.58743041497977,7.012273344516337,-8.309116809116826,35.32893042202055,35.233084733578934,35.13723904513733,1577395847.0,-27.692377538955107,-51.12598757561351,2.2160332
41716,1577395847.58,0.3665522741699218,0.3271676568603515,9.562022445373534,0.84894887159394,1.4037029148008762,12.101229513028771,0.4371698221842444,2.430513718668619,8.196150349934896,0.2079010009765625,-12.808799743652344,-14.403533935546877,-3.793483827172256,-9.737154332602897,-14.723056700171494,-3.0196053641183034,-2.8897240048363093,-16.037350609188987,10.840090898684648,-3.22816383765045,-1.4595619658119638,58.4875653677463,6.441506909497564,-8.724572649572671,35.08931620091653,35.424776110462155,35.28100757779974,1577395847.0,-27.692377538955107,-51.12598757561351,2.2160332
41717,1577395847.59,0.08044517578125,2.2353463800048825,10.122265633850096,0.0540739204220655,1.4096884189512666,10.64076650033346,0.620326249186198,-1.8311652364095052,11.990959981282556,-0.2040863037109375,-12.305259704589844,-14.617156982421877,-5.471950624047256,-11.858126012290397,-14.677280332983994,-3.690992082868304,-0.7840111142113093,-15.716916038876487,10.278012111345449,-3.1332178424254327,0.0912226228632491,58.58423653283852,5.911509505551562,-8.516844729344749,35.20912331146854,35.28100757779974,35.304968999910145,1577395847.0,-27.692377538955107,-51.12598757561351,2.2160332
41718,1577395847.6,0.1247379064941406,0.9472658868408202,9.44231236236572,0.0085840888790962,2.806705087652438,10.956801119474084,-0.3481283223470046,5.408900583902994,11.229603853352868,-0.3414154052734375,-11.649131774902344,-14.678192138671877,-4.159694764672256,-11.995455113852897,-14.265293028296494,-3.3552987234933034,8.40177990141369,-9.598141624813987,9.71593332400624,-3.797839809000523,-2.006897702991451,58.680907697930735,6.033816598769871,-8.309116809116826,35.08931620091653,35.52062179890376,35.52062179890376,1577395847.0,-27.692377538955107,-51.12598757561351,2.2160332
41719,1577395847.61,0.2109291662597656,1.3566743707275388,9.83974983795166,-0.3266041435427778,1.6742477023985325,9.393387435392055,2.168177622477213,4.616419834391276,9.589575716145832,0.1163482666015625,-11.527061462402344,-14.403533935546877,-3.152614686547256,-6.868501988852897,-14.387363340796494,-3.3247811453683034,6.723313104538691,-14.450436546688987,11.00068483792442,-2.6584878663003684,-1.6420072115384547,59.067592358299606,5.381512101605561,-4.154558404558413,35.08931620091653,35.424776110462155,35.08931620091653,1577395847.0,-27.692377538955107,-51.12598757561351,2.2160332
41720,1577395847.62,0.6754042883300782,2.335902849731445,9.46864858062744,0.2875085822872999,1.658685391607517,9.75970028939596,0.0792366739908855,1.3890359965006502,10.912372133382162,-0.4940032958984375,-11.221885681152344,-14.586639404296877,-4.480129334984756,-10.927339879477897,-14.265293028296494,-2.6533944266183034,3.5342261904761907,-16.235714867001487,11.00068483792442,-2.6584878663003684,-1.6420072115384547,58.97092119320739,-1.5084541496924668,-84.96071937321939,34.993470512474914,35.44873753257256,35.233084733578934,1577395847.0,-27.692377538955107,-51.12598757561351,2.2160332
41721,1577395847.63,1.4331691137695313,1.4201207147216794,7.617930697326659,0.3653201362423775,2.543342905035251,7.48042030892721,0.7986942728678381,1.4177664164225254,11.34213133138021,-1.2722015380859375,-10.245323181152344,-15.013885498046877,-1.687770936547256,-9.767671910727897,-14.021152403296494,-2.8670174734933034,22.40934826078869,-15.732174827938987,10.840090898684648,-3.228163837650446,-0.5473357371794837,58.680907697930735,5.5445882258966375,-86.41481481481483,35.28100757779974,35.32893042202055,35.32893042202055,1577395847.0,-27.692377538955107,-51.12598757561351,2.2160332
41722,1577395847.64,0.9722852941894532,1.078946978149414,9.44949496734619,-0.0009927177615277,1.671853500738376,10.082917513517051,0.7891174662272131,0.5223349955240879,8.993419502766926,0.3299713134765625,-8.933067321777344,-15.044403076171877,-3.885036561547256,-6.532808629477897,-16.096347715796494,-3.3247811453683034,18.99137951078869,-16.861325218563987,10.840090898684648,-3.6079478185504974,-0.3648904914529891,57.13416905645526,5.5445882258966375,-86.41481481481483,35.08931620091653,35.47269895468296,35.233084733578934,1577395847.0,-27.692377538955107,-51.12598757561351,2.2160332
41723,1577395847.65,0.4982333654785156,0.849103618774414,10.045651180725097,1.09794584425019,0.2832165378477512,10.398952132657678,0.1785960428873694,1.2382012919108063,6.249664400227864,0.2689361572265625,-8.170127868652344,-15.837860107421877,-5.563503358422256,-9.462496129477897,-15.485996153296494,-2.3787362234933034,8.06608654203869,-16.739254906063987,11.00068483792442,-1.8989199045002647,-0.9122262286324764,58.4875653677463,4.973821790877866,-88.49209401709405,35.13723904513733,35.424776110462155,35.28100757779974,1577395847.0,-27.692377538955107,-51.12598757561351,2.2160332
41724,1577395847.66,0.5544971044921875,0.954448491821289,9.54646013458252,0.168995600109565,1.9567634982969695,9.63280760140768,-0.5612122701009108,4.417701096598307,8.821036983235677,1.7185211181640625,-8.200645446777344,-15.258026123046877,-2.633815858422256,-9.950777379477897,-14.417880918921494,-1.2495858328683034,4.007248651413691,-17.898922874813987,11.24157574678408,-2.373649880625328,-0.821003605769231,59.26093468848404,5.626126288042176,-91.81574074074076,34.993470512474914,35.233084733578934,35.32893042202055,1577395847.0,-27.692377538955107,-51.12598757561351,2.2160332
41725,1577395847.67,0.7855375646972657,0.264918413696289,9.267535641174316,0.8549343757443305,1.029010354986423,10.41690864510885,0.1343033121744793,-0.8591193623860679,11.448673305257165,0.1468658447265625,-6.461143493652344,-15.593719482421877,-3.564601991234756,-5.937715856040397,-15.043491270483994,-2.0430428641183034,7.348923456101191,-15.716916038876487,11.00068483792442,-2.2787038854003168,0.5473357371794949,58.4875653677463,5.299974039460022,-95.13938746438748,35.233084733578934,35.37685326624135,35.233084733578934,1577395847.0,-27.692377538955107,-51.12598757561351,2.2160332
41726,1577395847.68,0.5125985754394531,2.5370157891845704,10.153390255432129,-0.443920024890434,1.7077665256407195,12.15869035287252,-0.5013572285970046,-0.3060587788899736,10.858502596028648,2.4662017822265625,-6.644248962402344,-15.074920654296877,-2.298122499047256,-9.004732457602897,-15.394443418921494,-2.0125252859933034,8.24919201078869,-13.870602562313987,10.840090898684648,-2.088811894950291,0.0,58.4875653677463,-8.724572649572648,-86.83027065527065,35.13723904513733,35.32893042202055,35.424776110462155,1577395847.0,-27.692377538955107,-51.12598757561351,2.2160332
