,timestamp,acc_x_dashboard,acc_y_dashboard,acc_z_dashboard,acc_x_above_suspension,acc_y_above_suspension,acc_z_above_suspension,acc_x_below_suspension,acc_y_below_suspension,acc_z_below_suspension,gyro_x_dashboard,gyro_y_dashboard,gyro_z_dashboard,gyro_x_above_suspension,gyro_y_above_suspension,gyro_z_above_suspension,gyro_x_below_suspension,gyro_y_below_suspension,gyro_z_below_suspension,mag_x_dashboard,mag_y_dashboard,mag_z_dashboard,mag_x_above_suspension,mag_y_above_suspension,mag_z_above_suspension,temp_dashboard,temp_above_suspension,temp_below_suspension,timestamp_gps,latitude,longitude,speed
39267,1577395823.09,0.1733168421303353,-2.36681432897056,9.562032664526964,0.7059391187714363,-1.9008793278391765,10.59895556402439,-0.5696448096298583,-4.084741612876333,5.800099509634624,-1.5260649890434452,1.842219655106708,-0.2004111685403963,-4.928774949980945,-3.520314286394817,-1.7093565405868902,-1.2169814691310974,17.9538261599657,2.0580756955030486,-3.215969422043012,-7.851441830738705,1.7713211887318916,-12.699126221001222,1.0671032272325378,-4.420856227106225,33.12447958786354,36.479078683319855,39.68990924611376,1577395823.0,-27.691512678184164,-51.12557281155479,5.02505
39268,1577395823.1,-0.2815814732993521,-1.2774525735994662,10.807017527808211,-0.1751270921660626,-2.7675803288157392,8.480087094786109,-3.610280918028296,-7.613794859946646,8.864677634634623,-4.852481004668445,1.1097977801067074,-1.0854209341653962,-3.616519090605945,3.071482588605183,-2.4722959937118905,0.5835556402439026,15.3598320193407,-1.3904106326219514,-4.370419983802041,-7.668850160256409,1.5941890698587031,-13.508171805046809,1.0671032272325378,-1.7003293181177797,33.17240243208434,36.38323299487824,39.68990924611376,1577395823.0,-27.691512678184164,-51.12557281155479,5.02505
39269,1577395823.11,0.4845630579506478,-1.3480815225740757,9.922360014380478,0.3827218946503426,-2.5760441960032394,9.05948389654392,2.1286204613662343,1.9438581673971032,11.756873240103372,-2.105898973418445,-0.0803877667682927,-1.7415488638528962,-5.661196824980945,5.573923994855183,-1.5872862280868902,-3.566834984756097,9.8361503787157,-4.167510241996951,-4.370419983802041,-7.668850160256409,1.5941890698587031,-13.277015923890923,0.457329954528231,-1.7003293181177797,33.19636385419474,36.38323299487824,39.83367777877617,1577395823.0,-27.691512678184164,-51.12557281155479,5.02505
39270,1577395823.12,-0.0517381139243521,-1.77305231725181,11.233185423316025,0.7466405469940931,-1.8398271855051924,10.08899061041111,0.7471661034560781,-3.531681029380239,11.972351389517437,-7.782168504668445,0.4994462176067073,-2.275606481040396,-4.242129442168445,0.1265362995426828,-2.5791075171493905,-4.772279320693597,2.8323661990282014,-6.1969291873094505,-2.2264403691067,-8.58180851266789,2.125585426478283,-13.450382834757836,0.457329954528231,-8.501646590588896,33.22032527630515,36.43115583909905,39.71387066822416,1577395823.0,-27.691512678184164,-51.12557281155479,5.02505
39271,1577395823.13,0.7383484339272103,-2.7905880228182163,10.153400474585556,0.6819971021698739,-3.9574985539133953,8.671623227598609,0.3257866112685782,1.5536032967916344,9.884607541861186,-6.653018114043445,2.605159108231707,-2.275606481040396,-2.823062059355945,4.139597822980183,-1.7093565405868902,-1.1254287347560974,-2.5845039181592986,-1.7261039919969514,-2.391361877929418,-10.225133547008545,1.2399248321123264,-13.392593864468866,15.091888499431604,-3.0605927726120044,32.98071105520113,36.71869290442388,39.68990924611376,1577395823.0,-27.691512678184164,-51.12557281155479,5.02505
39272,1577395823.14,-1.1865897008384143,-4.097822129263529,9.715261570776963,1.3164605421112805,-5.020524091022771,8.365165415098609,-3.399591171934546,-1.6881457510599267,12.26204979039634,-2.960391160918445,4.436213795731708,-2.306124059165396,-2.945132371855945,-0.7126970988948171,-2.8995420874618905,-4.329774437881097,-4.964875011909299,2.5463569455030486,-2.556283386752138,-8.58180851266789,2.125585426478283,-13.62374974562475,15.396775135783756,-3.0605927726120044,33.22032527630515,36.33531015065744,39.498217869230544,1577395823.0,-27.691512678184164,-51.12557281155479,5.02505
39273,1577395823.15,-0.4587523961509151,-2.071130423941263,8.858137376441027,-1.4847554002715313,-2.324653021686833,9.528747421934543,-1.5536616919540769,-8.061510570395864,13.231701462759624,-3.631777879668445,1.5523026629192072,-2.657076207602896,-4.226870653105945,-2.055470536394817,-2.2891905249618905,-8.846376000381097,-15.2798164181593,-2.1533500857469514,-2.556283386752138,-8.58180851266789,2.125585426478283,-13.392593864468866,15.396775135783756,-4.420856227106225,33.05259532153234,36.57492437176146,39.68990924611376,1577395823.0,-27.691512678184164,-51.12557281155479,5.02505
39274,1577395823.16,-0.4946654210532584,-2.436246177115091,9.559638462866808,-0.4935559129668443,-2.274374786823552,8.53635083379978,0.5951342980361567,-1.7803225149759423,8.82876460973228,-2.990908739043445,-0.3550459698932927,-2.397676793540396,-3.814883348418445,3.346140791730183,-2.5028135718368905,-10.707948266006095,-20.6356513790968,-1.6803276248094516,-4.040576966156604,-8.764400183150183,1.5941890698587031,-13.01696555759056,8.613047476948338,-13.772667476754012,32.98071105520113,36.407194416988645,39.71387066822416,1577395823.0,-27.691512678184164,-51.12557281155479,5.02505
39275,1577395823.17,-0.9375927281821648,-1.1242236673494663,8.38169124606993,-0.7832543138457502,-1.7284968083079266,8.748237680723609,-1.2328386694931397,-1.0321344961771142,8.316405454458842,-2.014346239043445,5.321223561356708,-2.550264684165396,-4.379458543730945,-3.245656083269817,-1.8009092749618902,-9.517762719131095,-16.6836250119093,-1.1462700076219514,-2.556283386752138,-8.946991853632479,2.47984966422466,-13.392593864468866,0.457329954528231,-26.185071499013805,33.17240243208434,36.52700152754066,39.64198640189295,1577395823.0,-27.691512678184164,-51.12557281155479,5.02505
39276,1577395823.18,-2.079626920076696,-1.9981072733064973,8.467882505835556,-1.81754943103325,-1.9128503361399576,11.226236398985328,-1.4746530371689208,1.7523220345846031,12.455980124868995,-6.469912645293445,6.908137623856708,-2.245088902915396,-1.2971831531059452,-0.4685564738948171,-3.7540342749618905,-11.470887719131095,-21.1391914181593,3.4618842892530486,-2.061518860283982,-9.494766865079365,3.7197744963369854,-13.62374974562475,0.457329954528231,-26.185071499013805,33.17240243208434,36.38323299487824,39.64198640189295,1577395823.0,-27.691512678184164,-51.12557281155479,5.02505
39277,1577395823.19,-1.7312705785239615,-3.781787510122904,10.25395694431212,-1.4249003587676254,-3.052490326374333,11.10892051763767,-1.4052211890243895,-4.7694832876810205,13.138327598013529,-5.081362840605944,-2.002995188643293,-2.245088902915396,-2.914614793730945,-1.2314959270198171,-2.4112608374618905,-14.125917016006095,-32.8732002072218,0.4101264767530487,-2.2264403691067,-8.216625171703297,1.4170569509855149,-13.045860042735043,1.067103227232538,-25.84500563539025,33.02863389942193,36.52700152754066,39.57010213556175,1577395823.0,-27.691512678184164,-51.12557281155479,5.02505
39278,1577395823.2,-2.2520094396079458,-2.3141418924471227,12.147770457495712,-2.875786564822312,-2.848983185261052,13.804791586973607,1.362475930116234,-4.202057494223989,11.400137192740091,-4.425234910918445,5.962092701981708,-0.8717978872903963,-0.3206206531059451,-2.421681473894817,-2.6248838843368905,-15.224549828506095,-32.8274238400343,-2.3669731326219514,-2.886126404397574,-9.312175194597067,2.47984966422466,-13.450382834757836,0.6097732727043083,-78.89528036066497,33.17240243208434,36.38323299487824,39.68990924611376,1577395823.0,-27.691512678184164,-51.12557281155479,5.02505
39279,1577395823.21,-1.5289605382407585,-3.867978769888528,10.797440721167588,1.7809356641815923,-5.760332404011051,9.741831369688452,-1.2807227026962644,2.805770765053353,14.869335398306498,-9.094424364043444,-0.8128096417682926,-0.8717978872903963,-0.9614897937309452,3.193552901105183,-2.6554014624618905,-10.891053734756095,-33.5293281369093,2.4548042111280486,-4.370419983802041,-8.399216842185593,2.3027175453514714,-12.699126221001222,-3.81108295440192,-90.79758558748944,33.12447958786354,36.57492437176146,39.88160062299697,1577395823.0,-27.691512678184164,-51.12557281155479,5.02505
39280,1577395823.22,-1.2081375157798209,-3.709961460318216,10.797440721167588,0.1528785352753426,-2.9902410832102704,11.846334628965796,-2.0636266455673584,-2.7799017080911765,12.68342928258384,-1.3124419421684452,-2.430241282393293,-1.7568076529153962,-3.769106981230945,-7.304493973894817,-0.8243467749618902,-14.797303734756095,-36.0012519650343,4.194306164253049,-2.556283386752138,-8.58180851266789,1.4170569509855149,-13.103649013024016,0.9146599090564612,-91.137651451113,33.12447958786354,36.38323299487824,39.83367777877617,1577395823.0,-27.691512678184164,-51.12557281155479,5.02505
39281,1577395823.23,-0.949563736482946,-3.34364860631431,10.87285807346251,-0.7114282640410632,-4.794272034138005,9.970477628233374,1.8664553795791248,-4.100303923667349,9.72060472814048,-3.616519090605945,-5.054753001143293,-1.848360387290396,10.085873487519056,0.7826642292301829,-2.9758360327743905,-12.142274437881095,-35.2077949337843,3.9959419064405486,-2.556283386752138,-8.58180851266789,1.7713211887318916,-12.58354828042328,-4.115969590754073,-80.59560967878276,33.148441009973936,36.694731482313486,39.68990924611376,1577395823.0,-27.691512678184164,-51.12557281155479,5.02505
39282,1577395823.24,-1.1650418858970084,-1.8736087869783724,11.12784055026915,-0.5534109544707502,-0.916862445514958,8.666834824278297,-0.203331955625952,-2.140649864829458,7.895025962271342,3.2041596203315548,-0.7517744855182926,-0.8717978872903963,-19.638247606230944,-1.6892595988948171,-2.1976377905868905,-6.862733422256097,-17.3855293087843,1.6613471798780486,-3.0510479132202923,-9.494766865079365,0.8856605943659495,-12.641337250712253,-3.658639636225843,-25.84500563539025,33.12447958786354,36.52700152754066,39.97744631143858,1577395823.0,-27.691512678184164,-51.12557281155479,5.02505
39283,1577395823.25,-1.813870535799352,-0.8919861063143101,9.401621153296494,-2.2269579149199688,-0.6343466496165204,20.57798808355564,-0.8138533789657958,-5.770259581626333,9.712225022329935,2.7769135265815548,-3.345768626143293,-1.2074912466653962,-24.429507371855944,-7.121388505144817,-1.8314268530868905,-7.015321312881097,-10.8852851681593,-2.4585258669969514,-4.205498474979322,-8.946991853632479,1.062792713239138,-12.58354828042328,-3.81108295440192,-24.14467631727247,33.12447958786354,36.57492437176146,39.64198640189295,1577395823.0,-27.691512678184164,-51.12557281155479,5.02505
39284,1577395823.26,-1.823447342439977,-4.87593766881431,9.885249888648056,-1.0202802782012188,-3.5049944401438644,5.219184433653297,-1.4746530371689208,0.2822822152486659,11.687441391958842,-4.577822801543445,-5.924503977705793,-0.9633506216653962,34.34734809689405,-37.24223811451981,-4.0286924780868905,-2.254579125381097,-14.1506660275343,-0.4748832888719513,-2.8036656499862147,-9.403471029838215,1.5056230104221089,-12.58354828042328,-3.81108295440192,-25.504939771766697,32.98071105520113,36.57492437176146,39.68990924611376,1577395823.0,-27.691512678184164,-51.12557281155479,5.02505
39285,1577395823.27,-2.474670194002477,-3.602222385611185,11.379231724585557,-0.2577270494414535,-2.2815573918040206,11.08258429937595,-0.3457869544052494,-4.388805223716177,11.845458701529154,-1.4345122546684452,-2.888004954268293,0.3489052377096037,-16.403384324980955,-5.7938738567073145,1.2203309594131098,-5.123231469131097,-17.8280341915968,4.056977062690549,-2.391361877929418,-9.129583524114771,1.5941890698587031,-12.58354828042328,-3.81108295440192,-25.504939771766697,33.12447958786354,36.59888579387187,39.71387066822416,1577395823.0,-27.691512678184164,-51.12557281155479,5.02505
39286,1577395823.28,-2.208913809725133,-0.8967745096346226,10.902785594214462,-1.9564131273223129,-1.587238910358708,12.643603781797829,0.4095836693740469,-4.3193733755716455,9.31957595006431,0.6406830578315549,-7.252018626143292,-0.0173056997903963,-14.755435106230944,9.541209151105184,-3.5709288062118905,-9.212586937881095,-7.040070324409299,-5.327178210746951,-3.3808909308657284,-8.764400183150183,2.6569817830978484,-12.3523923992674,0.457329954528231,-26.185071499013805,33.12447958786354,36.57492437176146,39.88160062299697,1577395823.0,-27.691512678184164,-51.12557281155479,5.02505
39287,1577395823.29,-1.0644854161704458,-3.736297678579935,10.019325181616804,1.2063272657440929,-6.126645258014958,4.280657382872047,0.3401518212295157,0.8449196053853847,9.513506284536966,-1.0683013171684452,-9.907047923018292,0.3183876595846037,10.848812940644056,44.33124821360519,-2.3502256812118905,-3.810975609756097,-0.5093086056592988,-2.8857719607469514,-3.7107339485111663,-8.764400183150183,2.6569817830978484,-13.62374974562475,1.6768764999368453,-24.14467631727247,33.12447958786354,36.479078683319855,39.64198640189295,1577395823.0,-27.691512678184164,-51.12557281155479,5.02505
39288,1577395823.3,-1.0309665929282583,-3.0132487772127474,9.85053396457579,0.7657941602753425,-3.1745946110423016,10.474457077696265,-1.955887570860327,-3.706457750571645,8.658776291861185,2.0444916515815548,-8.655827219893292,0.3336464486471037,-19.272036668730944,26.875193526105186,-1.0684873999618902,-1.4916396722560974,3.3664238162157014,-0.3222953982469513,-2.8036656499862147,-9.40347102983822,2.568415723661258,-13.392593864468866,1.3719898635846923,-25.504939771766697,33.17240243208434,36.38323299487824,39.64198640189295,1577395823.0,-27.691512678184164,-51.12557281155479,5.02505
39289,1577395823.31,0.1541632288490853,-2.836077854361185,8.295499986304307,0.7358666395233896,-1.951157562702458,9.88308926763767,-0.4930303565048587,-3.733991069663442,9.12085721227134,-1.0988188952934452,-8.320133860518293,0.3794228158346037,2.6090668468940548,18.28449528391769,-1.4804747046493905,2.094175757431403,3.0307304568407014,3.8433540158155486,-3.215969422043012,-10.407725217490844,3.188378139717421,-11.54334681522182,1.3719898635846923,-23.46454459002536,33.02863389942193,36.38323299487824,39.64198640189295,1577395823.0,-27.691512678184164,-51.12557281155479,5.02505
39290,1577395823.32,-0.6047986974204459,-2.6517243265291537,8.080021836890245,0.7825535718964364,-0.4332337101633954,15.768036948301733,-0.7563925391220457,-4.972990428794302,10.741731736197124,4.363827589081555,-6.519596751143292,1.2339150033346038,-10.177798387480944,6.916697432355183,0.2742860375381097,1.1328720464939026,-0.5093086056592988,2.7904975705030486,-3.215969422043012,-10.407725217490844,3.188378139717421,-13.334804894179896,0.9146599090564612,-77.53501690617075,33.12447958786354,36.52700152754066,39.68990924611376,1577395823.0,-27.691512678184164,-51.12557281155479,5.02505
39291,1577395823.33,-0.3617872289145865,-2.5535620584627474,9.587171781958602,0.4234233228729988,-2.6909658756907398,9.737042966368138,-1.879273117735327,-6.107842015708364,9.336335361685403,0.7474945812690548,-11.951725657393292,0.7456337533346037,-6.851382371855945,3.193552901105183,-0.9769346655868902,-2.437684594131097,2.9696953005907014,-4.075957507621951,-3.3808909308657302,-8.58180851266789,2.47984966422466,-13.103649013024016,0.6097732727043083,-80.2555438151592,33.148441009973936,36.57492437176146,39.88160062299697,1577395823.0,-27.691512678184164,-51.12557281155479,5.02505
39292,1577395823.34,-0.5305784459556021,-2.1800665994783723,10.998553660620711,-0.955636833377,-3.0572787296946453,8.08983222418064,-0.4666941382431395,-0.6610332388528956,11.737719626822123,0.6101654797065549,-7.984440501143292,0.6235634408346037,14.297299268769056,-11.637990067644816,0.6404969750381098,5.557920874618903,0.2231132693407012,-8.74514696074695,-3.215969422043012,-8.58180851266789,2.47984966422466,-12.930282102157102,2.896423045345459,-79.23534622428853,33.31617096474676,36.38323299487824,39.64198640189295,1577395823.0,-27.691512678184164,-51.12557281155479,5.02505
39293,1577395823.35,0.3792181849037728,-3.882343979849466,8.81743594821837,0.1959741651581551,-2.918415033405583,9.29650986089939,0.5652067772842032,1.529661280190072,8.838341416372904,-3.021426317168445,-9.907047923018292,0.8677040658346037,-1.6023589343559452,-6.327931473894817,-1.0990049780868902,4.184629858993903,3.3053886599657014,-4.075957507621951,-3.215969422043012,-8.58180851266789,2.47984966422466,-13.508171805046809,15.091888499431604,-22.784412862778247,33.02863389942193,36.57492437176146,39.83367777877617,1577395823.0,-27.691512678184164,-51.12557281155479,5.02505
39294,1577395823.36,0.6545513758217415,-4.054726499380716,8.628294017066025,1.5582749097870614,-3.85215368086652,6.713166269590796,-1.7595630347275149,0.1470098214498382,8.49597057897056,3.1126068859565548,-6.336491282393292,0.1047646127096036,2.0902680187690548,-7.914845536394816,-0.4733946265243902,7.373716773056404,8.5238945193407,3.7823188595655486,-3.8756554573338846,-9.67735853556166,1.7713211887318916,-13.508171805046809,15.091888499431604,-22.784412862778247,33.12447958786354,36.479078683319855,39.59406355767214,1577395823.0,-27.691512678184164,-51.12557281155479,5.02505
39295,1577395823.37,0.4271022181068973,-3.773407804312357,10.402397447241809,0.5574986158417489,-2.6047746159251144,7.452974582579078,-1.2974821143173585,-4.6186485830911765,8.620469065298686,-0.5189849109184452,-4.383366282393292,0.0284706673971036,0.5643891125190549,-5.564992020769817,-0.7327940405868902,4.062559546493903,14.9325859255907,4.346894054878049,-2.2264403691067,-8.946991853632477,1.9484533076050947,-13.508171805046809,15.091888499431604,-22.784412862778247,33.22032527630515,36.52700152754066,39.68990924611376,1577395823.0,-27.691512678184164,-51.12557281155479,5.02505
39296,1577395823.38,0.8867889368568977,-2.3404781107088413,8.850954771460557,-0.4121530565215314,-1.781169244831364,5.475364011290015,-2.425151096250952,-8.049539562095083,9.697859812368996,2.3496674328315548,-4.291813548018292,0.8677040658346037,2.7921723156440548,-4.100148270769817,-0.3971006812118902,7.724668921493903,14.7494804568407,-3.984404773246952,-1.7316758426385437,-8.764400183150183,1.9484533076050947,-13.62374974562475,15.091888499431604,-22.784412862778247,33.17240243208434,36.38323299487824,39.546140713451344,1577395823.0,-27.691512678184164,-51.12557281155479,5.02505
39297,1577395823.39,2.395135982755335,-1.83051315709556,10.064815013159777,0.9453592847870612,-1.0246015202219891,8.343617600157202,-0.107563889219702,-1.6953283560403956,7.626875376333842,2.9600189953315548,-11.341374094893292,-0.1698935904153963,0.3812836437690549,-2.238576005144817,1.8001649437881098,1.9873642339939024,14.6274101443407,-6.639434070121951,-1.7316758426385437,-8.764400183150183,1.9484533076050947,-12.00565857753358,15.091888499431604,-22.784412862778247,33.22032527630515,36.52700152754066,39.73783209033456,1577395823.0,-27.691512678184164,-51.12557281155479,5.02505
39298,1577395823.4,0.8065831812416634,-2.326112900747904,10.979400047339462,2.156825324826124,-3.0884033512766766,9.415022843077123,-0.1937551489853275,-1.272751763022818,12.702582895865092,-0.549502489043445,-1.4384199933307928,-0.0325644888528963,1.7087982922065548,-3.093068192644817,-0.0919248999618902,3.543760718368903,6.6470634646532005,-1.0241996951219514,-3.133508667631652,-9.22087935935592,1.5056230104221164,-16.0508864977615,2.5915364089933064,-80.59560967878275,33.12447958786354,36.57492437176147,39.68990924611376,1577395823.0,-27.691512678184164,-51.12557281155479,5.02505
39299,1577395823.41,-0.2384858434165396,-4.430616160025247,10.728008873023056,1.7522052442597176,-2.731667303913396,12.24616630621189,1.455849794862328,-2.1430440664896144,10.047413254751811,-5.401797410918445,1.933772389481708,-0.0173056997903963,-1.0225249499809452,-1.3535662395198171,-0.4886534155868902,-0.0267959222560973,0.1010429568407012,0.1049506955030487,-2.391361877929418,-8.034033501221,2.6569817830978484,-12.12123651811152,5.335516136162689,-69.71350204282896,32.98071105520113,36.52700152754066,39.68990924611376,1577395823.0,-27.691512678184164,-51.12557281155479,5.02505
39300,1577395823.42,-0.3534075231040396,-4.411462546743997,8.376902842749619,2.4896193555878425,-5.386836945026676,10.613320773985327,0.4311314843154532,-3.9027822867044577,11.321128537954936,0.5186127453315549,4.619319264481708,0.6235634408346037,2.5175141125190548,-1.1399431926448171,-1.4652159155868902,1.2854599371189026,2.4203788943407014,-1.0241996951219514,-3.215969422043012,-10.042541876526249,1.4170569509855149,-12.641337250712253,7.012392636099534,-69.37343617920541,33.17240243208434,36.52700152754066,39.73783209033456,1577395823.0,-27.691512678184164,-51.12557281155479,5.02505
39301,1577395823.43,1.2004293543373663,-3.82248893834556,9.849336863745712,0.62693046398628,-3.138681586139958,10.381083212950172,0.0336940087295156,-5.087912108481802,11.06255475865806,1.8308686047065548,-4.017155344893292,-0.6581748404153963,-0.0764800281059451,-3.703419755144817,0.1216981469131097,1.0718368902439026,1.3217460818407012,-4.625273913871951,-3.215969422043012,-10.042541876526249,1.4170569509855149,-11.716713726088727,5.487959454338766,-98.61910045083124,33.12447958786354,36.57492437176146,39.73783209033456,1577395823.0,-27.691512678184164,-51.12557281155479,5.02505
39302,1577395823.44,0.3564732691322884,-2.94142272740806,10.886026182593367,2.073028266720655,-3.459504608600896,10.147648551084936,0.7292095910049063,-2.9055972952493803,11.42048790685142,4.516415479706555,-5.329411204268293,-0.5971396841653963,1.8003510265815548,0.7979230182926829,-0.9464170874618902,-0.4998183831935974,-2.1725166134717986,-1.1462700076219514,-3.628273194099808,-8.855696018391331,2.5684157236612544,-12.670231735856738,5.564181113426804,-102.18979201887856,33.22032527630515,36.359271572767845,39.78575493455536,1577395823.0,-27.691512678184164,-51.12557281155479,5.02505
39303,1577395823.45,0.0272705408608031,-2.8001648294588413,12.262692137183212,-0.0865416307402813,-2.659841254108708,11.88943025884861,0.8357515648818594,-3.194098595298208,11.036218540396344,-4.821963426543445,-0.2940108136432927,-0.0173056997903963,-1.2666655749809452,-7.975880692644817,0.8846376000381098,0.4004501714939026,-2.1877754025342986,1.1120307736280486,-2.721204895574856,-8.399216842185593,2.6569817830978484,-13.392593864468866,5.640402772514843,-69.71350204282896,33.02863389942193,36.57492437176146,39.64198640189295,1577395823.0,-27.691512678184164,-51.12557281155479,5.02505
39304,1577395823.46,1.3345046473061164,-2.21358542272056,10.043267198218368,0.7633999586151863,-1.0293899235423016,14.252507297422827,0.8620877831435781,-5.114248326743521,11.306763327993998,1.0679291515815548,-4.780094798018292,0.0132118783346036,1.1747406750190548,-4.252736161394817,-0.1834776343368902,0.4920029058689026,-2.0351875119092986,-0.2612602419969513,-4.205498474979322,-8.58180851266789,2.47984966422466,-12.00565857753358,7.164835954275611,-68.35323858833475,32.88486536675951,36.479078683319855,39.64198640189295,1577395823.0,-27.691512678184164,-51.12557281155479,5.02505
39305,1577395823.47,0.0847313807045531,-1.775446518911966,11.16614777683165,2.482436750607374,-4.182553509968083,9.31566347418064,1.5157048363662342,-0.8860881949075831,9.77208006383384,6.072811964081555,-5.848210032393292,-1.0549033560403962,3.768734815644055,2.216990401105183,-1.4041807593368902,2.323057593368903,-0.3262031369092988,1.5087592892530486,-4.205498474979322,-8.58180851266789,2.47984966422466,-12.00565857753358,7.164835954275611,-68.35323858833475,33.31617096474676,36.67077006020308,39.68990924611376,1577395823.0,-27.691512678184164,-51.12557281155479,5.02505
39306,1577395823.48,0.0703661707436156,-3.337663102163919,9.15022997898009,1.012396931271437,-2.458728314655583,11.83795492315525,1.136223873231469,-4.569567449057974,10.811163584341656,-1.403994676543445,1.0182450457317074,-0.6429160513528963,0.5338715343940549,-5.854909012957317,-1.8009092749618905,3.894712866806403,0.0400078005907011,-2.0923149294969514,-2.638744141163496,-9.220879359355925,2.7455478425344384,-12.00565857753358,6.555062681571303,-66.99297513384052,33.148441009973936,36.52700152754066,39.57010213556175,1577395823.0,-27.691512678184164,-51.12557281155479,5.02505
39307,1577395823.49,0.3552761683022103,-3.0252197855135288,9.815818040503524,1.04830995617378,-2.444363104694645,10.40023682623142,1.3648701317763905,-0.1079726553568018,8.958051499380716,2.4412201672065548,-4.047672923018292,-1.0243857779153962,3.1889008312690548,1.5761212604801829,-1.9840147437118905,0.9497665777439026,2.1762382693407014,-0.5054008669969513,-2.061518860283982,-9.859950206043958,1.2399248321123264,-13.62374974562475,7.7746092269799165,-69.71350204282896,33.22032527630515,36.479078683319855,39.64198640189295,1577395823.0,-27.691512678184164,-51.12557281155479,5.02505
39308,1577395823.5,0.180499447110804,-2.663695334829935,10.807017527808211,2.1161238966034674,-3.4499278019602704,7.275803659727515,-1.0436967383407958,-3.5843534659036766,8.76412116490806,2.0444916515815548,-8.289616282393293,-1.7873252310403962,3.4330414562690548,0.5080060261051829,-1.9534971655868905,4.306700171493903,3.946257800590701,2.3022163205030486,-3.0510479132202923,-10.225133547008545,1.9484533076050947,-12.12123651811152,5.640402772514843,-69.71350204282896,33.12447958786354,36.52700152754066,39.68990924611376,1577395823.0,-27.691512678184164,-51.12557281155479,5.02505
39309,1577395823.51,1.205217757657679,-3.295764573111185,10.574779966773056,1.0315505445526865,-2.2779660893137863,8.84280864629978,1.6246410119033436,-3.337750694907583,8.669550199331889,-1.4345122546684452,-6.641667063643292,-0.8107627310403963,1.5562104015815548,-4.771534989519817,-1.2973692358993902,4.871275366806403,8.9969169802782,-0.5664360232469514,-3.0510479132202923,-10.225133547008545,1.9484533076050947,-12.554653795278796,15.549218453959831,-69.71350204282896,33.31617096474676,36.479078683319855,39.68990924611376,1577395823.0,-27.691512678184164,-51.12557281155479,5.02505
39310,1577395823.52,1.5954726282631475,-1.65813063756431,10.091151231421494,1.2182982740448738,-1.876937311237614,8.259820542051735,0.0121461937881094,-2.942707420981802,7.729826047720561,4.318051221894055,-5.070011790205792,-1.2227500357278962,3.1583832531440548,-0.8042498332698171,-0.6717588843368902,4.489805640243903,14.5968925662157,-4.289580554496951,-2.721204895574856,-8.946991853632479,1.771321188731899,-12.525759310134312,16.15899172666414,-69.37343617920541,33.148441009973936,36.52700152754066,39.546140713451344,1577395823.0,-27.691512678184164,-51.12557281155479,5.02505
39311,1577395823.53,1.0639598597084603,-1.8807913919588413,9.178960398901964,1.4744778516815926,-2.1857893253977703,7.079479123594703,1.0392587059951406,0.5552212045064784,7.049872776236186,0.5491303234565549,-1.7893721417682926,-1.1769736685403962,2.3344086437690548,0.5385236042301829,-2.2281553687118905,11.691954077743905,20.5783378787157,-2.3974907107469514,-3.0510479132202923,-9.129583524114771,2.6569817830978484,-12.23681445868946,16.00654840848806,-69.03337031558186,33.12447958786354,36.57492437176146,39.68990924611376,1577395823.0,-27.691512678184164,-51.12557281155479,5.02505
39312,1577395823.54,1.4302727137123663,-2.019655088247904,9.011366282691029,2.207103559689405,-3.0261541081126144,4.843294773008765,0.1797403099990469,-1.7120877676614892,7.521530503286967,3.0820893078315548,0.3468583269817073,-1.6652549185403962,1.3578461437690548,-2.391163895769817,-2.1366026343368905,12.363340796493905,28.7570488162157,-3.4350883669969514,-3.215969422043012,-8.216625171703297,2.125585426478283,-12.294603428978432,15.85410509031199,-69.37343617920541,33.31617096474676,36.19154161799503,39.68990924611376,1577395823.0,-27.691512678184164,-51.12557281155479,5.02505
39313,1577395823.55,0.7048296106850228,-1.4893394205232944,8.806662040747666,0.8926868482636239,-0.8139117741282391,9.689158933165016,1.4869744164443592,-1.9084123037943015,8.929321079458841,3.4330414562690548,0.5299637957317074,-1.802584020102896,-0.0154448718559451,-4.344288895769817,-1.6483213843368902,13.278868140243905,31.5036308474657,-3.740264148246952,-3.29843017645437,-8.673104347909035,1.682755129295305,-12.58354828042328,15.701661772135914,-66.99297513384053,33.148441009973936,36.67077006020308,39.68990924611376,1577395823.0,-27.691512678184164,-51.12557281155479,5.02505
39314,1577395823.56,1.1501511194740852,-2.0412029031893097,7.424010582007432,0.248646601681593,-0.3410569462473803,7.32368769293064,-0.6690041785263426,-2.5656206595071924,10.57653182164634,1.8003510265815548,0.6825516863567074,-1.970430699790396,1.0831879406440548,3.788645674542683,-1.7551329077743902,7.404234351181404,19.8459160037157,-4.732085437309451,-2.2264403691067,-9.312175194597067,2.125585426478283,-12.901387617012617,15.930326749400027,-69.54346911101719,33.12447958786354,36.50304010543026,39.76179351244497,1577395823.0,-27.691512678184164,-51.12557281155479,5.02505
39315,1577395823.57,1.0759308680092414,-1.0093019876619662,8.980241661108995,1.4433532300995615,-1.0772739567454266,5.52324804449314,0.3066329979873282,0.7371805306783534,8.050649070181498,2.8989838390815548,1.2623856707317074,-2.184053746665396,0.5033539562690549,-0.224415848894817,-0.4581358374618902,6.320860327743903,7.791472644340701,-2.3669731326219514,-2.721204895574856,-8.399216842185593,2.6569817830978484,-13.565960775335776,15.85410509031199,-69.37343617920541,33.12447958786354,36.38323299487824,39.68990924611376,1577395823.0,-27.691512678184164,-51.12557281155479,5.02505
39316,1577395823.58,-0.1259583653891959,-1.6078524027010288,8.71448527683165,0.2270987867401863,-1.1754362248118329,8.310098776915014,-0.7444215308212645,-0.8621461783060206,9.305210740103371,2.2581146984565548,3.947932545731707,-1.3295615591653962,-0.2595854968559451,-1.1399431926448171,-1.5567686499618902,1.6821884527439026,5.655242175590701,-0.3528129763719513,-3.215969422043012,-8.946991853632479,2.47984966422466,-13.277015923890923,15.091888499431604,-69.71350204282896,33.12447958786354,36.52700152754066,39.68990924611376,1577395823.0,-27.691512678184164,-51.12557281155479,5.02505
39317,1577395823.59,-0.2947495824302115,-1.9322667276522003,8.811450444067978,-0.6922746507598126,-0.9647464787180828,9.406643137266576,-0.6869606909775146,-2.6338554068216453,12.00826441441978,-0.8546782702934451,2.635676686356707,-1.0091269888528962,-0.3206206531059451,2.735789229230183,-0.9769346655868902,2.017881812118903,-0.4787910275342988,-1.3598930544969514,-2.886126404397575,-8.581808512667887,2.6569817830978524,-13.508171805046809,16.00654840848806,-86.03666349675964,33.24428669841555,36.28738730643664,39.64198640189295,1577395823.0,-27.691512678184164,-51.12557281155479,5.02505
39318,1577395823.6,-0.2887640782798209,-0.6118645120760289,10.32338879245665,0.606579749874952,-1.9332010502512864,10.28531514654392,0.6358357262588129,-1.0895953360208643,10.337111655630716,2.7463959484565548,1.5980790301067074,-0.8717978872903963,0.7169770031440548,1.8965558307926829,-0.5649473608993902,0.2326034918064026,-4.324005871284299,1.0509956173780486,-3.3808909308657284,-9.494766865079365,0.8856605943659495,-13.392593864468866,10.061258999621067,-56.11086749788672,33.12447958786354,36.550962949651066,39.71387066822416,1577395823.0,-27.691512678184164,-51.12557281155479,5.02505
39319,1577395823.61,-0.7292971837485709,-0.939870139517435,10.124670054663682,0.0547162672089363,-1.2999347111399575,8.647681210997046,0.4143720726943594,-1.9850267569193016,10.780038962759622,0.9763764172065548,-2.979557688643293,-1.5737021841653962,-1.3277007312309452,1.0573224323551829,-1.5872862280868902,-1.8883681878810967,-7.406281261909299,1.6613471798780486,-3.5458124396884485,-8.58180851266789,1.7713211887318916,-13.392593864468866,2.896423045345459,-4.420856227106225,33.02863389942193,36.479078683319855,39.546140713451344,1577395823.0,-27.691512678184164,-51.12557281155479,5.02505
39320,1577395823.62,-0.7364797887290396,-0.2958298929354038,9.245998045386338,-1.827126237673875,0.7231656916920722,11.944496897032202,-0.6821722876572021,-2.111919444907583,9.999529221548686,1.3120697765815548,2.025325123856707,-0.5971396841653963,-0.9920073718559452,-2.909962723894817,-0.2139952124618902,-3.566834984756097,-7.741974621284299,0.3185737423780487,-3.5458124396884485,-7.851441830738705,1.7713211887318916,-13.565960775335776,3.0488663635215367,-4.08079036348267,33.17240243208434,36.52700152754066,39.83367777877617,1577395823.0,-27.691512678184164,-51.12557281155479,5.02505
39321,1577395823.63,-0.3151002965415396,-2.418289664663919,9.060447416724228,0.1516814344452649,-1.9954502934153489,8.663243521788061,0.070804134461938,0.0332852425924164,9.979178507437355,-2.624697801543445,-0.4008223370807927,-0.3529990591653963,0.4423188000190548,3.224070479230183,-0.5191709937118902,-1.2627578363185974,-9.6645820431593,0.8068549923780488,-3.5458124396884485,-7.851441830738705,1.7713211887318916,-13.305910409035407,2.057984795377037,-3.570691568047336,33.07655674364273,36.45511726120945,39.64198640189295,1577395823.0,-27.691512678184164,-51.12557281155479,5.02505
39322,1577395823.64,-0.7508449986899771,-0.4993370340486851,11.929898106421494,-1.3004018724395,-0.1315643009837079,10.256584726622046,-0.6366824561142334,0.5097313729635096,9.398584604849466,3.6008881359565548,0.5299637957317074,0.5930458627096037,-1.2361479968559452,-6.450001786394817,0.9151551781631098,-1.9799209222560967,-8.1692207150343,3.8586128048780486,-4.205498474979322,-8.946991853632479,2.8341139019710444,-13.62374974562475,2.896423045345459,-4.420856227106225,33.17240243208434,36.57492437176146,39.546140713451344,1577395823.0,-27.691512678184164,-51.12557281155479,5.02505
39323,1577395823.65,-0.1068047521079458,-1.1385888773104038,9.765539805640245,-1.1687207811309064,-0.2967642155344892,11.25736102056736,-0.5026071631454833,-2.621884398520864,8.831158811392436,-0.8241606921684451,-0.2634932355182927,0.8371864877096037,-0.5342436999809451,1.0573224323551829,0.7625672875381098,-2.071473656631097,-4.995392590034299,3.1567085080030486,-2.886126404397574,-9.67735853556166,1.062792713239138,-13.045860042735043,1.6768764999368453,-7.141383136094671,33.17240243208434,36.71869290442388,39.73783209033456,1577395823.0,-27.691512678184164,-51.12557281155479,5.02505
39324,1577395823.66,0.5827253260170541,-2.409909958853373,9.58358047946837,1.6660139844940929,-2.31986461836652,8.439385666563453,0.2922677880263907,-0.9267896231302392,9.429709226431497,-1.5871001452934452,-1.7588545636432926,0.6540810189596037,0.5033539562690549,4.994090010480183,1.3424012719131098,-0.0878310785060974,-0.6618964962842988,1.5697944455030486,-2.721204895574856,-9.859950206043958,1.2399248321123264,-13.565960775335776,3.0488663635215367,-4.08079036348267,33.17240243208434,36.57492437176146,39.498217869230544,1577395823.0,-27.691512678184164,-51.12557281155479,5.02505
39325,1577395823.67,0.1374038172279911,-1.1661221964022006,11.326559288062118,0.8424086134003426,-1.091639166706364,9.35397070074314,-1.486624045469702,-4.012915563071646,10.198247959341654,0.3812836437690548,1.4149735613567076,0.6540810189596037,-1.1751128406059452,-0.6821795207698171,1.3118836937881098,-0.2404189691310974,1.2301933474657012,-0.2917778201219513,-2.721204895574856,-8.399216842185593,3.3655102585906094,-16.339831349206353,1.219546545408615,-4.08079036348267,33.19636385419474,36.57492437176146,39.498217869230544,1577395823.0,-27.691512678184164,-51.12557281155479,5.02505
39326,1577395823.68,0.9011541468178352,-1.6509480325838413,10.09354543308165,0.0080293348358899,-1.023404419391911,10.06265439214939,0.4861981224990473,-0.2719754690775054,9.98396691075767,1.2205170422065548,3.490168873856707,0.8371864877096037,0.4270600109565548,2.049143721417683,1.540765529725609,1.5143417730564028,2.038909167778201,-1.4972221560594514,-2.391361877929418,-8.399216842185593,1.2399248321123264,-15.010685032560035,8.5368258178603,-7.141383136094675,32.98071105520113,36.45511726120945,39.59406355767214,1577395823.0,-27.691512678184164,-51.12557281155479,5.02505
39327,1577395823.69,1.195640951017054,-1.3061829935213412,10.7639218979254,1.7306574293183117,-0.7277205143626141,10.73303085699314,0.6561864403701406,0.5001545663228846,10.44963913365806,2.7158783703315548,3.062922780106707,1.0813271127096038,0.0455902843940548,2.705271651105183,1.3424012719131098,4.703428687118903,2.9391777224657014,2.3327338986280486,-2.2264403691067,-10.042541876526249,1.4170569509855149,-13.508171805046809,16.616321681192368,-11.222173499577346,33.02863389942193,36.52700152754066,39.68990924611376,1577395823.0,-27.691512678184164,-51.12557281155479,5.02505
39328,1577395823.7,1.0088932215248665,-1.7227740823885287,10.390426438941024,1.71868642101753,-1.7931402531321452,10.00519355230564,-0.2344565772079833,-2.008968773520864,10.911720054068216,0.9153412609565548,1.6591141863567074,0.8066689095846037,-0.1985503406059451,2.918894697980183,1.2813661156631098,2.506163062118903,3.3969413943407014,1.8749702267530488,-2.886126404397574,-10.042541876526249,2.8341139019710444,-13.62374974562475,15.396775135783756,-12.582436954071568,32.98071105520113,36.38323299487824,39.64198640189295,1577395823.0,-27.691512678184164,-51.12557281155479,5.02505
39329,1577395823.71,0.0811400782143197,-1.4498350931307162,9.772722410620712,0.8064955884979988,-1.3526071476633954,10.072231198790014,0.7782907250381094,-1.927565917075552,10.42330291539634,1.2815521984565548,7.304866139481708,1.1271034798971038,1.2052582531440548,3.651316572980183,1.922235256288109,2.323057593368903,1.6574394412157012,1.2341010861280486,-4.205498474979322,-9.312175194597067,2.125585426478283,-13.62374974562475,15.396775135783756,-12.582436954071568,33.17240243208434,36.57492437176146,39.64198640189295,1577395823.0,-27.691512678184164,-51.12557281155479,5.02505
39330,1577395823.72,-0.5856450841391959,-1.3588554300447788,8.309865196265244,0.2294929884003431,-1.568085297077458,9.381504019834937,0.0791838402724844,-2.189730998862661,9.646384476675635,1.0068939953315548,2.757746998856707,0.8066689095846037,1.3120697765815548,3.102000166730183,1.3118836937881098,0.3699325933689026,2.1762382693407014,0.1812446408155486,-4.205498474979322,-9.312175194597067,2.125585426478283,-13.594855260480262,1.44821152267273,-15.13293093124824,33.02863389942193,36.50304010543026,39.73783209033456,1577395823.0,-27.691512678184164,-51.12557281155479,5.02505
39331,1577395823.73,-1.1291288609946646,-0.9039571146150912,10.045661399878526,-0.1416082689238751,-1.3861259709055829,10.31165136480564,0.6920994652724844,1.3453077523580408,9.384219394888529,3.0515717297065548,3.123957936356707,0.8677040658346037,1.2662934093940548,-0.6821795207698171,0.7015321312881098,3.513243140243903,3.1528007693407014,0.4406440548780487,-2.721204895574856,-9.129583524114771,3.3655102585906094,-13.62374974562475,1.6768764999368453,-24.824808044519585,33.12447958786354,36.38323299487824,39.73783209033456,1577395823.0,-27.691512678184164,-51.12557281155479,5.02505
39332,1577395823.74,-0.7604218053306021,-1.2918177835604037,9.363313926733994,-0.8622629686309063,-0.5218191715891767,11.930131687071263,1.235583242127953,-1.5444936514505518,10.588502829947124,0.3355072765815549,0.8351395769817074,0.8982216439596037,1.1442230968940548,-0.9873553020198172,0.6099793969131098,3.421690405868903,3.946257800590701,3.0041206173780486,-2.391361877929418,-9.129583524114771,2.6569817830978484,-13.334804894179896,0.6097732727043083,-20.40395181741336,33.17240243208434,36.479078683319855,39.68990924611376,1577395823.0,-27.691512678184164,-51.12557281155479,5.02505
39333,1577395823.75,-0.8478101659263052,-0.0432416177889199,9.81222673801329,-0.0602054124785631,-0.8354595890696459,10.167999265196263,0.3952184594131099,-1.7108906668314117,10.54540720006431,0.9000824718940548,-0.6449629620807926,0.9287392220846038,2.0444916515815548,2.720530440167683,0.3048036156631097,-0.2404189691310974,0.1163017459032009,-0.0781547732469513,-3.3808909308657284,-9.859950206043958,2.3027175453514714,-13.479277319902325,-1.2957682044966523,-23.294511658213583,33.10051816575314,36.43115583909905,39.76179351244496,1577395823.0,-27.691512678184164,-51.12557281155479,5.02505
39334,1577395823.76,-0.2696104649985709,-1.8951566019197787,8.515766539038681,1.1009823926972175,-2.238461761921208,8.197571298887672,0.7543487084365469,-2.684133641684926,8.677929905142436,0.2744721203315549,-0.6602217511432926,0.4404579720846037,0.3812836437690549,-1.2620135051448171,0.3963563500381097,0.8276962652439026,1.8710624880907007,0.4406440548780487,-3.3808909308657284,-9.859950206043958,2.3027175453514714,-13.62374974562475,-2.591536408993305,-23.46454459002536,33.17240243208434,36.57492437176146,39.68990924611376,1577395823.0,-27.691512678184164,-51.12557281155479,5.02505
39335,1577395823.77,-0.5521262608970083,0.7073406026700639,9.301064683569932,-0.3499038133574689,0.1916529231373848,11.60212605962986,1.589925087831078,-1.7719428091653957,9.144799228872904,5.492977979706555,2.879817311356707,-0.2004111685403963,-0.0764800281059451,-5.320851395769817,0.2742860375381097,2.170469702743903,2.7560722537157014,-1.3293754763719514,-3.3808909308657284,-10.225133547008545,2.6569817830978484,-13.161437983312986,-1.981763136288998,-25.504939771766697,33.02863389942193,36.52700152754066,39.64198640189295,1577395823.0,-27.691512678184164,-51.12557281155479,5.02505
39336,1577395823.78,-0.146309079500524,-1.3588554300447788,8.096781248511338,0.3300494581269051,-1.0222073185618328,9.44973876714939,1.6066844994521716,-0.0002335806497714,9.137616623892434,-0.488467332793445,-3.0863692120807924,-0.9023154654153962,2.0292328625190548,1.9118146198551829,-2.1671202124618905,2.841856421493903,1.6879570193407012,-0.2002250857469513,-3.793194702922525,-8.125329336462148,2.21415148591487,-13.045860042735043,0.7622165908803841,-26.185071499013805,33.148441009973936,36.52700152754066,39.73783209033456,1577395823.0,-27.691512678184164,-51.12557281155479,5.02505
39337,1577395823.79,-0.9280159215415396,-1.2415395486971226,9.574003672827743,0.1684408460663587,-1.8051112614329268,7.761826596739233,-0.912015647032202,-2.1657889822610987,9.169938346304544,0.5491303234565549,-1.0569502667682926,-0.9328330435403964,0.3355072765815547,-3.810231278582317,-1.0227110327743902,0.5682968511814026,-1.0128486447217988,-0.2612602419969513,-3.215969422043012,-8.216625171703297,2.47984966422466,-13.045860042735043,0.7622165908803841,-79.91547795153564,33.17240243208434,36.550962949651066,39.57010213556175,1577395823.0,-27.691512678184164,-51.12557281155479,5.02505
39338,1577395823.8,-0.3270713048423209,-1.4234988748689974,10.270716355933212,-0.2493473436309063,-0.3661960636790204,11.458473960020484,0.6944936669326407,-2.459078685630239,10.81355778600181,-5.890078660918445,-5.878727610518292,-1.5126670279153962,-0.6257964343559451,-2.360646317644817,-1.6788389624618902,-1.1559463128810974,-2.7676093869092986,0.4406440548780487,-3.215969422043012,-8.216625171703297,2.47984966422466,-13.045860042735043,-2.896423045345459,-82.6360048605241,33.12447958786354,36.52700152754066,39.546140713451344,1577395823.0,-27.691512678184164,-51.12557281155479,5.02505
39339,1577395823.81,-0.1810250035727896,0.2955379171231889,10.366484422339465,0.7322753370331551,-0.7564509342844892,9.172011374571264,0.3593054345107657,-2.370493224204458,10.993122910513527,4.791073682831555,-3.803532298018293,-1.1159385122903962,0.4118012218940549,0.4774884479801829,-1.0990049780868902,-0.9118056878810974,-4.537628918159299,-1.4819633669969514,-1.5667543338158256,-8.946991853632479,1.7713211887318916,-13.045860042735043,-4.115969590754073,-83.3161365877712,33.17240243208434,36.57492437176146,39.64198640189295,1577395823.0,-27.691512678184164,-51.12557281155479,5.02505
39340,1577395823.82,-0.5940247899497427,-0.1066879617830605,10.044464299048446,0.2749828199433113,-0.7516625309641766,8.884707175352514,0.2036823266006094,-0.0050219839700831,9.659552585806496,-0.9309722156059452,-2.3386885480182924,-1.802584020102896,-0.5342436999809451,-4.802052567644817,-2.1060850562118905,-1.4306045160060974,-5.849884777534299,-1.4514457888719514,-3.628273194099808,-9.038287688873623,1.1513587726757284,-13.62374974562475,-4.420856227106227,-86.03666349675964,33.148441009973936,36.52700152754066,39.64198640189295,1577395823.0,-27.691512678184164,-51.12557281155479,5.02505
39341,1577395823.83,-0.4395987828696646,-1.6150350076814974,9.004183677710557,-0.0913300340605944,-1.2795839970286298,9.72507195806736,-0.7659693457626708,-0.7532100027689111,10.48196085607017,-4.547305223418445,-1.7283369855182926,-1.878877965415396,0.1066254406440549,-3.779713700457317,-2.4875547827743905,-3.139588891006097,-10.8089912228468,-0.7495414919969512,-3.5458124396884485,-8.216625171703297,1.4170569509855149,-13.161437983312986,-3.506196318049766,-56.11086749788672,33.17240243208434,36.64680863809267,39.68990924611376,1577395823.0,-27.691512678184164,-51.12557281155479,5.02505
39342,1577395823.84,-1.1027926427329455,-0.9446585428377476,9.839760057105089,-1.3434975023223126,-0.0070658146555829,10.007587753965796,-0.1530537207626708,0.8137949838033535,10.28443921910728,-0.4579497546684451,-1.6673018292682926,-1.1769736685403962,-1.0530425281059452,-4.283253739519817,-2.4722959937118905,-4.177186547256097,-14.6084296994093,0.7458198361280487,-3.5458124396884485,-8.216625171703297,1.4170569509855149,-13.62374974562475,-4.420856227106227,-24.824808044519585,33.02863389942193,36.57492437176146,39.68990924611376,1577395823.0,-27.691512678184164,-51.12557281155479,5.02505
39343,1577395823.85,-0.4252335729087271,-0.2335806497713413,9.159806785620711,-1.2836424608184065,0.0336356135670723,10.862317746641578,1.1158731591201407,-1.5349168448099269,10.85904761754478,0.1829193859565548,-4.169743235518292,-1.3295615591653962,0.4728363781440549,-5.015675614519817,-1.7703916968368902,-4.970643578506097,-14.3337714962843,1.1730659298780486,-3.5458124396884485,-9.312175194597067,3.542642377463798,-13.62374974562475,1.0671032272325378,-26.185071499013805,33.12447958786354,36.57492437176146,39.64198640189295,1577395823.0,-27.691512678184164,-51.12557281155479,5.02505
39344,1577395823.86,-0.0768772313559927,-0.3987805643221226,9.973835350073838,0.0427452589081551,-0.5050597599680829,10.993998837950173,0.4454966942763906,-2.411194652427114,10.578926023306495,0.5186127453315549,-7.099430735518292,-1.0701621451028962,-0.2901030749809451,-1.4146013957698171,-1.8619444312118905,-8.480165062881097,-16.2258613400343,-0.2002250857469513,-3.298430176454371,-8.12532933646215,2.214151485914874,-13.161437983312986,0.457329954528231,-14.622832135812905,33.24428669841555,36.38323299487824,39.68990924611376,1577395823.0,-27.691512678184164,-51.12557281155479,5.02505
39345,1577395823.87,-0.6239523107016959,-2.3021708841463413,9.30345888523009,0.1780176527069837,-1.9068648319895671,9.662822714903294,-0.5564767004989994,-0.3138739981302398,9.92052056676353,-3.601260301543445,-3.315251048018293,-1.4821494497903962,0.4270600109565548,-4.344288895769817,-1.6940977515243905,-5.199525414443597,-16.6073310665968,1.3866889767530486,-3.215969422043012,-8.946991853632479,2.8341139019710444,-13.045860042735043,-3.81108295440192,-15.302963863060016,32.83694252253871,36.550962949651066,39.64198640189295,1577395823.0,-27.691512678184164,-51.12557281155479,5.02505
39346,1577395823.88,-1.1865897008384143,-0.9087455179354038,10.747162486304306,-0.7856485155059064,-1.1036101750071454,10.54149472418064,0.1988939232802969,-0.7975027334818018,10.193459556021342,-2.289004442168445,-0.6907393292682926,-1.1769736685403962,0.1371430187690548,-4.649464677019817,-1.8924620093368905,-4.451844750381097,-17.2939765744093,0.2575385861280487,-3.215969422043012,-8.946991853632479,2.8341139019710444,-13.392593864468866,-0.7622165908803841,-15.302963863060016,33.12447958786354,36.38323299487824,39.64198640189295,1577395823.0,-27.691512678184164,-51.12557281155479,5.02505
39347,1577395823.89,-0.8035174352134146,0.1470974141935014,10.301840977515244,-0.6515732225371564,0.1796819148366035,11.666769504454075,0.8716645897842031,3.4091095834127283,10.13121031285728,1.4951752453315548,-4.291813548018292,-1.5431846060403962,-0.1069976062309451,-4.069630692644817,-2.6248838843368905,-2.315614281631097,-14.9441230587843,2.0885932736280486,-3.3808909308657284,-8.034033501221,2.3027175453514714,-12.930282102157102,-4.420856227106227,-12.582436954071568,33.22032527630515,36.57492437176146,39.68990924611376,1577395823.0,-27.691512678184164,-51.12557281155479,5.02505
39348,1577395823.9,-0.4695263036216178,-0.8488904764314975,10.438310472144147,-1.0849237230254376,-0.0489643437083178,10.760564176084936,-0.2595956946396244,-2.582380071128286,9.008329734244,0.8543061047065548,-7.114689524580792,-0.9023154654153962,0.5643891125190549,-4.039113114519817,-1.2210752905868902,-4.573915062881097,-6.2160957150343,-0.4596244998094514,-3.215969422043011,-9.129583524114771,2.4798496642246635,-12.930282102157102,-2.896423045345459,-23.46454459002536,33.148441009973936,36.69473148231347,39.66594782400336,1577395823.0,-27.691512678184164,-51.12557281155479,5.02505
39349,1577395823.91,-0.2145438268149771,-1.0954932474275914,9.650618125952745,-0.5079211229277814,-1.292752106159489,7.95575693121189,-0.2200913672470458,1.5224786752096031,9.45365124303306,-1.2514067859184452,-1.7893721417682926,-0.2004111685403963,0.0455902843940548,-2.848927567644817,-0.8853819312118902,2.231504858993903,-2.1572578244092986,2.5463569455030486,-2.556283386752138,-9.312175194597067,2.47984966422466,-12.699126221001222,1.0671032272325378,-26.185071499013805,33.12447958786354,36.57492437176146,39.88160062299697,1577395823.0,-27.691512678184164,-51.12557281155479,5.02505
39350,1577395823.92,-0.5664914708579459,-0.8177658548494663,9.631464512671494,-0.5725645677520002,-0.5697032047923017,9.473680783750952,0.6178792138076407,-2.435136669028677,11.115227195181498,-2.380557176543445,-4.291813548018292,-0.0173056997903963,0.1676605968940548,-6.541554520769817,-0.3360655249618902,-1.7052627191310974,-3.8662421994092986,1.8749702267530488,-2.556283386752138,-9.312175194597067,2.47984966422466,-12.12123651811152,1.0671032272325378,-23.46454459002536,33.02863389942193,36.38323299487824,39.68990924611376,1577395823.0,-27.691512678184164,-51.12557281155479,5.02505
39351,1577395823.93,-0.5425494542563833,-0.2982240945955606,8.973059056128525,0.3444146680878426,0.328122417766291,10.907807578184546,0.4191604760146719,1.9821653939596031,9.56857292272056,-0.244326707793445,-5.878727610518292,0.2726112923971036,-1.8159819812309448,-4.832570145769817,-0.8243467749618902,-0.0267959222560973,-5.056427746284299,0.9899604611280488,-2.968587158808934,-9.220879359355925,2.391283604788062,-12.699126221001222,0.457329954528231,-23.46454459002536,33.07655674364274,36.52700152754066,39.64198640189295,1577395823.0,-27.691512678184164,-51.12557281155479,5.02505
39352,1577395823.94,-0.3965031529868521,-0.3915979593416538,10.263533750952744,-0.6228428026152814,-0.8043349674876141,10.487625186827124,0.6035140038467032,-3.3664811148294578,10.94883017980064,0.7627533703315549,-5.848210032393292,-0.0783408560403963,0.1829193859565548,-6.129567216082317,-0.4123594702743902,-7.015321312881097,-3.759430675971799,-1.802397937309452,-2.556283386752138,-8.946991853632479,2.125585426478283,-12.930282102157104,0.7622165908803844,-26.185071499013805,33.17240243208434,36.45511726120945,39.59406355767214,1577395823.0,-27.691512678184164,-51.12557281155479,5.02505
39353,1577395823.95,-0.4395987828696646,-0.939870139517435,11.771880796851182,-0.6874862474395002,-0.3685902653391767,11.214265390684544,0.4071894677138907,4.045967225014291,10.049807456411967,-2.929873582793445,-7.190983469893292,-0.2004111685403963,-0.0764800281059451,-6.297413895769817,-0.6717588843368902,0.3394150152439026,-3.6526191525342986,-0.8105766482469513,-3.3808909308657284,-8.764400183150183,0.8856605943659495,-13.045860042735043,1.0671032272325378,-23.46454459002536,33.17240243208434,36.479078683319855,39.64198640189295,1577395823.0,-27.691512678184164,-51.12557281155479,5.02505
39354,1577395823.96,-0.3438307164634146,-1.2487221536775912,9.880461485327745,-0.4001820482207501,-1.366972357624333,9.210318601133764,-0.1626305274032958,0.9861775033346034,9.791233677115091,0.1829193859565548,-4.322331126143292,0.8982216439596037,0.6559418468940549,-4.985158036394817,-0.7938291968368902,2.536680640243903,-1.3027656369092988,2.7599799923780486,-3.3808909308657284,-8.764400183150183,0.8856605943659495,-13.392593864468866,0.7622165908803841,-26.185071499013805,32.83694252253871,36.52700152754066,39.83367777877617,1577395823.0,-27.691512678184164,-51.12557281155479,5.02505
39355,1577395823.97,0.0260734400307259,-0.4622269083162632,10.920742106665632,-1.9803551439238751,-0.0070658146555829,10.263767331602514,-0.2871290137314208,-2.1837454947122703,10.605262241568218,-1.465029832793445,-7.511418040205793,0.5014931283346037,-0.1680327624809451,-7.396046708269817,0.4268739281631097,-1.7052627191310974,-1.8825996212842988,1.8444526486280488,-3.3808909308657284,-8.946991853632477,1.417056950985522,-12.467970339845342,0.7622165908803841,-77.87508276979432,33.12447958786354,36.28738730643664,39.64198640189295,1577395823.0,-27.691512678184164,-51.12557281155479,5.02505
39356,1577395823.98,0.429496419767054,-1.63897702428306,9.595551487769152,0.8878984449433115,-1.034178326862614,8.481284195616187,0.2779025780654532,-1.1650126883157867,9.588923636831888,-0.7936431140434451,-4.047672923018292,0.5930458627096037,0.5033539562690549,-3.123585770769817,-0.5039122046493902,0.1715683355564026,-1.6537177853467986,1.8597114376905488,-3.0510479132202923,-8.399216842185593,2.6569817830978484,-13.1325434981685,1.7530981590248835,-49.13951729360383,32.88486536675951,36.57492437176147,39.71387066822416,1577395823.0,-27.691512678184164,-51.12557281155479,5.02505
39357,1577395823.99,0.1565574305092415,-1.7084088724275912,9.605128294409775,0.6029884473847176,-1.398096979206364,10.029135568907202,-0.1722073340439208,-2.545269945395864,10.004317624868998,-2.044863817168445,-1.8504072980182928,0.8677040658346037,-0.9004546374809451,-7.670704911394817,0.6404969750381098,-4.024598656631097,-0.6618964962842988,-0.2917778201219513,-2.391361877929418,-8.399216842185593,2.6569817830978484,-13.161437983312986,1.6768764999368453,-24.824808044519585,32.88486536675951,36.57492437176146,39.97744631143858,1577395823.0,-27.691512678184164,-51.12557281155479,5.02505
39358,1577395824.0,0.6282151575600228,-2.1824608011385287,9.408803758276964,0.6532666822479989,-1.1634652165110515,9.677187924864231,0.7447719017959219,0.0213142342916346,9.35070057164634,-3.357119676543445,-3.864567454268293,1.0508095345846038,-0.2901030749809451,-4.374806473894817,0.0301454125381097,1.1939072027439026,-0.7839668087842988,1.6918647580030486,-2.391361877929418,-8.399216842185593,2.6569817830978484,-13.161437983312986,2.286649772641152,-26.185071499013805,33.12447958786354,36.57492437176146,39.73783209033456,1577395824.0,-27.691541254272,-51.12558306943844,3.1982496
39359,1577395824.01,0.5767398218666634,0.0130221212247519,11.196075297583604,0.649675379757765,-0.2895816105540209,10.02434716558689,1.1314354699111562,-2.802646623862661,10.26528560582603,1.0374115734565548,-7.465641673018292,0.7456337533346038,-0.6868315906059452,-5.717579911394817,0.3505799828506097,-1.4153457269435972,1.5658867068407014,-1.7718803591844516,-2.721204895574856,-9.494766865079368,2.47984966422466,-13.62374974562475,16.921208317544526,-20.74401768103691,33.12447958786354,36.52700152754066,39.68990924611376,1577395824.0,-27.691541254272,-51.12558306943844,3.1982496
39360,1577395824.02,1.494916158536585,-0.2192154398104038,10.670548033179308,1.6133415479706552,-0.3638018620188642,10.136874643614233,1.570771474549828,2.841683789955697,9.685888804068217,-2.289004442168445,-4.596989329268292,0.5014931283346037,-0.9920073718559452,-2.299611161394817,-0.5496885718368902,2.506163062118903,3.4579765505907014,-0.6579887576219513,-3.0510479132202923,-9.859950206043958,3.0112460208442324,-13.392593864468866,16.921208317544526,-21.424149408284023,33.02863389942193,36.52700152754066,39.68990924611376,1577395824.0,-27.691541254272,-51.12558306943844,3.1982496
39361,1577395824.03,1.166910531095179,-1.0428208109041537,9.913980308569933,2.2861122144745614,-2.461122516315739,7.989275754454077,0.7232240868545157,0.4881835580221034,9.673917795767435,-1.4650298327934452,-3.010075266768293,0.5014931283346037,-0.7783843249809451,-3.062550614519817,0.4573915062881097,0.4004501714939026,4.617644519340701,2.1496284298780486,-2.061518860283982,-6.938483478327226,2.6569817830978484,-13.334804894179896,15.85410509031199,-16.323161453930688,33.12447958786354,36.52700152754066,39.546140713451344,1577395824.0,-27.691541254272,-51.12558306943844,3.1982496
39362,1577395824.04,0.7527136438881478,-1.2319627420564976,10.002565769995712,0.3132900465058114,-0.4954829533274579,10.998787241270485,1.4821860131240467,-1.0225576895364892,9.156770237173683,-3.296084520293445,-0.4771162823932927,0.2268349252096037,-1.3887358874809452,-7.396046708269817,-0.1529600562118902,2.231504858993903,5.105925769340701,3.1872260861280486,-2.061518860283982,-8.764400183150183,3.0112460208442324,-13.392593864468866,15.701661772135914,-13.942700408565791,33.22032527630515,36.71869290442388,39.73783209033456,1577395824.0,-27.691541254272,-51.12558306943844,3.1982496
39363,1577395824.05,0.947841079190882,0.1985727498868612,10.230014927710556,1.4026518018769052,-0.5278046757395672,9.429388053038062,1.197276015565453,-2.189730998862661,10.42450001622642,-0.1069976062309452,-4.062931712080792,-0.6429160513528962,-0.5647612781059451,-2.223317216082317,-1.0379698218368902,0.0037216558689026,3.8089286990282014,-1.3141166873094514,-2.638744141163497,-8.673104347909035,2.391283604788062,-13.24812143874644,15.168110158519642,-15.472996794871795,33.00467247731153,36.43115583909905,39.80971635666576,1577395824.0,-27.691541254272,-51.12558306943844,3.1982496
39364,1577395824.06,0.4007659998451791,0.1255495992520951,8.748004100073837,0.6556608839081551,0.1294036799733223,10.414602036192358,1.7216061791396715,-2.2962729727396143,9.515900486197122,-0.8851958484184451,-0.2329756573932926,-0.6276572622903963,-1.7549468249809452,-5.961720536394817,-1.5872862280868902,-3.658387719131097,0.1925956912157012,-3.923369616996952,-3.5458124396884485,-8.216625171703297,2.47984966422466,-20.789582061457065,1.6768764999368453,-24.14467631727247,33.31617096474676,36.28738730643664,39.68990924611376,1577395824.0,-27.691541254272,-51.12558306943844,3.1982496
39365,1577395824.07,0.3313341517006478,-0.7363629984041538,7.972282762183212,1.057886762814405,-1.441192609089177,9.665216916563452,1.3145918969131092,-0.6730042471536768,7.8303825174471235,-2.716250535918445,-1.4231612042682926,-0.7497275747903963,-0.7783843249809451,-2.269093583269817,-2.5028135718368905,-0.2709365472560974,2.3288261599657014,-2.8857719607469514,-2.391361877929418,-8.399216842185593,1.2399248321123264,-21.020737942612943,2.896423045345459,-25.504939771766697,33.12447958786354,36.67077006020308,39.68990924611376,1577395824.0,-27.691541254272,-51.12558306943844,3.1982496
39366,1577395824.08,0.1960617579018197,-1.0871135416170443,9.323809599341416,2.003596418576124,-2.504218146198552,7.369177524473609,0.9626442528701408,0.2870706185689784,8.701871921743999,-3.555483934355945,-4.215519602705792,-1.5889609732278962,-0.4121733874809451,-2.482716630144817,-2.8385069312118905,1.2549423589939026,4.953337878715701,0.0744331173780487,-3.5458124396884485,-10.042541876526249,3.188378139717421,-12.699126221001222,2.896423045345459,-26.185071499013805,33.10051816575314,36.52700152754066,39.64198640189295,1577395824.0,-27.691541254272,-51.12558306943844,3.1982496
39367,1577395824.09,0.410342806485804,-0.2694936746736851,9.672165940894152,0.5634841199921394,0.1964413264576977,10.602546866514624,1.418739669129906,-2.6601916250833644,10.307184134878764,-2.838320848418445,-6.397526438643292,-1.7262900747903962,-2.777285692168445,-7.579152177019816,-2.9300596655868905,-1.2627578363185972,4.236174792778201,-0.2917778201219513,-3.3808909308657284,-7.303666819291819,1.9484533076050947,-12.583548280423283,0.7622165908803844,-79.5754120879121,33.41201665318837,36.52700152754066,39.59406355767214,1577395824.0,-27.691541254272,-51.12558306943844,3.1982496
39368,1577395824.1,0.4821688562904915,0.4176422017911576,9.320218296851182,0.9022636549042488,0.241931158000666,9.930973300840796,1.5875308861709216,-1.4008415518411768,9.879819138540872,-1.8007231921684452,-6.000797923018292,-1.817842809165396,-1.3582183093559452,-4.069630692644817,-2.9300596655868905,-3.597352562881097,2.6034843630907014,-3.2825004763719514,-3.7107339485111663,-9.129583524114771,3.3655102585906094,-13.161437983312986,3.5061963180497666,-69.71350204282896,32.98071105520113,36.479078683319855,39.68990924611376,1577395824.0,-27.691541254272,-51.12558306943844,3.1982496
39369,1577395824.11,0.170922640470179,0.3601813619474076,10.39282064060118,1.352373567013624,-0.6080104313548017,10.230248508360328,1.5564062645888903,1.0388499398580409,8.922138474478372,-3.235049364043445,-6.153385813643292,-1.817842809165396,-1.1751128406059452,-8.006398270769816,-3.0826475562118905,-1.5221572503810974,2.8171074099657014,-2.1533500857469514,-2.721204895574856,-7.668850160256409,0.8856605943659495,-12.525759310134312,3.0488663635215367,-69.37343617920541,33.02863389942193,36.479078683319855,39.88160062299697,1577395824.0,-27.691541254272,-51.12558306943844,3.1982496
39370,1577395824.12,0.5635717127358041,-0.4287080850740761,8.706105571021103,1.6396777662323738,-0.8043349674876141,8.927802805235327,0.9075776146865469,-0.0002335806497714,8.108109910025249,-4.882998582793445,-5.543034251143292,-2.367159215415396,-2.395815965605945,-6.450001786394817,-3.4793760718368905,-0.6676650628810974,6.235076159965701,0.1965034298780487,-2.721204895574856,-10.225133547008545,2.3027175453514714,-12.467970339845342,2.896423045345459,-68.35323858833475,33.07655674364274,36.57492437176146,39.68990924611376,1577395824.0,-27.691541254272,-51.12558306943844,3.1982496
39371,1577395824.13,0.850875911954554,0.5086218648770952,8.26676956638243,0.8675477308319832,0.1497543940846508,7.979698947813453,1.2475542504287342,-1.4080241568216456,7.707081131949076,-4.120059129668445,-8.228581126143293,-2.794405309165396,-3.006167528105945,-7.228200028582316,-3.8150694312118905,-0.0267959222560973,11.4840995974657,-0.3680717654344513,-3.3808909308657284,-9.129583524114771,1.9484533076050947,-12.467970339845342,1.6768764999368448,-77.1949510425472,33.31617096474676,36.62284721598228,39.76179351244496,1577395824.0,-27.691541254272,-51.12558306943844,3.1982496
39372,1577395824.14,1.3512640589272102,0.5158044698575639,7.8382074692144625,1.0267621412323735,0.557965777141291,8.20475390386814,0.6466096337295156,-0.780743321860708,8.852706626333841,-1.1903716296684452,-7.709782298018292,-2.672334996665396,-2.670474168730945,-6.511036942644817,-3.7845518530868905,0.7666611089939026,11.9418632693407,-2.1228325076219514,-3.5458124396884485,-8.58180851266789,1.7713211887318916,-12.3523923992674,3.5061963180497666,-66.99297513384053,33.02863389942193,36.52700152754066,39.68990924611376,1577395824.0,-27.691541254272,-51.12558306943844,3.1982496
39373,1577395824.15,1.482945150235804,0.1830104390958451,7.996224778784775,0.9381766798065926,0.462197710735041,7.429032565977515,-0.595981027891577,-2.7846901114114893,9.77208006383384,-2.105898973418445,-7.343571360518292,-3.130098668540396,-2.639956590605945,-5.748097489519817,-3.8761045874618905,-3.322694359756097,8.2187187380907,-4.381133288871951,-3.5458124396884485,-8.58180851266789,1.7713211887318916,-12.467970339845342,1.0671032272325378,-69.71350204282896,33.12447958786354,36.33531015065744,39.68990924611376,1577395824.0,-27.691541254272,-51.12558306943844,3.1982496
39374,1577395824.16,0.2499312952553353,-0.2216096414705606,9.042490904273055,0.0008467298554212,-0.0465701420481615,6.984908158018531,0.0600302269912349,1.3058034249654626,7.76214777013267,-5.859561082793445,-2.3234297589557924,-2.885958043540396,-3.845400926543445,-5.061451981707317,-4.1202452124618905,-1.6137099847560972,5.350066394340701,-3.6944877810594514,-2.061518860283982,-9.859950206043958,3.0112460208442324,-13.045860042735043,15.396775135783756,-69.03337031558186,33.12447958786354,36.62284721598228,39.66594782400336,1577395824.0,-27.691541254272,-51.12558306943844,3.1982496
39375,1577395824.17,0.3217573450600228,-0.7962180399080601,7.577239488257431,-0.0817532274199688,0.194047124797541,7.527194834043922,-0.088410275938452,-2.1933223013528957,7.950092600454935,-5.188174364043445,-3.559391673018293,-2.550264684165396,-4.593081590605945,-5.839650223894817,-3.7235166968368905,-2.987001000381097,8.1576835818407,-1.878691882621952,-3.3808909308657284,-9.494766865079365,2.6569817830978484,-13.392593864468866,15.396775135783756,-69.71350204282896,33.17240243208434,36.479078683319855,39.68990924611376,1577395824.0,-27.691541254272,-51.12558306943844,3.1982496
39376,1577395824.18,0.6353977625404915,0.2476538839200638,7.912427720679306,-0.3211733934355939,1.0032872859303534,9.344393894102511,0.5747835839248282,0.6078936410299158,8.361895286001811,-1.0683013171684452,-5.939762766768292,-2.489229527915396,-4.806704637480945,-6.236378739519817,-2.9910948218368905,-2.681825219131097,7.211638659965701,-2.6721489138719514,-2.556283386752138,-8.58180851266789,2.8341139019710444,-13.62374974562475,17.53098159024883,-69.71350204282896,33.31617096474676,36.67077006020308,39.73783209033456,1577395824.0,-27.691541254272,-51.12558306943844,3.1982496
39377,1577395824.19,0.2966182276283822,-0.2718878763338413,8.993409770239854,0.3085016431854988,0.2682673762623848,8.365165415098609,-0.739633127500952,-0.1821929068216455,9.86305972691978,-4.257388231230945,-3.5899092511432924,-2.443453160727896,-4.409976121855945,-1.7808123332698171,-4.0592100562118905,-3.383729516006097,4.068328113090701,-2.7026664919969514,-3.2159694220430115,-8.764400183150183,2.4798496642246564,-13.62374974562475,17.53098159024883,-69.71350204282896,33.22032527630515,36.57492437176146,39.73783209033456,1577395824.0,-27.691541254272,-51.12558306943844,3.1982496
39378,1577395824.2,0.1158560022865843,-0.3078009012361851,10.768710301245711,0.1205568128632337,0.1294036799733228,8.595008774473609,-0.5648564063095463,0.1290533089986663,8.6360313760897,-6.103701707793445,-2.521794016768293,-2.245088902915396,-4.654116746855945,-4.710499833269817,-2.7927305640243905,-4.100892601943597,3.1680595584032014,-4.884673327934451,-3.8756554573338846,-8.58180851266789,3.188378139717421,-13.19033246845747,15.168110158519642,-67.50307392927587,33.17240243208434,36.550962949651066,39.66594782400336,1577395824.0,-27.691541254272,-51.12558306943844,3.1982496
39379,1577395824.21,1.061565658048304,-0.8584672830721225,8.999395274390245,0.8088897901581551,0.3520644343678535,8.448962473204077,0.0983374535537344,2.2287681649556967,8.53427780553306,-4.638857957793445,-2.857487376143293,-2.031465856040396,-4.318423387480945,-1.6892595988948171,-2.8079893530868905,-1.4916396722560974,6.479216784965701,0.8984077267530487,-2.886126404397574,-7.851441830738705,2.47984966422466,-13.62374974562475,16.00654840848806,-68.35323858833475,33.17240243208434,36.38323299487824,39.546140713451344,1577395824.0,-27.691541254272,-51.12558306943844,3.1982496
39380,1577395824.22,1.1405743128334602,-0.3006182962557163,8.824618553198837,0.6101710523651863,0.7806265315358222,8.302916171934546,0.2012881249404532,-2.2890903677591456,8.819187803091655,-3.601260301543445,-4.322331126143292,-1.970430699790396,-4.745669481230945,-2.024952958269817,-1.8314268530868905,-5.550477562881097,5.044890613090701,0.0744331173780487,-3.215969422043012,-7.851441830738705,2.8341139019710444,-13.392593864468866,16.616321681192368,-68.35323858833475,32.98071105520113,36.57492437176146,39.68990924611376,1577395824.0,-27.691541254272,-51.12558306943844,3.1982496
39381,1577395824.23,0.9909367090736948,0.3913059835294388,8.382888346900009,0.9381766798065926,1.209188628703791,8.233484323790014,1.022499294374047,-0.2803551748880518,7.890237558951029,-5.020327684355945,0.5299637957317074,-0.9938681997903962,-5.783267137480945,-2.269093583269817,-1.5872862280868902,-3.444764672256097,4.159880847465701,-1.5735161013719514,-4.9476452646815545,-8.490512677426738,2.922679961407635,-13.392593864468866,16.616321681192368,-68.35323858833475,33.148441009973936,36.479078683319855,39.73783209033456,1577395824.0,-27.691541254272,-51.12558306943844,3.1982496
39382,1577395824.24,0.4845630579506478,0.1854046407560013,8.3505666244879,0.7023478162812019,0.3724151484791816,8.330449491026343,0.4335256859756094,-0.2121204275735987,8.407385117544779,-5.401797410918445,-1.5757490948932926,-1.1769736685403962,-5.584902879668445,-3.032033036394817,-1.3584043921493902,-4.421327172256097,4.480315417778201,-2.2601616091844514,-5.359949036738351,-7.668850160256409,2.3027175453514714,-13.508171805046809,16.00654840848806,-68.35323858833475,33.17240243208434,36.50304010543026,39.76179351244496,1577395824.0,-27.691541254272,-51.12558306943844,3.1982496
39383,1577395824.25,0.3002095301186165,-0.4753950174471226,10.01693097995665,-0.3331444017363751,0.0432124202076973,10.665993210508764,0.1725577050185782,1.1106759896627283,10.203036362661967,-6.744570848418445,-4.444401438643292,-1.2685264029153962,-5.142397996855945,-2.757374833269817,-1.4652159155868902,-6.130311547256097,2.6645195193407014,-0.5664360232469513,-5.359949036738351,-7.668850160256409,2.3027175453514714,-12.699126221001222,16.311435044840216,-66.31284340659342,33.17240243208434,36.33531015065744,39.64198640189295,1577395824.0,-27.691541254272,-51.12558306943844,3.1982496
39384,1577395824.26,-0.0301902989829459,-1.5096901346346223,10.167765684546492,0.1816089551972176,-0.8929204289133954,9.140886752989232,-0.6414708594345458,-0.3833058462747705,10.061778464712749,-7.049746629668445,0.3468583269817073,-0.6886924185403963,-5.600161668730945,-1.9334002238948167,-0.4886534155868902,-4.360292016006097,1.9626152224657007,1.6918647580030486,-3.3808909308657284,-8.399216842185593,2.3027175453514714,-13.62374974562475,18.75052813565745,-65.63271167934629,33.36409380896756,36.52700152754066,39.64198640189295,1577395824.0,-27.691541254272,-51.12558306943844,3.1982496
39385,1577395824.27,-0.4395987828696646,-0.2551284647127481,9.911586106909777,-0.6276312059355938,0.4586064082448066,10.020755863096657,0.0181316979385005,-0.3306334097513336,9.51111208287681,-6.653018114043445,0.7435868426067073,-0.0020469107278963,-6.271548387480945,-4.039113114519817,-0.5496885718368902,-4.787538109756097,4.297209949028201,0.6542671017530486,-3.2159694220430115,-8.764400183150183,2.1255854264782794,-13.045860042735043,17.530981590248835,-66.3128434065934,33.05259532153234,36.45511726120945,39.71387066822416,1577395824.0,-27.691541254272,-51.12558306943844,3.1982496
39386,1577395824.28,0.6353977625404915,-0.3485023294588413,9.327400901831652,0.1720321485565926,0.6992236750905098,9.34678809576267,0.0791838402724844,0.2008793588033534,8.601315452017436,-5.401797410918445,-6.519596751143292,0.3794228158346037,-6.729312059355945,-1.3840838176448171,0.0911805687881097,-4.818055687881097,6.357146472465701,0.6847846798780487,-2.556283386752138,-9.67735853556166,1.4170569509855149,-13.161437983312986,17.226094953896677,-69.71350204282896,33.31617096474676,36.479078683319855,39.88160062299697,1577395824.0,-27.691541254272,-51.12558306943844,3.1982496
39387,1577395824.29,0.6569455774818977,0.2332886739591264,9.6913195541754,0.4808841627167488,0.8931540095631659,8.47290448980564,0.3209982079482656,0.7108443124166347,8.060225876822123,-3.387637254668445,-3.498356516768293,0.4709755502096037,-5.874819871855945,-1.2620135051448171,0.0301454125381097,-4.238221703506097,7.333708972465701,2.0580756955030486,-2.556283386752138,-9.67735853556166,1.4170569509855149,-12.467970339845342,16.921208317544526,-66.31284340659342,33.12447958786354,36.479078683319855,39.45029502500974,1577395824.0,-27.691541254272,-51.12558306943844,3.1982496
39388,1577395824.3,1.387177083829554,-0.9446585428377476,9.327400901831652,1.8024834791229989,-0.4763293400462079,6.550360556700172,0.1869229149795157,1.000542713295541,7.267745127310405,-10.772891160918444,-2.247135813643293,1.0508095345846038,-5.935855028105945,-1.1094256145198171,-0.2445127905868902,-2.712342797256097,10.6906425662157,4.346894054878049,-3.215969422043012,-9.312175194597067,2.8341139019710444,-12.467970339845342,16.921208317544526,-67.67310686108763,33.02863389942193,36.57492437176146,39.546140713451344,1577395824.0,-27.691541254272,-51.12558306943844,3.1982496
39389,1577395824.31,1.99650140633932,-1.1577424905916538,9.204099516333605,1.612144447140577,-0.3015526188548017,7.091450131895484,-0.0117958228134525,-0.6706100454935211,7.236620505728373,-7.583804246855944,0.5604813738567074,1.1881386361471038,-6.988711473418445,-1.3230486613948171,0.8846376000381098,-2.101991234756097,15.1309501834032,3.3550727658155486,-3.29843017645437,-7.760145995497558,2.7455478425344384,-13.334804894179896,15.854105090311988,-68.35323858833475,33.19636385419474,36.550962949651066,39.61802497978255,1577395824.0,-27.691541254272,-51.12558306943844,3.1982496
39390,1577395824.32,2.5004808558022105,-1.016484592642435,9.336977708472276,1.48884306164253,0.6680990535084784,8.695565244200171,-1.4531052222275145,-2.459078685630239,12.259655588736186,-7.049746629668445,1.1403153582317074,1.5696083627096038,-6.881899949980945,1.3930157917301829,1.6170594750381098,-1.9188857660060967,13.3761894412157,2.4853217892530486,-3.3808909308657284,-7.303666819291819,3.7197744963369854,-13.565960775335776,15.549218453959831,-69.37343617920541,33.17240243208434,36.57492437176146,39.68990924611376,1577395824.0,-27.691541254272,-51.12558306943844,3.1982496
39391,1577395824.33,1.8492580042397104,0.3984885885099076,10.581962571753524,1.4098344068573738,0.1246152766530098,10.405025229551734,-1.218473459532202,-9.651260472739615,14.91961363316978,-4.272647020293445,1.1097977801067074,1.0202919564596038,-6.912417528105945,1.7592267292301829,2.441034084413109,-11.715028344131095,-3.4084785275342986,-9.81326219512195,-3.3808909308657284,-7.303666819291819,3.7197744963369854,-13.334804894179896,3.3537529998736897,-25.84500563539025,33.17240243208434,36.52700152754066,39.64198640189295,1577395824.0,-27.691541254272,-51.12558306943844,3.1982496
39392,1577395824.34,1.655327669767054,-0.9925425760408724,10.742374082983993,1.3164605421112805,-1.7141315983469891,11.216659592344705,0.677734255311547,-6.122207225669302,11.984322397818216,-9.399600145293444,1.7506669207317074,0.8371864877096037,-6.485171434355945,2.522166182355183,2.044305568788109,-13.698670922256095,-10.2444160275343,-15.88626024199695,-3.8756554573338846,-7.851441830738705,3.542642377463798,-13.334804894179896,3.3537529998736897,-25.84500563539025,33.17240243208434,36.57492437176146,39.64198640189295,1577395824.0,-27.691541254272,-51.12558306943844,3.1982496
39393,1577395824.35,1.6601160730873663,-3.329283396353373,11.774274998511338,2.058663056759717,-3.923979730671208,8.600994278623999,0.2216388390517818,3.4737530282369478,11.69462399693931,-8.194155809355944,5.153376881669208,0.9897743783346038,-6.225772020293445,1.4235333698551829,1.5407655297256098,-9.212586937881095,-13.8302314572218,-3.709746570121952,-3.463351685277089,-9.038287688873629,2.745547842534446,-13.47927731990232,4.649521204370343,-23.29451165821358,33.10051816575314,36.45511726120945,39.71387066822416,1577395824.0,-27.691541254272,-51.12558306943844,3.1982496
39394,1577395824.36,1.6864522913490851,-2.204008616079935,11.508518614233994,0.4090581129120613,-1.4986534489329266,10.17757607183689,-0.1410827124618895,0.9598412850728848,10.540618796743995,-5.554385301543445,4.131038014481708,0.2573525033346037,-7.339663621855945,2.186472822980183,1.6475770531631098,-9.548280297256095,-15.8596504025343,5.811737804878049,-5.030106019092914,-9.129583524114771,4.074038734083371,-13.334804894179896,6.097732727043072,-25.84500563539025,33.12447958786354,36.479078683319855,39.64198640189295,1577395824.0,-27.691541254272,-51.12558306943844,3.1982496
39395,1577395824.37,1.3919654871498666,-1.14098307897056,10.957852232398055,1.1009823926972175,-0.8498247990305828,9.983645737364233,2.104678444764672,6.071461829506479,10.9619982889315,-1.1598540515434452,7.640559498856708,0.1963173470846037,-6.210513231230945,5.787547041730183,0.7930848656631098,-8.052918969131097,-21.5969550900343,13.07492139862805,-5.030106019092914,-9.129583524114771,4.074038734083371,-13.103649013024016,3.0488663635215367,-23.80461045364892,33.12447958786354,36.52700152754066,39.68990924611376,1577395824.0,-27.691541254272,-51.12558306943844,3.1982496
39396,1577395824.38,0.8448904078041634,-0.1916821207186075,10.73758567966368,0.8041013868378426,-1.0054479069407392,9.588602463438452,1.051229714295922,-0.8669345816263331,13.784762046255716,-3.570742723418445,8.525569264481707,-0.0935996451028963,-6.210513231230945,4.627879072980183,0.8236024437881098,-12.874696312881095,-32.3391425900343,16.46237257050305,-3.545812439688448,-7.121075148809522,2.8341139019710404,-13.161437983312986,2.896423045345459,-25.504939771766697,33.17240243208434,36.57492437176146,39.73783209033456,1577395824.0,-27.691541254272,-51.12558306943844,3.1982496
39397,1577395824.39,0.7503194422279915,-1.2439337503572787,11.099110130347276,1.275759113888624,-0.520622070759099,12.946470291807591,0.0085548912978755,-9.375927281821646,15.458309006704935,-9.399600145293444,4.893977467606708,-1.0549033560403962,-5.706973192168445,4.398997237042683,-0.2292540015243902,-22.5640273675686,-56.2191474728468,2.3022163205030486,-3.0510479132202923,-8.034033501221,1.9484533076050947,-17.95792251729752,2.7439797271693824,-4.08079036348267,33.17240243208434,36.479078683319855,39.68990924611376,1577395824.0,-27.691541254272,-51.12558306943844,3.1982496
39398,1577395824.4,0.9729801966225228,-2.3500549173494663,11.38880853122618,2.903816242794874,-3.004606293171208,13.723388730528296,3.909906496522484,0.9957543099752284,10.69863610631431,-2.350039598418445,5.473811451981708,-0.6276572622903963,-5.050845262480945,7.771189619855183,-0.3055479468368902,-25.5089736566311,-63.0093086056593,-1.878691882621952,-5.030106019092914,-8.399216842185593,4.074038734083371,-12.988071072446076,0.9146599090564612,-1.3602634544942211,33.02863389942193,36.52700152754066,39.68990924611376,1577395824.0,-27.691541254272,-51.12558306943844,3.1982496
39399,1577395824.41,0.9681917933022104,-3.271822556509622,12.825329527319932,2.3172368360565927,-4.108333258503239,13.120049912168922,3.306567678163109,3.3181299203267907,8.452874949087748,-4.944033739043445,3.703791920731707,-1.1769736685403962,-4.104800340605945,2.552683760480183,-1.0684873999618902,-19.1002822503811,-45.3396308712843,1.6003120236280486,-5.030106019092914,-8.399216842185593,4.074038734083371,-13.450382834757836,0.6097732727043083,-1.3602634544942211,33.02863389942193,36.57492437176146,39.73783209033456,1577395824.0,-27.691541254272,-51.12558306943844,3.1982496
39400,1577395824.42,1.108252590421351,-2.3153389932772006,13.652526200903916,2.0478891492890146,-3.263180072468083,13.475588858702125,3.06355620965725,-0.104381352866568,8.683915409292826,-1.709170457793445,4.298884694169208,-2.016207066977896,-2.594180223418445,5.024607588605183,-1.4041807593368905,-4.695985375381097,-12.8078925900343,6.055878429878049,-3.7107339485111663,-7.851441830738706,3.5426423774638014,-12.95917658730159,0.6859949317923462,-1.1902305226824437,33.10051816575314,36.479078683319855,39.59406355767214,1577395824.0,-27.691541254272,-51.12558306943844,3.1982496
39401,1577395824.43,1.0974786829506478,-1.512084336294779,11.436692564429306,1.5750343214081552,-2.602380414264958,11.28848564214939,0.9626442528701408,-10.309665929282582,13.899683725943216,1.4036225109565548,5.412776295731708,-2.519747106040396,-1.4497710437309452,1.2709454792301829,-2.1366026343368905,-4.573915062881097,-2.6760566525342986,-0.9631645388719512,-2.2264403691067,-9.312175194597067,2.125585426478283,-13.103649013024016,0.6097732727043083,-3.40065863623556,33.17240243208434,36.479078683319855,39.73783209033456,1577395824.0,-27.691541254272,-51.12558306943844,3.1982496
39402,1577395824.44,0.5132934778725228,-1.0715512308260289,10.89081458591368,-0.1847038988066876,-0.938410260456364,13.335528061582984,2.7535070946670155,-3.704063548911489,12.75525533238853,-0.5800200671684451,6.358821217606708,-3.008028356040396,-0.9309722156059452,2.003367354230183,-2.3807432593368905,-9.121034203506095,-10.5495918087843,-8.31790086699695,-3.5458124396884485,-8.58180851266789,4.251170852956559,-13.103649013024016,0.6097732727043083,-3.40065863623556,33.12447958786354,36.52700152754066,39.97744631143858,1577395824.0,-27.691541254272,-51.12558306943844,3.1982496
39403,1577395824.45,0.2403544886147103,-1.4498350931307162,10.0360845932379,0.6508724805878426,-1.9798879826243327,11.860699838926733,1.9370843285537345,2.0061074105611656,12.93960886022056,0.1524018078315548,6.602961842606708,-3.008028356040396,0.3202484875190549,4.872019697980183,-3.6929991187118905,-2.681825219131097,-20.5593574337843,-4.564238757621951,-3.5458124396884485,-8.58180851266789,4.251170852956559,-13.103649013024016,0.6097732727043083,-3.40065863623556,33.12447958786354,36.52700152754066,39.97744631143858,1577395824.0,-27.691541254272,-51.12558306943844,3.1982496
39404,1577395824.46,-0.4862857152427115,-1.7407305948397005,11.793428611792589,-0.1847038988066876,-1.7464533207590984,13.183496256163062,0.6238647179580313,3.711976093422494,12.133960001577982,-0.183291551543445,3.047663991044207,-3.343721715415396,0.7627533703315549,2.140696455792683,-3.0521299780868905,-2.254579125381097,-18.6520088009718,1.9817817501905488,-2.968587158808933,-8.307921006944445,2.922679961407635,-13.565960775335776,1.067103227232538,-3.0605927726120044,33.148441009973936,36.57492437176146,39.64198640189295,1577395824.0,-27.691541254272,-51.12558306943844,3.1982496
39405,1577395824.47,-1.160253482576696,-1.4737771097322787,12.940251207007432,-0.2804719652129376,-1.929609747761052,12.219830087950172,-0.2583985938095458,-0.388094249595083,10.574137619986184,3.0515717297065548,3.154475514481707,-3.557344762290396,1.9681977062690548,3.407175947980183,-3.4183409155868905,0.4614853277439026,-9.6340644650343,8.25314405487805,-3.215969422043012,-8.946991853632479,2.125585426478283,-13.565960775335776,0.6097732727043083,-4.08079036348267,33.17240243208434,36.52700152754066,39.546140713451344,1577395824.0,-27.691541254272,-51.12558306943844,3.1982496
39406,1577395824.48,-0.9423811315024772,-0.9662063577791538,12.631399192847274,-0.8598687669707501,-0.4308395085032392,12.691487815000952,0.3305750145888907,-5.3129670645364895,10.001923423208842,2.1970795422065548,3.215510670731707,-3.679415074790396,-3.708071824980945,3.681834151105183,-2.6859190405868905,0.0342392339939026,0.4062187380907012,2.8210151486280486,-3.7107339485111663,-9.129583524114771,2.6569817830978484,-13.045860042735043,15.091888499431604,-4.420856227106225,33.12447958786354,36.52700152754066,39.88160062299697,1577395824.0,-27.691541254272,-51.12558306943844,3.1982496
39407,1577395824.49,-0.2468655492270865,-0.5400384622713413,10.762724797095322,-1.087317924685594,0.6106382136647285,13.067377475645484,0.5939371972060782,-4.558793541587271,9.551813511099466,3.7534760265815543,3.352839772294207,-2.946993199790396,-4.196353074980945,5.940134932355183,-2.7164366187118905,-1.7052627191310974,9.1647636599657,-6.151152820121951,-3.628273194099808,-8.490512677426738,2.5684157236612544,-13.161437983312986,0.457329954528231,-9.18177831783601,33.12447958786354,36.38323299487824,39.73783209033456,1577395824.0,-27.691541254272,-51.12558306943844,3.1982496
39408,1577395824.5,-0.1906018102134146,-1.1098584573885288,10.040872996558212,0.3647653821991712,-1.4399955082590985,9.562266245176732,0.8776500939345938,-0.3904884512552398,10.863836020865092,3.2957123547065548,3.276545826981707,-3.160616246665396,1.1289643078315552,7.115061690167684,-2.9605772437118905,1.3464950933689028,9.5157158084032,-10.07266160918445,-4.535341492624759,-7.486258489774114,3.542642377463798,-13.508171805046809,0.457329954528231,-14.622832135812905,33.17240243208434,36.479078683319855,39.76179351244496,1577395824.0,-27.691541254272,-51.12558306943844,3.1982496
39409,1577395824.51,0.3983717981850228,-1.6030639993807163,8.920386619605088,-1.1423845628691875,-0.4787235417063642,11.90140126714939,0.8668761864638906,4.757045118080697,9.525477292837747,5.431942823456555,6.633479420731708,-2.641817418540396,2.4259613781440548,1.5456036823551829,-1.4346983374618902,9.250547827743905,6.448699206840701,-2.0007621951219514,-2.2264403691067,-7.851441830738705,3.188378139717421,-13.565960775335776,1.829319818112921,-14.96289799943646,33.12447958786354,36.52700152754066,39.68990924611376,1577395824.0,-27.691541254272,-51.12558306943844,3.1982496
39410,1577395824.52,-1.0453318028891958,-1.7850233255525911,10.134246861304304,-0.9245122117949688,-2.039743024128239,8.71471885748142,-0.011795822813452,0.2535517953267909,8.615680661978374,3.4177826672065548,5.931575123856708,-2.824922887290396,5.325131300019055,7.740672041730183,-2.4112608374618905,14.926817358993905,10.3854667849657,3.0346381955030486,-4.370419983802041,-8.764400183150183,3.7197744963369854,-13.62374974562475,0.457329954528231,-15.302963863060016,33.17240243208434,36.57492437176146,39.83367777877617,1577395824.0,-27.691541254272,-51.12558306943844,3.1982496
39411,1577395824.53,-1.181801297518102,-1.0619744241854037,9.876870182837507,-0.7736775072051252,-1.082062360065739,8.018006174375952,-0.8880736304306396,-3.1510029654153957,9.250144101919778,4.928402784394055,5.717952076981708,-1.878877965415396,2.7311371593940548,4.414256026105183,-1.3736631812118902,10.837461890243905,16.6110527224657,2.5158393673780486,-4.370419983802041,-8.764400183150183,3.7197744963369854,-13.565960775335776,1.829319818112921,-20.40395181741336,33.07655674364274,36.33531015065744,39.88160062299697,1577395824.0,-27.691541254272,-51.12558306943844,3.1982496
39412,1577395824.54,-0.8873144933188833,-0.3389255228182163,8.61153460544493,-1.739737877078172,0.6908439692799628,10.686343924620092,-0.5109868689560302,-3.477811492026724,9.561390317740091,5.798153760956555,2.879817311356707,-1.3295615591653962,3.2804535656440548,2.583201338605183,-0.7633116187118902,6.656553687118903,21.0971367068407,-5.8612358279344505,-2.721204895574856,-6.938483478327226,1.9484533076050947,-13.62374974562475,-3.2013096816976123,-21.084083544660466,33.02863389942193,36.359271572767845,39.64198640189295,1577395824.0,-27.691541254272,-51.12558306943844,3.1982496
39413,1577395824.55,-0.4946654210532584,0.1375206075528764,9.97862375339415,-1.0035208665801252,0.7973859431569159,9.31566347418064,-0.6318940527939207,-0.2372595450052393,8.378654697622904,5.462460401581555,0.6215165301067074,-1.0549033560403962,4.531674268769055,5.634959151105183,-0.0614073218368902,11.325743140243905,21.9516288943407,-10.97293016387195,-3.0510479132202923,-8.764400183150183,3.0112460208442324,-13.392593864468866,-1.981763136288998,-24.14467631727247,33.02863389942193,36.71869290442388,39.64198640189295,1577395824.0,-27.691541254272,-51.12558306943844,3.1982496
39414,1577395824.56,-0.4611465978110708,-0.6956615701814975,9.856519468726182,-0.4624312913848126,-0.7971523625071454,8.276579953672828,-0.9862358984970456,3.502483448158822,8.270915622915874,4.791073682831555,3.795344655106707,-0.3529990591653963,4.104428175019055,4.902537276105183,0.1827333031631097,13.431456030868905,24.7897636599657,-6.944609851371951,-4.370419983802041,-6.938483478327226,4.074038734083371,-13.62374974562475,-4.420856227106227,-24.14467631727247,33.17240243208434,36.479078683319855,39.73783209033456,1577395824.0,-27.691541254272,-51.12558306943844,3.1982496
39415,1577395824.57,-0.2432742467368521,-1.1864729105135288,8.977847459448837,-0.7760717088652814,-0.3853496769602709,8.454947977354468,-0.3457869544052494,1.577545313393197,8.858692130484233,4.638485792206555,5.748469655106708,0.2878700814596036,3.5398529797065548,3.590281416730183,1.2661073266006098,14.102842749618905,25.1407158084032,-0.3985893435594514,-4.370419983802041,-6.938483478327226,4.074038734083371,-13.565960775335776,-4.26841290893015,-23.80461045364892,33.00467247731153,36.43115583909905,39.61802497978255,1577395824.0,-27.691541254272,-51.12558306943844,3.1982496
39416,1577395824.58,-0.1499003819907584,-0.7746702249666538,7.953129148901962,-0.2804719652129376,0.059971831828791,8.745843479063453,0.2132591332412344,-2.245994737876333,9.508717881216652,5.096249464081555,3.429133717606707,0.6540810189596037,3.4330414562690548,6.428416182355183,1.861200100038109,14.682676733993905,23.9657890505907,1.8749702267530488,-3.5458124396884485,-8.216625171703297,0.7085284754927537,-15.819730616605618,-3.2013096816976128,-25.504939771766697,33.17240243208434,36.57492437176146,39.73783209033456,1577395824.0,-27.691541254272,-51.12558306943844,3.1982496
39417,1577395824.59,-0.1068047521079458,0.5445348897794389,8.499007127417588,0.0954176954315926,-0.1938135441477704,7.953362729551734,-0.069256662657202,-3.502950609458364,8.979599314322122,7.507138135956555,3.978450123856707,0.5320107064596037,3.3109711437690548,5.634959151105183,1.5560243187881098,8.182432593368903,22.8671562380907,-2.3364555544969514,-2.886126404397574,-7.851441830738705,3.542642377463798,-13.161437983312986,0.457329954528231,-26.185071499013805,33.17240243208434,36.33531015065744,39.73783209033456,1577395824.0,-27.691541254272,-51.12558306943844,3.1982496
39418,1577395824.6,-0.3522104222739615,-0.5891195963045445,8.830604057349229,-0.2732893602324688,0.1509514949147285,9.387489523985328,-0.0740450659775145,-2.492597508872427,9.602091745962747,2.5480316906440548,4.314143483231708,0.6388222298971037,2.3038910656440548,2.979929854230183,1.6780946312881098,10.532286108993905,21.2802421755907,-5.571318835746951,-2.638744141163497,-8.49051267742674,2.9226799614076384,-13.161437983312986,0.457329954528231,-80.59560967878276,33.10051816575314,36.57492437176146,39.73783209033456,1577395824.0,-27.691541254272,-51.12558306943844,3.1982496
39419,1577395824.61,-0.4372045812095084,-1.2582989603182162,9.758357200659775,0.0188032423065931,-0.8378537907298016,9.980054434874,0.4526792992568594,-0.3749261404642242,9.39020489903892,2.3801850109565548,3.612239186356707,1.0508095345846038,3.5093354015815548,4.276926924542683,1.7696473656631098,10.288145483993905,20.5325615115282,-4.976226062309451,-3.8756554573338846,-8.216625171703297,2.8341139019710444,-13.565960775335776,0.6097732727043083,-79.91547795153565,33.17240243208434,36.50304010543026,39.68990924611376,1577395824.0,-27.691541254272,-51.12558306943844,3.1982496
39420,1577395824.62,-0.1259583653891959,-2.146547776236185,9.518937034644152,0.87592743664253,-1.9032735294993328,9.1863765845322,0.7591371117568594,0.8449196053853847,9.805598887076028,1.3425873547065548,2.422053639481707,1.1118446908346038,1.9376801281440548,3.437693526105183,2.074823146913109,12.119200171493905,19.8459160037157,0.3796088986280487,-3.7107339485111663,-8.034033501221,3.0112460208442324,-13.565960775335776,0.6097732727043083,-87.05686108763032,33.02863389942193,36.57492437176146,39.64198640189295,1577395824.0,-27.691541254272,-51.12558306943844,3.1982496
39421,1577395824.63,-0.1786308019126334,-0.7962180399080601,9.631464512671494,0.0762640821503426,-0.7444799259837078,9.571843051817355,0.5005633324599844,-2.0903716299661768,9.501535276236185,5.340390089081555,3.368098561356707,1.3865028939596038,0.8695648937690549,1.6676739948551829,2.074823146913109,4.001524390243903,20.5783378787157,1.4782417111280486,-3.5458124396884485,-8.946991853632479,2.125585426478283,-13.565960775335776,0.6097732727043083,-87.05686108763032,32.88486536675951,36.57492437176146,39.64198640189295,1577395824.0,-27.691541254272,-51.12558306943844,3.1982496
39422,1577395824.64,-0.1403235753501338,-0.5280674539705601,8.668995445288681,0.1624553419159676,-0.5768858097727705,9.650851706602516,0.5125343407607656,-2.897217589438833,9.800810483755717,2.8532074718940548,2.589900319169207,1.2644325814596038,2.4259613781440548,2.735789229230183,1.3729188500381098,6.687071265243903,18.6862480349657,0.2270210080030487,-3.793194702922526,-9.038287688873623,2.391283604788062,-13.334804894179896,-0.304886636352153,-82.29593899690053,33.17240243208434,36.52700152754066,39.64198640189295,1577395824.0,-27.691541254272,-51.12558306943844,3.1982496
39423,1577395824.65,0.1350096155678343,-1.1960497171541538,8.137482676733994,1.0830258802460455,-1.3358477360423016,8.293339365293921,0.3485315270400625,-3.194098595298208,8.881437046255718,1.8613861828315548,1.5065262957317074,0.6540810189596037,1.7850922375190548,2.491648604230183,1.2966249047256098,5.451109351181403,15.1004326052782,-3.2519828982469514,-4.040576966156604,-9.129583524114771,3.3655102585906094,-13.305910409035407,-3.887304613489959,-22.614379930966468,33.12447958786354,36.43115583909905,39.78575493455536,1577395824.0,-27.691541254272,-51.12558306943844,3.1982496
39424,1577395824.66,0.4223138147865853,-1.1553482889314974,8.499007127417588,0.8687448316620613,-0.9695348820383952,8.439385666563453,0.687311061952172,-1.202122814048208,8.977205112661967,0.9763764172065548,0.3468583269817073,0.4404579720846037,1.0221527843940548,0.8436993854801829,0.7015321312881098,7.266905249618903,13.0710136599657,-3.1299125857469514,-4.040576966156604,-8.034033501221,1.9484533076050947,-13.62374974562475,-3.81108295440192,-26.185071499013805,33.22032527630515,36.38323299487824,39.498217869230544,1577395824.0,-27.691541254272,-51.12558306943844,3.1982496
39425,1577395824.67,0.7120122156654916,-0.7363629984041538,8.985030064429308,0.87592743664253,-0.5313959782298017,8.915831796934546,0.8908182030654531,-0.4718913077005518,8.965234104361185,2.6853607922065548,-0.2329756573932926,0.1963173470846037,0.6559418468940549,1.5456036823551829,0.9151551781631098,5.252745093368903,13.2846367068407,-1.3293754763719514,-4.535341492624759,-9.312175194597067,1.7713211887318916,-13.62374974562475,-3.81108295440192,-26.185071499013805,33.12447958786354,36.57492437176146,39.83367777877617,1577395824.0,-27.691541254272,-51.12558306943844,3.1982496
39426,1577395824.68,0.6665223841225228,-0.4933515298982945,9.374087834204698,1.142880921749952,-0.6319524479563641,9.255808432676732,1.0296818993545156,-1.2344445364603174,9.638004770865091,1.2510346203315548,0.7435868426067074,0.4709755502096037,-0.0154448718559451,0.4622296589176828,0.6404969750381098,4.489805640243903,11.8655693240282,0.6695258908155487,-2.886126404397574,-8.216625171703296,3.0112460208442324,-13.62374974562475,-3.81108295440192,-21.424149408284023,33.24428669841555,36.479078683319855,39.66594782400336,1577395824.0,-27.691541254272,-51.12558306943844,3.1982496
39427,1577395824.69,0.8820005335365853,-0.7818528299471226,9.176566197241808,1.1799910474823738,-1.062908746784489,9.471286582090794,0.9506732445693594,-2.9546784292825827,9.688283005728373,-0.8851958484184451,-0.6907393292682926,0.4099403939596037,-0.4426909656059451,0.5385236042301829,0.5794618187881098,-0.0267959222560973,9.6225273318407,-0.6885063357469513,-2.721204895574856,-7.668850160256409,3.0112460208442324,-13.161437983312986,-4.420856227106227,-20.74401768103691,33.17240243208434,36.19154161799503,39.83367777877617,1577395824.0,-27.691541254272,-51.12558306943844,3.1982496
39428,1577395824.7,0.8197512903725228,-0.71960358678306,10.043267198218368,1.6420719678925302,-1.376549164264958,8.875130368711888,0.9291254296279532,-2.4997801138528954,9.743349643911966,0.3660248547065549,0.4384110613567073,0.1047646127096036,-0.8394194812309451,0.7216290729801829,0.1522157250381097,2.902891577743903,7.150603503715701,-2.1838676638719514,-3.3808909308657284,-9.129583524114771,1.9484533076050947,-12.699126221001222,0.457329954528231,-15.302963863060016,33.12447958786354,36.479078683319855,39.73783209033456,1577395824.0,-27.691541254272,-51.12558306943844,3.1982496
39429,1577395824.71,0.8915773401772102,-1.1194352640291538,9.39204434665587,1.6444661695526863,-1.596815716999333,8.968504233457983,0.6394270287490469,-2.1741686880716453,9.475199057974466,-1.2514067859184452,0.7435868426067074,-0.2309287466653963,-0.0459624499809451,-0.6821795207698171,-0.4276182593368902,1.1633896246189026,6.845427722465701,-2.8552543826219514,-3.3808909308657284,-8.034033501221,3.7197744963369854,-12.699126221001222,-4.420856227106227,-15.302963863060016,33.17240243208434,36.479078683319855,39.88160062299697,1577395824.0,-27.691541254272,-51.12558306943844,3.1982496
39430,1577395824.72,1.0460033472572885,-1.170910599722513,9.451899388159775,1.4912372633026865,-1.2520506779368328,9.318057675840794,0.8513138756728751,-0.8968621023782861,9.31837884923423,-0.3511382312309452,1.0182450457317074,-0.6581748404153963,-1.1598540515434452,0.5842999714176829,-0.6259825171493902,1.9568466558689028,6.235076159965701,-1.1615287966844514,-3.5458124396884485,-8.946991853632479,1.9484533076050876,-13.01696555759056,-1.7530981590248829,-14.792865067624682,33.148441009973936,36.59888579387187,39.71387066822416,1577395824.0,-27.691541254272,-51.12558306943844,3.1982496
39431,1577395824.73,0.7527136438881478,-0.9039571146150912,9.645829722632431,1.3020953321503428,-1.2209260563548017,8.487269699766577,0.5412647606826407,-2.427954064048208,9.604485947622903,-1.5871001452934452,0.7435868426067074,-0.9328330435403964,-1.7244292468559452,1.2709454792301829,-0.9769346655868902,-0.9423232660060974,5.777312488090701,-0.5664360232469513,-3.5458124396884485,-9.312175194597067,1.4170569509855149,-12.641337250712253,1.219546545408615,-14.96289799943646,33.02863389942193,36.52700152754066,39.546140713451344,1577395824.0,-27.691541254272,-51.12558306943844,3.1982496
39432,1577395824.74,0.5444180994545541,-0.9805715677400912,9.557244261206652,1.093799787716749,-1.1419174015696454,9.04033028326267,0.7112530785537344,-1.815038439048208,9.20465427037681,-1.7396880359184452,1.842219655106708,-0.9633506216653964,-1.9380522937309448,0.6605939167301829,-1.4041807593368902,0.2478622808689026,4.739714831840701,-1.5124809451219514,-3.3808909308657284,-7.668850160256409,2.3027175453514714,-12.467970339845342,1.0671032272325378,-15.302963863060016,33.17240243208434,36.52700152754066,39.97744631143858,1577395824.0,-27.691541254272,-51.12558306943844,3.1982496
39433,1577395824.75,0.5408267969643197,-1.556377067007669,9.284305271948838,1.1704142408417488,-1.9463691593821453,8.597402976133765,0.2491721581435782,-2.4758380972513327,9.171135447134622,-2.243228074980945,0.7283280535442074,-1.4516318716653962,-1.4802886218559452,0.8436993854801829,-1.4957334937118902,-1.7662978753810974,5.533171863090701,-2.0007621951219514,-2.1439796146953407,-9.038287688873629,2.568415723661258,-12.00565857753358,1.0671032272325378,-13.942700408565791,33.17240243208434,36.52700152754066,39.68990924611376,1577395824.0,-27.691541254272,-51.12558306943844,3.1982496
39434,1577395824.76,0.3648529749428353,-1.3492786234041538,9.94749913181212,0.9453592847870614,-1.234094165485661,9.54550683355564,-0.0872131751083744,-1.0369228994974269,9.713422123160012,-0.0307036609184451,2.391536061356707,-1.6042197622903962,-1.846499559355945,0.2333478229801829,-1.8466856421493905,0.6445907964939026,4.800749988090701,-1.8329155154344516,-1.2369113161703893,-8.946991853632479,2.125585426478283,-12.930282102157104,0.7622165908803844,-14.622832135812905,33.17240243208434,36.38323299487824,39.92952346721778,1577395824.0,-27.691541254272,-51.12558306943844,3.1982496
39435,1577395824.77,0.228383480313929,-0.8895919046541538,9.746386192358996,0.7250927320526863,-1.429221600788395,9.629303891661108,0.4431024926162344,-0.7400418936380518,9.980375608267437,-1.7396880359184452,1.903254811356708,-2.031465856040396,-1.4497710437309452,2.400095869855183,-2.1060850562118905,-0.3014541253810974,4.526091784965701,-0.9326469607469512,-1.2369113161703893,-8.946991853632479,2.125585426478283,-12.930282102157102,-1.981763136288998,-15.302963863060016,33.17240243208434,36.38323299487824,39.73783209033456,1577395824.0,-27.691541254272,-51.12558306943844,3.1982496
39436,1577395824.78,0.3672471766029915,-1.0140903909822787,10.210861314429309,0.6796029005097176,-1.2424738712962078,9.51917061529392,0.6537922387099844,-1.3098618887552391,10.315563840689313,-1.5260649890434452,1.5675614519817074,-2.306124059165396,-1.4192534656059452,0.8131818073551829,-1.7703916968368902,0.0952743902439026,2.7865898318407014,-0.9936821169969512,-1.896597351461262,-8.58180851266789,2.8341139019710444,-12.930282102157102,-1.981763136288998,-15.302963863060016,33.17240243208434,36.57492437176146,39.64198640189295,1577395824.0,-27.691541254272,-51.12558306943844,3.1982496
39437,1577395824.79,0.3612616724526009,-0.5998935037752475,9.33458350681212,0.3300494581269051,-0.0932570744212079,10.888653964903297,1.4438787865615468,-1.2284590323099267,9.918126365103372,-0.4426909656059451,2.483088795731707,-2.153536168540396,-1.6939116687309452,0.1417950886051829,-1.6483213843368902,-1.5526748285060974,2.6645195193407014,-2.1533500857469514,-3.545812439688448,-8.581808512667887,2.656981783097852,-12.23681445868946,0.457329954528231,-13.942700408565791,33.10051816575314,36.52700152754066,39.83367777877617,1577395824.0,-27.691541254272,-51.12558306943844,3.1982496
39438,1577395824.8,0.1637400354897103,-0.5998935037752476,9.432745774878526,0.9441621839569831,-0.7612393376048017,10.025544266416968,1.2523426537490467,-0.8417954641946924,9.889395945181498,-0.3358794421684451,1.7201493426067074,-2.367159215415396,-1.4039946765434452,1.8050030964176829,-2.4417784155868905,-0.4387832269435974,1.733733386528201,-2.6111137576219514,-4.700263001447477,-8.034033501221,2.6569817830978484,-13.045860042735049,1.067103227232538,-14.282766272189347,33.12447958786354,36.52700152754066,39.66594782400336,1577395824.0,-27.691541254272,-51.12558306943844,3.1982496
39439,1577395824.81,-0.1044105504477896,-0.9949367777010288,9.382467540015243,1.0267621412323735,-0.9743232853587078,10.448120859434546,0.6106966088271719,-0.9650968496927392,9.74095544225181,-1.2819243640434452,2.177913014481707,-2.458711949790396,-2.090640184355945,-0.8652849895198171,-2.8079893530868905,-0.6371474847560974,2.2067558474657014,-2.2449028201219514,-4.700263001447477,-8.034033501221,2.6569817830978484,-13.565960775335776,0.9146599090564612,-20.40395181741336,32.98071105520113,36.52700152754066,39.68990924611376,1577395824.0,-27.691541254272,-51.12558306943844,3.1982496
39440,1577395824.82,-0.3174944982016959,-1.04521501256431,9.4231689682379,0.1768205518769051,-0.8833436222727704,10.723454050352515,0.1103084618545156,-0.5916013907083643,9.810387290396342,-1.4039946765434452,2.299983326981707,-2.428194371665396,-1.1445952624809452,-0.224415848894817,-2.9910948218368905,0.4309677496189026,1.3522636599657012,-2.1228325076219514,-4.700263001447477,-8.034033501221,2.6569817830978484,-13.62374974562475,0.7622165908803841,-19.38375422654269,33.12447958786354,36.52700152754066,39.83367777877617,1577395824.0,-27.691541254272,-51.12558306943844,3.1982496
39441,1577395824.83,-0.3977002538169302,-1.158939591421732,9.802649931372663,0.0295771497772962,-1.2029695439036296,9.892666074278296,-0.5157752722763427,-0.8274302542337549,10.346688462271342,-0.2138091296684451,-0.4008223370807926,-2.946993199790396,-0.2595854968559451,0.7063702839176829,-2.8995420874618905,-0.2556777581935973,0.9860527224657012,-2.2601616091844514,-3.7107339485111663,-8.581808512667887,2.8341139019710404,-12.583548280423283,0.457329954528231,-23.124478726401804,33.148441009973936,36.50304010543026,39.64198640189295,1577395824.0,-27.691541254272,-51.12558306943844,3.1982496
39442,1577395824.84,-0.5880392857993522,-0.7650934183260288,10.25395694431212,-0.1056952440215313,-1.0653029484446457,10.282920944883765,-0.1123522925400145,-0.2731725699075831,10.365842075552592,-0.1527739734184451,0.1332352801067073,-3.069063512290396,0.1371430187690548,-0.010792802019817,-3.3267881812118905,-0.1793838128810974,0.2841484255907012,-2.9468071169969514,-4.040576966156604,-8.764400183150183,2.6569817830978484,-12.699126221001222,1.6768764999368453,-22.784412862778247,32.98071105520113,36.52700152754066,39.546140713451344,1577395824.0,-27.691541254272,-51.12558306943844,3.1982496
39443,1577395824.85,-0.6455001256431021,-1.6078524027010288,9.873278880347277,-0.5294689378691877,-0.6965958927805829,10.20870069341892,-0.3709260718368896,-0.1414914785989893,10.071355271353372,-1.3734770984184452,0.8351395769817074,-2.763887731040396,0.3812836437690549,-0.4685564738948171,-2.7164366187118905,0.4920029058689026,0.4672538943407012,-2.8247368044969514,-4.040576966156604,-8.764400183150183,2.6569817830978484,-13.392593864468866,2.896423045345459,-20.74401768103691,33.12447958786354,36.67077006020308,39.68990924611376,1577395824.0,-27.691541254272,-51.12558306943844,3.1982496
39444,1577395824.86,-0.3174944982016959,-0.7339687967439975,9.471053001441026,-0.4001820482207501,-0.2776106022532392,10.594167160704078,-0.500212961485327,-0.4766797110208643,9.86305972691978,2.1970795422065548,0.6825516863567074,-2.519747106040396,1.0221527843940548,0.2943829792301829,-2.6859190405868905,-0.0573135003810973,0.5282890505907012,-3.0688774294969514,-4.040576966156604,-8.764400183150183,2.6569817830978484,-12.699126221001222,2.896423045345459,-20.74401768103691,32.88486536675951,36.38323299487824,39.68990924611376,1577395824.0,-27.691541254272,-51.12558306943844,3.1982496
39445,1577395824.87,-0.0517381139243521,-1.015287491812357,9.98460925754454,0.2510408033417489,-1.339439038532536,8.73506957159275,-0.4750738440536864,-0.1091697561868804,9.757714853872905,1.1899994640815548,-0.9501387433307928,-2.885958043540396,1.7240570812690548,1.7897443073551829,-3.1284239233993905,1.4533066168064028,-0.0668037228467988,-2.3059379763719514,-3.051047913220293,-8.946991853632477,2.8341139019710404,-13.334804894179896,15.24433181760768,-19.72382009016624,33.148441009973936,36.45511726120945,39.61802497978255,1577395824.0,-27.691541254272,-51.12558306943844,3.1982496
39446,1577395824.88,-0.0996221471274771,-0.9805715677400912,9.612310899390245,-0.1727328905059063,-0.4930887516673017,10.136874643614233,-0.145871115782202,-1.1015663443216457,9.697859812368996,1.2205170422065548,2.116877858231707,-3.008028356040396,0.9000824718940549,-0.102345536394817,-2.5943663062118905,1.3770126714939026,-0.0210273556592987,-2.5195610232469514,-3.0510479132202923,-8.399216842185593,2.6569817830978484,-13.62374974562475,16.00654840848806,-13.942700408565791,33.17240243208434,36.57492437176146,39.83367777877617,1577395824.0,-27.691541254272,-51.12558306943844,3.1982496
39447,1577395824.89,-0.2241206334556021,-0.3365313211580601,9.478235606421494,0.0188032423065926,-0.1028338810618329,10.194335483457984,0.3808532494521719,-0.5030159292825831,9.47280485631431,1.8308686047065548,2.116877858231707,-2.641817418540396,1.2968109875190548,2.033884932355183,-2.7469541968368905,1.3770126714939026,-0.0515449337842987,-3.0993950076219514,-3.3808909308657284,-6.938483478327226,3.3655102585906094,-12.467970339845342,15.396775135783756,-13.942700408565791,33.17240243208434,36.57492437176146,39.73783209033456,1577395824.0,-27.691541254272,-51.12558306943844,3.1982496
39448,1577395824.9,-0.596418991609899,-0.7136180826326695,9.3465545151129,-0.7952253221465314,-0.1171990910227704,9.617332883360326,-0.2248797705673583,-0.3641522329935205,9.918126365103372,1.0526703625190548,0.0874589129192073,-2.351900426352896,1.3578461437690548,0.5080060261051829,-2.2891905249618905,1.4380478277439026,0.4062187380907012,-2.6416313357469514,-4.040576966156603,-7.66885016025641,3.188378139717421,-12.467970339845342,15.396775135783756,-15.302963863060016,33.17240243208434,36.33531015065744,39.546140713451344,1577395824.0,-27.691541254272,-51.12558306943844,3.1982496
39449,1577395824.91,-0.7652102086509146,-0.8752266946932162,10.692095848120712,-0.9711991441680158,-0.5996307255442548,10.318833969786107,-0.3697289710068114,-0.0433292105325835,10.4364710245272,0.8543061047065549,-0.8738447980182926,-2.123018590415396,1.3425873547065548,-0.4532976848323171,-1.9687559546493905,1.9721054449314028,0.4519951052782012,-2.3974907107469514,-2.721204895574856,-7.668850160256409,2.3027175453514714,-12.467970339845342,15.396775135783756,-15.302963863060016,33.12447958786354,36.38323299487824,39.68990924611376,1577395824.0,-27.691541254272,-51.12558306943844,3.1982496
39450,1577395824.92,-0.4252335729087271,-0.8680440897127475,10.586750975073835,-0.7521296922637188,-0.1579005192454267,10.938932199766578,-0.289523215391577,0.1051112923971034,10.416120310415874,2.0444916515815548,-0.8128096417682926,-1.3905967154153962,1.3578461437690548,-0.7432146770198171,-0.9769346655868902,2.292540015243903,0.7113945193407012,-1.0241996951219514,-3.0510479132202923,-9.129583524114771,2.6569817830978484,-13.334804894179896,16.463878363016292,-12.242371090448014,33.02863389942193,36.38323299487824,39.68990924611376,1577395824.0,-27.691541254272,-51.12558306943844,3.1982496
39451,1577395824.93,-0.4012915563071646,-0.7219977884432163,10.162977281226182,-0.7593122972441876,-0.1028338810618329,10.450515061094702,-0.3326188452743895,-0.7687723135599268,10.229372580923686,1.8003510265815548,-0.9653975323932926,-1.5737021841653962,1.6325043468940548,0.5080060261051829,-1.4041807593368902,1.3159775152439026,0.1010429568407012,-1.0241996951219514,-2.886126404397574,-7.851441830738705,2.125585426478283,-13.450382834757836,1.829319818112921,-8.841712454212454,33.12447958786354,36.38323299487824,39.73783209033456,1577395824.0,-27.691541254272,-51.12558306943844,3.1982496
39452,1577395824.94,-0.6466972264731803,-0.8393136697908725,9.504571824683213,-0.3618748216582501,-0.7803929508860517,8.271791550352514,-0.5241549780868896,-0.4790739126810205,9.609274350943217,1.4188813000190548,0.2400468035442073,-0.8565390982278964,1.7545746593940548,0.9962872761051828,-1.0684873999618902,1.2854599371189026,-0.3262031369092988,-1.2683403201219514,-3.628273194099808,-8.307921006944444,2.391283604788065,-13.161437983312986,2.896423045345459,-15.302963863060016,33.00467247731153,36.52700152754066,39.68990924611376,1577395824.0,-27.691541254272,-51.12558306943844,3.1982496
39453,1577395824.95,-0.6502885289634146,-1.1840787088533724,9.064038719214464,-0.9077528001738752,-0.420065601032536,9.646063303282205,-0.6318940527939207,-0.847780968345083,9.288451328482278,0.8848236828315549,0.1942704363567073,-0.3224814810403963,1.0526703625190548,-1.8113299113948167,-0.4581358374618902,1.6058945074314028,-0.2193916134717987,-0.9631645388719514,-3.5458124396884485,-8.216625171703297,2.8341139019710444,-12.58354828042328,1.3719898635846923,-19.38375422654269,32.88486536675951,36.52700152754066,39.78575493455536,1577395824.0,-27.691541254272,-51.12558306943844,3.1982496
39454,1577395824.96,-0.3031292882407584,-1.1361946756502477,9.013760484351184,-0.4432776781035626,-0.6535002628977704,9.753802377989231,-0.1099580908798583,0.0668040658346034,9.726590232290873,1.0984467297065548,-2.826969798018293,0.1657997689596037,1.6630219250190548,0.5385236042301829,-0.3971006812118902,2.231504858993903,0.4977714724657012,-0.0476371951219513,-2.391361877929418,-8.399216842185593,1.5941890698587031,-12.58354828042328,2.896423045345459,-19.38375422654269,33.02863389942193,36.479078683319855,39.64198640189295,1577395824.0,-27.691541254272,-51.12558306943844,3.1982496
39455,1577395824.97,-0.2504568517173209,-1.1050700540682163,10.167765684546492,-0.3403270067168439,-1.015024713581364,9.540718430235328,0.0696070336318594,-0.2899319815286768,9.87503073522056,1.2510346203315548,-3.467838938643293,0.4404579720846037,1.4799164562690548,-1.1094256145198171,0.6099793969131098,1.6211532964939026,1.1081230349657012,1.1730659298780486,-2.391361877929418,-8.764400183150183,2.3027175453514714,-12.58354828042328,2.896423045345459,-20.74401768103691,33.02863389942193,36.38323299487824,39.64198640189295,1577395824.0,-27.691541254272,-51.12558306943844,3.1982496
39456,1577395824.98,-0.3426336156333365,-0.7267861917635288,10.29705257419493,-0.1092865465117657,-0.621178540485661,10.589378757383765,0.180937410829125,0.2750996102681971,10.459215940298686,0.8085297375190548,-0.9806563214557926,0.7456337533346037,1.1137055187690548,-2.208058427019817,0.4268739281631097,2.674009741806403,0.8487236209032012,2.3174751095655486,-2.391361877929418,-8.764400183150183,2.3027175453514714,-12.90138761701262,3.2775313407856514,-48.79945142998028,33.07655674364273,36.59888579387187,39.66594782400336,1577395824.0,-27.691541254272,-51.12558306943844,3.1982496
39457,1577395824.99,-0.1810250035727896,-0.3125893045564976,10.17734249118712,-0.0482344041777813,-0.0693150578196454,11.053853879454078,-0.1913609473251708,-0.1271262686380518,10.059384263052593,1.6477631359565548,-2.857487376143293,0.6540810189596037,1.2968109875190548,-1.4146013957698171,0.6404969750381098,2.200987280868903,1.3827812380907012,2.9125678830030486,-4.700263001447477,-8.399216842185593,2.6569817830978484,-12.699126221001222,4.115969590754076,-66.99297513384053,33.22032527630515,36.479078683319855,39.68990924611376,1577395824.0,-27.691541254272,-51.12558306943844,3.1982496
39458,1577395825.0,-0.1283525670493521,0.0465409444669389,10.395214842261336,-0.1224546556426251,-0.1076222843821454,10.225460105040014,-0.011795822813452,-1.2236706289896142,10.200642161001811,3.0515717297065548,-1.6978194073932926,0.8066689095846037,1.8156098156440548,-2.085988114519817,0.4879090844131097,2.414610327743903,1.7489921755907012,2.6073921017530486,-4.205498474979322,-7.486258489774114,2.125585426478283,-12.699126221001222,4.115969590754076,-66.99297513384053,33.17240243208434,36.52700152754066,39.64198640189295,1577395825.0,-27.691560567586723,-51.12559084518286,2.1037016
39459,1577395825.01,0.0955052881752572,-0.6417920328279819,9.674560142554306,-0.2421647386504376,-0.1363527043040204,9.658034311582982,0.3640938378310782,-1.0129808828958642,10.368236277212748,1.3883637218940548,-1.0569502667682926,0.9134804330221038,1.8461273937690548,-2.238576005144817,0.7015321312881098,2.170469702743903,1.6269218630907012,1.6613471798780486,-4.040576966156604,-6.938483478327226,2.6569817830978484,-12.699126221001222,4.115969590754076,-66.99297513384053,33.07655674364273,36.52700152754066,39.68990924611376,1577395825.0,-27.691560567586723,-51.12559084518286,2.1037016
39460,1577395825.02,0.1948646570717415,0.1949814473966264,9.58358047946837,0.0858408887909676,0.2874209895436348,10.109341324522436,0.2360040490127188,-0.3617580313333643,9.681100400747903,2.2581146984565548,-2.643864329268293,1.4780556283346038,1.3578461437690548,-1.9486590129573167,1.2661073266006098,2.948667944931403,1.8863212771532007,0.8068549923780487,-2.721204895574856,-8.399216842185593,0.8856605943659495,-12.525759310134312,2.896423045345459,-68.35323858833475,33.22032527630515,36.43115583909905,39.80971635666576,1577395825.0,-27.691560567586723,-51.12559084518286,2.1037016
39461,1577395825.03,0.2786617151772103,0.1040017843106888,10.06242081149962,0.6963623121308113,-0.5290017765696454,9.1863765845322,0.2491721581435782,-0.0960016470560206,9.575755527701029,1.3731049328315548,-3.742497141768293,0.8677040658346037,1.5409516125190548,-1.0178728801448171,1.2508485375381098,2.292540015243903,2.7865898318407014,1.0509956173780486,-3.7107339485111663,-7.303666819291819,1.5941890698587031,-12.3523923992674,2.896423045345459,-69.71350204282896,33.22032527630515,36.57492437176146,39.88160062299697,1577395825.0,-27.691560567586723,-51.12559084518286,2.1037016
39462,1577395825.04,0.1182502039467406,-0.4442703958650913,9.887644090308212,0.3108958448456551,-0.6535002628977704,9.150463559629856,-0.0477088477157958,-0.4599202993997706,9.398584604849466,1.3425873547065548,-0.9348799542682926,1.0508095345846038,1.1747406750190548,-2.177540848894817,0.8541200219131098,3.269102515243903,2.7560722537157014,1.5392768673780486,-3.0510479132202923,-8.034033501221,1.9484533076050947,-13.277015923890923,2.896423045345459,-69.71350204282896,33.17240243208434,36.52700152754066,39.546140713451344,1577395825.0,-27.691560567586723,-51.12559084518286,2.1037016
39463,1577395825.05,0.1493748255287723,-1.21759753209556,9.52492253879454,0.74185214367378,-1.2903579044993327,9.004417258360327,-0.1003812842392333,-0.9291838247903956,9.468016452993997,0.1829193859565548,-1.4384199933307928,0.8524452767721038,1.1747406750190548,-1.1704607707698171,0.0606629906631097,2.628233374618903,2.7255546755907014,1.9665229611280488,-3.3808909308657284,-8.764400183150183,1.5941890698587031,-12.525759310134312,1.219546545408615,-85.6965976331361,33.00467247731153,36.479078683319855,39.64198640189295,1577395825.0,-27.691560567586723,-51.12559084518286,2.1037016
39464,1577395825.06,0.3576703699623665,-0.1282357767244663,10.816594334448835,0.3647653821991707,-0.405700391071599,10.36192959966892,0.1174910668349849,-1.2631749563821923,10.100085691275249,3.2346771984565548,-3.284733469893293,0.8677040658346037,0.9306000500190548,-2.665822098894817,0.9761903344131098,2.109434546493903,3.808928699028201,0.6542671017530486,-3.7107339485111663,-8.034033501221,2.6569817830978484,-12.901387617012618,9.070377431476569,-69.54346911101719,32.88486536675951,36.52700152754066,39.68990924611376,1577395825.0,-27.691560567586723,-51.12559084518286,2.1037016
39465,1577395825.07,0.5731485193764291,0.1016075826505326,10.986582652319932,0.5622870191620614,-0.1315643009837079,10.165605063536107,0.7878675316787345,-0.2612015616068018,10.638781064810404,2.0750092297065548,-4.413883860518292,0.3794228158346037,1.4493988781440548,-0.6821795207698171,0.5184266625381098,2.506163062118903,3.763152331840701,-0.9631645388719512,-2.556283386752138,-9.312175194597067,1.062792713239138,-12.699126221001222,3.5061963180497666,-69.71350204282896,33.12447958786354,36.38323299487824,39.68990924611376,1577395825.0,-27.691560567586723,-51.12559084518286,2.1037016
39466,1577395825.08,0.659339779142054,-0.0037372903963413,10.627452403296491,0.9549360914276864,-0.4715409367258955,9.660428513243138,0.543658962342797,-0.6179376089700831,10.124027707876811,1.6477631359565548,-1.6978194073932926,0.8066689095846037,1.2662934093940548,-0.6516619426448171,0.5794618187881098,2.109434546493903,2.9086601443407014,-1.0547172732469514,-2.721204895574856,-9.494766865079365,3.3655102585906094,-12.699126221001222,15.091888499431604,-69.03337031558186,33.12447958786354,36.67077006020308,39.68990924611376,1577395825.0,-27.691560567586723,-51.12559084518286,2.1037016
39467,1577395825.09,0.5923021326576791,-0.397583463492045,9.705684764136338,1.2039330640839363,-0.7396915226633953,9.78133569708103,0.8872269005752188,-0.0924103445657867,9.65117287999595,0.3049896984565548,-0.5534102277057926,0.2878700814596036,1.1747406750190548,-1.2009783488948171,-0.0766661108993902,2.338316382431403,3.3969413943407014,-0.1239311404344513,-3.5458124396884485,-9.312175194597067,2.125585426478283,-13.074754527879527,9.985037340533031,-68.86333738377007,32.836942522538706,36.43115583909905,39.76179351244497,1577395825.0,-27.691560567586723,-51.12559084518286,2.1037016
39468,1577395825.1,0.7072238123451791,-0.2359748514314976,9.454293589819931,0.8974752515839364,-0.0908628727610517,9.866329856016575,0.9530674462295156,-0.7831375235208643,9.62603376256431,2.8379486828315548,-1.0874678448932926,-0.2614463247903963,1.1442230968940548,-1.6282244426448171,0.1216981469131097,2.231504858993903,3.854705066215701,-0.1391899294969513,-3.215969422043012,-9.312175194597067,2.8341139019710444,-13.565960775335776,1.829319818112921,-90.45751972386589,33.12447958786354,36.28738730643664,39.546140713451344,1577395825.0,-27.691560567586723,-51.12559084518286,2.1037016
