,timestamp,acc_x_dashboard,acc_y_dashboard,acc_z_dashboard,acc_x_above_suspension,acc_y_above_suspension,acc_z_above_suspension,acc_x_below_suspension,acc_y_below_suspension,acc_z_below_suspension,gyro_x_dashboard,gyro_y_dashboard,gyro_z_dashboard,gyro_x_above_suspension,gyro_y_above_suspension,gyro_z_above_suspension,gyro_x_below_suspension,gyro_y_below_suspension,gyro_z_below_suspension,mag_x_dashboard,mag_y_dashboard,mag_z_dashboard,mag_x_above_suspension,mag_y_above_suspension,mag_z_above_suspension,temp_dashboard,temp_above_suspension,temp_below_suspension,timestamp_gps,latitude,longitude,speed
15529,1577399160.69,1.8733430889892575,-0.3788824127197265,11.531552586059568,2.6113148741187118,-0.5454692123785242,9.663757037502382,1.7960502787272128,-1.031957920328776,11.562340879313153,2.9071807861328125,-2.938079833984375,-1.950836181640625,-1.0389002358041155,-10.18486953363186,-2.5552889195884148,0.7138933454241072,-1.3376871744791667,-3.0259631928943453,1.626883626046571,-14.199622040767872,-0.8131454772079686,-4.108512338141983,-57.62653642653642,9.923751262837555,30.46476173360889,34.22670500494204,31.39925719591458,1577399160.0,-27.698645420258963,-51.11137507615007,23.232124
15530,1577399160.7,1.5333664532470703,0.4830301849365234,11.6392916607666,3.13564503769293,0.4517157790765528,9.946272833400815,2.152786326090494,1.088107649739583,13.43340947672526,2.3273468017578125,-3.136444091796875,-1.508331298828125,1.677164217320884,3.2276060523056405,-1.7923494664634148,4.681178501674108,2.919514973958333,-1.2254260835193451,2.349943015400604,-13.071175256071088,0.1626290954415977,3.406946140279458,-61.424989824989815,9.031728677413952,30.5366459999401,34.39443495971486,31.6149099949082,1577399160.0,-27.698645420258963,-51.11137507615007,23.232124
15531,1577399160.71,1.554914268188477,-0.0748188018798828,10.576266123657224,-0.1683532533226936,-0.1049361069097742,12.261465838771912,1.0706071756998692,-1.9178125345865884,11.176874412027994,0.9845733642578124,-3.166961669921875,-2.118682861328125,1.0057774985708845,1.1066343726181402,-3.714956888338415,0.8359636579241072,9.709676106770834,-3.758385067894345,1.4461187787080658,-12.506951863722694,1.3010327635327683,8.775130767723354,-59.52576312576312,-2.564564933092851,30.77626022104412,34.17878216072124,31.447180040135382,1577399160.0,-27.698645420258963,-51.11137507615007,23.232124
15532,1577399160.72,1.720114182739258,-0.1514332550048828,9.592249241333008,0.8779128721655866,-0.3730866928472742,10.939866522365662,0.8048507914225254,-1.0798419535319008,10.003715598551432,0.7404327392578125,-2.220916748046875,-2.027130126953125,-4.670492032679116,2.2052671851181405,-1.7007967320884148,0.9885515485491072,17.033894856770832,-2.0188831147693453,1.4461187787080658,-13.259249720187215,2.2768073361823418,31.32150620298768,-62.374603174603166,6.9503426447588845,30.392877467277685,34.370473537604454,31.73471710546021,1577399160.0,-27.698645420258963,-51.11137507615007,23.232124
15533,1577399160.73,1.3609839337158205,-0.3776853118896484,10.09383448913574,2.118109332126524,-0.8710806381597742,9.95106123672113,3.65634496866862,0.3590732442220043,8.761124936930338,2.1747589111328125,-1.305389404296875,-2.103424072265625,5.644449373570884,-0.7854554711318598,-1.0294100133384148,2.392360142299107,10.655721028645834,-3.1480335053943453,0.903824236692542,-13.071175256071088,0.4878872863247865,2.333309214790685,-61.42498982498982,7.693694799278552,30.5606074220505,34.17878216072124,31.447180040135382,1577399160.0,-27.698645420258963,-51.11137507615007,23.232124
15534,1577399160.74,1.052131919555664,0.1574187591552734,11.301709226684569,1.9205876951636327,0.3164433852777252,9.70924686904535,0.3547408793131504,0.2202095479329418,7.647821164957682,1.9306182861328125,-1.030731201171875,-2.027130126953125,2.3180333579458843,-3.76091933831936,-2.3416658727134148,2.544948032924107,-6.464640299479166,-3.437950497581845,0.903824236692542,-13.071175256071088,0.4878872863247865,-0.8876015616756432,-54.77769637769637,2.4902297176408843,30.5845688441609,34.39443495971486,31.5669871506874,1577399160.0,-27.698645420258963,-51.11137507615007,23.232124
15535,1577399160.75,1.3945027569580075,1.5795745452880858,10.099819993286133,1.095785223239805,-1.031492149390243,10.779455011135193,-0.0019951680501298,-1.549105478922526,11.356439536539712,1.8085479736328125,-0.6950378417968749,-2.240753173828125,-1.4966639076791155,1.0150816382431402,-2.3416658727134148,5.077907017299108,-9.150187174479166,-2.9954456147693453,0.903824236692542,-13.071175256071088,-1.138403668091164,0.1860353638131292,-52.87846967846967,-2.564564933092851,30.5845688441609,34.08293647227963,31.543025728577,1577399160.0,-27.698645420258963,-51.11137507615007,23.232124
15536,1577399160.76,1.4567520001220704,-0.4938040924072265,10.391912595825197,2.154022357028868,-0.7848893783941493,9.220829730373476,0.6252856669108067,-0.3615814554850259,12.690009861246743,0.3437042236328124,-2.159881591796875,-1.782989501953125,-0.4590662514291157,-0.2056214867568597,-1.7007967320884148,1.2937273297991072,-3.657023111979168,-0.5845569428943452,1.626883626046571,-13.071175256071088,0.8131454772079753,-6.255786189119516,-65.22344322344321,9.329069539221818,30.5366459999401,34.46631922604607,31.447180040135382,1577399160.0,-27.698645420258963,-51.11137507615007,23.232124
15537,1577399160.77,1.864963383178711,-0.3238157745361328,11.357972965698242,1.6081443785132423,0.1165275466546779,10.364061023098085,2.1659544352213533,0.4620239156087235,10.461008115641276,1.3813018798828125,-1.885223388671875,-2.088165283203125,2.6995030845083843,-1.5178773461318598,-1.9907137242759148,1.3852800641741072,-6.876627604166667,-1.2254260835193451,2.892237557416128,-11.002356150793648,1.3010327635327683,3.943764603023849,-56.2021164021164,8.288376522894286,30.608530266271305,34.250666427052444,31.662832839129003,1577399160.0,-27.698645420258963,-51.11137507615007,23.232124
15538,1577399160.78,1.813488047485352,0.1430535491943359,10.57387192199707,3.674340411228086,-0.514344590796493,9.673333844143007,0.1105323099772128,0.5697629903157543,11.720358188883464,1.1981964111328125,-1.122283935546875,-2.210235595703125,4.545816561070884,-4.17290664300686,-1.4261385289634148,2.850123814174107,-0.0559488932291666,-1.5306018647693451,2.892237557416128,-11.002356150793648,1.3010327635327683,-1.9612384871644155,-57.62653642653642,7.842365230182486,30.680414532602512,34.08293647227963,31.6388714170186,1577399160.0,-27.698645420258963,-51.11137507615007,23.232124
15539,1577399160.79,1.3394361187744142,-0.5321113189697265,10.231501084594726,0.7821448057593365,-0.4401243393316492,10.480179803615664,-0.1193110493977861,1.5250494527180989,9.73077660929362,2.0832061767578125,-1.274871826171875,-1.813507080078125,4.698404451695884,-5.63775039300686,-2.4942537633384148,2.392360142299107,3.453572591145833,-2.8428577241443453,1.807648473385084,-13.259249720187215,1.951549145299146,-1.9612384871644155,-64.27382987382987,6.9503426447588845,30.680414532602512,34.08293647227963,31.30341150747297,1577399160.0,-27.698645420258963,-51.11137507615007,23.232124
15540,1577399160.8,1.3633781353759766,0.1358709442138671,10.96891519592285,1.2897155577124615,0.9245706069574122,10.216817620998476,0.0841960917154941,-3.296872690836588,9.362069553629558,0.8167266845703125,-0.7865905761718748,-2.194976806640625,-6.196370938929116,1.3507749976181402,-2.6773592320884148,0.6528581891741072,4.002888997395833,-2.7207874116443453,2.078795744392846,-13.729435880477544,0.7318309294871865,-5.182149263630755,-61.42498982498982,8.139706091990352,30.5366459999401,34.17878216072124,31.39925719591458,1577399160.0,-27.698645420258963,-51.11137507615007,23.232124
15541,1577399160.81,1.904467710571289,0.1981201873779296,8.86920033996582,0.9377679136694926,-0.4784315658941492,8.952679144435976,1.3519258707682291,-0.2478568766276041,8.142223807779947,-0.4192352294921875,-0.0541687011718748,-1.813507080078125,1.8602696860708845,2.52570175543064,-1.4871736852134148,1.3852800641741072,-5.579630533854166,-2.7055286225818453,1.626883626046571,-14.575770969000132,0.4878872863247865,-0.3507830989312626,-58.57614977614978,7.842365230182485,30.5366459999401,34.17878216072124,31.662832839129003,1577399160.0,-27.698645420258963,-51.11137507615007,23.232124
15542,1577399160.82,1.847006870727539,0.2268506072998046,9.166081345825194,2.1252919371069927,0.4744606948480372,7.638262433010194,0.9173782694498692,-0.1389207010904946,7.319815537516276,1.5338897705078125,-0.3288269042968749,-1.874542236328125,-4.060140470179116,-2.7385804711318595,-1.3040682164634148,0.2561296735491072,-12.812296549479166,-4.460289364769345,1.626883626046571,-14.575770969000132,0.4878872863247865,4.48058306576823,-64.27382987382987,-2.564564933092851,30.680414532602512,34.27462784916285,31.6388714170186,1577399160.0,-27.698645420258963,-51.11137507615007,23.232124
15543,1577399160.83,1.6147693096923827,0.2795230438232421,9.747872349243163,2.237819415134336,-0.0283216537847742,9.261531158596132,1.7361952372233065,-0.4549553202311197,7.583177720133463,0.0080108642578124,0.4951477050781251,-2.027130126953125,-1.1609705483041155,-1.0295960961318598,-1.0294100133384148,-0.3847394670758928,-12.751261393229166,-2.1714710053943453,2.1691781680620985,-13.259249720187215,1.6262909544159574,2.333309214790685,-65.22344322344321,9.477739970125754,30.5845688441609,34.03501362805883,31.447180040135382,1577399160.0,-27.698645420258963,-51.11137507615007,23.232124
15544,1577399160.84,1.7153257794189454,-0.0879869110107421,9.632950669555663,1.9146021910132427,-1.1727500473394616,10.044435101467224,-0.0067835713704423,-1.096601365152995,11.030828110758463,-0.1293182373046875,0.4188537597656251,-2.317047119140625,4.515298982945884,-3.4710023461318595,-2.4027010289634148,1.9345964704241072,-10.248819986979166,0.2394176664806547,2.169178168062095,-14.01154757665174,1.788920049857555,2.333309214790685,-60.47537647537647,9.329069539221818,30.53664599994009,34.27462784916285,31.447180040135382,1577399160.0,-27.698645420258963,-51.11137507615007,23.232124
15545,1577399160.85,2.1678298931884767,0.2723404388427734,9.32888705871582,1.3974546324194927,0.6719823318109278,9.113090655666443,1.2932679300944003,0.2417573628743489,10.505300846354166,-1.0601043701171875,-0.3288269042968749,-2.332305908203125,-4.075399259241616,3.853216403868141,-2.4484773961509148,-0.5068097795758928,-10.569254557291666,-0.8439563569568452,2.1691781680620985,-14.387696504884,-0.9757745726495664,-6.255786189119516,-54.77769637769637,9.55207518557772,30.48872315571929,34.17878216072124,31.543025728576996,1577399160.0,-27.698645420258963,-51.11137507615007,23.232124
15546,1577399160.86,1.2963404888916017,-0.0245405670166015,10.396700999145509,2.654410504001524,1.1807501845941308,11.078730218654725,0.7689377665201816,1.9512173482259116,10.530439963785806,-0.4802703857421875,-0.0846862792968748,-2.149200439453125,-2.229085782679116,-0.6939027367568598,-1.8533846227134148,0.7749285016741072,-9.302775065104166,-3.636314755394345,2.1691781680620985,-14.387696504884,-0.9757745726495664,-1.9612384871644155,-56.67692307692308,-2.564564933092851,30.5845688441609,34.17878216072124,31.6388714170186,1577399160.0,-27.698645420258963,-51.11137507615007,23.232124
15547,1577399160.87,1.739267796020508,0.3896563201904297,9.431837730102538,-0.0677967835961311,0.7426112807855372,5.268002789455507,0.5319118021647129,-2.882675803629557,10.554381980387369,-1.5789031982421875,0.8003234863281251,-2.545928955078125,-0.8863123451791157,-6.30913711175686,-2.0364900914634148,-2.124241420200893,-11.133829752604166,-2.3545764741443453,1.807648473385084,-13.635398648419478,0.0,-4.108512338141983,-65.22344322344321,6.9503426447588845,30.48872315571929,34.03501362805883,31.6388714170186,1577399160.0,-27.698645420258963,-51.11137507615007,23.232124
15548,1577399160.88,1.3825317486572266,-0.1562216583251953,8.656116392211914,1.2597880369605083,-0.408999717749618,8.666572046047303,1.2633404093424472,-1.951331357828776,8.372067167154947,-2.1434783935546875,0.4188537597656251,-2.530670166015625,-2.503743985804116,-1.09063125238186,-1.5482088414634148,-3.894260951450892,-9.043375651041666,-1.1796497163318451,2.5307078627391117,-14.575770969000134,-0.162629095441591,-1.9612384871644155,-62.374603174603166,7.396353937470685,30.512684577829692,34.22670500494205,31.49510288435619,1577399160.0,-27.698645420258963,-51.11137507615007,23.232124
15549,1577399160.89,1.6315287213134766,-0.1274912384033203,7.923490684204101,0.6720115293921491,-0.2270403915777429,7.564042181545351,1.444102634684244,0.8139715596516918,9.314185520426433,-1.5178680419921875,0.7087707519531251,-2.271270751953125,-5.616536954554116,2.7545835913681405,-2.4027010289634148,-1.5444074358258928,-6.586710611979167,-3.880455380394345,0.1807648473385091,-14.575770969000132,0.4878872863247865,-4.108512338141983,-57.62653642653642,-0.1858380386299179,30.5366459999401,34.370473537604454,31.063797286368946,1577399160.0,-27.698645420258963,-51.11137507615007,23.232124
15550,1577399160.9,1.490270823364258,0.2938882537841796,8.323322361450195,1.495616900485899,0.8934459853753809,8.631856121975037,3.1272264017740885,-2.4541137064615883,12.192015915934244,-1.7925262451171875,0.7698059082031251,-2.606964111328125,-6.440511563929116,-2.7080628930068595,-1.1209627477134148,-3.009251185825893,1.7445882161458333,-0.8592151460193452,0.1807648473385091,-14.575770969000132,0.4878872863247865,-36.31762010280528,-53.82808302808303,7.545024368374619,30.392877467277685,34.22670500494204,31.543025728577,1577399160.0,-27.698645420258963,-51.11137507615007,23.232124
15551,1577399160.91,1.4375983868408204,-0.086789810180664,10.449373435668944,2.17796437363043,-0.9045994614019618,8.900006707912539,-0.2414153340657548,2.808341542561848,9.25193627726237,-1.2126922607421875,0.8003234863281251,-2.271270751953125,-0.5201014076791157,-4.96636367425686,-1.8228670445884148,-3.528050013950893,3.7892659505208335,-1.7747424897693451,2.349943015400604,-14.575770969000132,1.1384036680911775,-6.255786189119516,-61.42498982498982,9.923751262837555,30.5366459999401,34.27462784916285,31.447180040135382,1577399160.0,-27.698645420258963,-51.11137507615007,23.232124
15552,1577399160.92,1.8637662823486327,-0.1011550201416015,10.498454569702147,1.114938836521055,-0.175565055884384,12.327306384426208,1.6763401957194004,-2.727052695719401,9.07835665690104,-2.8606414794921875,1.029205322265625,-2.530670166015625,-1.4356287514291155,2.25104355230564,-1.6702791539634148,-2.993992396763393,-5.503336588541666,-2.3545764741443453,2.711472710077622,-14.387696504884005,0.813145477207982,-6.255786189119516,-60.0005698005698,8.585717384702152,30.608530266271305,34.22670500494204,31.423218618024983,1577399160.0,-27.698645420258963,-51.11137507615007,23.232124
15553,1577399160.93,1.914044517211914,-0.3381809844970703,8.134180430297851,1.5195589170874615,-0.3084432480230554,8.706076373439881,2.286861619059244,-0.0479410380045572,12.05554642130534,-2.9216766357421875,0.5867004394531251,-2.698516845703125,-7.356038907679116,-0.4802796898818597,-0.8768221227134148,-2.002171107700893,-1.3071695963541667,-0.4930042085193452,2.349943015400604,-14.951919897232395,1.4636618589743662,3.406946140279458,-56.67692307692308,-1.3752014858613844,30.392877467277685,34.370473537604454,31.447180040135382,1577399160.0,-27.698645420258963,-51.11137507615007,23.232124
15554,1577399160.94,1.0928333477783203,-0.623090982055664,9.55154781311035,1.380695220798399,1.1352603530511622,12.388358526760191,1.597331540934244,4.951152028401692,11.58867709757487,-1.8230438232421875,0.8003234863281251,-2.698516845703125,-5.006185392054116,-8.81157851800686,-1.3651033727134148,-3.100803920200893,6.230672200520833,-2.2325061616443453,2.349943015400604,-14.951919897232395,1.4636618589743662,-6.255786189119516,-64.27382987382987,-0.7805197622456527,30.728337376823312,34.22670500494204,31.543025728577,1577399160.0,-27.698645420258963,-51.11137507615007,23.232124
15555,1577399160.95,1.4268244793701172,-0.2531868255615234,10.151295328979492,0.4086493467749616,-0.830379209937118,11.12661425185785,-0.6125165913899736,0.0765574483235668,11.382775754801433,-0.9532928466796876,1.013946533203125,-2.454376220703125,3.2640782798208843,-7.7129457055068595,-2.4637361852134148,-2.551487513950893,4.857381184895833,-2.8733753022693453,1.988413320723588,-13.447324184303348,0.1626290954416011,2.870127677535077,-64.74863654863654,7.470689152922654,30.48872315571929,34.27462784916285,31.73471710546021,1577399160.0,-27.698645420258963,-51.11137507615007,23.232124
15556,1577399160.96,0.573291587524414,-0.7236474517822266,9.671257896118163,1.5662458494605085,-0.2198577865972747,8.543270660549256,0.8359754130045566,-0.2023670450846354,7.347348856608073,-1.7314910888671875,0.8003234863281251,-2.332305908203125,-1.984945157679116,1.9306089819931405,-2.2653719274009148,0.5460466657366072,-5.472819010416666,-2.461387997581845,2.1691781680620985,-15.139994361348526,0.6505163817663843,-1.6928292557922309,-58.81355311355311,7.210515898840768,30.5845688441609,34.370473537604454,31.638871417018603,1577399160.0,-27.698645420258963,-51.11137507615007,23.232124
15557,1577399160.97,0.5565321759033203,-0.9894038360595704,10.109396799926756,0.7246839659155866,-1.206268870581649,6.388489166408632,1.4943808695475254,1.180284413655598,8.342139646402995,-1.4568328857421875,-0.0846862792968748,-2.332305908203125,-4.090658048304116,-0.7244203148818598,-1.1514803258384148,0.9885515485491072,-13.483683268229166,-5.192711239769345,0.0,-12.883100791954956,0.9757745726495798,-6.255786189119516,-56.67692307692308,7.0990130756628185,30.728337376823312,34.08293647227963,31.782639949681013,1577399160.0,-27.698645420258963,-51.11137507615007,23.232124
15558,1577399160.98,1.2795810772705078,0.5093664031982421,7.535630015258788,0.6073680845679303,0.165608680687881,6.070060345607851,3.182293039957682,-0.6512798563639322,11.3133439066569,-0.7244110107421875,-0.0846862792968748,-2.240753173828125,0.0597325766958842,-7.19414687738186,-1.3956209508384148,-1.2392316545758928,-9.791056315104166,-1.5916370210193451,0.0,-12.883100791954956,0.9757745726495798,-36.31762010280528,-56.67692307692308,9.477739970125754,30.48872315571929,34.17878216072124,31.5909485727978,1577399160.0,-27.698645420258963,-51.11137507615007,23.232124
15559,1577399160.99,1.0892420452880858,-0.4483142608642578,9.60302314880371,0.8994606871069928,-0.2174635849371179,8.761143011623476,0.6037378519694003,1.036632314046223,9.843304087320965,-0.2971649169921875,-0.923919677734375,-2.240753173828125,1.7381993735708845,-7.16362929925686,-1.3345857945884148,0.8664812360491072,-6.403605143229167,-1.2254260835193451,0.4519121183462709,-13.917510344593676,0.5692018340455853,-0.8876015616756432,-56.67692307692308,9.477739970125754,30.53664599994009,34.08293647227963,31.5909485727978,1577399160.0,-27.698645420258963,-51.11137507615007,23.232124
15560,1577399161.0,1.2125434307861327,-0.7092822418212891,11.177210740356443,1.7577819822730087,-1.2912630295171967,9.60031069350824,1.9253371683756504,0.189084926350911,7.621484946695963,-0.5718231201171875,-1.702117919921875,-2.423858642578125,-2.366414884241616,-0.2971742211318597,-1.9754549352134148,0.3476824079241072,-12.476603190104166,-0.5235217866443452,0.903824236692542,-15.328068825464658,0.4878872863247865,2.0648999834184947,-57.38913308913308,8.99456106968797,30.201186090394465,34.22670500494205,31.5909485727978,1577399161.0,-27.69843778923481,-51.11133759053604,23.329605
15561,1577399161.01,1.442386790161133,-0.1945288848876953,9.680834702758789,1.6296921934546489,0.9269648086175684,10.535246441799256,2.171939939371744,-1.472491025797526,10.824926767985026,-1.0906219482421875,-1.610565185546875,-2.240753173828125,1.0057774985708845,-6.95000625238186,-0.9988924352134148,-2.093723842075893,-11.927286783854166,-2.1714710053943453,2.1691781680620985,-14.011547576651742,0.6505163817663843,-6.255786189119516,-65.22344322344321,-0.3345084695338516,30.249108934615272,34.17878216072124,31.782639949681013,1577399161.0,-27.69843778923481,-51.11133759053604,23.329605
15562,1577399161.02,0.5014655377197265,-0.0796072052001953,9.76942016418457,0.9257969053687116,1.5303036269769434,8.971832757717225,1.1041259989420569,0.0143082051595043,10.942242649332682,0.0995635986328124,-1.763153076171875,-2.301788330078125,-6.257406095179116,5.9589292944931405,-1.1819979039634148,-4.413059779575892,-6.800333658854167,-2.3545764741443453,2.1691781680620985,-14.011547576651742,0.6505163817663843,-6.255786189119516,-65.22344322344321,-0.3345084695338516,30.5366459999401,34.08293647227963,31.6388714170186,1577399161.0,-27.69843778923481,-51.11133759053604,23.329605
15563,1577399161.03,1.1502941876220705,0.5835866546630859,10.339240159301756,-0.3886198060570686,-1.9388945785894616,7.951902850490663,-0.5191427266438798,-0.0359700297037759,8.80422056681315,0.5573272705078125,-2.068328857421875,-2.118682861328125,5.430826326695884,-13.96904922113186,-2.4027010289634148,-1.8190656389508928,-2.5889078776041665,-1.7137073335193451,1.084589084031051,-14.763845433116265,0.3252581908831954,-5.718967726375147,-57.15172975172975,7.173348291114784,30.48872315571929,34.27462784916285,31.73471710546021,1577399161.0,-27.69843778923481,-51.11133759053604,23.329605
15564,1577399161.04,0.8067262493896483,-0.431554849243164,9.774208567504882,1.5039966062964458,-0.0402926620855559,9.138229773098084,1.0083579325358063,1.809959450276692,6.285520420328775,-1.8230438232421875,-1.671600341796875,-2.484893798828125,-0.3064783608041159,1.7017271460556405,-0.8157869664634148,-3.787449428013392,-15.192667643229168,-3.666832333519345,0.903824236692542,-15.328068825464658,0.3252581908831921,-3.034875412653199,-58.1013431013431,6.9503426447588845,30.608530266271305,34.202743582831644,31.5909485727978,1577399161.0,-27.69843778923481,-51.11133759053604,23.329605
15565,1577399161.05,0.9539696514892576,-0.7643488800048828,8.167699253540038,1.2705619444312115,-1.0865587875738367,6.199347235256288,2.313197837320963,-1.7071227884928384,7.659792173258463,-1.7009735107421875,-1.915740966796875,-1.813507080078125,0.1207677329458842,-0.0530335961318597,-2.0364900914634148,-1.6359601702008928,-21.479288736979168,-2.2019885835193453,2.349943015400604,-14.575770969000132,0.4878872863247865,-6.255786189119516,-61.42498982498982,-0.7805197622456527,30.728337376823312,33.939167939617214,31.447180040135382,1577399161.0,-27.69843778923481,-51.11133759053604,23.329605
15566,1577399161.06,1.2771868756103515,0.8876502655029296,8.701606223754881,1.9481210142554304,1.104135731469131,7.087596051174257,1.3770649881998691,-0.0527294413248697,8.83773939005534,0.4352569580078124,-2.648162841796875,-1.813507080078125,-0.0013025795541157,-6.18706679925686,-1.2430330602134148,-0.4762922014508928,-20.716349283854168,-2.3240588960193453,1.9884133207235888,-14.199622040767872,0.8131454772079753,-1.9612384871644155,-52.87846967846967,8.139706091990352,30.392877467277685,34.03501362805883,31.39925719591458,1577399161.0,-27.69843778923481,-51.11133759053604,23.329605
15567,1577399161.07,0.908479819946289,-0.0784101043701171,9.351631974487304,1.2035242979468366,-1.0697993759527429,8.481021417385195,1.8319633036295568,-0.2777843973795572,8.437907712809244,-0.2513885498046875,-2.800750732421875,-2.072906494140625,-1.3745935951791155,0.4962828101181402,-2.1280428258384148,3.552028111049107,-19.465128580729168,-0.0352405366443452,2.259560591731351,-13.917510344593676,1.2197182158119664,-1.9612384871644155,-52.87846967846967,8.139706091990352,30.5845688441609,34.27462784916285,31.447180040135382,1577399161.0,-27.69843778923481,-51.11133759053604,23.329605
15568,1577399161.08,1.001853684692383,-0.738012661743164,10.365576377563476,0.6564492186011335,-0.0151535446539153,9.169354394680116,2.203064560953776,-0.3113032206217451,9.532057871500651,-1.9756317138671875,-4.174041748046875,-2.545928955078125,-2.854696134241616,-6.53801894769436,-1.5482088414634148,-1.1171613420758928,-19.861857096354168,0.8497692289806548,1.626883626046571,-14.199622040767872,0.8131454772079753,-0.350783098931257,-59.52576312576312,7.842365230182485,30.680414532602512,34.22670500494205,31.51906430646659,1577399161.0,-27.69843778923481,-51.11133759053604,23.329605
15569,1577399161.09,0.8151059552001952,-0.249595523071289,9.393530503540038,2.2090889952124613,-0.9117820663824304,7.128297479396913,1.9253371683756504,-0.0239990214029946,11.349256931559244,-1.3042449951171875,-4.753875732421875,-2.149200439453125,-3.724447110804116,-10.73418593988186,-1.4871736852134148,0.9580339704241072,-9.821573893229166,-2.4156116303943453,2.530707862739113,-15.892292217813049,-0.6505163817663776,2.333309214790685,-65.22344322344321,7.842365230182486,30.5366459999401,34.370473537604454,31.6388714170186,1577399161.0,-27.69843778923481,-51.11133759053604,23.329605
15570,1577399161.1,1.1550825909423827,-0.0556651885986328,9.9154664654541,2.1444455503882427,0.4816432998285059,7.801068145900819,-0.2869051656087236,0.0143082051595043,7.65500376993815,-0.3276824951171875,-4.570770263671875,-2.515411376953125,-4.517904142054116,-9.14727187738186,-2.0364900914634148,-0.1405988420758928,-12.232462565104166,-3.0564807710193453,1.9884133207235888,-15.704217753696918,0.4878872863247865,-6.255786189119516,-63.32421652421653,6.9503426447588845,30.48872315571929,34.08293647227963,31.447180040135382,1577399161.0,-27.69843778923481,-51.11133759053604,23.329605
15571,1577399161.11,0.9024943157958984,0.1215057342529296,8.385571604614256,-0.2736981263695686,0.6300838027581934,7.075625042873476,1.664369187418619,-1.9561197611490884,4.655069089762369,-1.4720916748046875,-3.762054443359375,-2.240753173828125,1.4940587485708845,-9.42193008050686,-0.9073397008384148,0.0119890485491072,-18.519083658854168,-3.5752795991443453,1.9884133207235888,-14.951919897232395,0.1626290954415977,-6.255786189119516,-63.32421652421653,6.9503426447588845,30.48872315571929,34.17878216072124,31.30341150747297,1577399161.0,-27.69843778923481,-51.11133759053604,23.329605
15572,1577399161.12,0.7959523419189453,-0.4770446807861327,6.66653481262207,0.0028321653784777,-1.031492149390243,8.021334698635194,0.7773174723307285,0.7170063924153636,7.470650242106119,-3.3489227294921875,-6.096649169921875,-2.515411376953125,-0.0318201576791157,-0.96856093988186,-1.4871736852134148,-2.948216029575893,-26.850382486979168,-2.1867297944568453,2.1691781680620985,-14.387696504884,0.3252581908831954,-3.840103106769776,-61.18758648758648,7.061845467936836,30.392877467277685,34.08293647227963,31.5669871506874,1577399161.0,-27.69843778923481,-51.11133759053604,23.329605
15573,1577399161.13,0.9515754498291016,-0.249595523071289,7.372824302368163,1.1197272398413678,0.0913884292230372,6.958309161525819,1.5566301127115878,0.203450136311848,6.927166465250651,-1.3652801513671875,-4.723358154296875,-1.844024658203125,-2.747884610804116,0.1911070288681402,-1.2430330602134148,0.3171648297991072,-23.035685221354168,-1.957847958519345,1.626883626046571,-14.951919897232395,0.4878872863247865,-6.255786189119516,-64.27382987382987,-1.672542347669255,30.392877467277685,34.17878216072124,31.447180040135382,1577399161.0,-27.69843778923481,-51.11133759053604,23.329605
15574,1577399161.14,0.7504625103759764,0.7559691741943358,9.740689744262694,0.5618782530249616,0.9102053969964748,6.462709417873476,2.0737776713053377,-1.6233257303873696,12.994073472086589,0.7404327392578125,-5.577850341796875,-1.782989501953125,-7.325521329554116,-2.6470277367568595,-1.4566561070884148,-2.276829310825893,-18.274943033854168,-1.2864612397693451,1.807648473385084,-13.635398648419478,0.6505163817663843,-6.255786189119516,-63.32421652421653,-1.07786062405352,30.392877467277685,34.27462784916285,31.6388714170186,1577399161.0,-27.69843778923481,-51.11133759053604,23.329605
15575,1577399161.15,1.253244859008789,-0.4710591766357421,9.987292515258789,1.7913008055151958,-0.4389272385015715,11.140979461818787,0.6755639017740884,0.3279486226399735,10.18926622721354,-1.8840789794921875,-6.310272216796875,-2.118682861328125,-3.724447110804116,-5.27153945550686,-1.8991609899009148,-3.955296107700892,-6.327311197916667,0.5751110258556548,1.7172660497158274,-14.293659272825938,0.406572738603991,-5.987376957747332,-60.23797313797314,3.865431203502267,30.48872315571929,34.370473537604454,31.51906430646659,1577399161.0,-27.69843778923481,-51.11133759053604,23.329605
15576,1577399161.16,1.3849259503173827,-0.910395181274414,10.940184776000976,0.1261335508765241,0.6516316176995998,7.848952179103945,1.2645375101725254,0.490754335530598,7.832174692789713,-1.4873504638671875,-6.066131591796875,-2.271270751953125,3.904947420445884,-11.19194961175686,-2.0364900914634148,5.169459751674108,-9.699503580729166,-4.033043271019345,2.1691781680620985,-14.387696504884,1.3010327635327683,2.333309214790685,-61.42498982498982,-2.564564933092851,30.201186090394465,34.17878216072124,31.543025728577,1577399161.0,-27.69843778923481,-51.11133759053604,23.329605
15577,1577399161.17,0.5469553692626953,-0.0556651885986328,10.181222849731444,-1.054207867580506,0.280530360375381,10.511304425197691,0.3212220560709629,-1.015198508707682,8.710846702067057,-2.4333953857421875,-7.164764404296875,-2.332305908203125,-4.182210782679116,-5.21050429925686,-2.4942537633384148,1.0801042829241072,-12.110392252604166,-2.6597522553943453,1.626883626046571,-14.199622040767872,1.788920049857555,-1.9612384871644155,-57.62653642653642,-2.2672240712849896,30.680414532602512,34.27462784916285,31.5909485727978,1577399161.0,-27.69843778923481,-51.11133759053604,23.329605
15578,1577399161.18,0.6259640240478515,0.0424970794677734,8.914690171508788,3.2553551207007425,-0.9572718979253992,7.523340753322694,1.1400390238444005,0.2944297993977856,7.762742844645182,-1.8840789794921875,-7.347869873046875,-2.423858642578125,-5.097738126429116,-1.7009828148818598,-1.5787264195884148,3.948756626674107,-14.856974283854166,-3.910972958519345,1.626883626046571,-11.19043061490978,1.1384036680911775,-1.9612384871644155,-57.62653642653642,-2.2672240712849896,30.392877467277685,34.08293647227963,31.543025728577,1577399161.0,-27.69843778923481,-51.11133759053604,23.329605
15579,1577399161.19,0.8845378033447265,-0.2531868255615234,7.4949285870361315,-0.1922952699242567,-1.0398718552007895,4.38454237685785,1.0550448649088535,0.4081543782552074,5.651056980387369,-1.5483856201171875,-7.057952880859375,-2.164459228515625,0.9294835532583844,-13.09929824456936,-1.3651033727134148,-2.154758998325893,-21.006266276041668,-1.9425891694568451,2.078795744392842,-13.165212488129152,1.219718215811973,-0.8876015616756432,-61.42498982498982,7.6193595838265855,30.48872315571929,34.32255069338365,31.32737292958337,1577399161.0,-27.69843778923481,-51.11133759053604,23.329605
15580,1577399161.2,1.090439146118164,-0.3812766143798828,7.62421547668457,0.3775247251929303,1.020338673363662,9.046053009182067,0.5390944071451816,-2.892252610270182,12.101036252848306,-2.7080535888671875,-7.530975341796875,-2.301788330078125,-3.358236173304116,-7.7129457055068595,-2.4332186070884148,-1.6664777483258928,-15.406290690104166,-1.7747424897693451,0.903824236692542,-14.575770969000132,1.4636618589743662,-1.9612384871644155,-64.27382987382987,-1.672542347669255,30.5366459999401,34.27462784916285,31.5909485727978,1577399161.0,-27.69843778923481,-51.11133759053604,23.329605
15581,1577399161.21,1.5477316632080078,-0.1418564483642578,8.414302024536132,3.2505667173804302,-0.677150303687118,10.731570977932067,0.4074133158365879,0.0430386250813793,12.97970826212565,-0.7549285888671875,-7.378387451171875,-1.782989501953125,-3.571859220179116,-4.08135390863186,-0.8157869664634148,-1.0866437639508928,-0.7273356119791667,-1.4085315522693451,2.349943015400604,-14.951919897232395,-0.162629095441591,-5.182149263630755,-64.27382987382987,9.031728677413954,30.5845688441609,33.939167939617214,31.543025728577,1577399161.0,-27.69843778923481,-51.11133759053604,23.329605
15582,1577399161.22,1.3621810345458985,-0.3106476654052734,11.559085905151369,-0.8866137513695687,0.2182811172113185,8.9239487245141,2.037864646402994,1.2832350850423175,14.655649424235026,-0.2361297607421875,-7.302093505859375,-2.088165283203125,1.1278478110708845,-19.03496718988186,-1.6397615758384148,1.4157976422991072,17.888387044270832,-3.3006213960193453,1.2653539313695563,-14.199622040767872,1.1384036680911775,-5.182149263630755,-64.27382987382987,9.031728677413954,30.440800311498485,34.22670500494204,31.20756581903136,1577399161.0,-27.69843778923481,-51.11133759053604,23.329605
15583,1577399161.23,1.3298593121337892,-1.5161282012939452,11.438178721313475,3.3918246153296487,-0.7669328659429782,10.651365222316834,1.845131412760416,-1.0008332987467452,11.94541314493815,-2.2502899169921875,-7.592010498046875,-2.515411376953125,-3.892293790491616,-1.5331361351943598,-1.8228670445884148,-1.1476789202008928,26.799519856770832,-4.094078427269345,3.434532099431656,-14.951919897232395,1.1384036680911775,0.9912630579297114,-56.91432641432641,7.730862407004535,30.48872315571929,34.250666427052444,31.71075568334981,1577399161.0,-27.69843778923481,-51.11133759053604,23.329605
15584,1577399161.24,1.2867636822509767,-0.307056362915039,11.016799229125976,3.1188856260718363,-0.8573139786138763,11.680273385768984,1.7493633463541662,-0.5908262644449873,11.758066865030925,-0.3582000732421875,-8.049774169921875,-2.393341064453125,-0.5353601967416157,-2.5554750023818595,-1.5024324742759148,-0.7051740373883928,30.83546956380209,-3.529503231956845,3.434532099431656,-14.951919897232395,1.1384036680911775,-0.0823738675590665,-60.00056980056979,7.545024368374618,30.5366459999401,34.262647138107646,31.6388714170186,1577399161.0,-27.69843778923481,-51.11133759053604,23.329605
15585,1577399161.25,1.6794127545166015,0.8230068206787109,10.265019907836914,2.845946636814024,-0.947695091284774,12.70918154922113,1.653595279947916,-0.1808192301432295,11.570720585123697,0.0995635986328124,-6.859588623046875,-2.393341064453125,2.8215733970083843,-3.5778138695693595,-1.1819979039634148,-0.2626691545758928,34.87141927083334,-2.964928036644345,2.7114727100776186,-14.951919897232395,1.4636618589743662,-1.1560107930478445,-63.08681318681317,7.359186329744702,30.5366459999401,34.27462784916285,31.5669871506874,1577399161.0,-27.69843778923481,-51.11133759053604,23.329605
15586,1577399161.26,1.952351743774414,-0.7308300567626953,8.507675889282226,-0.7453558534203498,-1.3666803818121178,8.95028494277582,0.5390944071451816,1.5465972676595052,3.742878257242838,-0.5718231201171875,-6.066131591796875,-2.423858642578125,4.423746248570884,-5.79033828363186,-1.8839022008384148,-1.6359601702008928,24.113972981770832,-5.375816708519345,2.892237557416128,-14.763845433116265,0.3252581908831954,-3.571693875397591,-31.51216931216931,7.024677860210852,30.680414532602512,34.22670500494204,31.30341150747297,1577399161.0,-27.69843778923481,-51.11133759053604,23.329605
15587,1577399161.27,1.4495693951416015,-0.3525461944580078,8.859623533325195,3.1308566343726176,0.1823680923089747,11.480956097560972,1.5662069193522128,-1.0199869120279943,5.5121932840983074,-1.0906219482421875,-5.730438232421875,-2.393341064453125,-2.686849454554116,1.0150816382431402,-2.4332186070884148,-0.1100812639508928,4.308064778645833,-2.5376819428943453,2.349943015400604,-14.951919897232395,0.4878872863247865,-6.255786189119516,-65.22344322344321,6.9503426447588845,30.48872315571929,34.17878216072124,31.447180040135382,1577399161.0,-27.69843778923481,-51.11133759053604,23.329605
15588,1577399161.28,1.492665025024414,-0.5129577056884765,9.509649284057616,1.7685558897437117,-2.4560421371832124,10.336527704006286,0.8838594462076816,1.7692580220540364,7.841751499430338,-0.3124237060546875,-5.562591552734375,-2.210235595703125,-3.907552579554116,2.6630308569931405,-1.2735506383384148,-2.276829310825893,-7.685343424479167,-2.5987170991443453,2.349943015400604,-13.823473112535613,1.1384036680911775,-6.255786189119516,-65.22344322344321,6.9503426447588845,30.512684577829692,34.17878216072124,31.447180040135382,1577399161.0,-27.69843778923481,-51.11133759053604,23.329605
15589,1577399161.29,1.2125434307861327,0.2100911956787109,10.2602315045166,1.2873213560523051,0.6911359450921778,10.376032031398864,1.2190476786295563,-0.4908683451334634,11.692824869791666,1.8085479736328125,-5.181121826171875,-1.721954345703125,1.2194005454458845,-7.9265687523818595,-1.8686434117759148,0.3934587751116072,-2.909342447916667,-2.995445614769345,2.530707862739113,-15.51614328958079,0.6505163817663843,-1.4244200244200351,-57.15172975172975,-2.1928888558330213,30.728337376823312,34.202743582831644,31.662832839129003,1577399161.0,-27.69843778923481,-51.11133759053604,23.329605
15590,1577399161.3,0.793558140258789,-0.9941922393798828,10.46373864562988,2.0750137022437114,-1.541457103003524,12.017257269435976,0.6995059183756503,-5.70048014322787e-05,12.7690185160319,0.5573272705078125,-5.913543701171875,-2.240753173828125,-6.043783048304116,-0.6328675805068598,-3.0740877477134148,-0.7509504045758928,6.596883138020833,-2.3240588960193453,1.9884133207235888,-13.44732418430335,0.4878872863247865,-5.718967726375147,-60.0005698005698,10.295427340097389,30.5845688441609,34.27462784916285,31.447180040135382,1577399161.0,-27.69843778923481,-51.11133759053604,23.329605
15591,1577399161.31,1.7943344342041017,-1.5783774444580077,9.910678062133789,3.0446653746069927,-1.4696310531988366,13.07310020156488,0.3691060892740879,1.5130784444173175,11.9262595316569,0.3742218017578124,-6.645965576171875,-2.057647705078125,-3.175130704554116,-2.9522035180068595,-2.9214998570884148,2.972194126674107,9.984334309895834,-1.7137073335193451,1.2653539313695563,-14.575770969000132,1.4636618589743662,-5.718967726375147,-56.2021164021164,9.254734323769853,30.5366459999401,34.17878216072124,31.30341150747297,1577399161.0,-27.69843778923481,-51.11133759053604,23.329605
15592,1577399161.32,1.8039112408447264,-0.661398208618164,10.430219822387697,1.9529094175757429,0.8850662795648341,8.307441797023866,1.884635740152994,0.6439832417805985,9.95942286783854,1.3050079345703125,-5.883026123046875,-2.225494384765625,4.225381990758384,-2.4334046898818595,-2.2195955602134148,3.002711704799107,8.473714192708334,-3.254845028831845,3.434532099431656,-14.575770969000132,0.8131454772079753,-5.450558495002952,-60.237973137973135,3.939766418954234,30.46476173360889,34.08293647227963,31.5909485727978,1577399161.0,-27.69843778923481,-51.11133759053604,23.329605
15593,1577399161.33,1.5620968731689453,0.4088099334716796,9.795756382446289,2.8148220152319925,-1.6420135727300866,7.623897223049257,0.4433263407389316,-1.1061781717936197,8.069200657145181,2.2968292236328125,-5.791473388671875,-1.905059814453125,2.0738927329458843,-7.07207656488186,-2.2806307164634148,0.1035417829241072,4.491170247395833,-3.0564807710193453,3.434532099431656,-14.575770969000132,0.8131454772079753,-6.255786189119516,-65.22344322344321,7.396353937470683,30.48872315571929,34.22670500494204,31.73471710546021,1577399161.0,-27.69843778923481,-51.11133759053604,23.329605
15594,1577399161.34,1.7823634259033203,0.4734533782958984,9.259455210571288,0.3416117002905866,-1.254152903784774,7.817827557521913,0.4169901224772129,-0.5172045633951822,3.869770945231119,1.9306182861328125,-4.814910888671875,-1.477813720703125,3.0199376548208843,-6.52276015863186,-2.0059725133384148,1.0495867047991072,-8.600870768229166,-1.927330380394345,1.626883626046571,-14.951919897232395,-0.162629095441591,-6.255786189119516,-62.374603174603166,6.9503426447588845,30.5845688441609,34.17878216072124,31.543025728577,1577399161.0,-27.69843778923481,-51.11133759053604,23.329605
15595,1577399161.35,1.0952275494384764,0.3776853118896484,8.854835130004881,-1.2026483705101936,2.083364210473037,8.054853521877382,1.5901489359537753,-0.2179293558756509,5.742036643473307,0.9235382080078124,-4.143524169921875,-1.416778564453125,2.1959630454458843,0.4657652319931402,-1.8839022008384148,0.3476824079241072,-22.547403971354168,-2.6902698335193453,2.349943015400604,-14.575770969000132,1.1384036680911775,-6.255786189119516,-53.82808302808303,9.477739970125754,30.34495462305688,34.03501362805883,31.447180040135382,1577399161.0,-27.69843778923481,-51.11133759053604,23.329605
15596,1577399161.36,0.9192537274169924,-0.4147954376220703,8.873988743286132,2.0845905088843364,-1.7760888656988365,10.121049554592224,1.808021287027994,-1.1971578348795573,13.092235740152994,0.3437042236328125,-5.730438232421875,-1.462554931640625,-0.5658777748666157,1.16766952886814,-0.9378572789634148,3.079005650111608,-13.102213541666668,-0.8439563569568453,0.903824236692542,-13.823473112535613,0.8131454772079753,-4.108512338141966,-62.37460317460318,6.9503426447588845,30.46476173360889,34.22670500494204,31.49510288435619,1577399161.0,-27.69843778923481,-51.11133759053604,23.329605
15597,1577399161.37,1.5477316632080078,0.2795230438232421,11.2945266217041,2.0893789122046487,1.2214516128167872,8.916766119533632,0.9030130594889316,0.1507776997884105,12.007662388102212,3.3649444580078125,-5.577850341796875,-0.562286376953125,5.919107576695884,-9.02520156488186,-1.2125154820884148,1.8735613141741072,-1.2461344401041667,-0.8286975678943452,0.903824236692542,-13.823473112535613,0.8131454772079753,-4.645330800886364,-64.74863654863654,7.916700445634452,30.48872315571929,34.370473537604454,31.447180040135382,1577399161.0,-27.69843778923481,-51.11133759053604,23.329605
15598,1577399161.38,0.898903013305664,0.2053027923583984,13.569018198852538,1.823622527927305,-0.1600027450933679,12.072323907619568,-0.3994326436360673,0.9145280293782542,10.549593577067055,4.5856475830078125,-5.669403076171875,-0.653839111328125,4.362711092320884,-8.56743789300686,-2.0059725133384148,0.5002702985491072,-4.969278971354167,-0.7066272553943452,1.807648473385084,-14.011547576651742,0.0,-4.645330800886364,-59.05095645095645,9.700745616481653,30.48872315571929,34.08293647227963,31.6388714170186,1577399161.0,-27.69843778923481,-51.11133759053604,23.329605
15599,1577399161.39,2.3174674969482423,-1.0672153900146484,9.907086759643551,2.4532975645483988,-2.2764770126714926,10.956625933986755,0.0530714701334628,1.3622437398274738,8.761124936930338,-1.3652801513671875,-6.127166748046875,-1.325225830078125,7.261881014195884,-6.09551406488186,-0.2054354039634147,-1.4223371233258928,-12.751261393229166,-0.8592151460193452,1.4461187787080658,-13.447324184303351,0.9757745726495765,2.333309214790685,-59.52576312576312,8.139706091990352,30.46476173360889,34.17878216072124,31.20756581903136,1577399161.0,-27.69843778923481,-51.11133759053604,23.329605
15600,1577399161.4,1.3849259503173827,-0.182557876586914,8.802162693481444,2.361120800632383,-0.0905708969488372,10.09950173965082,1.6248648600260411,0.8726295003255199,9.87682291056315,1.5338897705078125,-5.211639404296875,-0.501251220703125,2.9436437095083843,-6.29387832269436,-0.9836336461509148,3.841945103236608,-6.800333658854167,-1.9273303803943451,2.349943015400604,-13.823473112535613,1.1384036680911775,-1.6928292557922309,-59.28835978835978,-1.3380338781354018,30.5845688441609,34.32255069338365,31.20756581903136,1577399161.0,-27.69843778923481,-51.11133759053604,23.329605
15601,1577399161.41,1.5932214947509766,0.6075286712646484,9.812515794067382,0.9664983335913678,-0.7848893783941493,9.6900932557641,0.8838594462076816,-3.215469834391276,11.9262595316569,3.0597686767578125,-5.028533935546875,-0.623321533203125,2.8063146079458843,-3.4099671898818595,-2.1280428258384148,4.040309361049108,-0.9409586588541669,-1.1338733491443451,2.349943015400604,-13.823473112535613,1.1384036680911775,-5.718967726375147,-60.95018315018314,-1.3008662704094192,30.392877467277685,34.08293647227963,31.543025728577,1577399161.0,-27.69843778923481,-51.11133759053604,23.329605
15602,1577399161.42,1.6339229229736327,0.6745663177490234,9.735901340942382,2.1252919371069927,-1.1512022323980555,8.416377972560975,-0.3587312154134111,1.357455336507161,7.04927074991862,2.3883819580078125,-4.875946044921875,-0.501251220703125,3.752359529820884,-8.47588515863186,-0.4190584508384147,-1.2392316545758928,-4.908243815104167,1.5821911039806549,1.4461187787080658,-13.635398648419478,0.6505163817663843,-6.255786189119516,-61.42498982498982,2.192888855833015,30.5366459999401,34.17878216072124,31.6388714170186,1577399161.0,-27.69843778923481,-51.11133759053604,23.329605
15603,1577399161.43,1.4028824627685548,-0.4112041351318359,8.695620719604491,0.9784693418921492,0.3571448135003809,5.866553204494569,1.4871982645670565,1.429281386311849,7.271931504313151,-0.2208709716796875,-4.418182373046875,-1.004791259765625,2.0128575766958843,-6.40068984613186,-1.1209627477134148,0.8969988141741072,-10.370890299479166,-3.4837268647693453,1.4461187787080658,-14.387696504884005,0.6505163817663843,-4.108512338141983,-57.62653642653642,7.842365230182486,30.48872315571929,34.08293647227963,32.07017701500584,1577399161.0,-27.69843778923481,-51.11133759053604,23.329605
15604,1577399161.44,1.5166070416259765,-0.182557876586914,9.029611851196288,1.0945881224097271,-0.4089997177496185,9.297444183498474,1.16637524210612,-0.6668421671549484,11.914288523356118,0.6793975830078125,-4.662322998046875,-0.531768798828125,0.7768956626333843,-4.73748183831936,-0.3427645055259147,2.514430454799107,-5.961100260416667,-1.0880969819568451,0.7230593893540329,-14.763845433116265,1.6262909544159574,-18.334201600868276,-63.56161986161987,4.088436849858166,30.392877467277685,34.130859316500434,31.49510288435619,1577399161.0,-27.69843778923481,-51.11133759053604,23.329605
15605,1577399161.45,1.5620968731689453,0.2220622039794921,11.883500230102538,2.7669379820288675,-1.6635613876714928,12.350051300197691,1.2789027201334628,-3.5315044535319005,15.215892612711588,3.0292510986328125,-3.868865966796875,-0.348663330078125,-0.7642420326791157,1.99164413824314,-0.7547518102134148,2.422877720424107,2.660115559895833,-1.6831897553943451,0.7230593893540329,-14.763845433116265,1.6262909544159574,-4.645330800886364,-64.74863654863654,7.024677860210852,30.680414532602512,34.08293647227963,31.6388714170186,1577399161.0,-27.69843778923481,-51.11133759053604,23.329605
15606,1577399161.46,1.2700042706298829,0.4614823699951171,12.441349216918944,1.861929754489805,0.960483631859756,13.041975579982848,-0.6196991963704424,-2.8778874003092443,13.59262388712565,4.0668487548828125,-3.350067138671875,-0.470733642578125,2.2569982016958843,-13.75542617425686,0.3743985804115852,2.270289829799107,16.087849934895832,2.9554821196056547,1.626883626046571,-14.199622040767872,-0.162629095441591,-5.182149263630755,-65.22344322344321,9.477739970125754,30.392877467277685,34.27462784916285,31.543025728577,1577399161.0,-27.69843778923481,-51.11133759053604,23.329605
15607,1577399161.47,1.7153257794189454,-1.2575544219970702,11.814068381958007,1.026353375095274,-1.4337180282964928,10.662139129787535,1.989980613199869,5.391685133870443,13.154484983317056,-0.0835418701171875,-4.418182373046875,-1.218414306640625,-1.7102869545541155,3.670110935118141,-0.9073397008384148,0.6833757672991072,29.179890950520832,-0.7676624116443452,2.530707862739115,-14.575770969000132,0.3252581908831921,-6.255786189119516,-65.22344322344321,7.0990130756628185,30.5845688441609,34.03501362805883,31.5909485727978,1577399161.0,-27.69843778923481,-51.11133759053604,23.329605
15608,1577399161.48,2.086427036743164,0.4351461517333984,11.270584605102538,3.606105663913633,-0.0127593429937591,13.651299902492616,0.0770134867350258,-0.917036240641276,12.077094236246744,1.1066436767578125,-3.441619873046875,-0.989532470703125,2.6842442954458843,1.2897398413681405,-0.2359529820884147,1.4157976422991072,39.49483235677084,-3.254845028831845,2.892237557416128,-14.011547576651742,1.951549145299146,-3.5716938753975795,-60.95018315018314,-0.7805197622456511,30.5366459999401,34.130859316500434,32.04621559289544,1577399161.0,-27.69843778923481,-51.11133759053604,23.329605
15609,1577399161.49,2.0146009869384764,0.1502361541748046,9.843640415649412,0.8779128721655866,-0.7298227402105555,9.338145611721131,0.2086945780436191,1.534626259358724,7.477832847086588,1.4423370361328125,-2.892303466796875,-0.959014892578125,0.5785314048208843,0.3436949194931402,-1.8533846227134148,0.3476824079241072,33.54390462239584,-4.643394833519345,2.892237557416128,-14.011547576651742,1.951549145299146,9.848767693212126,-65.22344322344321,7.842365230182486,30.48872315571929,34.27462784916285,31.543025728577,1577399161.0,-27.69843778923481,-51.11133759053604,23.329605
15610,1577399161.5,2.304299387817383,0.5668272430419922,9.778996970825194,2.922561089939024,1.554245643578506,12.424271551662535,-1.4624581807454422,-2.578612192789713,2.014264658610026,2.6630401611328125,-2.190399169921875,-1.050567626953125,-0.2149256264291157,5.6232359351181405,-1.0294100133384148,1.2326921735491072,12.852986653645834,-1.4695667085193451,1.084589084031051,-14.763845433116265,0.3252581908831954,2.333309214790685,-57.62653642653642,7.247683506566751,30.5366459999401,34.22670500494204,31.5909485727978,1577399161.0,-27.69843778923481,-51.11133759053604,23.329605
15611,1577399161.51,1.7560272076416017,-0.4973953948974609,8.700409122924803,1.2490141294898052,-1.597720842017196,7.477850921779725,-0.0534705037434897,1.884179701741536,5.416425217692057,-0.0225067138671875,-0.2525329589843749,-1.157379150390625,1.478799959508384,-3.0590150414443595,-0.8768221227134148,2.087184361049107,-20.502726236979168,-2.5376819428943453,1.8980308970543347,-14.85788266517433,1.0570891203703752,-5.182149263630755,-57.62653642653642,6.9503426447588845,30.48872315571929,34.250666427052444,31.5909485727978,1577399161.0,-27.69843778923481,-51.11133759053604,23.329605
15612,1577399161.52,1.0664971295166017,0.3345896820068359,9.180446555786132,1.1316982481421491,0.443336073266006,9.833745355373477,3.31157992960612,-4.39341705118815,12.87196918741862,2.6325225830078125,-1.000213623046875,-0.928497314453125,5.339273592320884,-1.0295960961318598,-0.8768221227134148,1.5683855329241072,-20.929972330729168,-0.2793811616443452,1.626883626046571,-15.328068825464658,0.8131454772079753,-6.255786189119516,-63.32421652421653,9.626410401029688,30.48872315571929,34.08293647227963,31.447180040135382,1577399161.0,-27.69843778923481,-51.11133759053604,23.329605
15613,1577399161.53,0.8797494000244139,0.0688332977294921,12.798085264282223,2.704688738864805,-0.5071619858160242,12.3332918885766,2.3874180887858065,0.4404761006673168,14.770571103922526,2.8461456298828125,-1.549530029296875,-0.836944580078125,-8.698812345179116,7.24066757574314,-0.2664705602134147,0.4392351422991072,-10.126749674479166,2.3451305571056547,1.626883626046571,-15.328068825464658,0.8131454772079753,-6.255786189119516,-63.32421652421653,9.775080831933622,30.48872315571929,34.08293647227963,31.543025728577,1577399161.0,-27.69843778923481,-51.11133759053604,23.329605
15614,1577399161.54,1.7751808209228517,-0.345363589477539,12.333610142211914,4.313592254489805,0.6109301894769434,12.08908331924066,2.009134226481119,0.6559542500813792,9.192081235758463,1.7780303955078125,-1.396942138671875,-1.355743408203125,-2.839437345179116,-0.9990785180068598,-2.9520174352134148,3.796168736049107,-8.875528971354166,-0.9507678803943452,2.349943015400604,-13.823473112535613,0.1626290954415977,-1.9612384871644155,-65.22344322344321,6.9503426447588845,30.392877467277685,34.22670500494204,31.447180040135382,1577399161.0,-27.69843778923481,-51.11133759053604,23.329605
15615,1577399161.55,1.720114182739258,-0.6877344268798827,12.81484467590332,1.026353375095274,-1.1057124008550867,8.095554950100038,0.6252856669108067,-1.0367463236490884,9.919918540445964,-0.2666473388671875,-2.373504638671875,-1.386260986328125,1.4330235923208845,4.4330503882431405,-0.3275057164634147,3.338405064174107,-10.553995768229166,-1.896812802269345,2.1691781680620985,-15.51614328958079,0.9757745726495798,-5.182149263630755,-61.42498982498982,7.545024368374619,30.392877467277685,34.17878216072124,31.447180040135382,1577399161.0,-27.69843778923481,-51.11133759053604,23.329605
15616,1577399161.56,1.606389603881836,-0.0927753143310546,9.458173948364257,1.849958746189024,0.926964808617569,9.711641070705506,-0.7932788167317709,-0.7650044352213545,12.496079526774087,-0.3734588623046875,-2.251434326171875,-1.142120361328125,1.4177648032583845,-3.01323867425686,-1.2277742711509148,1.2784685407366072,5.254109700520834,-1.0575794038318451,2.078795744392844,-14.293659272825938,0.731830929487183,-4.376921569514173,-60.71277981277981,3.716760772598335,30.632491688381705,34.08293647227963,31.447180040135382,1577399161.0,-27.69843778923481,-51.11133759053604,23.329605
15617,1577399161.57,2.345000816040039,0.6625953094482422,10.164463438110351,0.6121564878882428,-1.970019200171493,7.458697308498476,-0.6939194478352861,-2.576217991129557,6.419595713297526,2.3578643798828125,-0.3288269042968749,-0.897979736328125,-2.442708829554116,8.79706406011814,-0.9378572789634148,-1.0256086077008928,11.388142903645834,-1.4085315522693451,2.530707862739113,-15.892292217813049,0.0,3.943764603023849,-59.05095645095645,7.024677860210852,30.34495462305688,34.08293647227963,31.543025728577,1577399161.0,-27.69843778923481,-51.11133759053604,23.329605
15618,1577399161.58,1.8709488873291016,0.7846995941162109,9.343252268676755,0.2458436338843365,-2.38661028903868,8.715653180080507,0.7617551615397129,-0.0886424662272134,2.8402642313639315,0.5573272705078125,0.1899719238281251,-0.836944580078125,-0.1233728920541157,0.3742124976181402,-1.1514803258384148,0.1950945172991072,-1.7038981119791667,-3.0564807710193453,2.530707862739113,-15.892292217813049,0.0,3.406946140279458,-57.62653642653642,10.221092124645423,30.5845688441609,34.27462784916285,31.73471710546021,1577399161.0,-27.69843778923481,-51.11133759053604,23.329605
15619,1577399161.59,1.961928550415039,0.1478419525146484,7.300998252563476,2.3120396665991803,3.7449401626214742,11.315756183010192,1.3914301981608066,0.4692065205891918,5.289532529703775,-2.0977020263671875,0.5561828613281251,-1.691436767578125,-2.045980313929116,4.6771910132431405,0.1607755335365852,-0.1100812639508928,-18.854777018229168,-4.094078427269345,0.3615296946770146,-14.011547576651742,0.9757745726495798,-1.9612384871644155,-55.72730972730972,9.329069539221818,30.392877467277685,34.17878216072124,31.5909485727978,1577399161.0,-27.69843778923481,-51.11133759053604,23.329605
15620,1577399161.6,1.451963596801758,0.650624301147461,9.508452183227538,1.305277868503477,-1.2960514328375086,8.612702508693788,1.258552006022135,-2.930559836832682,8.862878507486979,-1.2432098388671875,0.3273010253906251,-1.371002197265625,-1.6034754311166155,1.7627623023056405,-0.7242342320884148,-0.9187970842633928,-27.353922526041668,-0.2641223725818451,2.621090286408366,-14.6698082010582,0.2439436431623932,-0.8876015616756432,-60.47537647537648,3.3822523030644835,30.5366459999401,34.08293647227963,31.49510288435619,1577399161.0,-27.69843778923481,-51.11133759053604,23.329605
15621,1577399161.61,1.5980098980712891,-0.115520230102539,11.541129392700194,2.072619500583555,1.6739557265863183,11.483350299221131,1.4848040629069004,-0.4765031351725259,8.093142673746744,-0.5718231201171875,0.1594543457031251,-1.294708251953125,-0.9473475014291156,-0.3276917992568597,-0.7242342320884148,0.2256120954241072,-25.507609049479168,1.6432262602306549,0.903824236692542,-12.695026327838823,1.1384036680911775,-6.255786189119516,-57.62653642653642,9.329069539221818,30.48872315571929,34.17878216072124,31.447180040135382,1577399161.0,-27.69843778923481,-51.11133759053604,23.329605
15622,1577399161.62,1.3753491436767578,-1.283890640258789,10.071089573364256,1.4309734556616802,-1.5151208847418054,10.286249469143003,1.939702378336588,2.473153310139973,10.733947104899087,-1.8840789794921875,-0.2677917480468749,-1.325225830078125,-2.473226407679116,6.6608335913681405,-0.8768221227134148,-0.2321515764508928,-24.103800455729168,-0.3709338960193452,2.530707862739113,-13.635398648419478,1.6262909544159574,-6.255786189119516,-57.62653642653642,8.437046953798218,30.48872315571929,34.17878216072124,31.5909485727978,1577399161.0,-27.69843778923481,-51.11133759053604,23.329605
15623,1577399161.63,1.4375983868408204,-1.034893667602539,9.467750755004882,0.930585308689024,-1.0147327377691493,6.486651434475038,2.69866430460612,0.2848529927571606,9.943860557047524,-1.9451141357421875,-1.549530029296875,-1.264190673828125,2.7452794516958843,-10.76470351800686,-1.1209627477134148,-0.9035382952008928,-22.944132486979168,-1.3169788178943451,2.530707862739113,-13.635398648419478,1.6262909544159574,3.406946140279458,-65.22344322344321,-1.3752014858613844,30.48872315571929,34.17878216072124,31.543025728577,1577399161.0,-27.69843778923481,-51.11133759053604,23.329605
15624,1577399161.64,1.3490129254150391,0.929548794555664,8.494507780151366,2.05705718979254,-0.4963880783453215,5.975489380031679,2.0821573771158848,1.1599336995442708,5.776752567545572,-2.1282196044921875,-1.854705810546875,-1.065826416015625,-0.4743250404916157,0.4505064429306404,0.3438810022865852,-1.5749250139508928,-36.46341959635417,-1.8510364350818451,2.078795744392844,-13.917510344593676,-0.0813145477207955,-0.619192330303453,-61.18758648758648,3.419419910790467,30.46476173360889,34.27462784916285,31.327372929583376,1577399161.0,-27.69843778923481,-51.11133759053604,23.329605
15625,1577399161.65,1.2221202374267577,0.1622071624755859,6.733572459106444,-0.7477500550805061,-0.3275968613043055,6.563265887600038,2.5119165751139323,-0.7709899393717446,7.250383689371745,-3.0742645263671875,-1.793670654296875,-1.142120361328125,1.9518224204458845,-11.58867812738186,0.2523282679115852,-3.344944545200893,-43.81815592447917,2.9859996977306547,2.892237557416128,-14.763845433116265,0.3252581908831954,-2.4980569499088072,-62.84940984940984,7.768030014730519,30.392877467277685,34.08293647227963,31.782639949681013,1577399161.0,-27.69843778923481,-51.11133759053604,23.329605
15626,1577399161.66,0.2620453717041015,0.3274070770263672,7.679282114868164,-1.2960222352562871,-0.5861706406011804,7.293497393947694,0.7138711283365878,-4.441301084391276,7.111519993082682,-3.5625457763671875,-1.610565185546875,-1.142120361328125,0.4869786704458843,-4.41704726800686,0.1302579554115852,-4.504612513950892,-44.42850748697917,0.7582164946056548,2.530707862739113,-14.387696504884,0.3252581908831954,0.7228538265575211,-57.15172975172975,7.768030014730519,30.392877467277685,34.41839638182526,31.6388714170186,1577399161.0,-27.69843778923481,-51.11133759053604,23.329605
15627,1577399161.67,1.432809983520508,0.3824737152099609,7.549995225219725,0.5451188414038678,-2.422523313941024,10.06598291640863,2.1863051493326817,-3.675156553141276,12.977314060465494,-4.050827026367188,-3.014373779296875,-1.477813720703125,-10.285726407679116,4.9518492163681405,-0.5106111852134148,-4.168919154575892,-24.653116861979168,1.1854625883556549,2.530707862739113,-14.387696504884,0.3252581908831954,-6.255786189119516,-64.27382987382987,-1.3752014858613844,30.48872315571929,34.08293647227963,31.5909485727978,1577399161.0,-27.69843778923481,-51.11133759053604,23.329605
15628,1577399161.68,1.4974534283447265,-0.354940396118164,9.929831675415038,0.9006577879370714,2.3215872756585845,9.484191912990664,1.9624472941080724,1.576524788411458,13.176032798258465,-3.486251831054688,-2.495574951171875,-1.157379150390625,-8.805623868616616,-1.7467591820693595,0.6643155725990852,-5.832127162388392,2.888997395833333,-2.0799182710193453,1.4461187787080676,-15.516143289580786,0.4878872863247898,-40.61216780476041,-56.67692307692308,8.139706091990352,30.512684577829692,34.17878216072124,31.5909485727978,1577399161.0,-27.69843778923481,-51.11133759053604,23.329605
15629,1577399161.69,1.784757627563477,1.3664905975341797,13.360722654418945,4.330351666110899,-1.7162338241949302,10.90874190078363,0.6755639017740879,-2.798878745524088,7.760348642985026,-1.7925262451171875,-2.068328857421875,-1.111602783203125,-9.553304532679116,2.3883726538681405,-1.0904451695884148,-6.884983607700892,1.0732014973958333,-1.1338733491443451,1.807648473385084,-14.011547576651742,-0.3252581908831888,-6.255786189119516,-64.27382987382987,9.329069539221818,30.48872315571929,34.27462784916285,31.447180040135382,1577399161.0,-27.69843778923481,-51.11133759053604,23.329605
15630,1577399161.7,1.241273850708008,-0.7212532501220703,11.756607542114256,2.654410504001524,-0.8567154281988367,12.761853985744567,1.281296921793619,1.151553993733723,9.587124509684246,-4.874801635742188,-2.648162841796875,-1.142120361328125,-8.912435392054116,-8.44536758050686,1.6561368616615852,-3.680637904575893,0.1881917317708333,-0.0657581147693452,3.253767252093146,-14.387696504884,0.3252581908831954,-6.255786189119516,-64.27382987382987,6.9503426447588845,30.5366459999401,34.17878216072124,31.782639949681013,1577399161.0,-27.69843778923481,-51.11133759053604,23.329605
15631,1577399161.71,0.7145494854736327,-0.9080009796142576,10.129747514038083,-3.1778647401391,0.5271331313714748,8.208082428127382,1.702676413981119,0.3997746724446606,14.32764379679362,-4.905319213867188,-3.395843505859375,-1.432037353515625,4.149088045445884,-11.68023086175686,-1.5482088414634148,-2.856663295200893,2.690633138020833,-0.3098987397693452,2.5307078627391157,-14.387696504884,0.8131454772079818,2.333309214790685,-57.62653642653642,-0.7805197622456527,30.5606074220505,34.41839638182526,31.543025728577,1577399161.0,-27.69843778923481,-51.11133759053604,23.329605
15632,1577399161.72,1.7344793927001954,-0.5416881256103515,9.1110147076416,2.247396221774961,-0.7681299667730559,9.471023803859802,2.0079371256510408,-0.1868047342936201,10.191660428873698,-4.142379760742188,-4.265594482421875,-1.325225830078125,-4.334798673304116,5.2722837866806405,-0.2054354039634147,-3.741673060825892,18.773396809895832,-0.3098987397693452,1.4461187787080658,-14.387696504884,0.6505163817663843,2.601718446162881,-64.98603988603988,3.419419910790466,30.680414532602512,34.27462784916285,31.543025728576996,1577399161.0,-27.69843778923481,-51.11133759053604,23.329605
15633,1577399161.73,1.8326416607666016,0.2867056488037109,8.399936814575195,2.110926727146055,0.8886575820550684,9.237589141994569,0.8096391947428379,1.5705392842610677,9.761901230875653,-2.4639129638671875,-2.892303466796875,-1.325225830078125,-2.992025235804116,-11.64971328363186,0.0081876429115852,-1.8801007952008928,20.085652669270832,-4.399254208519345,0.5422945420155274,-14.199622040767872,-0.162629095441591,2.333309214790685,-59.52576312576312,7.842365230182486,30.680414532602512,34.03501362805883,31.30341150747297,1577399161.0,-27.69843778923481,-51.11133759053604,23.329605
15634,1577399161.74,1.2915520855712892,-1.0492588775634766,9.814909995727538,-1.1020919007836312,-0.9309356796636804,10.846492657619567,0.2924916361490878,-0.6680392679850259,9.381223166910807,-2.4639129638671875,-2.465057373046875,-1.599884033203125,-0.7032068764291157,-1.7925355492568598,-0.1138826695884147,-4.992893763950892,12.151082356770834,-2.5681995210193453,1.084589084031051,-14.387696504884,0.6505163817663843,-6.255786189119516,-59.52576312576312,7.842365230182486,30.392877467277685,34.27462784916285,31.5909485727978,1577399161.0,-27.69843778923481,-51.11133759053604,23.329605
15635,1577399161.75,0.9850942730712888,-0.8098387115478515,9.580278233032226,0.1404987608374616,-0.0235332504644617,10.001339471584412,2.286861619059244,0.9288932393391918,5.502616477457682,-2.1587371826171875,-1.946258544921875,-1.691436767578125,-2.290120938929116,-2.5554750023818595,-0.4800936070884147,-2.276829310825893,-6.891886393229167,-3.727867489769345,1.807648473385084,-14.763845433116265,0.9757745726495798,-1.9612384871644155,-57.62653642653642,7.247683506566751,30.48872315571929,34.08293647227963,31.5909485727978,1577399161.0,-27.69843778923481,-51.11133759053604,23.329605
15636,1577399161.76,0.5158307476806641,-1.2431892120361328,9.489298569946287,-0.5657907289086311,-0.0714172836675867,7.039712017971132,0.9221666727701816,-2.40862387491862,11.500091636149088,-1.8535614013671875,-3.777313232421875,-1.203155517578125,5.278238436070884,-7.5908753930068595,-0.7242342320884148,-3.131321498325893,-3.0466715494791665,0.2089000883556547,0.5422945420155274,-13.823473112535613,0.1626290954415977,-6.255786189119516,-65.22344322344321,8.437046953798218,30.5366459999401,34.03501362805883,31.6388714170186,1577399161.0,-27.69843778923481,-51.11133759053604,23.329605
15637,1577399161.77,0.6642712506103515,-1.3245920684814452,11.380717881469726,1.804468914646055,-0.3611156845464929,7.827404364162538,2.9907569071451823,2.841860365804036,13.401087754313153,-0.4192352294921875,-4.113006591796875,-1.813507080078125,-3.968587735804116,-1.0601136742568598,-1.0904451695884148,-0.9035382952008928,8.366902669270834,3.1996227446056547,0.7230593893540329,-14.011547576651742,1.6262909544159574,-6.255786189119516,-54.77769637769637,7.247683506566751,30.728337376823312,34.22670500494204,31.543025728577,1577399161.0,-27.69843778923481,-51.11133759053604,23.329605
15638,1577399161.78,2.2803573712158203,-0.872087954711914,10.53556469543457,3.0710015928687118,-0.7513705551519617,11.186469293361757,1.5494475077311192,0.5721571919759105,14.51199732462565,-0.2361297607421875,-3.014373779296875,-1.874542236328125,-0.5506189858041157,-2.1282289086318595,-1.9449373570884148,-4.565647670200892,26.036580403645832,-2.3545764741443453,1.626883626046571,-14.575770969000132,0.4878872863247865,-4.645330800886364,-55.25250305250305,8.214041307442319,30.680414532602512,34.27462784916285,31.39925719591458,1577399161.0,-27.69843778923481,-51.11133759053604,23.329605
15639,1577399161.79,1.387320151977539,0.0017956512451171,11.847587205200194,3.533082513278868,0.0626580093011622,9.692487457424257,0.1632047465006503,1.5777218892415363,11.89513491007487,0.3742218017578124,-2.190399169921875,-1.813507080078125,-7.935872892054116,-2.3113343773818595,-3.2571932164634148,-0.5068097795758928,38.30464680989584,-2.7513049897693453,-0.1807648473385055,-14.575770969000132,0.1626290954415977,-5.718967726375147,-59.05095645095645,7.173348291114784,30.680414532602512,34.08293647227963,31.5909485727978,1577399161.0,-27.69843778923481,-51.11133759053604,23.329605
15640,1577399161.8,1.9379865338134763,-0.0532709869384765,10.65527477844238,2.8507350401343365,-0.0522636703863367,8.708470575100039,-0.6436412129720048,-1.3623577494303385,5.270378916422525,0.4962921142578124,-2.312469482421875,-1.782989501953125,-1.5576990639291155,-3.1963441430068595,-1.6397615758384148,-1.2087140764508928,27.104695638020832,-6.779625302269345,2.7114727100776186,-14.575770969000132,0.8131454772079753,-5.718967726375147,-60.95018315018314,7.173348291114784,30.48872315571929,34.08293647227963,31.73471710546021,1577399161.0,-27.69843778923481,-51.11133759053604,23.329605
15641,1577399161.81,1.7272967877197265,0.1502361541748046,8.589078745727537,1.7661616880835551,-2.314784239233993,8.217659234768007,-0.6388528096516923,-2.703110679117838,4.164257749430337,-0.7244110107421875,-1.854705810546875,-1.874542236328125,0.8226720298208843,1.90009140386814,-0.9073397008384148,1.2021745954241072,-5.152384440104167,-3.4837268647693453,0.7230593893540329,-13.635398648419478,1.951549145299146,-6.255786189119516,-65.22344322344321,7.0990130756628185,30.5366459999401,34.22670500494204,31.543025728577,1577399161.0,-27.69843778923481,-51.11133759053604,23.329605
15642,1577399161.82,1.2867636822509767,-0.1322796417236328,7.061578086547851,-0.4580516542015999,0.4648838882074122,11.612637188869568,-0.3611254170735674,-0.5315697733561197,8.016528220621744,0.0080108642578124,-1.244354248046875,-1.538848876953125,3.1420079673208843,-5.48516250238186,-1.0294100133384148,0.1950945172991072,-20.289103190104168,-1.6831897553943451,0.3615296946770146,-14.011547576651742,-0.3252581908831888,-3.034875412653199,-57.62653642653642,6.9503426447588845,30.48872315571929,34.17878216072124,31.447180040135382,1577399161.0,-27.69843778923481,-51.11133759053604,23.329605
15643,1577399161.83,1.4759056134033204,0.1981201873779296,8.86201773498535,0.0495190977515241,-0.341962071265243,7.640656634670351,1.073001377360025,-1.2498302714029947,14.19835690714518,1.7475128173828125,-1.122283935546875,-1.416778564453125,-0.0928553139291157,1.83905624761814,-0.6631990758384148,1.0495867047991072,-8.997599283854166,-0.0352405366443452,1.084589084031051,-14.763845433116265,1.3010327635327683,-1.9612384871644155,-53.82808302808303,-0.4831789004377853,30.5366459999401,34.17878216072124,31.6388714170186,1577399161.0,-27.69843778923481,-51.11133759053604,23.329605
15644,1577399161.84,0.7193378887939452,0.0664390960693359,11.493245359497068,2.625680084079649,0.4409418716058497,10.844098455959411,0.4026249125162753,1.496319032796224,11.725146592203776,2.3273468017578125,-1.457977294921875,-1.294708251953125,-2.076497892054116,-1.0295960961318598,-1.9144197789634148,-1.3307843889508928,-0.6663004557291667,1.6737438383556549,1.626883626046571,-13.071175256071088,1.1384036680911775,0.1860353638131292,-61.42498982498982,9.329069539221818,30.34495462305688,34.370473537604454,31.447180040135382,1577399161.0,-27.69843778923481,-51.11133759053604,23.329605
15645,1577399161.85,1.4375983868408204,-1.0803834991455077,11.047923850708006,1.29689816269293,-1.924529368628524,10.7626955995141,1.7433778422037751,1.49871323445638,10.947031052652994,1.3202667236328125,-1.976776123046875,-1.538848876953125,4.210123201695884,-0.3887269555068597,-1.5482088414634148,1.1716570172991072,-2.7109781901041665,-1.3169788178943451,0.7230593893540329,-14.763845433116265,-0.6505163817663776,-6.255786189119516,-61.42498982498982,9.329069539221818,30.680414532602512,34.27462784916285,31.447180040135382,1577399161.0,-27.69843778923481,-51.11133759053604,23.329605
15646,1577399161.86,1.8302474591064453,-0.9726444244384764,10.360787974243165,0.9664983335913678,0.0075913711175685,12.151332562404724,0.9796275126139316,0.4955427388509105,12.189621714274088,-0.6938934326171875,-1.946258544921875,-1.294708251953125,-2.442708829554116,-2.0061585961318595,-0.7547518102134148,0.9885515485491072,-7.502237955729167,-3.3616565522693453,3.0730024047546407,-14.199622040767872,-0.162629095441591,0.1860353638131292,-59.52576312576312,8.139706091990352,30.728337376823312,34.22670500494204,31.447180040135382,1577399161.0,-27.69843778923481,-51.11133759053604,23.329605
15647,1577399161.87,0.812711753540039,0.0855927093505859,9.688017307739257,2.0271296690405864,-0.1935215683355554,9.359693426662538,0.4409321390787754,-2.9185888285319006,11.921471128336588,0.4962921142578124,-1.793670654296875,-1.020050048828125,1.7992345298208845,1.6559507788681402,-0.2969881383384147,3.582545689174107,-2.3752848307291665,-3.0259631928943453,0.7230593893540329,-14.387696504884,0.9757745726495798,0.1860353638131292,-51.92885632885632,-1.3752014858613844,30.48872315571929,34.17878216072124,31.543025728577,1577399161.0,-27.69843778923481,-51.11133759053604,23.329605
15648,1577399161.88,1.855386576538086,0.2220622039794921,9.453385545043943,2.00558185409918,-1.962836595191024,8.665374945217225,-0.1576182759602861,-2.0925892557779946,8.801826365152994,1.7169952392578125,-0.862884521484375,-0.760650634765625,-0.7947596108041157,-4.14238906488186,-0.9073397008384148,1.8125261579241072,0.6154378255208333,0.6361461821056548,0.3615296946770146,-14.011547576651742,0.6505163817663843,-3.034875412653199,-65.22344322344321,6.9503426447588845,30.53664599994009,34.27462784916285,31.447180040135382,1577399161.0,-27.69843778923481,-51.11133759053604,23.329605
15649,1577399161.89,1.7679982159423828,-0.2998737579345703,7.921096482543945,-0.5885356446801155,0.5498780471429591,8.090766546779726,0.2541844095865884,1.0414207173665364,5.827030802408854,0.0690460205078124,-0.0541687011718748,-0.897979736328125,2.1959630454458843,-5.16472793206936,-0.5106111852134148,1.6446794782366072,-9.684244791666666,-0.8592151460193451,0.7230593893540329,-14.763845433116265,0.6505163817663843,-1.4244200244200351,-64.74863654863654,5.09196225845972,30.48872315571929,34.17878216072124,31.543025728576996,1577399161.0,-27.69843778923481,-51.11133759053604,23.329605
15650,1577399161.9,1.463934605102539,-0.5584475372314452,8.148545640258789,1.823622527927305,0.1153304458245997,7.37968865371332,2.0785660746256505,-0.2849670023600259,12.572693979899087,-0.0225067138671875,-0.6034851074218749,-0.623321533203125,-0.4285486733041157,-0.4802796898818597,-1.1514803258384148,1.8735613141741072,-8.967081705729166,-0.4624866303943452,1.807648473385084,-13.635398648419478,0.6505163817663843,-5.718967726375147,-64.74863654863654,-1.5982071322172895,30.392877467277685,34.41839638182526,31.5909485727978,1577399161.0,-27.69843778923481,-51.11133759053604,23.329605
15651,1577399161.91,1.902073508911133,0.6147112762451171,9.55154781311035,3.688705621189024,0.2877129653558498,10.575947870021912,2.2341891825358067,0.2633051778157543,9.342915940348307,1.6864776611328125,-0.4203796386718749,-0.501251220703125,-5.036702970179116,-0.8464906273818598,-1.0904451695884148,1.6904558454241072,-6.769816080729167,-2.5376819428943453,0.903824236692542,-13.44732418430335,-0.4878872863247798,-5.718967726375147,-64.74863654863654,-1.5982071322172895,30.5845688441609,34.27462784916285,31.447180040135382,1577399161.0,-27.69843778923481,-51.11133759053604,23.329605
15652,1577399161.92,1.1598709942626952,0.4495113616943359,10.687596500854491,1.344782195896055,0.6683910293206935,7.18096991592035,0.8263986063639316,-0.3879176737467447,9.225600059000651,1.8848419189453125,1.151275634765625,-0.577545166015625,-0.6116541420541157,-0.9685609398818598,-0.4190584508384147,0.0119890485491072,-8.173624674479166,-0.3404163178943452,2.1691781680620985,-14.011547576651742,1.6262909544159574,-5.718967726375147,-60.95018315018314,9.403404754673788,30.53664599994009,34.22670500494204,31.543025728577,1577399161.0,-27.69843778923481,-51.11133759053604,23.329605
15653,1577399161.93,1.013824692993164,-1.7244237457275389,10.53556469543457,1.1065591307105085,-1.0302950485601647,9.025702295070742,0.9317434794108074,0.5170905537923177,9.307002915445963,-4.172897338867188,-4.235076904296875,-0.806427001953125,1.6924230063833845,0.0232603491806402,-0.9225984899009148,0.5613054547991072,-11.072794596354166,0.3462291899181547,1.626883626046571,-12.318877399606563,-0.162629095441591,-5.718967726375147,-64.74863654863654,8.214041307442319,30.34495462305688,34.058975050169224,31.662832839129003,1577399161.0,-27.69843778923481,-51.11133759053604,23.329605
15654,1577399161.94,1.2700042706298829,-0.326209976196289,8.172487656860351,2.1635991636694927,-0.926147276343368,8.775508221584413,0.7713319681803379,-0.9936506937662758,9.065188547770182,-1.6094207763671875,-2.342987060546875,-0.348663330078125,2.6537267173208843,0.3742124976181402,0.2523282679115852,-0.5678449358258928,-11.530558268229166,-0.7371448335193452,2.1691781680620985,-14.763845433116265,0.6505163817663843,0.7228538265575211,-64.74863654863654,-1.3008662704094192,30.5845688441609,34.27462784916285,31.39925719591458,1577399161.0,-27.69843778923481,-51.11133759053604,23.329605
15655,1577399161.95,1.6099809063720705,0.4758475799560546,7.825328416137695,0.9066432920874616,0.299683973656631,7.801068145900819,0.0411004618326816,0.1004994649251293,10.472979123942055,0.7404327392578125,-1.183319091796875,-0.287628173828125,2.8368321860708843,-1.5789125023818598,-0.5106111852134148,0.1035417829241072,-10.584513346354166,-0.0352405366443452,1.084589084031051,-15.139994361348526,0.3252581908831954,0.1860353638131292,-63.32421652421653,-1.9698832094771224,30.5845688441609,34.17878216072124,31.39925719591458,1577399161.0,-27.69843778923481,-51.11133759053604,23.329605
15656,1577399161.96,1.3490129254150391,0.3274070770263672,8.872791642456054,-0.8722485414086312,0.8192257339105372,8.947890741115662,0.4888161722819004,-0.9888622904459632,7.899212339274088,0.3589630126953124,-0.939178466796875,-0.226593017578125,-1.3135584389291155,-1.2737367211318598,-0.6021639195884148,1.3547624860491072,-5.671183268229167,1.7347789946056549,1.7172660497158274,-14.293659272825938,0.5692018340455887,4.48058306576823,-63.32421652421653,2.78757057944875,30.416838889388085,34.08293647227963,31.73471710546021,1577399161.0,-27.69843778923481,-51.11133759053604,23.329605
15657,1577399161.97,1.231697044067383,0.1741781707763671,8.024047153930663,0.9844548460425396,-1.558216514624618,7.440740796047303,0.7282363382975259,-0.2143380533854165,7.548461796061198,-1.9756317138671875,-0.7865905761718749,-0.501251220703125,-0.5658777748666156,1.6406919898056402,0.7558683069740852,0.2561296735491072,-16.367594401041668,-1.0728381928943451,1.807648473385084,-14.011547576651742,-0.3252581908831888,-3.5716938753975795,-57.626536426536425,3.2335818721605496,30.392877467277685,34.058975050169224,31.47114146224579,1577399161.0,-27.69843778923481,-51.11133759053604,23.329605
15658,1577399161.98,1.416050571899414,-0.508169302368164,7.581119846801757,0.4421681700171491,0.6205069961175684,7.5712247865258195,1.532688096110025,-1.2953201029459636,10.082724253336588,-3.1963348388671875,-1.244354248046875,-0.196075439453125,2.3485509360708843,3.4564878882431405,0.0081876429115852,0.9885515485491072,-10.828653971354166,0.1173473539806547,1.2653539313695563,-15.328068825464658,0.4878872863247865,-3.034875412653199,-60.47537647537647,-1.07786062405352,30.5366459999401,34.08293647227963,31.5909485727978,1577399161.0,-27.69843778923481,-51.11133759053604,23.329605
15659,1577399161.99,1.2963404888916017,-0.000598550415039,8.718365635375976,2.501181597751524,0.673179432641006,10.46820879531488,2.315592038981119,-1.673603965250651,12.879151792399089,-0.9990692138671876,-2.404022216796875,0.078582763671875,-5.341878751429116,4.1889097632431405,-0.8768221227134148,-1.0866437639508928,-0.2390543619791666,0.2089000883556547,0.5422945420155274,-14.575770969000132,0.8131454772079753,-5.718967726375147,-53.35327635327634,7.322018722018717,30.48872315571929,34.27462784916285,31.543025728577,1577399161.0,-27.69843778923481,-51.11133759053604,23.329605
15660,1577399162.0,1.4675259075927736,-0.0496796844482421,11.40346279724121,2.827990124362852,-0.370692491187118,10.733965179592223,1.6045141459147128,0.5841282002766928,12.108218857828776,0.5725860595703125,-1.229095458984375,-0.135040283203125,-2.488485196741616,-2.9674623070693595,0.5575040491615852,-5.145481654575892,9.312947591145834,1.8415905180431549,1.2653539313695563,-13.25924972018722,0.1626290954415977,-4.645330800886369,-64.74863654863654,7.396353937470685,30.46476173360889,34.17878216072124,31.6149099949082,1577399162.0,-27.698231415643743,-51.11129016012848,23.369658
15661,1577399162.01,1.8972851055908204,-1.0372878692626952,9.937014280395507,0.3727363218726178,0.0722348159417872,7.602349408107851,1.532688096110025,1.151553993733723,12.201592722574867,-1.9145965576171875,-1.763153076171875,-0.562286376953125,2.1654454673208843,3.4870054663681405,0.8931974085365852,-3.741673060825893,15.324910481770834,-0.8592151460193452,1.2653539313695563,-13.44732418430335,0.4878872863247865,-5.718967726375147,-64.74863654863654,7.173348291114784,30.5366459999401,34.08293647227963,31.39925719591458,1577399162.0,-27.698231415643743,-51.11129016012848,23.369658
15662,1577399162.02,1.502241831665039,-0.0173579620361328,9.541971006469726,3.094943609470274,-0.2054925766363367,12.376387518459412,1.7457720438639317,-0.0287874247233071,10.963790464274089,-2.4639129638671875,-1.732635498046875,-0.592803955078125,-1.6187342201791155,1.86957382574314,-0.5411287633384148,-1.1476789202008928,21.947224934895832,-1.3780139741443451,1.626883626046571,-14.951919897232395,0.8131454772079753,-5.718967726375147,-62.84940984940984,7.024677860210852,30.5845688441609,33.939167939617214,31.6388714170186,1577399162.0,-27.698231415643743,-51.11129016012848,23.369658
15663,1577399162.03,1.6315287213134766,-0.1705868682861328,10.38233578918457,1.7589790831030865,-0.9524834946050867,10.83212744765863,0.7234479349772128,-0.6488856547037759,8.53606998087565,-1.1821746826171875,-1.274871826171875,-0.714874267578125,-3.327718595179116,-3.83721328363186,1.5340665491615852,1.8735613141741072,18.590291341145832,-1.4085315522693451,1.2653539313695563,-14.199622040767872,1.4636618589743662,2.333309214790685,-62.374603174603166,8.139706091990352,30.5366459999401,34.17878216072124,31.447180040135382,1577399162.0,-27.698231415643743,-51.11129016012848,23.369658
15664,1577399162.04,1.2508506573486329,0.2747346405029297,9.29057983215332,-0.1587764466820691,0.4541099807367091,7.0660482362328505,0.154825040690104,-0.6883899820963539,2.415293436686197,-0.5870819091796875,0.0526428222656251,-0.363922119140625,1.692423006383384,5.3028013648056405,-0.2664705602134147,-1.0256086077008928,-13.376871744791668,-1.3017200288318451,1.7172660497158274,-14.85788266517433,0.5692018340455887,-4.108512338141978,-60.47537647537648,4.125604457584148,30.46476173360889,34.130859316500434,31.662832839129003,1577399162.0,-27.698231415643743,-51.11129016012848,23.369658
15665,1577399162.05,0.7672219219970703,-0.2615665313720703,7.437467747192382,2.781303191989805,-3.3849923813238374,7.877682599025819,1.1041259989420569,-1.0558999369303383,9.697257786051432,-3.3184051513671875,0.0984191894531251,-0.928497314453125,2.3485509360708843,3.914251560118141,0.7100919397865852,-2.185276576450893,-27.460734049479168,1.2770153227306549,1.2653539313695563,-15.328068825464658,1.4636618589743662,-3.034875412653199,-56.67692307692308,1.300866270409413,30.5845688441609,34.17878216072124,31.5909485727978,1577399162.0,-27.698231415643743,-51.11129016012848,23.369658
15666,1577399162.06,0.9970652813720702,-0.5871779571533203,6.49415229309082,-1.2601092103539435,-0.1576085434332117,9.28786737685785,1.441708433024088,0.059798036702473,13.288560276285809,-1.7009735107421875,-0.7865905761718749,-0.592803955078125,-1.0694178139291155,-5.88189101800686,0.6490567835365852,-3.589085170200893,-15.284220377604166,1.6737438383556549,1.084589084031051,-14.387696504884,0.9757745726495798,-3.571693875397591,-64.74863654863654,-1.0035254086015548,30.5366459999401,34.17878216072124,31.73471710546021,1577399162.0,-27.698231415643743,-51.11129016012848,23.369658
15667,1577399162.07,0.9503783489990234,-0.450708462524414,10.615770451049803,0.3799189268530866,0.4361534682855372,10.398776947170347,2.274890610758463,1.7237681905110676,14.753811692301433,0.4047393798828125,-1.183319091796875,0.032806396484375,-2.686849454554116,10.29242538824314,0.8626798304115852,-2.856663295200893,0.0356038411458333,0.2699352446056547,1.355736355038811,-14.105584808709809,1.0570891203703718,0.7228538265575211,-62.84940984940984,7.024677860210852,30.297031778836075,34.08293647227963,31.39925719591458,1577399162.0,-27.698231415643743,-51.11129016012848,23.369658
15668,1577399162.08,1.0760739361572265,-0.2184709014892578,12.869911314086911,3.306830456394102,-0.7705241684332118,13.202387091213318,1.9169574625651036,0.5901137044270833,13.325670402018227,0.0080108642578124,-0.2372741699218749,-0.348663330078125,-1.7865808998666155,-3.85247207269436,-0.6021639195884148,0.2866472516741072,13.463338216145834,0.2241588774181548,1.807648473385084,-15.139994361348526,0.9757745726495798,3.6753553716516647,-64.98603988603988,8.474214561524203,30.5845688441609,34.32255069338365,31.447180040135382,1577399162.0,-27.698231415643743,-51.11129016012848,23.369658
15669,1577399162.09,1.6291345196533202,-1.137844338989258,10.57866032531738,-1.2672918153344124,0.9652720351800684,10.298220477443786,2.1767283426920567,-3.7397999979654943,14.708321860758463,-2.8911590576171875,-3.319549560546875,-0.287628173828125,3.0809728110708843,-2.6775453148818595,1.2288907679115852,-3.436497279575893,28.203328450520832,-1.6221545991443451,1.807648473385084,-15.139994361348526,0.9757745726495798,0.1860353638131292,-65.22344322344321,-1.672542347669255,30.392877467277685,34.08293647227963,31.73471710546021,1577399162.0,-27.698231415643743,-51.11129016012848,23.369658
15670,1577399162.1,1.85897787902832,-0.0460883819580078,8.340081773071288,1.6632110166968364,-1.895798948706649,12.385964325100035,2.303621030680338,1.72855659383138,11.56952348429362,-1.6704559326171875,-1.427459716796875,-0.440216064453125,1.9823399985708845,0.1300718726181402,-0.3275057164634147,0.4087175641741072,42.82124837239584,-2.2019885835193453,1.626883626046571,-14.575770969000132,0.4878872863247865,-4.108512338141983,-57.62653642653642,-2.564564933092851,30.392877467277685,34.27462784916285,31.5909485727978,1577399162.0,-27.698231415643743,-51.11129016012848,23.369658
15671,1577399162.11,1.829050358276367,-0.2256535064697265,10.328466251831054,4.141209734958555,-0.801648790015243,11.521657525783631,-0.1336762593587236,-0.3496104471842446,13.0371691019694,-0.0988006591796875,0.5256652832031251,-0.455474853515625,5.034097811070884,-12.16851211175686,-0.6631990758384148,-4.687717982700892,45.96455891927084,-3.2701038178943453,2.078795744392844,-14.481733736942068,-0.0813145477207955,2.333309214790685,-57.62653642653642,6.9503426447588845,30.608530266271305,34.22670500494204,31.30341150747297,1577399162.0,-27.698231415643743,-51.11129016012848,23.369658
15672,1577399162.12,2.016995188598633,0.0664390960693359,8.840469920043944,-0.2653184205590222,-0.1001477035894622,6.866132397609804,-0.315635585530599,-0.4130567911783858,4.0301824564615885,0.0995635986328124,1.715850830078125,-0.470733642578125,-0.4285486733041159,-0.4345033226943595,0.0234464319740852,-2.871922084263393,25.04475911458334,-1.5000842866443451,0.903824236692542,-14.951919897232395,0.8131454772079753,0.1860353638131348,-62.374603174603166,7.9910356610864195,30.5366459999401,34.130859316500434,31.35133435169377,1577399162.0,-27.698231415643743,-51.11129016012848,23.369658
15673,1577399162.13,1.6243461163330075,-0.3142389678955078,8.715971433715819,3.703070831149961,-0.8638980331793055,12.661297516018005,0.9700507059733066,0.0454328267415355,2.1172153299967444,-0.1140594482421875,2.387237548828125,-0.440216064453125,-4.090658048304116,-0.2056214867568597,-0.9378572789634148,2.239772251674107,-7.929484049479167,-2.2630237397693453,0.903824236692542,-14.951919897232395,0.8131454772079753,-0.8876015616756432,-60.47537647537647,7.842365230182486,30.48872315571929,34.27462784916285,31.5909485727978,1577399162.0,-27.698231415643743,-51.11129016012848,23.369658
15674,1577399162.14,1.5094244366455078,-0.0317231719970703,10.521199485473632,0.1716233824194928,0.2182811172113185,9.783467120510194,1.7242242289225254,-1.8890821146647132,10.597477610270182,-0.0225067138671875,2.906036376953125,-0.165557861328125,-4.395833829554116,-4.63067031488186,1.9307950647865848,0.3476824079241072,-15.864054361979166,0.3004528227306547,1.084589084031051,-14.011547576651742,1.6262909544159574,-40.61216780476041,-52.87846967846967,8.585717384702155,30.680414532602512,33.939167939617214,31.5909485727978,1577399162.0,-27.698231415643743,-51.11129016012848,23.369658
15675,1577399162.15,0.1698686077880864,-0.6350619903564453,11.19277305114746,1.2526054319800402,-0.4832199692144617,11.429480761867614,0.9353347819010416,0.8199570638020829,15.308069376627603,1.3355255126953125,1.853179931640625,-0.089263916015625,-0.8710535561166157,5.1807310523056405,-0.1901766149009147,-1.5291486467633928,5.803426106770834,3.0317760649181547,1.53650120237732,-14.85788266517433,0.8944600249287775,-0.8876015616756432,-62.374603174603166,9.329069539221818,30.512684577829692,34.22670500494205,31.543025728577,1577399162.0,-27.698231415643743,-51.11129016012848,23.369658
15676,1577399162.16,0.7001842755126952,-1.5855600494384765,12.707105601196288,1.555471941989805,-1.6587729843511805,12.802555413967225,1.7768966654459628,2.5066721333821604,11.947807346598308,2.2052764892578125,1.288604736328125,0.078582763671875,7.200845857945884,-0.0225160180068597,0.3438810022865852,0.8664812360491072,12.975056966145834,0.1173473539806547,1.4461187787080658,-12.883100791954956,0.9757745726495798,-1.9612384871644155,-59.52576312576312,9.329069539221818,30.872105909485725,34.17878216072124,31.543025728577,1577399162.0,-27.698231415643743,-51.11129016012848,23.369658
15677,1577399162.17,1.4974534283447265,-0.6757634185791015,12.031940733032226,-0.7836630799828499,-0.9476950912847742,9.936696026760194,0.3307988627115878,1.4628002095540364,7.140250413004557,1.2592315673828125,1.105499267578125,-0.257110595703125,9.092935701695884,-3.68462539300686,-0.1444002477134147,0.8969988141741072,4.369099934895833,-3.788902646019345,1.4461187787080658,-12.883100791954956,0.9757745726495798,-1.4244200244200351,-57.15172975172975,-2.341559286736952,30.5366459999401,34.27462784916285,31.447180040135382,1577399162.0,-27.698231415643743,-51.11129016012848,23.369658
15678,1577399162.18,1.471117210083008,-0.0508767852783203,9.896312852172851,3.0446653746069927,0.9580894301995996,11.96937323623285,1.860693723551432,-0.0790656595865884,7.317421335856119,0.6488800048828125,1.136016845703125,-0.470733642578125,0.3954259360708843,11.42157577886814,-0.2054354039634147,3.887721470424107,-7.471720377604167,-4.155113583519345,2.7114727100776186,-13.823473112535613,0.1626290954415977,-6.255786189119516,-57.62653642653642,-0.1858380386299179,30.392877467277685,34.17878216072124,31.447180040135382,1577399162.0,-27.698231415643743,-51.11129016012848,23.369658
15679,1577399162.19,1.3107056988525392,0.1873462799072265,8.905113364868162,0.6648289244116807,-2.124445207251572,6.909228027492616,0.7042943216959634,-0.5579059916178389,9.48177963663737,1.9458770751953125,1.685333251953125,-0.074005126953125,0.792154451695884,0.46576523199314,0.8474210413490852,2.163478306361607,-1.1393229166666663,2.863929385230655,0.9942066603617966,-13.917510344593676,0.5692018340455887,-1.692829255792231,-63.32421652421652,7.099013075662818,30.608530266271305,34.058975050169224,31.662832839129003,1577399162.0,-27.698231415643743,-51.11129016012848,23.369658
15680,1577399162.2,1.8494010723876952,0.1478419525146484,8.081507993774412,0.930585308689024,0.1632144790277247,10.999721563869567,-0.8279947408040361,-4.912958811442057,10.743523911539713,1.0761260986328125,2.265167236328125,0.292205810546875,2.8063146079458843,7.85101913824314,-0.2969881383384147,-0.4152570452008928,4.216512044270833,0.9108043852306548,-0.3615296946770146,-13.635398648419478,0.9757745726495798,0.7228538265575211,-60.95018315018314,1.6725423476692487,30.680414532602512,34.27462784916285,31.543025728577,1577399162.0,-27.698231415643743,-51.11129016012848,23.369658
15681,1577399162.21,1.9547459454345704,-0.3980360260009765,9.089466892700194,1.7709500914038676,0.1727912856683497,12.962966925197692,-0.3323949971516923,2.09247524617513,7.303056125895182,1.9916534423828125,3.333282470703125,0.139617919921875,-3.144613126429116,9.95673202886814,0.6795743616615852,0.3781999860491072,4.124959309895833,1.1244274321056549,-0.3615296946770146,-13.635398648419478,0.9757745726495798,-6.255786189119516,-57.62653642653642,-2.564564933092851,30.5845688441609,34.03501362805883,31.5909485727978,1577399162.0,-27.698231415643743,-51.11129016012848,23.369658
15682,1577399162.22,0.9503783489990234,0.0736217010498046,12.189958042602536,1.5506835386694926,-0.9716371078863368,9.266319561916443,1.8966067484537752,3.380555739339192,10.044417026774088,3.2733917236328125,3.409576416015625,0.185394287109375,1.1278478110708845,0.3436949194931402,-0.1749178258384147,0.8359636579241072,-1.5818277994791667,-4.063560849144345,0.9038242366925402,-14.19962204076787,1.1384036680911709,-6.255786189119516,-65.22344322344321,9.329069539221818,30.440800311498485,34.27462784916285,31.543025728577,1577399162.0,-27.698231415643743,-51.11129016012848,23.369658
15683,1577399162.23,0.5158307476806641,0.6099228729248046,11.35917006652832,1.6189182859839455,1.1592023696527247,11.89754718642816,0.5450799112955728,-1.684377872721354,11.332497519938151,1.5949249267578125,4.828643798828125,-0.287628173828125,0.4869786704458842,2.4951841773056405,-0.3732820836509147,0.6528581891741072,-4.587809244791667,1.4601207914806549,1.4461187787080658,-14.387696504884,0.0,-6.255786189119516,-62.84940984940985,7.0990130756628185,30.48872315571929,34.08293647227963,31.51906430646659,1577399162.0,-27.698231415643743,-51.11129016012848,23.369658
15684,1577399162.24,1.0641029278564451,-1.1043255157470702,11.378323679809569,4.454850152439024,-2.5182913803472746,10.508910223537535,-0.0163603780110673,1.2999944966634114,12.927035825602212,-0.3887176513671875,0.5256652832031251,0.139617919921875,1.9518224204458845,9.07172226324314,-0.6937166539634148,3.948756626674107,10.716756184895834,1.3380504789806549,0.903824236692542,-13.071175256071088,-0.162629095441591,2.333309214790685,-54.77769637769637,8.139706091990352,30.5366459999401,34.17878216072124,31.30341150747297,1577399162.0,-27.698231415643743,-51.11129016012848,23.369658
15685,1577399162.25,0.9132682232666016,-0.6661866119384765,11.095807883911132,-0.2641213197289436,-0.5119503891363367,12.376387518459412,-1.507948012288411,1.699826173909505,16.757758481852214,1.3202667236328125,2.661895751953125,0.078582763671875,-1.2220057045541155,-1.7620179711318598,-0.4800936070884147,1.9956316266741072,24.083455403645832,0.9413219633556548,1.4461187787080658,-13.259249720187215,0.6505163817663843,6.627856916745797,-55.72730972730972,-1.2265310549574535,30.680414532602512,34.03501362805883,31.447180040135382,1577399162.0,-27.698231415643743,-51.11129016012848,23.369658
15686,1577399162.26,1.554914268188477,-0.805050308227539,9.73111293762207,2.568219244235898,-1.771300462378524,9.934301825100038,0.984415915934244,-1.6592387552897134,5.311080344645182,1.2287139892578125,2.753448486328125,0.200653076171875,1.6161290610708845,7.30170273199314,-0.5411287633384148,-0.3542218889508928,28.569539388020832,-1.957847958519345,0.1807648473385091,-14.951919897232395,-0.8131454772079686,-3.034875412653199,-64.27382987382987,7.247683506566751,30.5366459999401,34.17878216072124,31.543025728577,1577399162.0,-27.698231415643743,-51.11129016012848,23.369658
15687,1577399162.27,1.5788562847900391,0.6817489227294922,9.58985503967285,1.830805132907774,0.5007969131097559,9.8816293885766,1.0825781840006503,0.3806210591634105,2.495499192301432,2.0832061767578125,5.377960205078125,0.383758544921875,-2.839437345179116,0.2826597632431402,0.6490567835365852,0.2561296735491072,3.6671956380208335,-2.3545764741443453,2.892237557416128,-14.011547576651742,0.3252581908831954,-4.108512338141983,-65.22344322344321,9.626410401029688,30.392877467277685,34.08293647227963,31.5909485727978,1577399162.0,-27.698231415643743,-51.11129016012848,23.369658
15688,1577399162.28,1.7249025860595704,0.2340332122802734,7.997710935668945,-0.958439801174256,1.4249587539300683,4.937602960353945,0.0051874369303378,-0.3998886820475259,3.953568003336588,-0.4802703857421875,4.523468017578125,-0.257110595703125,2.5316564048208843,5.5927183569931405,0.5880216272865852,2.270289829799107,-19.526163736979168,-2.5071643647693453,0.1807648473385091,-13.823473112535613,0.8131454772079753,-4.108512338141983,-65.22344322344321,9.626410401029688,30.48872315571929,34.27462784916285,31.447180040135382,1577399162.0,-27.698231415643743,-51.11129016012848,23.369658
15689,1577399162.29,0.7001842755126952,0.0233434661865234,7.978557322387695,0.6360985044898053,-1.5558223129644615,11.076336016994569,1.511140281168619,-4.30483158976237,7.243201084391275,-0.5413055419921875,4.401397705078125,0.200653076171875,-1.2525232826791155,6.5692808569931405,-0.8157869664634148,4.070826939174108,-23.737589518229168,1.9789196196056549,0.1807648473385091,-13.823473112535613,0.8131454772079753,0.1860353638131292,-65.22344322344321,-2.564564933092851,30.680414532602512,34.27462784916285,31.5909485727978,1577399162.0,-27.698231415643743,-51.11129016012848,23.369658
15690,1577399162.3,-0.0336385333251943,-0.2388216156005859,10.168054740600583,1.0191707701148054,1.0514632949456937,10.604678289943786,-0.4736528951009111,-1.0918129618326822,7.609513938395182,2.1900177001953125,3.485870361328125,0.688934326171875,-3.663411954554116,2.4799253882431405,0.2218106897865852,1.0495867047991072,-25.416056315104168,3.5963512602306547,1.790234627208065e-15,-14.011547576651743,0.3252581908831921,-4.108512338141983,-61.42498982498982,9.626410401029688,30.632491688381705,34.370473537604454,31.6388714170186,1577399162.0,-27.698231415643743,-51.11129016012848,23.369658
15691,1577399162.31,1.128746372680664,-0.5991489654541016,11.572254014282226,1.1161359373511333,-0.9967762253179772,9.813394641262146,1.6332445658365875,-0.0682917521158858,9.72957950846354,0.9845733642578124,2.326202392578125,0.139617919921875,0.7463780845083842,2.5409605444931405,0.3591397913490852,1.2174333844866072,-22.577921549479168,3.1538463774181547,1.9884133207235888,-13.44732418430335,0.1626290954415977,-0.6191923303034415,-57.86393976393976,9.366237146947803,30.48872315571929,34.130859316500434,31.662832839129003,1577399162.0,-27.698231415643743,-51.11129016012848,23.369658
15692,1577399162.32,0.841442173461914,-0.201711489868164,10.84920511291504,1.093391021579649,0.1775796889886622,8.70128797011957,0.5007871805826817,1.587298695882161,8.437907712809244,0.3131866455078124,2.783966064453125,0.078582763671875,-2.259603360804116,6.2030699194931405,0.7406095179115852,4.040309361049108,-29.596964518229168,-0.9507678803943452,1.807648473385084,-14.387696504884,0.0,0.1860353638131292,-60.47537647537647,-1.3752014858613844,30.680414532602512,34.08293647227963,31.5909485727978,1577399162.0,-27.698231415643743,-51.11129016012848,23.369658
15693,1577399162.33,0.4799177227783202,1.1246762298583983,8.445426646118163,0.3152754820288678,1.0347038833245996,9.316597796779725,1.3291809549967442,-1.1516680033365885,9.575153501383465,0.4962921142578124,2.631378173828125,0.353240966796875,-0.3369959389291157,-1.7315003930068598,0.4354337366615852,1.5378679547991072,-28.681437174479168,0.0257946196056547,1.807648473385084,-14.387696504884,0.0,4.48058306576823,-65.22344322344321,-1.2265310549574535,30.5845688441609,34.22670500494204,31.73471710546021,1577399162.0,-27.698231415643743,-51.11129016012848,23.369658
15694,1577399162.34,0.2584540692138676,0.0724246002197265,8.425075932006836,-0.1168779176293347,-1.0111414352789152,6.795503448635194,0.0482830668131508,-0.0515323404947916,9.460231821695965,-0.6175994873046875,0.1441955566406251,0.353240966796875,-0.6726892983041157,1.15241073980564,0.0692227991615852,1.3242449079241072,-18.122355143229168,2.6960827055431547,1.3557363550388128,-13.917510344593676,0.0813145477207988,2.333309214790685,-60.00056980056979,7.916700445634452,30.608530266271305,34.130859316500434,31.35133435169377,1577399162.0,-27.698231415643743,-51.11129016012848,23.369658
15695,1577399162.35,1.1646593975830075,0.7439981658935546,7.870818247680663,-0.2521503114281624,1.0825879165277248,6.024570514064882,2.320380442301432,-1.2354650614420573,5.457126645914713,-1.2126922607421875,1.715850830078125,0.200653076171875,1.4635411704458845,6.1115171851181405,1.3204435022865852,-1.3002668108258928,-13.056437174479166,0.7887340727306548,3.0730024047546407,-14.199622040767872,0.4878872863247865,2.333309214790685,-55.72730972730972,7.545024368374619,30.48872315571929,34.17878216072124,31.543025728577,1577399162.0,-27.698231415643743,-51.11129016012848,23.369658
15696,1577399162.36,1.3466187237548828,-0.2663549346923828,6.139810447387695,-0.1372286317406624,-1.340344163550399,7.781914532619569,0.7473899515787754,-1.084630356852213,8.847316196695964,-2.0061492919921875,1.441192626953125,-0.043487548828125,0.7921544516958843,7.7594664038681405,0.4964688929115852,-3.924778529575893,-12.812296549479166,-0.8286975678943452,1.807648473385084,-14.387696504884,-0.6505163817663776,-5.182149263630755,-55.72730972730972,-0.1858380386299179,30.680414532602512,33.939167939617214,31.543025728577,1577399162.0,-27.698231415643743,-51.11129016012848,23.369658
15697,1577399162.37,0.9503783489990234,0.661398208618164,9.39831890686035,1.2801387510718365,0.280530360375381,9.603901995998475,-0.0450907979329423,-0.4645321268717446,9.601489719645183,-0.2208709716796875,1.319122314453125,0.460052490234375,-3.815999845179116,-0.7549378930068598,0.4049161585365852,-4.443577357700892,-10.798136393229166,-0.2488635835193452,1.807648473385084,-14.387696504884,-0.6505163817663776,-36.31762010280528,-57.62653642653642,6.9503426447588845,30.41683888938808,33.891245095396414,31.73471710546021,1577399162.0,-27.698231415643743,-51.11129016012848,23.369658
15698,1577399162.38,0.8749609967041014,0.8732850555419921,10.521199485473632,1.7877095030249617,0.663602626000381,7.888456506496523,-0.5059746175130209,-0.7458508219401045,7.633455954996744,-0.4802703857421875,2.021026611328125,0.475311279296875,-1.756063321741616,3.4259703101181405,1.1678556116615852,-1.0866437639508928,-10.431925455729166,1.6279674711681549,3.615296946770161,-13.635398648419478,1.6262909544159574,-5.718967726375135,-65.22344322344321,8.214041307442319,30.48872315571929,34.01105220594842,31.6149099949082,1577399162.0,-27.698231415643743,-51.11129016012848,23.369658
15699,1577399162.39,0.5014655377197265,-0.6685808135986328,9.920254868774412,0.3440059019507429,-1.8910105453863368,11.871210968166444,0.0626482767740878,1.458011806233724,12.666067844645182,-4.386520385742188,0.1289367675781251,0.078582763671875,-1.2525232826791155,-4.56963515863186,1.3204435022865852,-3.253391810825893,-6.251017252604167,3.2301403227306547,1.4461187787080658,-15.51614328958079,-0.3252581908831888,2.333309214790685,-49.08001628001628,7.693694799278552,30.48872315571929,34.17878216072124,31.30341150747297,1577399162.0,-27.698231415643743,-51.11129016012848,23.369658
15700,1577399162.4,0.8103175518798827,-1.7076643341064452,10.1836170513916,1.0407185850562115,1.1448371596917872,9.625449810939882,3.409742197672526,0.4572355122884106,8.457061326090495,-5.424118041992188,0.5867004394531251,-0.348663330078125,-6.013265470179116,4.5551207007431405,0.8321622522865852,-2.063206263950893,-9.180704752604166,-0.0047229585193452,0.0,-12.883100791954956,0.0,2.333309214790685,-49.08001628001628,7.693694799278552,30.5366459999401,34.17878216072124,31.39925719591458,1577399162.0,-27.698231415643743,-51.11129016012848,23.369658
15701,1577399162.41,0.353025034790039,0.0065840545654296,9.108620505981444,1.0287475767554304,-1.5558223129644615,7.707694281154725,1.846328513590494,-0.7326827128092446,8.571983005777994,-1.0906219482421875,0.3578186035156251,0.521087646484375,-3.388753751429116,5.3180601538681405,1.7476895960365852,-2.490452357700893,-8.143107096354166,-0.0352405366443452,0.0,-12.883100791954956,0.0,2.333309214790685,-60.47537647537647,-2.564564933092851,30.5606074220505,34.17878216072124,31.447180040135382,1577399162.0,-27.698231415643743,-51.11129016012848,23.369658
15702,1577399162.42,0.5038597393798827,0.1358709442138671,8.692029417114258,-0.0282924562035535,0.697121449242569,7.592772601467225,0.0925757975260415,0.1950704305013021,6.936743271891276,-2.8911590576171875,-0.3898620605468749,0.292205810546875,-2.869954923304116,-0.6481263695693595,0.4049161585365852,-0.3999982561383928,-15.238444010416668,0.4072643461681547,1.084589084031051,-14.011547576651742,0.0,0.1860353638131404,-60.95018315018314,2.5645649330928504,30.5366459999401,34.08293647227963,31.543025728576996,1577399162.0,-27.698231415643743,-51.11129016012848,23.369658
15703,1577399162.43,0.8103175518798827,0.8493430389404296,8.431061436157226,1.6632110166968364,-0.2437998031988367,8.691711163478944,0.7761203715006504,-0.6560682596842446,7.283902512613932,-2.9216766357421875,0.5867004394531251,-0.287628173828125,-2.503743985804116,8.06464218511814,2.235970846036585,-2.490452357700893,-16.718546549479168,0.7276989164806548,0.7230593893540329,-13.635398648419478,1.6262909544159574,2.333309214790685,-55.72730972730972,7.545024368374619,30.680414532602512,34.27462784916285,31.6388714170186,1577399162.0,-27.698231415643743,-51.11129016012848,23.369658
15704,1577399162.44,0.3673902447509765,-0.8337807281494141,6.764697080688475,0.7294723692358991,-2.556598606909775,5.186599933010195,2.1360269144694004,-1.6879691752115884,12.706769272867838,-5.637741088867188,-2.220916748046875,0.078582763671875,-2.076497892054116,-4.66118789300686,0.5269864710365852,-4.352024623325892,-3.657023111979168,1.3990856352306549,0.1807648473385091,-13.823473112535613,0.1626290954415977,-4.108512338141983,-56.67692307692308,-1.3752014858613844,30.5366459999401,34.03501362805883,31.543025728577,1577399162.0,-27.698231415643743,-51.11129016012848,23.369658
15705,1577399162.45,0.774404526977539,-0.441131655883789,9.3025508404541,-1.2601092103539435,0.0770232192620997,9.426731073146913,1.183134653727213,-0.0910366678873697,13.039563303629556,-1.4873504638671875,-0.6645202636718749,0.154876708984375,0.6700841391958843,-13.96904922113186,0.7406095179115852,-3.802708217075893,3.9113362630208335,-0.4319690522693452,0.1807648473385091,-13.823473112535613,0.1626290954415977,-1.9612384871644155,-53.82808302808303,-2.564564933092851,30.32099320094648,34.08293647227963,31.543025728577,1577399162.0,-27.698231415643743,-51.11129016012848,23.369658
15706,1577399162.46,0.2907757916259765,0.5452794281005859,12.534723081665035,1.384286523288634,0.7797214065179596,10.986553454738708,0.977233310953776,-0.7709899393717446,12.146526084391276,-0.1445770263671875,-0.1457214355468749,-0.165557861328125,-8.530965665491616,7.65265488043064,0.3591397913490852,-3.772190638950892,14.119466145833332,0.3157116117931547,1.4461187787080658,-14.387696504884,0.0,-2.4980569499088072,-53.82808302808303,2.5645649330928504,30.48872315571929,34.08293647227963,31.423218618024983,1577399162.0,-27.698231415643743,-51.11129016012848,23.369658
15707,1577399162.47,0.7193378887939452,-1.8992004669189453,10.669639988403318,2.165993365329649,-0.3970287094488367,9.01253418593988,1.195105662027994,2.219367934163411,14.334826401774087,-4.539108276367188,-0.1762390136718749,-0.653839111328125,2.2875157798208843,-2.0366761742568595,1.9613126429115848,-8.960178920200892,28.142293294270832,0.5445934477306548,1.807648473385084,-13.259249720187215,0.0,-0.8876015616756432,-57.62653642653642,7.247683506566751,30.48872315571929,34.17878216072124,31.6388714170186,1577399162.0,-27.698231415643743,-51.11129016012848,23.369658
15708,1577399162.48,1.0928333477783203,-0.9319429962158202,10.78456166809082,-2.0741377748070686,-0.6172952621832117,11.70122265029535,0.5845842386881503,-1.0654767435709631,14.00921497599284,-3.623580932617188,-1.000213623046875,-0.592803955078125,1.9518224204458845,0.5573179663681402,-0.0833650914634147,-5.877903529575892,28.355916341145832,-0.9812854585193452,1.807648473385084,-14.011547576651742,1.3010327635327683,-6.255786189119516,-57.62653642653642,7.247683506566751,30.392877467277685,34.22670500494204,31.6388714170186,1577399162.0,-27.698231415643743,-51.11129016012848,23.369658
15709,1577399162.49,0.8809465008544921,0.105943423461914,10.972506498413084,1.906222485202696,-0.1695795517339929,12.579894659572693,0.595358146158854,0.3399196309407543,9.256724680582682,-1.5789031982421875,-0.2830505371093749,-0.241851806640625,-7.295003751429116,2.3578550757431405,-0.0986238805259147,-5.160740443638392,30.98042805989584,-2.4461292085193453,2.349943015400604,-14.199622040767872,0.4878872863247865,-4.108512338141983,-60.47537647537647,8.585717384702155,30.440800311498485,34.250666427052444,31.51906430646659,1577399162.0,-27.698231415643743,-51.11129016012848,23.369658
15710,1577399162.5,1.6147693096923827,-0.8553285430908203,9.06073647277832,0.0662785093726178,2.212651100121475,7.9662680604516,0.7617551615397129,-0.7590189310709633,3.043771372477213,-2.3113250732421875,1.013946533203125,-0.653839111328125,3.2030431235708843,-4.26445937738186,1.1068204554115852,-4.626682826450892,13.524373372395834,-1.7747424897693451,2.892237557416128,-14.387696504884,0.0,-4.108512338141983,-60.47537647537647,8.437046953798218,30.5845688441609,34.17878216072124,31.543025728577,1577399162.0,-27.698231415643743,-51.11129016012848,23.369658
15711,1577399162.51,1.0760739361572265,-0.1274912384033203,8.780614878540039,1.074237408298399,-0.0929650986089929,6.532141266018007,0.3810770975748691,-1.3695403544108071,2.1172153299967444,-1.7009735107421875,0.6172180175781251,-0.623321533203125,-0.9778650795541156,7.9425718726181405,0.5269864710365852,-1.2697492327008928,-13.544718424479166,-2.2019885835193453,1.626883626046571,-13.071175256071088,-0.8131454772079686,-2.4980569499088072,-60.0005698005698,1.3752014858613817,30.5845688441609,34.17878216072124,31.5909485727978,1577399162.0,-27.698231415643743,-51.11129016012848,23.369658
15712,1577399162.52,0.429639487915039,-0.115520230102539,8.507675889282226,0.9162200987280866,-0.849532823218368,8.622279315334413,-0.3204239888509111,-1.1803984232584632,10.281442991129556,-1.0753631591796875,0.3273010253906251,-0.791168212890625,-5.616536954554116,3.3954527319931405,-1.4566561070884148,-1.2697492327008928,-20.472208658854168,-1.5916370210193451,1.3557363550388128,-14.293659272825936,0.5692018340455853,-4.108512338141983,-57.62653642653642,-1.07786062405352,30.608530266271305,34.17878216072124,31.25548866325217,1577399162.0,-27.698231415643743,-51.11129016012848,23.369658
15713,1577399162.53,0.247680161743164,-1.1761515655517578,10.300932932739256,1.313657574314024,0.0614609084710846,9.637420819240662,0.7186595316569003,-1.0056217020670577,13.39510225016276,0.3131866455078124,-0.5424499511718749,-0.287628173828125,-1.817098477991616,-3.04375625238186,0.6643155725990852,-1.3918195452008928,4.262288411458334,2.5129772367931547,0.903824236692542,-14.199622040767872,0.4878872863247865,-1.1560107930478392,-58.81355311355311,4.014101634406202,30.34495462305688,34.08293647227963,31.6388714170186,1577399162.0,-27.698231415643743,-51.11129016012848,23.369658
15714,1577399162.54,0.803134946899414,-0.1011550201416015,12.14925661437988,0.3559769102515241,-0.7010923202886805,12.029228277736756,0.1081381083170566,1.3837915547688802,9.663738962809246,2.2052764892578125,0.3730773925781251,-0.562286376953125,0.3038732016958843,0.1605894507431402,-0.5716463414634148,0.4087175641741072,13.036092122395834,-0.3404163178943452,0.5422945420155274,-13.823473112535613,2.7646946225071214,-3.034875412653199,-50.029629629629625,8.139706091990352,30.728337376823312,34.17878216072124,31.447180040135382,1577399162.0,-27.698231415643743,-51.11129016012848,23.369658
15715,1577399162.55,0.8917204083251953,-0.7044938385009765,12.228265269165036,0.8396056456030866,-1.206268870581649,13.70516943984613,0.2326365946451816,2.2696461690266925,9.311791318766277,-0.2056121826171875,-0.8171081542968749,-0.989532470703125,1.6771642173208845,-1.88408828363186,0.7100919397865852,-0.1100812639508928,11.021931966145834,-1.6526721772693451,1.2653539313695563,-13.823473112535613,2.4394364316239328,-1.4244200244200351,-64.74863654863654,8.511382169250187,30.5366459999401,34.08293647227963,31.447180040135382,1577399162.0,-27.698231415643743,-51.11129016012848,23.369658
15716,1577399162.56,0.6068104107666015,-1.1091139190673829,10.26741410949707,3.094943609470274,-0.0809940903082117,11.1457678651391,0.3331930643717441,1.448434999593099,10.791407944742838,-1.2126922607421875,-0.4508972167968749,-0.287628173828125,-1.1304529701791155,0.9845640601181402,-0.6631990758384148,4.437037876674108,8.366902669270834,-3.3616565522693453,1.2653539313695563,-14.951919897232395,0.1626290954415977,-1.4244200244200351,-60.95018315018314,-1.0035254086015548,30.48872315571929,33.939167939617214,31.5909485727978,1577399162.0,-27.698231415643743,-51.11129016012848,23.369658
15717,1577399162.57,1.1514912884521484,0.3812766143798828,9.249878403930664,0.1524697691382433,-0.4054084152593841,8.238009948879334,0.1560221415201821,-2.5259397562662755,8.130252799479166,0.8625030517578125,-0.0389099121093748,-0.409698486328125,1.2499181235708845,-1.7315003930068595,-0.0070711461509147,3.414699009486608,4.842122395833334,-0.5845569428943452,1.807648473385084,-14.387696504884,0.3252581908831954,7.969903073606771,-63.08681318681319,6.987510252484869,30.297031778836075,34.08293647227963,31.638871417018603,1577399162.0,-27.698231415643743,-51.11129016012848,23.369658
15718,1577399162.58,1.4040795635986327,0.4351461517333984,8.270649924926756,1.821228326267149,-1.7114454208746177,10.063588714748477,2.9069598490397137,0.998325087483723,6.850552012125651,-0.1140594482421875,0.8613586425781251,-0.501251220703125,-2.778402188929116,7.60687851324314,0.2523282679115852,0.8969988141741072,-10.492960611979166,-0.5845569428943452,1.4461187787080658,-13.259249720187215,0.6505163817663843,-3.034875412653199,-57.62653642653642,9.329069539221818,30.5366459999401,34.17878216072124,31.5909485727978,1577399162.0,-27.698231415643743,-51.11129016012848,23.369658
15719,1577399162.59,1.4280215802001954,-0.814627114868164,7.389583713989257,0.4924464048804303,0.0363217910394435,8.8090270448266,-0.4473166768391923,0.2920355977376293,9.283060898844402,-1.3957977294921875,1.258087158203125,-0.775909423828125,5.858072420445884,-2.5859925805068595,0.7100919397865852,0.9885515485491072,-13.575236002604166,-0.7066272553943452,1.4461187787080658,-14.387696504884,0.6505163817663843,-6.255786189119516,-65.22344322344321,-2.2672240712849896,30.5366459999401,34.27462784916285,31.6388714170186,1577399162.0,-27.698231415643743,-51.11129016012848,23.369658
15720,1577399162.6,0.5697002850341796,-0.0161608612060546,10.188405454711914,0.5906086729468366,-0.6053242538824305,4.547348089748476,0.7354189432779941,-0.5626943949381509,10.580718198649087,0.9540557861328124,0.3425598144531251,-0.211334228515625,-3.968587735804116,2.4494078101181405,-0.3580232945884147,-1.0866437639508928,-7.532755533854167,0.2089000883556547,1.53650120237732,-14.105584808709809,0.4065727386039909,-6.255786189119516,-65.22344322344321,-2.2672240712849896,30.48872315571929,34.08293647227963,31.5909485727978,1577399162.0,-27.698231415643743,-51.11129016012848,23.369658
15721,1577399162.61,0.6953958721923827,0.4542997650146484,12.606549131469723,2.17197886948004,0.4696722915277252,11.035634588771911,1.0382854532877597,-0.3591872538248701,10.799787650553386,3.1208038330078125,0.4951477050781251,0.292205810546875,-2.778402188929116,-2.6317689476943595,0.1760343225990852,1.1258806501116072,-0.0101725260416667,0.8345104399181549,2.530707862739113,-14.011547576651742,0.3252581908831954,-6.255786189119516,-61.424989824989815,2.9362410103526813,30.392877467277685,34.15482073861084,31.5909485727978,1577399162.0,-27.698231415643743,-51.11129016012848,23.369658
15722,1577399162.62,0.4727351177978515,-0.5871779571533203,11.181999143676755,0.2865450621069928,-0.9309356796636804,10.44426677871332,0.6348624735514317,1.3215423116048175,8.76591334025065,1.0761260986328125,2.936553955078125,-0.684356689453125,-2.503743985804116,2.7851011694931405,0.8016446741615852,3.216334751674107,-8.631388346354166,-0.5235217866443452,2.530707862739113,-14.011547576651742,0.3252581908831954,-5.718967726375147,-57.15172975172975,8.214041307442319,30.48872315571929,34.08293647227963,31.543025728577,1577399162.0,-27.698231415643743,-51.11129016012848,23.369658
15723,1577399162.63,0.5134365460205077,-1.35332248840332,9.40550151184082,-1.6264220643578498,-1.0578283676519618,10.070771319728944,0.0458888651529941,-0.4597437235514321,10.513680552164711,-3.1047821044921875,-2.770233154296875,-0.318145751953125,2.4706212485708843,-6.24810195550686,-1.7007967320884148,-0.5678449358258928,-11.744181315104166,-1.1949085053943451,2.7114727100776186,-14.199622040767872,0.1626290954415977,-5.718967726375147,-60.95018315018314,-1.8955479940251536,30.392877467277685,33.939167939617214,31.543025728577,1577399162.0,-27.698231415643743,-51.11129016012848,23.369658
15724,1577399162.64,0.7767987286376953,-0.3884592193603515,9.424655125122069,2.9848103331030864,-1.302036936987899,10.221606024318788,-0.0115719746907548,-2.2553949686686194,12.824085154215494,0.0232696533203125,-1.152801513671875,0.124359130859375,-8.332601407679116,11.69623398199314,1.2288907679115852,-1.3002668108258928,-3.4739176432291665,1.0023571196056549,1.8980308970543347,-13.729435880477544,1.2197182158119664,3.406946140279458,-57.62653642653642,-2.2672240712849896,30.5366459999401,34.370473537604454,31.6388714170186,1577399162.0,-27.698231415643743,-51.11129016012848,23.369658
15725,1577399162.65,0.841442173461914,0.2124853973388671,10.355999570922853,-0.7333848451195686,0.4361534682855372,7.47545672011957,0.7354189432779941,1.0306468098958323,9.369252158610026,2.7545928955078125,-0.1457214355468749,0.566864013671875,0.715860506383384,-5.94292617425686,-0.4648348180259147,0.6528581891741072,4.460652669270833,-0.1115344819568452,1.626883626046571,-13.071175256071088,0.8131454772079753,0.7228538265575212,-57.62653642653642,2.3415592867369472,30.5845688441609,34.15482073861084,31.447180040135382,1577399162.0,-27.698231415643743,-51.11129016012848,23.369658
15726,1577399162.66,1.4208389752197266,0.7583633758544921,9.240301597290038,1.964880425876524,1.487207997094131,9.40278905654535,1.001175327555338,-0.8236623758951821,9.484173838297526,0.6183624267578125,0.2204895019531251,-0.196075439453125,-2.442708829554116,4.6771910132431405,1.2288907679115852,-0.0795636858258928,0.7985432942708333,-0.9202503022693452,1.626883626046571,-13.071175256071088,0.8131454772079753,-4.108512338141983,-56.67692307692308,7.693694799278552,30.5366459999401,34.22670500494204,31.447180040135382,1577399162.0,-27.698231415643743,-51.11129016012848,23.369658
15727,1577399162.67,1.071285532836914,-0.5201403106689453,7.798992197875975,1.3304169859351176,-3.169514231909775,8.320609906154726,0.4241727274576816,-0.4884741434733072,11.68444516398112,-1.9451141357421875,-1.152801513671875,0.078582763671875,-0.8863123451791157,0.5878355444931402,0.0081876429115852,-0.1711164202008928,2.141316731770833,-0.8592151460193452,0.0,-15.139994361348526,-0.3252581908831888,-4.108512338141983,-56.67692307692308,7.693694799278552,30.680414532602512,34.22670500494204,31.30341150747297,1577399162.0,-27.698231415643743,-51.11129016012848,23.369658
15728,1577399162.68,0.9036914166259764,-0.3309983795166015,9.623373862915038,0.4589275816382429,2.8590855483636624,10.5328522401391,1.721830027262369,-0.6464914530436197,11.60783071085612,0.6031036376953125,-0.0694274902343748,-0.058746337890625,-0.7947596108041157,-0.0530335961318597,-0.1444002477134147,-0.9950910295758928,6.352742513020833,-0.5540393647693452,0.63267696568478,-14.669808201058196,1.219718215811973,-1.9612384871644155,-65.22344322344321,7.545024368374619,30.440800311498485,34.08293647227963,31.447180040135382,1577399162.0,-27.698231415643743,-51.11129016012848,23.369658
15729,1577399162.69,1.0976217510986328,0.1837549774169921,12.197140647583009,0.6444782103003526,-0.9105849655523528,10.388003039699646,0.6061320536295566,-1.280954892985026,9.874428708902997,2.3273468017578125,-0.5729675292968749,0.231170654296875,2.2875157798208843,0.6030943335556403,0.1760343225990852,-1.5749250139508928,2.171834309895833,0.4682995024181547,1.084589084031051,-14.387696504884,0.9757745726495798,-1.4244200244200294,-65.22344322344321,8.511382169250187,30.48872315571929,34.15482073861084,31.375295773804176,1577399162.0,-27.698231415643743,-51.11129016012848,23.369658
15730,1577399162.7,0.8151059552001952,-1.1186907257080076,12.338398545532224,3.197894280856993,1.5757934585199125,13.853609942775815,0.3738944925944004,1.8698144917805988,11.447419199625651,1.0456085205078125,0.6477355957031251,0.109100341796875,2.6232091391958843,-7.2551820336318595,0.7100919397865852,0.5613054547991072,-1.7038981119791667,1.7958141508556549,1.084589084031051,-14.387696504884,0.9757745726495798,28.637413889265726,-55.25250305250305,8.214041307442319,30.5845688441609,34.17878216072124,31.543025728577,1577399162.0,-27.698231415643743,-51.11129016012848,23.369658
