,timestamp,acc_x_dashboard,acc_y_dashboard,acc_z_dashboard,acc_x_above_suspension,acc_y_above_suspension,acc_z_above_suspension,acc_x_below_suspension,acc_y_below_suspension,acc_z_below_suspension,gyro_x_dashboard,gyro_y_dashboard,gyro_z_dashboard,gyro_x_above_suspension,gyro_y_above_suspension,gyro_z_above_suspension,gyro_x_below_suspension,gyro_y_below_suspension,gyro_z_below_suspension,mag_x_dashboard,mag_y_dashboard,mag_z_dashboard,mag_x_above_suspension,mag_y_above_suspension,mag_z_above_suspension,temp_dashboard,temp_above_suspension,temp_below_suspension,timestamp_gps,latitude,longitude,speed
35096,1577310601.82,1.3755564465034291,0.2658147794397866,9.962331503072598,1.3412200909870422,-0.8581753072599086,10.404412080346082,2.852924858725942,-2.3410912599144917,3.872270814328077,0.8308596727324695,-1.6460883908155486,-9.299487602419967,1.556396484375,-2.8837250500190548,-8.614516839748475,4.623227003144055,-5.879844107278964,-49.878376286204265,-4.12727133784426,-8.190644034286276,3.4500420190235017,-7.534870424071813,6.262611535069867,-35.99340134691693,25.504747356755622,34.70593344715009,32.38167550244107,1577310600.999,-27.693049994087115,-51.12127412038888,4.3784
35097,1577310601.83,1.6077940075385857,-1.0893033602086504,11.025357040181971,2.200738486983136,-2.740017812142721,12.210837232933974,4.056011192954458,2.40780773300543,6.741721504025343,0.5867190477324695,-1.6003120236280486,-9.207934868044967,0.42724609375,-3.2194184093940548,-9.682632074123475,4.928402784394055,16.840492806783537,-39.059894840891765,-5.8961019112060855,-8.974854633313685,3.5408325984714875,-7.534870424071813,6.429585215710214,-104.92153731684974,25.45682451253482,34.562164914487674,32.30979123610986,1577310600.999,-27.693049994087115,-51.12127412038888,4.3784
35098,1577310601.84,0.6429307384956168,-3.126768973001619,9.967119906392911,0.8192841290729795,-2.184563026986471,9.23723877101991,1.1279025625833643,1.1269098448218366,9.937980720333936,1.5327639696074695,-4.499481945503049,-9.177417289919967,2.716064453125,-4.470639112519055,-9.926772699123475,4.318051221894055,20.655190072408537,-35.092609684641765,-5.053801638176648,-8.800585611307595,2.632926803991621,-7.534870424071813,6.429585215710214,-104.92153731684974,25.504747356755622,34.753856291370894,32.6931739898763,1577310600.999,-27.693049994087115,-51.12127412038888,4.3784
35099,1577310601.85,1.136136280487804,-0.7924223543492753,9.141120333639003,1.5183910138386048,-0.7552246358731889,9.42877490383241,-0.1793315438619471,11.83138546738043,14.88918975353706,2.234668266482469,-1.9970405392530488,-9.726733696169967,2.8076171875,-3.951840284394055,-10.201430902248475,4.134945753144055,11.011635384908535,-18.09431866901677,-5.8961019112060855,-8.626316589301503,2.451345645095649,-7.534870424071813,6.095637854429521,-110.91528827075692,25.45682451253482,34.61008775870848,32.16602270344745,1577310600.999,-27.693049994087115,-51.12127412038888,4.3784
35100,1577310601.86,1.3516144299018666,0.8643651944788485,10.92480057045541,0.8025247174518858,0.7016470743318887,7.884514833031631,-1.261510694252572,4.581742840427306,9.920024207882763,1.1360354539824695,-1.6918647580030486,-10.382861625857467,2.0294189453125,-1.5256928234565548,-10.460830316310975,-0.3053618640434453,-1.2106546541539636,8.944255549733231,-5.306491720085476,-8.364913056292366,3.4500420190235013,8.049339769027267,7.431427299552298,-107.16919392456496,25.576631623086836,34.72989486926049,32.33375265822026,1577310600.999,-27.693049994087115,-51.12127412038888,4.3784
35101,1577310601.87,1.0547334240424917,0.7685971280725986,11.066058468404629,0.2470699322956359,0.1952734232088413,8.65065936428163,-1.0244847298971034,0.8252404356421491,5.254922273068312,1.2886233446074695,1.2683403201219514,-9.909839164919967,2.13623046875,1.7244292468559452,-9.560561761623475,0.5338715343940548,7.105385384908536,8.730632502858231,-4.7168815289648665,-8.103509523283229,3.3592514395755155,5.823024027155972,6.095637854429521,32.93473462301586,25.408901668314016,34.753856291370894,32.45355976877228,1577310600.999,-27.693049994087115,-51.12127412038888,4.3784
35102,1577310601.88,2.1943734142768667,0.0479424283655674,9.584047640767912,2.2534109235065736,-0.6546681661466264,8.751215834008192,2.813420531333364,1.244225726169493,6.100075459103468,0.8308596727324695,1.6040336794969514,-9.757251274294967,0.640869140625,2.426333543730945,-9.285903558498475,-0.9920073718559452,11.621986947408535,15.993816096608231,-4.7168815289648665,-8.103509523283229,2.2697644861996773,5.823024027155972,6.429585215710214,32.93473462301586,25.408901668314016,34.8017791355917,32.30979123610986,1577310600.999,-27.693049994087115,-51.12127412038888,4.3784
35103,1577310601.89,3.5734335705268667,0.6596609525354896,9.109995712056971,2.1456718487995423,0.4394819925447789,7.245262989769912,2.820603136313833,-2.979146002346131,5.824742268185499,1.1512942430449695,3.5418998904344514,-9.085864555544967,1.28173828125,3.036685106230945,-9.255385980373475,-1.0835601062309452,18.518959603658537,11.355144221608231,-5.053801638176648,-8.800585611307595,3.7224137573674594,3.596708285284674,6.095637854429521,-127.39810339400177,25.408901668314016,34.562164914487674,32.45355976877228,1577310600.999,-27.693049994087115,-51.12127412038888,4.3784
35104,1577310601.9,2.0483271130073355,0.7614145230921299,10.934377377096036,2.1229269330280576,-0.4966508565763138,9.87050511013124,2.84813645540563,-2.90372865005121,10.597583277706985,0.6172366258574695,4.930449695121951,-9.940356743044967,0.0,2.182192918730945,-9.453750238185975,-0.4426909656059453,19.26664026772104,5.5415455887957314,-5.053801638176648,-9.84619974334414,2.2697644861996773,7.492760833559442,6.346098375390042,-113.91216374771052,25.2172102914308,34.63404918081888,32.38167550244107,1577310600.999,-27.693049994087115,-51.12127412038888,4.3784
35105,1577310601.91,0.1856382214057729,-0.8355179842320879,8.53778151527963,0.1943974957721984,-0.2308944722989701,11.624257826195691,0.5389289541849268,-8.35652293105707,15.384789497189406,1.6853518602324695,3.5876762576219514,-9.848804008669967,2.62451171875,0.1375151843559451,-10.781264886623475,2.4259613781440548,14.551674447408535,-19.68123273151677,-5.222261692782536,-9.671930721338049,3.177670280679544,7.771050301293356,6.847019417311081,-134.14107321714732,25.45682451253482,34.8017791355917,32.50148261299308,1577310600.999,-27.693049994087115,-51.12127412038888,4.3784
35106,1577310601.92,-0.628390343047351,-0.9839584871617754,9.631931673971035,0.709150852705792,-0.6019957296231888,9.579609608422254,-1.740351026283822,-1.2864454286156624,15.028053449826125,1.6548342821074695,2.3059379763719514,-10.642261039919967,2.5634765625,0.0459624499809451,-10.476089105373475,3.3109711437690548,2.4361959317835367,-24.28938702839177,-5.727641856600198,-8.800585611307595,3.7224137573674594,7.771050301293356,6.847019417311081,-134.14107321714732,25.408901668314016,34.562164914487674,32.30979123610986,1577310600.999,-27.693049994087115,-51.12127412038888,4.3784
35107,1577310601.93,0.2814062878120229,-0.8666426058141191,10.328644357076504,-0.6100542620403006,-1.4998213521817836,8.387297181664442,-1.4267106088033532,-1.4707989564476935,15.035236054806592,0.4951663133574695,3.0078422732469514,-10.733813774294967,3.021240234375,-0.7780121593940549,-10.537124261623475,2.6090668468940548,-14.348472036966465,-21.48176984089177,-5.727641856600198,-9.149123655319777,3.7224137573674594,8.049339769027267,6.76353257699091,-139.38560530181627,25.2651331356516,34.8017791355917,32.26186839188906,1577310600.999,-27.693049994087115,-51.12127412038888,4.3784
35108,1577310601.94,0.4202699841010854,-0.5805355074254478,10.620736959615568,-0.4975267840129573,1.303788791861185,8.900853437767958,0.7855317251810205,3.0949436094702745,6.522652052121046,1.5480227586699695,0.5969536013719514,-8.933276664919969,-0.823974609375,2.609439012480945,-8.370376214748475,3.4330414562690548,-11.373008169778965,-27.905720036204265,-4.548421474358978,-9.323392677325868,3.177670280679544,10.971379180233347,4.300670787545786,-164.48443742130263,25.528708778866022,34.65801060292928,32.33375265822026,1577310600.999,-27.693049994087115,-51.12127412038888,4.3784
35109,1577310601.95,0.7722176281440543,2.4517208951624423,10.35019217201791,1.6189474835651672,1.5288437479158723,10.731220606957413,3.3545101065286764,6.954396685642148,3.21266825695503,0.2205081102324695,2.3974907107469514,-8.353442680544969,-1.251220703125,2.212710496855945,-7.698989495998475,0.9000824718940548,15.863930306783535,-7.0469553877667686,-4.043041310541316,-10.19473778735632,2.632926803991621,10.553944978632478,4.342414207705874,-164.10982798668337,25.45682451253482,34.61008775870848,32.50148261299308,1577310600.999,-27.693049994087115,-51.12127412038888,4.3784
35110,1577310601.96,1.7227156872260854,1.1061795621546298,9.83304461342416,1.1616549664753233,0.5879224954744664,11.63862303615663,3.397605736411489,1.993610845798399,9.983470551876906,0.8918948289824695,-0.5321967892530487,-8.109302055544969,0.91552734375,-0.5643891125190549,-7.973647699123475,0.9000824718940548,23.676430306783537,-6.2229807783917686,-5.559181801994311,-8.974854633313685,3.177670280679544,10.553944978632478,4.342414207705874,-158.1160770327762,25.2651331356516,35.08931620091653,32.45355976877228,1577310600.999,-27.693049994087115,-51.12127412038888,4.3784
35111,1577310601.97,1.95615034909132,-0.6415876497594322,8.609607565084318,3.249398814131573,-2.4958092428067835,10.1135165786371,3.110301537192739,-0.8076050965844124,13.428726740841748,0.6019778367949695,-0.5474555783155486,-9.345263969607467,3.814697265625,-0.4423188000190549,-9.316421136623475,-0.0764800281059452,18.793617806783537,-7.321613590891768,-5.222261692782532,-8.452047567295413,2.451345645095649,8.049339769027267,3.758006325464657,-232.2887450873778,25.48078593464522,34.70593344715009,32.30979123610986,1577310600.999,-27.693049994087115,-51.12127412038888,4.3784
35112,1577310601.98,2.1536719860542104,-1.793198648294588,9.48827957436166,1.4776895856159484,-1.6458676534513144,7.71811781765077,-0.6964791024556976,0.0770524168433214,15.601464747433546,1.1360354539824695,1.0241996951219514,-9.818286430544967,1.8463134765625,-0.1371430187690548,-10.033584222560975,1.2968109875190548,-2.461875357278964,-1.3554270674542683,-5.727641856600198,-8.800585611307595,2.632926803991621,-0.5776337307240089,1.253401115859449,-212.05983561794096,25.31305597987241,34.72989486926049,32.40563692455147,1577310600.999,-27.693049994087115,-51.12127412038888,4.3784
35113,1577310601.99,1.7634171154487417,0.1676525113733799,11.303084432760098,0.7474580792682921,0.1330241800447788,10.551655482445693,-0.9358992684713222,-1.3199642518578498,13.897990266232371,0.6172366258574695,1.817656726371952,-9.574145805544967,0.54931640625,1.7244292468559452,-9.194350824123475,0.0455902843940547,-23.839438833841463,0.9181325028582316,-4.211501365147203,-8.974854633313685,4.267157234055382,-2.525660004861394,3.59103264482431,-188.8340506715505,25.504747356755622,34.8017791355917,32.45355976877228,1577310600.999,-27.693049994087115,-51.12127412038888,4.3784
35114,1577310602.0,0.9086871227729604,-0.4763877352086503,9.70615192543588,-0.4879499773723318,2.431457773794779,10.92275673976991,-0.4857893563619471,-0.8578833314476936,12.461469270138624,1.8379397508574693,3.679228991996952,-8.902759086794969,0.823974609375,3.006167528105945,-7.790542230373475,0.7474945812690548,-28.295005240091463,-3.110187809641769,-5.222261692782536,-8.277778545289321,3.9039949162634384,-1.9690810693935703,3.59103264482431,-182.8402997176433,25.45682451253482,34.70593344715009,32.50148261299308,1577310601.999,-27.693006020606624,-51.12127786720032,4.846841
35115,1577310602.01,1.1229681713569448,0.336443728414396,10.648270278707365,-0.9811555193645192,1.947829038443216,11.636228834496476,0.206134923423208,-1.0422368592797249,4.7521399244354985,1.9905276414824693,3.2062065310594514,-7.498950493044969,2.166748046875,2.884097215605945,-6.875014886623475,2.4564789562690548,-23.107016958841463,-11.746662419016769,-5.474951774691363,-9.584796210335004,2.723717383439607,-6.421712553136165,3.59103264482431,-158.86529590201468,25.33701740198281,34.70593344715009,32.64525114565549,1577310601.999,-27.693006020606624,-51.12127786720032,4.846841
35116,1577310602.02,1.413863673065929,-0.2465443758336503,10.642284774556972,2.096590714766339,-0.6642449727872515,10.582780104027725,2.42675696321813,0.5738492613257432,5.772069831662062,2.417773735232469,4.045439929496951,-7.498950493044969,3.90625,4.654116746855945,-7.729507074123475,2.8684662609565548,-7.832969107278965,-10.113971989329269,-6.569942129629636,-8.626316589301503,2.8145079628875926,-1.5516468677927018,2.380473460181794,-132.26802604405134,25.2172102914308,34.65801060292928,32.09413843711624,1577310601.999,-27.693006020606624,-51.12127786720032,4.846841
35117,1577310602.03,1.0403682140815542,-0.8786136141149004,7.826703622213223,1.549515635420636,-0.937183962045064,12.625034120141004,2.8349683462747706,-1.4324917298851936,7.955581745724562,3.058642875857469,4.991484851371951,-7.498950493044969,2.13623046875,1.7854644031059452,-7.882094964748475,2.8532074718940548,5.823647103658536,-15.958088200266769,-6.569942129629636,-8.626316589301503,2.8145079628875926,3.874997753018584,3.674519485144485,-113.16294487847216,25.45682451253482,34.70593344715009,32.30979123610986,1577310601.999,-27.693006020606624,-51.12127786720032,4.846841
35118,1577310602.04,0.4394235973823355,-0.1340168978063066,9.67981570717416,0.8025247174518858,-0.4104595968106889,10.111122376976942,0.8142621451028955,4.220218389743711,10.974670039181593,0.4951663133574695,2.7637016482469514,-8.139819633669969,0.885009765625,1.0530425281059452,-7.943130120998475,2.7006195812690548,6.311928353658536,-10.861652653391769,-5.222261692782536,-9.323392677325868,3.177670280679544,2.2052609466151134,3.674519485144485,-107.16919392456496,25.45682451253482,34.70593344715009,32.30979123610986,1577310601.999,-27.693006020606624,-51.12127786720032,4.846841
35119,1577310602.05,0.7961596447456167,0.245464065328458,9.811496798482755,0.2949539654987614,0.3508965311189976,9.93395145412538,1.5887863821634425,0.6396898069800401,8.860589973263624,1.5022463914824695,1.6803276248094514,-7.575244438357469,0.274658203125,1.3734770984184452,-6.951308831935975,0.9000824718940548,8.783852181783535,-7.3979075362042686,-4.211501365147203,-8.800585611307595,2.6329268039916207,10.275655510898565,4.008466846425179,-128.1473222632402,25.38494024620361,34.8017791355917,32.38167550244107,1577310601.999,-27.693006020606624,-51.12127786720032,4.846841
35120,1577310602.06,-0.2094050525200072,0.8332405728968173,9.828256210103849,-0.6555440935832693,1.7898117288729036,11.56200858303163,-0.0380736459127284,3.291268145603086,8.712149470333937,1.3191409227324695,1.6955864138719514,-6.736011039919969,0.396728515625,2.395815965605945,-7.119155511623475,0.7780121593940548,11.835609994283535,5.068523127858232,-4.211501365147203,-9.323392677325868,2.8145079628875926,10.275655510898565,3.924980006105006,31.43629688453913,25.408901668314016,34.70593344715009,32.30979123610986,1577310601.999,-27.693006020606624,-51.12127786720032,4.846841
35121,1577310602.07,-1.1287784900200073,1.927390731588224,11.935153671041348,-2.5876648333293626,0.6717195535799351,9.711290699730847,0.5197753409036768,-6.268779083400819,10.723278864865186,0.7393069383574695,1.909209460746952,-6.919116508669969,2.13623046875,0.7173491687309451,-6.478286370998475,-0.1985503406059452,11.774574838033535,-2.743976872141769,-4.211501365147203,-9.323392677325868,2.8145079628875926,1.370392543413376,3.59103264482431,29.93785914606228,25.504747356755622,34.70593344715009,32.30979123610986,1577310601.999,-27.693006020606624,-51.12127786720032,4.846841
35122,1577310602.08,-0.2872166064750854,-2.1846506197301347,9.390117306295254,0.0076497662800109,-2.3521571431974087,12.486170423851943,-0.0883518807760096,-1.9951291200219123,13.131845734982374,0.3120608446074695,-0.1049506955030487,-6.919116508669969,1.739501953125,1.1751128406059452,-6.325698480373475,1.7240570812690548,8.081947884908537,-9.152668278391769,-4.548421474358978,-9.323392677325868,2.4513456450956417,1.9269714788812,3.424058964183964,26.940983669108675,25.28909455776201,34.8017791355917,32.357714080330666,1577310601.999,-27.693006020606624,-51.12127786720032,4.846841
35123,1577310602.09,0.6908147716987417,-1.345482937845369,8.226535299459318,0.7737942975300108,-1.8589516012052203,9.44314011379335,1.336198107016958,1.1293040464819932,9.390905640988231,0.0068850633574695,0.5664360232469513,-6.736011039919969,-0.6866455078125,0.1985503406059451,-6.615615472560975,-1.0683013171684452,6.495033822408536,5.739909846608232,-7.0753222934473055,-8.800585611307595,2.2697644861996773,0.2572346724777268,3.424058964183964,-55.47309194711536,25.31305597987241,34.753856291370894,32.33375265822026,1577310601.999,-27.693006020606624,-51.12127786720032,4.846841
35124,1577310602.1,0.8991103161323355,1.1971592252405674,10.173021249166348,1.0994057233112609,1.9621942484041537,9.493418348656627,2.157409276450552,-2.696630206447693,7.7137673780487805,0.3120608446074695,-0.1354682736280487,-6.949634086794969,-1.373291015625,0.6257964343559451,-6.966567620998475,-0.9004546374809452,10.187660775533535,2.1693532059832314,-5.390721747388423,-8.800585611307595,4.08557607515941,8.049339769027267,3.424058964183964,-143.88091851724658,25.31305597987241,34.562164914487674,32.45355976877228,1577310601.999,-27.693006020606624,-51.12127786720032,4.846841
35125,1577310602.11,0.7578524181831167,4.35511121498666,10.570458724752283,0.0555337994831359,3.719538266958841,8.207732057152723,-0.6557776742330409,-0.8530949281273811,8.420056867794875,0.4951663133574695,0.2917778201219513,-6.705493461794969,1.068115234375,-0.7474945812690549,-7.607436761623475,-0.6868315906059452,11.988197884908535,-7.443683903391768,-5.390721747388423,-8.800585611307595,4.08557607515941,6.936181898091619,3.424058964183964,-152.87154494810736,25.504747356755622,34.753856291370894,32.357714080330666,1577310601.999,-27.693006020606624,-51.12127786720032,4.846841
35126,1577310602.12,1.5862461925971791,0.5507247769983804,9.339839071431973,0.3212901837604797,1.2199917337557162,8.14548281398866,-2.4610057259908533,-2.940838775783631,11.8772840650605,-1.5342526319550305,0.5816948123094514,-6.980151664919969,1.434326171875,2.456851121855945,-6.783462152248475,0.9000824718940548,8.539711556783537,-17.05672101276677,-4.801111556267813,-9.06198914431673,3.813204336815449,0.2572346724777273,3.424058964183964,-152.87154494810736,25.48078593464522,34.70593344715009,32.357714080330666,1577310601.999,-27.693006020606624,-51.12127786720032,4.846841
35127,1577310602.13,1.5982172008979605,-1.6710943636266191,10.534545699849945,1.0275796735065734,-2.1067514730313923,8.550102894555067,0.3390131155618804,0.2350697264136338,9.206552113156205,0.3425784227324695,3.831816882621952,-6.369800102419969,-0.06103515625,4.013247606230945,-6.386733636623475,1.7545746593940548,6.189858041158536,-23.52644757526677,-4.88534158357076,-8.626316589301503,1.725021009511747,2.900984615949893,4.300670787545786,-169.72896950597146,25.408901668314016,34.65801060292928,32.38167550244107,1577310601.999,-27.693006020606624,-51.12127786720032,4.846841
35128,1577310602.14,-0.2572890857231323,-1.699824783548494,9.435607137838224,0.8647739606159484,-1.6147430318692837,13.82213495021913,3.6849099356302393,0.1093741392554303,11.297887263302686,-0.7865719678925305,4.167510241996951,-6.644458305544969,-1.678466796875,2.762026903105945,-5.806899652248475,0.5338715343940548,3.8705221036585367,-10.342853825266769,-5.727641856600198,-9.149123655319777,2.632926803991621,1.370392543413376,4.091953686745352,-176.84654876373614,25.45682451253482,34.8017791355917,32.30979123610986,1577310601.999,-27.693006020606624,-51.12127786720032,4.846841
35129,1577310602.15,-0.2788369006645385,-1.9248797396031816,9.631931673971035,0.709150852705792,-0.1087901876310013,12.459834205590225,3.184521788657583,1.33520538925543,6.990718476681593,0.0679202196074695,1.4819633669969514,-6.919116508669969,1.007080078125,-0.0761078625190548,-6.813979730373475,0.2286957531440547,10.798012338033535,-6.8028147627667686,-5.727641856600198,-9.149123655319777,2.632926803991621,-0.8559231984579215,4.091953686745352,-173.84967328678252,25.504747356755622,34.753856291370894,32.45355976877228,1577310601.999,-27.693006020606624,-51.12127786720032,4.846841
35130,1577310602.16,-0.1806746325981323,1.413834475484708,10.407653011861662,-0.0138980486613943,0.6405949319979037,10.360119349633193,-1.0723687631002283,3.5043520933569927,17.776596955685495,0.8003420946074695,0.0323784060594511,-6.659717094607469,0.396728515625,-0.9306000500190548,-7.607436761623475,-0.2901030749809452,3.7789693692835367,0.3993336747332316,-4.969571610873704,-9.410527188328912,3.6316231779194768,-2.525660004861394,3.424058964183964,-179.84342424068973,25.38494024620361,34.70593344715009,32.45355976877228,1577310601.999,-27.693006020606624,-51.12127786720032,4.846841
35131,1577310602.17,0.0635339367378042,0.2466611661585361,10.053311166158537,0.0124381696003239,0.6609456461092319,9.744809522973036,-3.015263410317025,-3.8290875917016,15.2483200025605,0.5867190477324695,0.2307426638719513,-6.552905571169969,0.762939453125,-0.4423188000190548,-6.432510003810975,1.0984467297065548,-12.761557974466465,-13.959186833079269,-5.222261692782536,-8.974854633313685,3.177670280679544,-0.577633730724009,3.758006325464658,-175.34811102525933,25.2651331356516,34.63404918081888,32.33375265822026,1577310601.999,-27.693006020606624,-51.12127786720032,4.846841
35132,1577310602.18,-0.4344600085746947,-1.0222657137242754,9.440395541158535,-1.3187379534465506,-0.1183669942716263,11.35850144191835,-1.1513774178853846,4.66793410019293,10.72088466320503,0.1899905321074695,1.5735161013719514,-6.064624321169969,1.312255859375,0.4121733874809451,-6.325698480373475,2.2428559093940548,-22.710288443216463,-18.15535382526677,-5.559181801994311,-9.323392677325868,2.451345645095649,-0.5776337307240097,5.845177333468997,-164.10982798668337,25.504747356755622,34.993470512474914,32.45355976877228,1577310601.999,-27.693006020606624,-51.12127786720032,4.846841
35133,1577310602.19,-0.6978221911918823,-2.0278304109899,10.972684603658536,-0.068964686844988,-0.5253812764981889,12.452651600609755,3.146214562095083,7.366199371189023,2.096970283322217,0.6172366258574695,-0.2270210080030487,-5.088061821169969,-0.335693359375,0.8699370593559451,-4.494643792873475,0.6254242687690548,-11.876548208841465,-1.4317210127667683,-5.559181801994311,-9.323392677325868,2.451345645095649,-9.482896698209196,6.346098375390042,-143.1316996480081,25.31305597987241,34.89762482403331,32.50148261299308,1577310601.999,-27.693006020606624,-51.12127786720032,4.846841
35134,1577310602.2,1.5323766552436635,-0.2166168550816977,8.868181344381192,1.961318320967511,0.978177366079935,10.24160636745546,1.0321344961771148,1.495616900485899,2.0981673841522963,1.8074221727324693,-0.7763374142530488,-4.798144828982469,0.640869140625,0.0917388171684451,-4.677749261623475,-0.1222563952934452,19.69388636147104,9.295207698170731,-4.8853415835707565,-9.323392677325868,2.451345645095649,-8.648028295007462,4.175440527065527,27.69020253834717,25.528708778866022,34.72989486926049,32.45355976877228,1577310601.999,-27.693006020606624,-51.12127786720032,4.846841
35135,1577310602.21,2.400274757050304,2.3655296353968174,9.461943356099942,1.595005466963605,0.1737256082674351,6.637135768090224,-0.0691982674947596,0.6360985044898053,6.981141670040968,1.4412112352324695,1.5429985232469514,-4.996509086794969,3.35693359375,0.3511382312309451,-5.074477777248475,0.2897309093940547,30.573402963033537,8.150798518483231,-5.727641856600198,-8.452047567295411,4.08557607515941,-3.082238940329218,4.759848409306741,29.93785914606228,25.2651331356516,34.753856291370894,32.357714080330666,1577310601.999,-27.693006020606624,-51.12127786720032,4.846841
35136,1577310602.22,2.6468775280463976,-0.0837386629430253,10.1155604093226,1.8679444562214167,-1.5836184102872524,4.515873097191786,-0.8305543954244472,-3.2879980165062874,12.296269355587842,1.5022463914824695,2.8247368044969514,-5.088061821169969,-0.3662109375,1.9380522937309448,-4.921889886623475,1.4493988781440548,27.155434213033537,-1.1875803877667683,-4.88534158357076,-9.323392677325868,3.5408325984714875,1.370392543413376,6.095637854429521,35.93161009996946,25.64851588941804,34.61008775870848,32.16602270344745,1577310601.999,-27.693006020606624,-51.12127786720032,4.846841
35137,1577310602.23,3.022767188690929,-1.5298364656774004,8.482714877096036,1.702744541670636,-1.2580069845060022,7.053726856957412,-0.3421372567525721,-0.4700226625023811,14.338523371701124,1.4106936571074695,4.960967273246951,-4.874438774294969,0.274658203125,6.057925340605945,-4.433608636623475,2.0902680187690548,13.269936166158535,-6.0703928877667686,-4.88534158357076,-9.323392677325868,3.5408325984714875,5.823024027155972,6.095637854429521,32.93473462301586,25.45682451253482,34.70593344715009,32.357714080330666,1577310601.999,-27.693006020606624,-51.12127786720032,4.846841
35138,1577310602.24,1.767008417938976,-1.515471255716463,9.906067764058928,0.7115450543659485,-1.6027720235685023,11.749953413353897,-0.4953661630025722,-6.320254419094179,17.82807229137886,1.9294924852324693,6.685210437309451,-4.477710258669969,0.6866455078125,5.417056199980945,-4.235244378810975,3.2346771984565548,-13.204062857278965,-16.88887433307927,-4.632651501661925,-9.061989144316732,3.631623177919473,8.745063438362049,6.137381274589608,-39.36488625848971,25.504747356755622,34.63404918081888,32.74109683409711,1577310601.999,-27.693006020606624,-51.12127786720032,4.846841
35139,1577310602.25,-1.7943665515434446,-1.3047815096227129,12.358927364889004,-1.8717985369426444,-1.77036613977944,15.98649325100038,-0.4833951547017908,-1.1811005555687877,17.544359394650343,1.2581057664824695,3.5876762576219514,-3.9894290086699695,4.852294921875,2.914614793730945,-5.501723870998475,3.1583832531440548,-37.57234899009146,-27.00545148151677,-5.222261692782536,-10.717544853374594,2.8145079628875926,0.2572346724777273,6.429585215710214,-125.899665655525,25.2172102914308,34.61008775870848,32.45355976877228,1577310601.999,-27.693006020606624,-51.12127786720032,4.846841
35140,1577310602.26,-1.5310043689262571,-1.5202596590367754,11.367727877584317,0.0124381696003234,-0.9802795919278764,13.908326209984756,0.9076360098489892,0.2458436338843365,15.57871983166206,0.8308596727324695,1.3904106326219514,-4.569262993044969,0.701904296875,2.517886278105945,-3.731704339748476,3.3720063000190548,-43.55379430259146,-21.87849835651677,-5.727641856600198,-10.19473778735632,2.996089121783565,-1.9690810693935703,4.592874728666395,-128.8965411324786,25.45682451253482,34.46631922604607,32.50148261299308,1577310601.999,-27.693006020606624,-51.12127786720032,4.846841
35141,1577310602.27,-0.9875205920707884,2.803668539205411,11.398852499166347,0.9940608502643858,1.8161479471346225,14.0591609145746,0.5269579458841456,2.644833697360899,8.336259809689405,1.5175051805449695,0.9021293826219514,-4.370898735232469,1.983642578125,-0.3202484875190549,-4.769301995998475,1.7850922375190548,-40.71565953696646,-15.134113590891769,-4.7168815289648665,-9.149123655319777,2.632926803991621,-2.247370537127482,5.010308930267262,-140.1348241710545,25.360978824093213,34.46631922604607,32.30979123610986,1577310601.999,-27.693006020606624,-51.12127786720032,4.846841
35142,1577310602.28,-2.019421507598132,1.0271709073694737,9.299137643209315,-2.127978114579363,2.17527819615806,9.283925703392958,1.6737805410989892,5.46041484970465,0.3994813062714369,-1.2443356397675305,-1.3256538205030486,-4.538745414919969,1.708984375,-3.860287550019055,-4.693008050685975,1.3731049328315548,-11.220420279153965,-14.233845036204269,-2.8638209283001026,-9.671930721338049,3.177670280679544,-2.2473705371274817,4.50938788834622,-140.1348241710545,25.45682451253482,34.58612633659808,32.83694252253871,1577310601.999,-27.693006020606624,-51.12127786720032,4.846841
35143,1577310602.29,-0.3817875720512573,-1.220984451517244,8.573694540181974,0.3380495953815734,-0.8150796773770952,6.043373756371474,-0.1242649056783534,7.490697857517149,3.641230354122999,-0.0846676710175304,-3.2482612423780486,-3.531665336794969,1.8310546875,0.0154448718559451,-3.090835199123476,-0.9920073718559452,16.626869759908537,8.974773127858231,-5.222261692782536,-9.323392677325868,3.5408325984714875,8.32762923676118,6.5130720560303885,-132.64263547867057,25.31305597987241,34.8017791355917,32.30979123610986,1577310601.999,-27.693006020606624,-51.12127786720032,4.846841
35144,1577310602.3,2.244651649140148,-1.831505874857088,6.2106175016077545,0.6325363995807921,-1.236459169564596,6.629953163109756,-0.1697547372213221,0.662434722751524,8.206972920040968,-0.6645016553925305,-0.9594428830030488,-3.043384086794969,-1.861572265625,1.0530425281059452,-2.388930902248476,-2.639956590605945,16.993080697408537,18.06901140910823,-4.7168815289648665,-10.891813875380686,2.632926803991621,6.936181898091619,6.596558896350564,-136.38872982486265,25.31305597987241,34.46631922604607,32.30979123610986,1577310601.999,-27.693006020606624,-51.12127786720032,4.846841
35145,1577310602.31,0.7626408215034292,-0.8977672273961503,10.036551754537442,0.2925597638386046,-2.8980351217130336,9.136682301293348,-0.6485950692525722,0.1093741392554303,13.988969929318312,0.0831790086699695,-0.2117622189405487,-2.753467094607469,-5.035400390625,-0.0761078625190548,-1.3208156678734757,-2.731509324980945,9.150063119283535,20.54093523723323,-4.7168815289648665,-9.84619974334414,4.08557607515941,9.162497639962917,6.095637854429521,26.940983669108675,25.48078593464522,34.46631922604607,32.30979123610986,1577310601.999,-27.693006020606624,-51.12127786720032,4.846841
35146,1577310602.32,1.2534521618354604,-0.4715993318883378,9.011833443990568,0.5535277447956364,-0.0273873311856893,10.971837873803114,0.565265172446646,-3.674661584621522,12.740393763546829,0.5867190477324695,-1.0509956173780486,-3.592700493044969,0.3814697265625,-0.2897309093940549,-3.106093988185976,-1.739688035918445,1.3375631192835369,17.53495379192073,-5.390721747388423,-9.497661699331958,2.632926803991621,6.657892430357707,6.095637854429521,-175.34811102525933,25.60059304519724,34.681972025039684,32.86090394464911,1577310601.999,-27.693006020606624,-51.12127786720032,4.846841
35147,1577310602.33,-0.264471690703601,0.7733855313929111,10.431595028463224,-0.305990651200457,0.9781773660799352,10.905398777733778,-1.354884558998666,-2.7929968232689824,11.670784171872022,0.7393069383574695,-0.4101264767530487,-3.531665336794969,-1.04522705078125,0.3511382312309452,-2.869582757717226,-0.9233428210746952,1.3985982755335369,2.802592952076981,-6.906862238841405,-10.717544853374594,2.8145079628875926,1.7878267450142449,4.759848409306742,-200.07233371012651,25.31305597987241,34.693952736094886,32.657231856710695,1577310601.999,-27.693006020606624,-51.12127786720032,4.846841
35148,1577310602.34,-0.6180154691866739,0.1740370491337969,10.63749637123666,-0.7357498491985037,1.4809597147127476,10.87217922969911,-2.314959424721322,-2.352164442592713,11.13597937603462,-0.3288082960175305,-1.0408230913363818,-3.999601534711636,-1.758575439453125,0.6715728015434452,-2.751327142482851,-0.5151702136528201,1.4291158536585369,-4.5635874678448936,-5.6714885050649,-9.439572025329928,3.9039949162634335,-0.6472060976574866,4.091953686745353,-212.4344450525601,25.36097882409321,34.69994309162249,32.55539581274149,1577310601.999,-27.693006020606624,-51.12127786720032,4.846841
35149,1577310602.35,-0.8845699206840697,0.3520060392054111,11.724463924947598,-1.1655090471965506,1.98374206334556,10.838959681664443,-3.275034290443978,-1.911332061916444,10.601174580197217,-1.0612301710175305,-0.9899604611280488,-2.890796196169969,-2.471923828125,0.9920073718559452,-2.633071527248476,-0.1069976062309452,1.4596334317835369,-11.929767887766769,-5.559181801994311,-9.323392677325868,3.177670280679544,-3.082238940329218,3.424058964183964,-224.79655639499376,25.2651331356516,34.70593344715009,32.45355976877228,1577310601.999,-27.693006020606624,-51.12127786720032,4.846841
35150,1577310602.36,0.4681540173042104,-0.6200398348180254,7.778819589010099,-0.1826892657024104,0.3532907327791538,7.773184455834365,-1.3584758614889008,-0.100118506008241,5.578139497189405,-0.4203610303925305,-0.9899604611280488,-2.646655571169969,0.152587890625,-1.0526703625190548,-2.083755120998476,1.6630219250190548,8.799110970846035,-19.89485577839177,-3.3692010921177653,-9.84619974334414,3.3592514395755155,-7.2565809563379,1.50386163681997,-197.07545823317295,25.408901668314016,34.681972025039684,32.57336687932428,1577310601.999,-27.693006020606624,-51.12127786720032,4.846841
35151,1577310602.37,1.814892451142101,-0.1974632418004477,10.019792342916348,1.7171097516315734,-0.4439784200528763,8.322653736840223,-0.6533834725728846,3.032694366306212,7.874178889279249,-0.4661373975800304,0.5206596560594514,-2.173633110232469,0.762939453125,2.365298387480945,-2.541518792873476,0.7169770031440548,16.993080697408537,-15.530842106516769,-4.548421474358978,-8.974854633313685,3.9039949162634384,-9.204607230475286,1.4203747964997968,-188.8340506715505,25.408901668314016,34.94554766825411,32.16602270344745,1577310601.999,-27.693006020606624,-51.12127786720032,4.846841
35152,1577310602.38,0.7051799816596792,-0.3255530306188066,9.830650411764005,1.465718577315167,-1.5093981588224086,7.989859706078505,1.5325226431497705,-0.3838314027367561,11.81264062023628,-1.9767575147675305,2.1838676638719514,-2.494067680544969,-2.471923828125,2.548403856230945,-2.358413324123476,-0.7783843249809452,12.293373666158535,-8.908527653391769,-5.559181801994311,-9.323392677325868,3.5408325984714875,-9.204607230475286,1.4203747964997968,-188.8340506715505,25.504747356755622,34.61008775870848,32.357714080330666,1577310601.999,-27.693006020606624,-51.12127786720032,4.846841
35153,1577310602.39,0.6381423351753042,-0.3087936189977128,10.264000912252286,1.5806402570026672,-0.5134102681974076,10.036902125512098,1.989815160239614,-2.248914495998475,12.068820197873,-1.1222653272675305,0.6274711794969513,-3.104419243044969,-2.44140625,2.243228074980945,-2.144790277248476,0.1066254406440547,8.753334603658537,-14.188068669016769,-4.7168815289648665,-9.149123655319777,2.632926803991621,-7.534870424071813,2.088269519061185,-182.8402997176433,25.2651331356516,34.753856291370894,32.50148261299308,1577310601.999,-27.693006020606624,-51.12127786720032,4.846841
35154,1577310602.4,0.6525075451362418,0.9002782193811923,10.252029903951504,1.1113767316120422,0.3748385477205601,11.289069593773815,1.1566329825052393,6.412110009616758,12.117901331906202,-0.3288082960175305,2.0312797732469514,-3.592700493044969,-1.2664794921875,-0.1218842297065547,-3.136611566310976,-0.4274321765434452,1.8716207364710369,-6.4823801924542686,-4.211501365147203,-9.323392677325868,1.3618586917198034,-0.0210547952561851,2.7561642416225745,-125.89966565552504,25.64851588941804,34.8497019798125,32.357714080330666,1577310601.999,-27.693006020606624,-51.12127786720032,4.846841
35155,1577310602.41,0.377174354218273,-1.1886627291051353,9.052534872213224,-0.8590512346965505,-0.5205928731778764,9.206114149437878,1.5636472647318018,2.3024628599585557,5.927692939572218,-0.0083737257050304,-0.7153022580030486,-3.073901664919969,1.800537109375,-0.3812836437690549,-3.243423089748476,-1.2361479968559452,4.602943978658536,7.906657893483231,-4.7168815289648665,-10.19473778735632,3.3592514395755155,9.162497639962917,3.424058964183964,-125.899665655525,25.38494024620361,34.70593344715009,32.357714080330666,1577310601.999,-27.693006020606624,-51.12127786720032,4.846841
35156,1577310602.42,0.1162063732612417,-1.1539468050328692,8.635943783346036,-0.4185181292278006,0.0851401468416538,9.07203885646913,0.3665464346536768,0.6145506895483991,5.412939582638624,1.4106936571074695,1.6345512576219514,-2.433032524294969,2.8076171875,-0.5949066906440549,-3.579116449123476,-0.9004546374809452,14.002358041158535,11.568767268483231,-4.7168815289648665,-10.19473778735632,3.3592514395755155,9.162497639962917,3.424058964183964,-125.899665655525,25.45682451253482,34.61008775870848,32.597328301434686,1577310601.999,-27.693006020606624,-51.12127786720032,4.846841
35157,1577310602.43,0.0659281383979604,-0.7972107576695878,9.459549154439786,-0.4280949358684255,-0.8869057271817826,9.625099439965222,-4.156100501381478,-3.4843225526390995,9.528572236447218,1.1360354539824695,-0.6237495236280487,-1.8531985399199693,0.18310546875,2.060122606230945,-2.144790277248476,-0.9309722156059452,14.612709603658535,12.301189143483231,-5.559181801994311,-9.323392677325868,2.8145079628875926,5.823024027155972,3.424058964183964,-149.87466947115377,25.2651331356516,34.70593344715009,32.45355976877228,1577310601.999,-27.693006020606624,-51.12127786720032,4.846841
35158,1577310602.44,0.7255306957710074,0.0216062101038491,9.945572091451504,0.5463451398151677,0.1773169107576694,8.4663058364496,-3.322918323647103,-0.416153125148866,10.511392017941358,-0.4051022413300305,-0.8221137814405486,-1.8074221727324693,-1.8310546875,-0.3049896984565549,-0.7409816834984757,0.6559418468940548,7.868324838033535,2.520305354420732,-6.1487919931149175,-9.933334254347184,1.9973927478557123,6.379602962623794,3.424058964183964,-184.33873745612016,25.43286309042442,34.72989486926049,32.47752119088268,1577310601.999,-27.693006020606624,-51.12127786720032,4.846841
35159,1577310602.45,2.4792834118354605,0.5579073819788486,12.36850417152963,2.2222863019245422,-0.0800597677091264,10.4199743911371,-1.1489832162252285,-4.19300624404535,11.12311054211128,-1.9767575147675305,-1.0204780392530486,-2.249927055544969,2.227783203125,1.9380522937309448,-1.961684808498476,-0.4732085437309452,0.5135885099085366,-1.0349924971417683,-5.222261692782536,-9.323392677325868,0.9986963739278524,-1.9690810693935703,3.424058964183964,-164.85904685592186,25.408901668314016,34.8017791355917,32.45355976877228,1577310601.999,-27.693006020606624,-51.12127786720032,4.846841
35160,1577310602.46,2.282958875702648,0.6297334317835361,10.084435787740569,3.053074277998761,0.8656498880525912,8.7344564223871,-1.4769888436666343,-6.625515130764101,8.398509052853468,0.6782717821074695,-0.1965034298780487,-1.9142336961699693,-0.030517578125,0.6563140124809451,-2.327895745998476,0.3507660656440547,5.304848275533536,-17.14827374714177,-5.222261692782536,-9.323392677325868,0.9986963739278524,-3.082238940329218,3.758006325464657,-164.85904685592186,25.45682451253482,34.753856291370894,32.30979123610986,1577310601.999,-27.693006020606624,-51.12127786720032,4.846841
35161,1577310602.47,1.593428797577648,1.2713794767054112,11.291113424459317,2.497619492842511,0.748334006704935,8.674601380883193,3.3162028799661765,5.170716448825742,9.231691230587844,-1.2748532178925305,-0.5932319455030487,-2.463550102419969,1.739501953125,2.517886278105945,-3.029800042873476,-0.2901030749809452,8.753334603658537,-15.073078434641769,-5.053801638176648,-9.497661699331958,3.3592514395755155,1.6486820111472866,4.175440527065527,-140.1348241710545,25.408901668314016,34.89762482403331,32.50148261299308,1577310601.999,-27.693006020606624,-51.12127786720032,4.846841
35162,1577310602.48,1.8603822826850696,-0.5553963899938067,8.58805975014291,2.620920878340557,0.0300735086580606,8.24244798122499,-0.5875429269185878,0.5391333372534777,11.78031889782417,-1.0307125928925305,3.1146537966844514,-2.524585258669969,-0.4730224609375,2.243228074980945,-2.373672113185976,0.3355072765815547,2.344643197408536,-11.182087223704269,-4.716881528964869,-10.02046876535023,2.451345645095649,6.657892430357707,3.424058964183964,-140.884043040293,25.48078593464522,34.63404918081888,32.47752119088268,1577310601.999,-27.693006020606624,-51.12127786720032,4.846841
35163,1577310602.49,-0.015474718047351,-1.2161960481969316,10.635102169576504,-0.8470802263957692,-0.6953695943692827,6.783182069359755,2.480626500571645,1.8547471495093364,10.455128278927686,-1.8241696241425305,1.2378227419969514,-1.7616458055449695,1.007080078125,0.2290679187309451,-2.724624261623476,-0.9920073718559452,-3.148520865091464,-1.0044749190167683,-5.390721747388423,-10.19473778735632,1.9066021684077188,6.936181898091619,3.424058964183964,-140.884043040293,25.408901668314016,34.46631922604607,32.357714080330666,1577310601.999,-27.693006020606624,-51.12127786720032,4.846841
35164,1577310602.5,0.769823426483898,-1.2042250398961505,9.811496798482755,1.4944489972370425,-1.772760341439596,8.269981300316786,1.6187139029153954,-4.813104474025819,7.596451496701124,-1.4274411085175305,2.1533500857469514,-1.8531985399199693,-1.678466796875,2.517886278105945,-1.5954738709984757,-1.3887358874809452,-2.843345083841464,-0.5772288252667683,-5.390721747388423,-10.19473778735632,1.9066021684077188,5.823024027155972,3.758006325464657,-140.884043040293,25.408901668314016,34.8017791355917,32.45355976877228,1577310601.999,-27.693006020606624,-51.12127786720032,4.846841
35165,1577310602.51,1.0331856091010854,0.5172059537561924,10.991838216939788,1.156866563155011,0.0647894327303262,8.283149409447645,-0.068001166664682,3.4444970518530864,6.772846125607374,-0.2677731397675305,0.9631645388719512,-1.6395754930449695,-2.1820068359375,2.060122606230945,-1.5191799256859757,-2.212710496855945,10.782753548971035,8.822185237233231,-4.88534158357076,-9.671930721338049,3.9039949162634384,3.5967082852846737,3.5910326448243106,-158.86529590201457,25.31305597987241,34.65801060292928,32.40563692455147,1577310601.999,-27.693006020606624,-51.12127786720032,4.846841
35166,1577310602.52,1.3420376232612417,1.089420150533536,9.497856381002286,1.7649937848346984,0.2263980447908726,8.262798695336318,-0.0859576791158534,-2.385383990627381,8.247674348263624,-1.4732174757050305,3.4045707888719514,-2.387256157107469,0.091552734375,2.609439012480945,-2.724624261623476,-3.067202684355945,13.788734994283535,11.294109065358231,-4.464191447056038,-10.630410342371547,2.1789739067516845,-1.1342126661918337,3.674519485144485,-177.59576763297463,25.360978824093213,34.8017791355917,31.73471710546021,1577310601.999,-27.693006020606624,-51.12127786720032,4.846841
35167,1577310602.53,-0.0370225329887572,1.166034603658536,10.297519735494474,0.2734061505573547,0.9566295511385288,9.40962129055116,0.1821929068216455,-0.9249209779320686,13.040866071896437,-1.7631344678925305,2.5500786013719514,-2.433032524294969,-0.518798828125,1.8159819812309448,-3.396010980373476,-1.5108061999809452,11.774574838033535,3.0848805497332314,-5.390721747388423,-10.19473778735632,2.996089121783565,-1.9690810693935703,3.59103264482431,-154.36998268658422,25.408901668314016,34.46631922604607,32.50148261299308,1577310601.999,-27.693006020606624,-51.12127786720032,4.846841
35168,1577310602.54,-0.4679788318168822,0.7829623380335361,10.125137215963225,-0.2054341814738943,-0.3003263204435014,10.7647394301996,0.9794620596536768,-2.6870533998070685,5.264499079708937,-3.1974606397675305,2.8247368044969514,-2.433032524294969,-2.166748046875,2.975649949980945,-2.144790277248476,-4.806704637480945,11.133705697408535,5.343181330983232,-5.390721747388423,-10.19473778735632,2.996089121783565,-3.082238940329218,3.424058964183964,-152.87154494810736,25.504747356755622,34.8017791355917,32.357714080330666,1577310601.999,-27.693006020606624,-51.12127786720032,4.846841
35169,1577310602.55,0.2083831371772578,-1.6399697420445878,7.551370431295255,0.833649339033917,-1.4256011007169398,10.115910780297256,0.819050548423208,-6.26159647842035,7.009872089962843,-2.7244381788300305,1.4209282107469514,-2.051562797732469,-2.13623046875,1.6939116687309452,-2.205825433498476,-1.0530425281059452,17.237221322408537,-8.939045231516769,-4.885341583570757,-8.452047567295411,2.632926803991621,-2.525660004861394,4.759848409306741,-149.87466947115377,25.408901668314016,34.70593344715009,32.45355976877228,1577310601.999,-27.693006020606624,-51.12127786720032,4.846841
35170,1577310602.56,-0.1351848010551635,0.715924691549161,9.378146297994473,0.2374931256550113,-0.8713434163907674,9.516163264428114,-1.5835308175435876,0.0794466185034777,13.787856989865189,-2.8312497022675305,1.909209460746952,-2.371997368044969,-2.655029296875,1.2056304187309452,-2.236343011623476,-2.395815965605945,3.458534798971036,-8.298176090891769,-2.695360873694215,-9.149123655319777,2.632926803991621,-2.3865152709944377,5.135539190747524,-153.99537325196496,25.408901668314016,34.562164914487674,32.38167550244107,1577310601.999,-27.693006020606624,-51.12127786720032,4.846841
35171,1577310602.57,0.7482756115424917,0.2011713346155674,10.03176335121713,0.6325363995807921,0.1569661966463413,10.257168678246474,-3.322918323647103,-9.37166443496332,13.72800194836128,-2.1903805616425305,0.9021293826219512,-2.005786430544969,-2.197265625,3.280825731230945,-1.5954738709984757,-1.6328765124809452,-12.517417349466465,-25.60164288776677,-5.559181801994311,-8.974854633313685,3.5408325984714875,-6.97829148860399,3.758006325464657,-116.90903922466424,25.2651331356516,34.753856291370894,32.64525114565549,1577310601.999,-27.693006020606624,-51.12127786720032,4.846841
35172,1577310602.58,0.5375858654487418,-0.1747183260289628,10.134714022603848,0.9413884137409484,-0.8581753072599076,10.767133631859757,0.8501751700052392,7.303950128024961,12.174165070919871,-3.5026364210175305,1.6040336794969514,-2.188891899294969,-2.899169921875,3.402896043730945,-1.0766750428734757,-0.2290679187309452,-20.207847036966463,-18.33845929401677,-5.053801638176648,-9.84619974334414,1.9066021684077188,-2.525660004861394,3.424058964183964,-91.4355976705585,25.64851588941804,34.8017791355917,32.357714080330666,1577310601.999,-27.693006020606624,-51.12127786720032,4.846841
35173,1577310602.59,0.9206581310737416,-1.8650246980992755,8.801143697896817,0.4745190900104796,-1.15026790979897,8.6961491958246,2.724835069907583,6.06614786972418,4.970012275509718,-1.9157223585175305,1.939727038871952,-2.310962211794969,-1.922607421875,2.517886278105945,-1.931167230373476,-2.395815965605945,-15.172446646341465,2.3524586747332314,-4.88534158357076,-11.066082897386776,3.5408325984714875,-0.2993442629900964,4.091953686745352,-91.4355976705585,25.31305597987241,34.562164914487674,32.357714080330666,1577310601.999,-27.693006020606624,-51.12127786720032,4.846841
35174,1577310602.6,0.5016728405463979,-0.8762194124547441,9.624749068990567,0.0722932111042296,-1.401659084115377,8.339413148461318,3.914753295005239,1.244225726169493,1.3092779371308114,-1.7020993116425305,1.6040336794969514,-1.5175051805449695,-1.03759765625,-0.3812836437690549,-2.511001214748476,-1.9685698718559448,3.7789693692835367,7.296306330983231,-5.559181801994311,-11.41462094139896,2.088183327303706,-3.082238940329218,4.759848409306741,26.940983669108675,25.408901668314016,34.70593344715009,32.357714080330666,1577310601.999,-27.693006020606624,-51.12127786720032,4.846841
35175,1577310602.61,1.2654231701362415,-0.8977672273961503,8.849027731099943,0.718727659346417,-1.1023838765958451,7.738468531762099,-0.0452562508931971,-3.237719781643006,8.513430732540968,-2.0377926710175305,2.2449028201219514,-2.005786430544969,-1.861572265625,2.578921434355945,-1.961684808498476,-2.670474168730945,11.805092416158535,7.662517268483231,-5.390721747388423,-10.543275831368502,2.632926803991621,-3.082238940329218,4.759848409306741,26.940983669108675,25.60059304519724,34.753856291370894,32.30979123610986,1577310601.999,-27.693006020606624,-51.12127786720032,4.846841
35176,1577310602.62,0.5615278820503042,0.3639770475061923,10.168232845846036,-0.4735847674113943,1.7874175272127475,9.03373162990663,-2.2239797616353845,-1.0302658509789435,12.538083723263624,-1.5189938428925305,4.777861804496951,-1.4564700242949695,-3.5400390625,4.135317918730945,-1.4123684022484757,-2.700991746855945,1.9784322599085369,2.6271168778582314,-5.390721747388423,-10.19473778735632,1.9066021684077188,6.101313494889882,6.5130720560303885,27.69020253834717,25.408901668314016,34.94554766825411,32.45355976877228,1577310601.999,-27.693006020606624,-51.12127786720032,4.846841
35177,1577310602.63,-0.6523323596489135,0.3951016690882236,9.868957638326505,-0.040234266923113,1.342096018423685,10.460675819359755,-0.4857893563619471,-0.5107240907250374,12.947492207150342,-1.7326168897675305,4.686309070121951,-0.9987063524199696,-3.143310546875,3.402896043730945,-0.0390773866234755,-1.8770171374809448,-10.655845083841465,-1.6453440596417683,-9.096842948717953,-8.800585611307595,4.448738392951354,3.596708285284674,6.429585215710214,-130.39497887095536,25.60059304519724,34.753856291370894,32.50148261299308,1577310601.999,-27.693006020606624,-51.12127786720032,4.846841
35178,1577310602.64,-0.4440368152153198,-0.3686486605016191,9.730093942037442,-0.5525934221965506,-0.678610182748189,12.584332691918348,1.805461632407583,-1.1715237489281622,11.482240791134718,-1.8546872022675305,3.831816882621952,-0.9681887742949696,0.518798828125,1.9380522937309448,-0.9546047303734756,-2.517886278105945,-17.796958365091463,0.9791676591082316,-7.243782348053194,-10.717544853374594,2.8145079628875926,-2.8039494725953062,6.179124694749696,-123.65200904780968,25.45682451253482,34.70593344715009,32.64525114565549,1577310601.999,-27.693006020606624,-51.12127786720032,4.846841
35179,1577310602.65,0.2742236828315542,-1.833900076517244,10.457931246724945,-0.0234748553020193,-2.9842263814786585,11.502153541527724,0.550899962485708,-2.69902440810785,11.738420368771436,-2.2208981397675305,1.7566215701219514,-0.3273196336699695,-0.9765625,3.647036668730945,-0.6189113709984756,-0.8089019031059452,-17.339194693216463,-6.1619456221417686,-6.064561965811974,-9.84619974334414,1.9066021684077188,-1.9690810693935703,6.095637854429521,-115.41060148618736,25.504747356755622,34.70593344715009,32.6931739898763,1577310601.999,-27.693006020606624,-51.12127786720032,4.846841
35180,1577310602.66,0.7003915783393667,-0.9863526888219316,10.419624020162445,0.4577596783893859,-1.0712592550138138,7.594816432152724,0.3857000479349268,-0.0199127503930061,10.22289071789253,-2.0683102491425305,2.2449028201219514,-1.1818118211699695,-1.89208984375,4.776187059355945,-1.0156398866234757,-1.8159819812309448,-22.435630240091463,-0.0889475752667683,-5.222261692782536,-10.369006809362414,2.8145079628875926,6.657892430357706,6.179124694749696,-126.6488845247634,25.504747356755622,34.61008775870848,32.45355976877228,1577310601.999,-27.693006020606624,-51.12127786720032,4.846841
35181,1577310602.67,0.0228325085151479,-0.6511644564000566,9.090842098775724,-0.8422918230754567,0.6310181253572787,9.823818177758191,1.6354733145364893,-0.900978961330506,6.234150752072218,-1.4884762647675305,4.747344226371951,-0.8461184617949695,-2.3193359375,3.677554246855945,-0.8325344178734756,-1.1445952624809452,-14.958823599466465,-2.866047184641769,-6.064561965811974,-9.84619974334414,1.9066021684077188,8.049339769027267,6.262611535069867,-146.87779399420018,25.31305597987241,34.61008775870848,32.50148261299308,1577310601.999,-27.693006020606624,-51.12127786720032,4.846841
35182,1577310602.68,-0.5541700915825073,1.2713794767054112,12.021344930806974,0.3021365704792296,0.3604733377596226,11.818188160668347,2.7368060782083643,4.830739813083555,5.863049494747999,-2.2819332960175305,2.0617973513719514,-0.5714602586699695,-1.03759765625,1.5413237781059452,-0.5883937928734756,-2.517886278105945,2.2530904630335367,3.3900563309832314,-6.738402184235517,-9.149123655319777,2.996089121783565,8.605918704495092,6.429585215710214,-164.85904685592186,25.408901668314016,34.8017791355917,32.45355976877228,1577310601.999,-27.693006020606624,-51.12127786720032,4.846841
35183,1577310602.69,-0.0011095080864135,-1.046207730325838,9.157879745260098,-0.1982515764934255,-0.4367958150724076,9.565244398461315,1.3314097036966457,-3.5010819642601936,7.402521162228468,-1.8241696241425305,2.2449028201219514,0.0694088819550304,-0.54931640625,2.426333543730945,-0.3747707459984756,-3.372378465605945,16.809975228658537,8.120280940358231,-6.401482075023749,-8.800585611307595,2.2697644861996773,9.71907657543074,4.091953686745352,-188.8340506715505,25.45682451253482,34.94554766825411,32.45355976877228,1577310601.999,-27.693006020606624,-51.12127786720032,4.846841
35184,1577310602.7,-0.0298399280082885,-0.0621908480016191,8.561723531881192,0.7163334576862608,-0.4344016134122513,9.82621237941835,-1.0963107797017908,-3.8841542298851937,13.79743379650581,-1.3358883741425305,2.1533500857469514,0.7713131788300305,-2.655029296875,3.158755418730945,0.8154148008765244,-2.639956590605945,11.835609994283535,-1.0960276533917683,-5.727641856600198,-8.452047567295411,2.996089121783565,9.71907657543074,4.091953686745352,-188.8340506715505,25.45682451253482,34.70593344715009,32.64525114565549,1577310601.999,-27.693006020606624,-51.12127786720032,4.846841
35185,1577310602.71,-0.2429238757621948,0.3065162076624423,10.18499225746713,0.0339859845417296,-0.3170857320645951,12.591515296898818,-1.263904895912728,-7.082807647853945,13.86207724133003,-3.0448727491425305,2.0007621951219514,-0.1136965867949695,-2.0751953125,3.372378465605945,-0.0390773866234755,-1.4802886218559452,-2.232993521341464,-14.310138981516769,-6.738402184235517,-9.149123655319777,1.1802775328238315,11.388813381834217,4.091953686745352,-179.84342424068973,25.408901668314016,34.61008775870848,32.45355976877228,1577310601.999,-27.693006020606624,-51.12127786720032,4.846841
35186,1577310602.72,-0.1615210193168822,0.2969394010218174,9.928812679830411,-0.9236946795207692,-0.0321757345060014,8.131117604027724,-0.4738183480611658,-0.1061040101586311,12.73201405773628,-2.6786618116425305,2.1533500857469514,0.8018307569550305,-1.40380859375,-0.0761078625190548,0.8459323790015244,-0.9309722156059452,-11.815513052591465,-23.37385968464177,-7.243782348053194,-10.717544853374594,1.725021009511747,11.388813381834217,4.091953686745352,-179.84342424068973,25.31305597987241,34.8017791355917,32.26186839188906,1577310601.999,-27.693006020606624,-51.12127786720032,4.846841
35187,1577310602.73,0.8871393078315541,-0.8283353792516192,9.53376940590463,1.913434287764386,-0.8485985006192827,7.647488868676161,2.123890453208364,3.0805783995093363,5.436881599240187,-3.4110836866425305,1.3598930544969514,0.0999264600800304,-1.40380859375,2.456851121855945,-0.0695949647484756,-1.5108061999809452,-14.623130240091465,-10.342853825266769,-6.906862238841405,-11.066082897386776,2.451345645095649,-9.204607230475286,3.674519485144485,-209.06296014098743,25.45682451253482,34.753856291370894,32.30979123610986,1577310601.999,-27.693006020606624,-51.12127786720032,4.846841
35188,1577310602.74,1.0475508190620229,-1.3191467195836504,9.926418478170255,0.7881595074909483,-2.1989282369474084,8.684178187523818,1.1207199576028954,-1.93287987685785,1.73784003429878,-1.5495114210175305,3.1299125857469514,0.8933834913300305,-4.57763671875,4.287905809355945,0.2050632383765244,-2.762026903105945,6.464516244283536,-5.7346995283917686,-6.738402184235517,-9.149123655319777,1.9066021684077188,-2.525660004861394,1.4203747964997968,-185.8371751945969,25.408901668314016,34.753856291370894,33.02863389942193,1577310601.999,-27.693006020606624,-51.12127786720032,4.846841
35189,1577310602.75,0.319713514374523,-2.056560830911775,9.732488143697598,1.7003503400104796,-2.910006130013815,9.012183814965224,1.757577599204458,2.0127644590796487,8.681024848751905,-4.692821967892531,1.6040336794969514,0.0083737257050304,-2.410888671875,1.7549468249809452,0.0219577696265244,-3.433413621855945,19.495522103658537,-2.133625309641769,-6.401482075023749,-10.19473778735632,2.2697644861996773,-7.534870424071813,3.424058964183964,-155.8684204250611,25.64851588941804,34.8017791355917,33.07655674364273,1577310601.999,-27.693006020606624,-51.12127786720032,4.846841
35190,1577310602.76,0.6501133434760855,-2.458786709818025,8.815508907857755,-0.4640079607707693,-1.705722694955221,11.471028919945692,-1.0268789315572595,-6.163434210353945,20.498804243283157,-3.6247067335175305,3.0078422732469514,-0.1747317430449695,-4.2724609375,1.8464995593559448,0.2966159727515244,-4.013247606230945,7.044350228658536,-2.347248356516769,-5.390721747388423,-9.497661699331958,1.1802775328238315,-6.421712553136165,3.424058964183964,-140.884043040293,25.60059304519724,34.70593344715009,32.30979123610986,1577310601.999,-27.693006020606624,-51.12127786720032,4.846841
35191,1577310602.77,-1.559734788848132,0.3232756192835361,10.996626620260098,-0.8446860247356129,0.5783456888338414,9.02654902492616,-1.7523220345846031,1.6823646299780863,16.833281501583937,-2.9533200147675305,1.1767875857469514,0.1914791944550304,-3.7841796875,1.2666655749809452,-0.1611476991234756,-1.8159819812309448,-11.479819693216465,-12.662189762766769,-6.569942129629636,-10.02046876535023,1.725021009511747,-3.082238940329218,4.091953686745352,-134.8902920863858,25.2172102914308,34.70593344715009,32.30979123610986,1577310601.999,-27.693006020606624,-51.12127786720032,4.846841
35192,1577310602.78,-0.7002163928520385,-1.3861843660680253,9.466731759420254,-1.1056540056926445,-0.3793349752286576,10.326600526391005,-0.3014358285299159,0.2195074156226178,12.760744477658156,-3.5331539991425305,-0.2880561642530487,-0.2052493211699695,-2.899169921875,-1.2662934093940548,0.1440280821265244,-2.884097215605945,-24.968589224466463,-4.7581370283917686,-6.738402184235517,-10.891813875380686,2.632926803991621,6.101313494889882,3.5075458045041388,-113.16294487847216,25.2651331356516,34.753856291370894,32.45355976877228,1577310601.999,-27.693006020606624,-51.12127786720032,4.846841
35193,1577310602.79,-1.2293349597465697,-1.9919173860875563,10.333432760396818,-1.426477028153582,-1.3082852193692835,9.79269355617616,-0.2391865853658534,-1.6336046693383186,1.524756086544874,-3.0448727491425305,-0.3490913205030487,0.3745846632050305,-1.373291015625,-0.7474945812690549,0.2355808165015244,-1.7244292468559452,-8.244956411966463,-6.6197092940167686,-5.8961019112060855,-8.974854633313685,1.725021009511747,8.049339769027267,3.424058964183964,-136.38872982486265,25.2651331356516,34.70593344715009,32.597328301434686,1577310601.999,-27.693006020606624,-51.12127786720032,4.846841
35194,1577310602.8,-0.235741270781726,-1.735737808450838,8.65270319496713,-0.183886366532488,-1.6506560567716273,7.719314918480849,-1.836119092690072,-5.48348093886957,6.34188982677925,-3.0143551710175305,-1.3561713986280486,0.4966549757050305,-3.814697265625,0.3816558093559451,0.6933444883765244,-2.853579637480945,6.495033822408536,-2.835529606516769,-6.401482075023749,-9.497661699331958,2.632926803991621,10.275655510898565,4.091953686745352,-179.84342424068973,25.408901668314016,34.70593344715009,32.30979123610986,1577310601.999,-27.693006020606624,-51.12127786720032,4.846841
35195,1577310602.81,0.961359559296398,-0.9432570589391192,9.375752096334317,1.0850405133503234,-2.318638319955221,5.9164810683831925,-1.2184150643697595,-2.248914495998475,7.122399567990187,-3.3195309522675305,-0.7153022580030487,0.1914791944550304,-2.74658203125,-0.6864594250190549,-0.4663234803734756,-3.341860887480945,12.079750619283535,-8.420246403391769,-5.8961019112060855,-9.671930721338049,3.5408325984714875,10.275655510898565,4.091953686745352,-179.84342424068973,25.408901668314016,34.8017791355917,32.30979123610986,1577310601.999,-27.693006020606624,-51.12127786720032,4.846841
35196,1577310602.82,1.670043250702648,-1.103668570169588,9.004650839010099,0.699574046065167,-0.7959260640958452,7.977888697777724,-0.3229836434713221,4.715818133396055,12.298663557247998,-3.9604000928925305,1.2378227419969514,-0.6019778367949695,-2.74658203125,0.2901030749809451,-0.8630519959984756,-3.067202684355945,6.617104134908536,3.0238453934832314,-5.559181801994311,-10.717544853374594,0.6355340561359087,8.605918704495092,4.091953686745352,-185.8371751945969,25.408901668314016,34.562164914487674,32.50148261299308,1577310601.999,-27.693006020606624,-51.12127786720032,4.846841
35197,1577310602.83,-0.0274457263481322,-0.2633037874547441,10.26160671059213,0.1010236310261046,-0.8270506856778764,11.736785304223035,0.9770678579935204,-7.446726300197694,9.978682148556592,-2.2208981397675305,1.939727038871952,-0.5104251024199695,-5.37109375,1.7854644031059452,0.2660983946265244,-3.738589403105945,5.152260384908536,1.2233082841082317,-7.243782348053194,-10.02046876535023,1.725021009511747,8.049339769027267,4.091953686745352,-182.8402997176433,25.31305597987241,34.70593344715009,32.30979123610986,1577310601.999,-27.693006020606624,-51.12127786720032,4.846841
35198,1577310602.84,0.7506698132026479,-2.291192593607088,9.82107360512338,0.9270232037800108,-1.186180934701314,11.78466933742616,-0.1242649056783534,-5.593614215236757,15.844476215939403,-3.4416012647675305,-1.2035835080030486,-0.6630129930449695,-0.244140625,0.1069976062309451,-0.8630519959984756,-3.006167528105945,-6.200278677591464,-12.173908512766769,-7.74916251187085,-10.19473778735632,2.2697644861996773,-2.8039494725953062,3.5075458045041388,-140.1348241710545,25.45682451253482,34.61008775870848,32.45355976877228,1577310601.999,-27.693006020606624,-51.12127786720032,4.846841
35199,1577310602.85,0.9278407360542104,-1.7908044466344315,10.410047213521818,2.346784788252667,-3.068023439584127,10.168583216820693,-2.3389014413228844,-2.576920123439881,16.81173368664253,-2.2514157178925305,0.1391899294969513,-0.3273196336699695,-0.030517578125,1.7854644031059452,-1.1377101991234757,-0.5647612781059452,-30.370200552591463,-7.779377262766768,-4.88534158357076,-10.717544853374594,2.451345645095649,5.823024027155972,3.424058964183964,-163.36060911744488,25.45682451253482,34.8017791355917,32.357714080330666,1577310601.999,-27.693006020606624,-51.12127786720032,4.846841
35200,1577310602.86,0.1473309948432729,-3.1435283846227127,9.248859408346036,-0.4664021624309256,-1.8134617696622524,11.758333119164442,-0.818583387123666,-1.9999175233422248,17.61139704113472,-2.0683102491425305,1.0547172732469514,-0.7545657274199695,-3.509521484375,0.2595854968559451,-1.0156398866234757,0.5033539562690548,-38.60994664634146,-8.054035465891769,-5.8961019112060855,-11.066082897386776,2.088183327303706,6.101313494889882,3.674519485144485,-158.1160770327762,25.408901668314016,34.70593344715009,33.22032527630515,1577310601.999,-27.693006020606624,-51.12127786720032,4.846841
35201,1577310602.87,-2.062517137480945,0.2777857877405674,11.540110397115567,-2.6307604632121757,0.7626992166658725,13.276256971703503,0.7017346670755518,-1.6695176942406624,12.456680866818312,-1.3053707960175305,0.7495414919969513,-0.1747317430449695,-4.69970703125,-1.1747406750190548,0.3576511290015244,0.4118012218940547,-49.29109899009146,-7.382648747141768,-6.569942129629636,-9.323392677325868,2.451345645095649,1.370392543413376,4.091953686745352,-188.8340506715505,25.60059304519724,34.70593344715009,32.30979123610986,1577310601.999,-27.693006020606624,-51.12127786720032,4.846841
35202,1577310602.88,-0.6403613513481322,-1.046207730325838,10.522574691549162,-1.4216886248332694,0.2359748514314976,11.514124549828503,1.6378675161966454,-1.3103874452172248,4.376250263790968,-2.0072750928925305,-3.2177436642530486,-0.9071536180449696,1.8310546875,-2.6090668468940548,-0.5273586366234756,0.1981781750190547,-35.03939000571646,-9.976642887766769,-6.233022020417861,-10.369006809362414,3.5408325984714875,1.370392543413376,4.091953686745352,-188.8340506715505,25.408901668314016,34.70593344715009,32.30979123610986,1577310601.999,-27.693006020606624,-51.12127786720032,4.846841
35203,1577310602.89,1.267817371796398,-1.584903103860994,11.470678548971035,0.919840598799542,-3.048869826302877,7.839025001488661,4.185298082602896,10.8808874082984,-0.9628194383574687,-1.5495114210175305,-3.8891303830030486,-0.0526614305449695,1.007080078125,-1.8766449718940548,-0.6189113709984756,-2.548403856230945,-7.543052115091464,12.972575862233231,-6.233022020417861,-10.369006809362414,2.088183327303706,-3.082238940329218,3.758006325464657,-181.34186197916657,25.2172102914308,34.8017791355917,32.16602270344745,1577310601.999,-27.693006020606624,-51.12127786720032,4.846841
35204,1577310602.9,1.682014259003429,-1.9224855379430248,8.458772860494474,1.5997938702839172,-1.820644374642721,9.603551625023815,3.4526723745950827,3.243384112399961,1.7234748243378426,-1.6410641553925305,-0.9594428830030488,-0.0526614305449695,-5.37109375,-2.1207855968940548,0.9374851133765244,-11.184878465605944,21.173988900533537,35.616618830983235,-5.727641856600198,-9.497661699331958,2.2697644861996773,-2.525660004861394,3.424058964183964,-175.34811102525953,25.31305597987241,34.70593344715009,32.30979123610986,1577310601.999,-27.693006020606624,-51.12127786720032,4.846841
35205,1577310602.91,0.3292903210151484,-0.0047300081578696,9.020213149801114,-0.854262831376238,0.6789021585604038,9.177383729516004,2.0496702017435204,-4.111603387600037,11.178177180294874,-1.2290768507050305,-1.3103950314405486,0.2525143507050304,-3.326416015625,-3.738217237519055,-0.1916652772484756,-4.684634324980945,20.929848275533537,28.47550554973323,-5.811871883903142,-9.584796210335004,3.6316231779194768,-3.082238940329218,3.424058964183964,-163.36060911744488,25.43286309042442,34.70593344715009,32.16602270344745,1577310601.999,-27.693006020606624,-51.12127786720032,4.846841
35206,1577310602.92,1.1193768688667105,1.194765023580411,11.233652584615568,0.4769132916706359,0.7626992166658725,11.329771021996471,0.6370912222513331,-6.53692966933832,12.918761787228467,-1.4579586866425305,-2.3327338986280486,-0.3883547899199695,-0.3662109375,-0.3202484875190549,-0.3747707459984756,-2.731509324980945,13.422524056783535,6.716472346608232,-5.053801638176648,-10.19473778735632,1.5434398506157752,-3.082238940329218,6.095637854429521,-163.36060911744488,25.31305597987241,34.70593344715009,32.50148261299308,1577310601.999,-27.693006020606624,-51.12127786720032,4.846841
35207,1577310602.93,1.0882522472846792,-1.5920857088414628,9.14351453529916,1.549515635420636,-0.1925872457364701,8.119146595726942,0.7735607168802393,1.4213966490210552,8.932416023068312,-1.8852047803925305,0.2002250857469513,-0.0526614305449695,-3.265380859375,-0.1981781750190548,0.3576511290015244,-2.121157762480945,11.286293588033535,2.8712575028582314,-5.727641856600198,-10.891813875380686,2.632926803991621,1.370392543413376,6.095637854429521,-157.3668581635378,25.45682451253482,34.753856291370894,32.357714080330666,1577310601.999,-27.693006020606624,-51.12127786720032,4.846841
35208,1577310602.94,0.2430990612495229,-3.014241494974275,8.446801852193692,0.8887159772175108,-1.0425288350919388,8.085627772484756,0.445555089438833,-0.3958024110375374,5.24295126476753,-0.6034664991425305,1.2683403201219514,0.5271725538300305,-1.129150390625,-0.1066254406440548,-0.4358059022484756,-2.365298387480945,17.725502572408537,4.488689143483232,-5.390721747388423,-9.497661699331958,1.5434398506157752,1.370392543413376,6.095637854429521,-158.86529590201468,25.504747356755622,34.46631922604607,32.357714080330666,1577310601.999,-27.693006020606624,-51.12127786720032,4.846841
35209,1577310602.95,0.539980067108898,-0.3806196688024003,9.13872613197885,0.2686177472370422,-1.619531435189596,9.785510951195691,-0.3948096932760096,-3.632763055568787,9.176624592404249,-0.6034664991425305,1.1767875857469514,0.4966549757050305,0.244140625,1.1140776843559452,0.0219577696265244,-0.8394194812309452,24.805580697408537,-4.9717600752667686,-6.064561965811974,-9.84619974334414,2.632926803991621,-7.2565809563379,6.346098375390042,-110.16606940151856,25.64851588941804,34.70593344715009,32.45355976877228,1577310601.999,-27.693006020606624,-51.12127786720032,4.846841
35210,1577310602.96,0.8775625011909292,1.3288403165491611,10.022186544576504,-0.0953009051067068,0.2311864481111851,10.836565480004287,0.1630392935403955,0.3511885069312116,8.084868635372999,-1.6715817335175305,-0.8068549923780487,0.2830319288300305,-1.495361328125,1.8464995593559448,0.3881687071265244,-2.029605028105945,25.324379525533537,-2.042072575266769,-7.412242402659081,-9.84619974334414,1.5434398506157752,-2.525660004861394,6.095637854429521,-88.4387221936049,25.74436157785965,34.89762482403331,32.45355976877228,1577310601.999,-27.693006020606624,-51.12127786720032,4.846841
35211,1577310602.97,1.0236088024604604,0.1580757047327549,9.730093942037442,0.3284727887409484,0.1354183817049351,7.345819459496474,0.5485057608255518,-5.112379681545351,11.913197089962845,-2.2208981397675305,0.5664360232469513,0.0694088819550304,-4.39453125,0.1680327624809451,0.9680026915015244,-1.8770171374809448,19.495522103658537,-4.2088206221417686,-4.88534158357076,-8.974854633313685,1.725021009511747,0.2572346724777273,6.429585215710214,-79.44809576274412,25.45682451253482,34.46631922604607,32.357714080330666,1577310601.999,-27.693006020606624,-51.12127786720032,4.846841
35212,1577310602.98,1.478507117890148,0.0335772184046299,8.734106051412443,1.1843998822468078,-0.1686452291349076,9.322232929955458,2.032910790122427,2.2833092466773057,8.114796156124953,-0.3593258741425305,1.878691882621952,0.4966549757050305,-1.8310546875,-0.0150727062690548,0.0829929258765244,-2.334780809355945,25.538002572408537,-2.301471989329268,-6.233022020417861,-8.974854633313685,3.5408325984714875,7.771050301293355,6.262611535069869,-103.42309957837293,25.31305597987241,34.72989486926049,32.38167550244107,1577310601.999,-27.693006020606624,-51.12127786720032,4.846841
35213,1577310602.99,-0.7600714343559447,-1.137187393411775,9.229705795064786,0.2925597638386046,-1.5740416036466274,9.893250025902724,0.4431608877786768,-7.226459747463319,15.250714204220657,-2.2208981397675305,1.0241996951219514,0.5271725538300305,-1.800537109375,0.3206206531059451,0.2355808165015244,-2.365298387480945,8.966957650533537,-1.5537913252667683,-6.064561965811974,-9.84619974334414,1.9066021684077188,5.823024027155972,6.76353257699091,-139.38560530181627,25.45682451253482,34.70593344715009,32.30979123610986,1577310601.999,-27.693006020606624,-51.12127786720032,4.846841
35214,1577310603.0,1.2941535900581167,-3.347035525735994,9.08605369545541,1.8440024396198549,-0.6905811910489702,8.760792640648818,1.0273460928568017,-2.098079791408631,9.076068122677686,-1.8546872022675305,-2.1801460080030486,0.0694088819550304,-0.8544921875,1.7549468249809452,0.4186862852515244,0.3507660656440547,9.119545541158535,-14.004963200266769,-5.559181801994311,-8.626316589301503,0.6355340561359087,-0.8559231984579215,4.425901048026049,-140.884043040293,25.45682451253482,34.753856291370894,32.50148261299308,1577310602.999,-27.692958580720948,-51.12127379839882,5.17366
35215,1577310603.01,0.8823509045112417,1.556289474264005,10.671015194478848,1.088631815840558,-0.3350422445157675,8.925992555199599,-0.1254620065084319,0.0950089292944932,11.285916255001904,-1.2443356397675305,1.817656726371952,0.6797604444550305,-0.701904296875,0.9462310046684452,0.1287692930640244,-0.5342436999809452,0.8035055020960358,-7.260578434641768,-6.401482075023749,-9.84619974334414,2.632926803991621,-0.5776337307240089,4.091953686745352,-143.88091851724658,25.408901668314016,34.72989486926049,32.50148261299308,1577310602.999,-27.692958580720948,-51.12127379839882,5.17366
35216,1577310603.02,0.0778991466987417,-0.1795067293492753,9.890505453267911,0.3332611920612609,0.0204967020174351,9.09119246975038,-1.278270105873666,2.2880976499976176,13.495764387326124,-2.5260739210175305,-0.0439155392530487,0.0388913038300304,-0.54931640625,0.1375151843559451,-0.1611476991234756,-1.4192534656059452,-7.512534536966464,-0.5161936690167683,-6.233022020417861,-9.671930721338049,2.088183327303706,-0.2993442629900964,3.758006325464657,-146.87779399420018,25.64851588941804,34.70593344715009,32.50148261299308,1577310602.999,-27.692958580720948,-51.12127379839882,5.17366
35217,1577310603.03,1.2893651867378042,0.5842436002405673,9.33026226479135,0.8121015240925108,-0.2703987996915482,11.04486102443788,0.4252043753275054,2.181555676120665,10.396470338253858,-1.2443356397675305,-0.1354682736280487,0.6492428663300305,-3.204345703125,-0.1371430187690548,0.9069675352515244,-1.831240770293445,-10.533774771341465,-5.6889231612042686,-5.559181801994311,-10.02046876535023,2.451345645095649,5.823024027155972,4.759848409306743,-146.1285751249618,25.79228442208045,34.753856291370894,32.237906969778656,1577310602.999,-27.692958580720948,-51.12127379839882,5.17366
35218,1577310603.04,1.413863673065929,-1.5825089022008378,9.002256637349943,1.0180028668659482,-3.5013739400724084,10.405609181176162,4.360074803794301,-5.143504303127382,2.970853889279249,-1.9157223585175305,-2.0275581173780486,0.4051022413300305,-1.800537109375,0.0154448718559451,0.2355808165015244,-4.013247606230945,2.3751607755335367,4.702312190358232,-4.7168815289648665,-9.497661699331958,1.5434398506157752,5.823024027155972,4.92682208994709,-152.87154494810736,25.31305597987241,34.61008775870848,32.50148261299308,1577310602.999,-27.692958580720948,-51.12127379839882,5.17366
35219,1577310603.05,1.4904781261909292,-3.133951577982088,10.220905282369474,1.5136026105182925,-3.1733683126310024,8.123934999047256,-1.5224786752096031,-6.122732782131288,14.372042194943312,-1.4274411085175305,-1.5087592892530486,-0.2052493211699695,-2.166748046875,-2.0292328625190548,-0.0085598084984755,-0.7478667468559452,5.365883431783536,-2.347248356516769,-6.569942129629636,-11.066082897386776,2.451345645095649,8.049339769027267,4.759848409306741,-164.85904685592186,25.31305597987241,34.70593344715009,32.45355976877228,1577310602.999,-27.692958580720948,-51.12127379839882,5.17366
35220,1577310603.06,0.8464378796088979,-1.515471255716463,8.312726559224942,0.2758003522175109,-0.5948131246427201,10.8413538833246,-4.788169739662728,-2.5601607118187872,21.097354658322217,-0.7560543897675305,-0.6237495236280487,-0.0526614305449695,-3.387451171875,-0.6559418468940549,0.2660983946265244,0.7474945812690548,-16.942466177591463,-9.763019840891769,-7.243782348053194,-9.323392677325868,1.3618586917198034,9.162497639962917,3.758006325464657,-212.8090544871794,25.2651331356516,34.70593344715009,32.45355976877228,1577310602.999,-27.692958580720948,-51.12127379839882,5.17366
35221,1577310603.07,-1.5118507556450071,1.18279401527963,11.133096114889003,-1.4528132464153003,-0.2931437154630326,11.731996900902724,-1.2950295174947597,-4.770008844143006,15.86602403088081,-0.4203610303925305,0.2917778201219513,0.0694088819550304,1.28173828125,-1.9376801281440548,-0.6494289491234756,2.0597504406440548,-38.30477086509146,-23.86214093464177,-6.064561965811974,-9.84619974334414,2.2697644861996773,6.379602962623795,4.592874728666395,-206.81530353327216,25.31305597987241,34.8017791355917,32.357714080330666,1577310602.999,-27.692958580720948,-51.12127379839882,5.17366
35222,1577310603.08,-0.1256079944145385,-1.3215409212438065,10.398076205221036,0.2781945538776672,-1.2340649679044398,10.357725147973037,1.1231141592630518,2.9800219297827737,7.761651411251905,-1.3969235303925305,-3.0651557736280486,-0.6324954149199695,0.8544921875,-0.2592133312690549,-0.9240871522484756,0.5033539562690548,-41.29549352134146,-8.084553044016769,-7.0753222934473055,-11.58888996340505,1.9066021684077188,8.049339769027267,4.425901048026049,-254.76531116452983,25.2651331356516,34.753856291370894,32.30979123610986,1577310602.999,-27.692958580720948,-51.12127379839882,5.17366
35223,1577310603.09,1.095434852265148,-2.358230240091463,9.861775033346037,0.0962352277057921,-1.4734851339200647,9.34018944240663,0.2492305533060205,0.5906086729468366,-1.642772709841844,-0.7560543897675305,-1.8139350705030488,-0.2357668992949695,-2.50244140625,-2.7921723156440548,0.2660983946265244,-1.0835601062309452,-9.862388052591465,5.556804377858232,-6.569942129629636,-9.671930721338049,2.088183327303706,-2.525660004861394,3.424058964183964,-247.2731224721458,25.2172102914308,34.70593344715009,32.45355976877228,1577310602.999,-27.692958580720948,-51.12127379839882,5.17366
35224,1577310603.1,0.2598584728706167,-0.8786136141149004,9.12436092201791,1.2669998395221984,-2.1989282369474084,6.809518287621474,-0.3780502816549159,1.92896740097418,3.612499934201124,-1.4274411085175305,-1.5087592892530486,-0.4493899461699695,-2.838134765625,-2.9447602062690548,-0.4968410584984756,-3.311343309355945,15.894447884908535,11.996013362233231,-5.559181801994311,-9.671930721338049,3.5408325984714875,-3.082238940329218,3.424058964183964,-233.78718282585456,25.31305597987241,34.562164914487674,32.30979123610986,1577310602.999,-27.692958580720948,-51.12127379839882,5.17366
35225,1577310603.11,1.0140319958198354,0.3448234342249423,9.109995712056971,0.1536960675495421,-0.6139667379239702,9.730444313012098,-1.8026002694478844,-2.9528097840844123,14.977775214962842,-1.8546872022675305,-1.2035835080030486,-0.7240481492949695,-3.662109375,-3.3720063000190548,-0.1916652772484756,-3.341860887480945,13.941322884908535,14.559489924733231,-7.0753222934473055,-10.543275831368502,1.1802775328238315,-6.97829148860399,1.4203747964997968,-211.31061674870253,25.31305597987241,34.61008775870848,32.45355976877228,1577310602.999,-27.692958580720948,-51.12127379839882,5.17366
35226,1577310603.12,0.7722176281440543,0.5770609952600986,10.259212508931974,-0.1527617449504568,-1.3561692525724085,10.230832459984756,-2.3772086678853843,-4.054142547756287,16.598649738888625,-1.5189938428925305,-2.3022163205030486,-0.4799075242949695,-1.068115234375,-1.6019867687690548,-0.3137355897484756,-1.7549468249809452,-0.8291849275914634,2.0167653153582314,-6.233022020417861,-10.717544853374594,2.8145079628875926,-1.9690810693935703,3.924980006105006,-164.85904685592186,25.45682451253482,34.753856291370894,31.73471710546021,1577310602.999,-27.692958580720948,-51.12127379839882,5.17366
35227,1577310603.13,0.1808498180854604,-0.6631354647008378,11.032539645162442,0.3500206036823546,-1.5740416036466274,8.791917262230848,-1.8456958993306969,-8.490598224025819,10.82862373791206,-1.8546872022675305,-0.6237495236280487,-1.1512942430449695,-1.5869140625,-0.3507660656440549,-0.7104641053734756,-0.2290679187309452,-10.961020865091465,-15.164631169016769,-4.7168815289648665,-9.84619974334414,-0.6355340561359087,-5.586844149934428,3.5075458045041388,-140.1348241710545,25.45682451253482,34.70593344715009,32.357714080330666,1577310602.999,-27.692958580720948,-51.12127379839882,5.17366
35228,1577310603.14,-0.2620774890434448,-1.9919173860875563,8.987891427389005,-1.0481931658488943,-2.167803615365377,7.142312318383193,0.4000652578958643,6.243318792575742,8.685813252072219,-2.7396969678925305,-0.2270210080030487,-0.9071536180449696,-2.0751953125,-1.4493988781440548,-1.0156398866234757,-1.1445952624809452,-12.395347036966465,-11.319416325266769,-6.064561965811974,-9.497661699331958,2.2697644861996773,-7.2565809563379,3.5075458045041388,-140.1348241710545,25.504747356755622,34.753856291370894,32.597328301434686,1577310602.999,-27.692958580720948,-51.12127379839882,5.17366
35229,1577310603.15,-0.5278338733207885,-2.2026071321813063,9.562499825826505,-0.241347206376238,-1.332227235970846,10.577991700707411,0.1079726553568018,-0.5107240907250374,6.509483942990187,-1.3664059522675305,-0.6542671017530487,-0.1747317430449695,-1.678466796875,0.0154448718559451,-0.8325344178734756,-3.463931199980945,-9.343589224466465,4.763347346608232,-5.559181801994311,-9.671930721338049,2.088183327303706,-8.64802829500746,3.758006325464657,-164.85904685592186,25.408901668314016,34.8017791355917,32.30979123610986,1577310602.999,-27.692958580720948,-51.12127379839882,5.17366
35230,1577310603.16,0.7626408215034292,-0.1555647127477128,9.579259237447598,0.9868782452839172,-1.5285517721036586,11.990570680199598,-1.182502039467416,-6.891271515041445,7.009872089962843,-2.8312497022675305,-0.9594428830030488,-0.7545657274199695,-2.8076171875,0.1375151843559451,-0.5578762147484756,-2.426333543730945,-3.026450552591464,-3.445881169016769,-6.064561965811974,-9.149123655319777,3.7224137573674594,5.823024027155972,4.091953686745352,-149.87466947115377,25.74436157785965,34.8017791355917,32.357714080330666,1577310602.999,-27.692958580720948,-51.12127379839882,5.17366
35231,1577310603.17,0.5423742687690543,-0.8522773958531816,10.060493771139004,-0.3538746844035818,-1.475879335580221,9.299488014183972,0.7711665152200831,4.505128387302305,8.305135188107375,-4.021435249142531,-0.7153022580030487,-0.5714602586699695,-3.936767578125,-0.8390473156440549,-0.7104641053734756,-3.921694871855945,1.9173971036585369,-3.598469059641769,-6.233022020417861,-8.626316589301503,2.088183327303706,8.049339769027267,4.425901048026049,-149.87466947115377,25.408901668314016,34.753856291370894,32.50148261299308,1577310602.999,-27.692958580720948,-51.12127379839882,5.17366
35232,1577310603.18,-0.1232137927543822,-0.7517209261266191,9.268013021627286,-1.0314337542278005,0.0588039285799351,9.706502296410536,3.7567359854349274,1.2681677427710552,9.320276692013625,-3.4721188428925305,0.1697075076219513,-0.6324954149199695,-6.317138671875,-2.8226898937690548,0.0829929258765244,-4.440493699980945,0.3610006192835365,8.852702815358231,-5.559181801994311,-11.76315898541114,2.088183327303706,10.275655510898565,3.59103264482431,-187.33561293307372,25.504747356755622,34.8017791355917,32.50148261299308,1577310602.999,-27.692958580720948,-51.12127379839882,5.17366
35233,1577310603.19,0.961359559296398,-0.4021674837438065,10.3070965421351,0.3715684186237609,-1.013798415170064,9.871702210961317,1.4176009634622706,-3.8482412049828496,6.294005793576124,-4.357128608517531,-2.7599799923780486,-0.2662844774199695,-3.60107421875,-1.7240570812690548,-0.1611476991234756,-5.050845262480945,8.509193978658537,10.714275080983231,-6.738402184235517,-10.891813875380686,1.1802775328238315,-0.8559231984579215,3.424058964183964,-202.31999031784173,25.45682451253482,34.61008775870848,32.6931739898763,1577310602.999,-27.692958580720948,-51.12127379839882,5.17366
35234,1577310603.2,1.6939852673042104,-0.8091817659703692,10.259212508931974,0.3404437970417296,-1.322650429330221,7.355396266137099,1.5684356680521143,-0.958439801174256,8.604410395626905,-3.2279782178925305,-0.8068549923780487,-0.3273196336699695,-2.197265625,0.6868315906059451,-0.6494289491234756,-4.074282762480945,16.779457650533537,7.357341487233231,-6.569942129629636,-10.717544853374594,2.451345645095649,-2.8039494725953062,3.5075458045041388,-180.59264310992825,25.2172102914308,34.70593344715009,32.30979123610986,1577310602.999,-27.692958580720948,-51.12127379839882,5.17366
35235,1577310603.21,1.2582405651557729,-2.078108645853181,7.058164889303067,1.9828661359089168,-2.117525380502096,9.086404066430068,-0.3421372567525721,-1.0685730775414437,6.92846923351753,-2.9533200147675305,-0.6542671017530487,-0.2052493211699695,-3.47900390625,0.3511382312309451,-0.7104641053734756,-4.684634324980945,21.296059213033537,10.958415705983231,-6.738402184235517,-10.19473778735632,0.8171152150318806,-3.082238940329218,4.258927367385699,-152.87154494810736,25.60059304519724,34.70593344715009,32.357714080330666,1577310602.999,-27.692958580720948,-51.12127379839882,5.17366
35236,1577310603.22,1.3887245556342886,-0.1076806795445883,9.64150848061166,1.4681127789753234,0.1737256082674351,5.820713001976943,-1.2686932992330409,-5.34222304092035,11.319435078244092,-3.487377631955031,0.7800590701219512,-0.3120608446074695,-2.838134765625,1.5108061999809452,-0.2832180116234756,-4.928774949980945,20.807777963033537,8.974773127858231,-6.233022020417861,-11.066082897386776,1.9066021684077188,3.596708285284674,4.258927367385699,-140.884043040293,25.360978824093213,34.8017791355917,32.357714080330666,1577310602.999,-27.692958580720948,-51.12127379839882,5.17366
35237,1577310603.23,0.894321912812023,-1.1778888216344316,9.938389486471037,1.877521262862042,-0.9443665670255328,9.864519605980847,-2.9901242928853846,-8.895218304592225,12.032907172970654,-4.174023139767531,0.7800590701219513,-0.4188723680449695,-3.997802734375,1.3582183093559452,-0.4663234803734756,-5.111880418730945,16.626869759908537,1.4369313309832317,-6.401482075023749,-11.58888996340505,1.9066021684077188,6.379602962623795,4.091953686745352,-164.85904685592186,25.45682451253482,34.70593344715009,32.30979123610986,1577310602.999,-27.692958580720948,-51.12127379839882,5.17366
35238,1577310603.24,0.0898701549995229,-0.4859645418492753,8.74847126137338,0.5020524091022764,-0.2332886739591264,10.491800440941786,1.8581340689310204,-1.8694335328637104,15.378803993039014,-2.3429684522675305,1.2988578982469514,-0.3883547899199695,-3.2806396484375,1.8312407702934448,-0.4052883241234756,-2.502627489043445,-3.133262076028964,-14.477985661204269,-6.401482075023749,-11.58888996340505,1.9066021684077188,6.379602962623795,3.5910326448243106,-163.36060911744505,25.504747356755622,34.8017791355917,32.30979123610987,1577310602.999,-27.692958580720948,-51.12127379839882,5.17366
35239,1577310603.25,1.4904781261909292,-1.489135037454744,10.71411082436166,1.9661067242878236,-1.55967639368569,9.835789186058976,2.076006420005239,2.127686138767149,7.629970319943312,-3.5941891553925305,-0.9594428830030488,-0.8461184617949695,-0.3662109375,0.4121733874809451,-1.2902980897484757,-1.0225249499809452,-12.731040396341465,-6.2534983565167686,-5.559181801994311,-10.02046876535023,1.725021009511747,6.379602962623795,3.424058964183964,-161.86217137896827,25.31305597987241,34.70593344715009,32.30979123610986,1577310602.999,-27.692958580720948,-51.12127379839882,5.17366
35240,1577310603.26,2.685184754608898,-1.8362942781774003,9.385328902974942,1.1425013531940733,-0.8940883321622514,8.061685755883193,1.1087489493021143,0.2649972471655866,4.960435468869093,-3.1669430616425305,1.1767875857469514,-0.9376711961699696,-2.899169921875,1.1445952624809452,-0.9851223084984756,-3.036685106230945,-3.056968130716464,0.5214039872332317,-7.917622566476737,-9.323392677325868,3.177670280679544,6.379602962623795,3.424058964183964,-161.86217137896827,25.31305597987241,34.61008775870848,32.118099859226646,1577310602.999,-27.692958580720948,-51.12127379839882,5.17366
35241,1577310603.27,1.6173708141792105,-1.000717898782869,10.156261837545255,1.0610984967487609,-0.6810043844083452,7.657065675316787,2.188533898032583,1.2394373228491802,3.260552290158155,-3.2890133741425305,1.4819633669969514,-0.6935305711699695,-4.94384765625,2.090640184355945,-0.1916652772484756,-4.257388231230945,10.492836556783535,10.134441096608231,-6.401482075023749,-9.497661699331958,0.8171152150318806,0.5355241402116392,3.5075458045041388,-188.08483180231227,25.31305597987241,34.61008775870848,32.64525114565549,1577310602.999,-27.692958580720948,-51.12127379839882,5.17366
35242,1577310603.28,1.3755564465034291,-0.6751064730016191,9.976696713033537,0.8863217755573546,-0.1279438009122513,8.624323146019911,3.014533470786489,-1.9855523133812876,9.516601228146436,-3.1059079053925305,3.3435356326219514,-0.4188723680449695,-4.39453125,1.1445952624809452,-0.7714992616234756,-4.837222215605945,13.117348275533535,14.559489924733231,-7.74916251187085,-10.19473778735632,2.996089121783565,-1.9690810693935703,3.59103264482431,-158.86529590201468,25.408901668314016,34.61008775870848,32.45355976877228,1577310602.999,-27.692958580720948,-51.12127379839882,5.17366
35243,1577310603.29,0.8979132153022573,0.2035655362757241,9.983879318014004,0.7402754742878234,-0.3649697652677201,11.0711972426996,2.7655364981302397,-1.3295410584984748,11.465481379513625,-3.3805661085175305,1.909209460746952,-0.6019778367949695,-3.631591796875,2.060122606230945,-0.8630519959984756,-5.081362840605945,10.309731088033535,13.521892268483231,-6.991092266144355,-10.63041034237155,0.907905794479874,-2.8039494725953062,3.5075458045041388,-161.11295250972978,25.45682451253482,34.753856291370894,32.357714080330666,1577310602.999,-27.692958580720948,-51.12127379839882,5.17366
35244,1577310603.3,0.444212000702648,0.1293452848108799,10.6135543546351,0.4721248883503234,-0.5948131246427201,9.23005616603944,-1.0915223763814783,-0.8459123231469123,15.947426887326124,-4.021435249142531,0.4748832888719513,-1.1512942430449695,-3.509521484375,0.5952788562309451,-0.8020168397484756,-5.417056199980945,-0.7071146150914634,10.805827815358231,-5.390721747388423,-11.58888996340505,0.0907905794479934,-1.9690810693935703,3.424058964183964,-163.36060911744488,25.504747356755622,34.61008775870848,32.45355976877228,1577310602.999,-27.692958580720948,-51.12127379839882,5.17366
35245,1577310603.31,1.5383621593940542,-0.6272224397984941,10.826638302389004,0.4517741742389952,-1.2137142537931112,10.3050527114496,-2.844077991615853,-5.898874926906678,13.11508632336128,-3.9909176710175305,2.5805961794969514,-1.4564700242949695,-4.8675537109375,2.472109910918445,-0.5578762147484756,-2.456851121855945,-16.927207388528963,-13.272541325266769,-5.559181801994311,-10.369006809362414,1.3618586917198034,-8.787173028874417,6.137381274589608,-145.75396569034257,25.2172102914308,34.70593344715009,32.42959834666188,1577310602.999,-27.692958580720948,-51.12127379839882,5.17366
35246,1577310603.32,-0.4248832019340697,-1.1515526033727128,9.98627351967416,-0.4664021624309256,-0.6570623678067827,9.644253053246471,0.2420479483255518,6.497104168552305,10.371331220822215,-2.8007321241425305,4.259062976371951,-0.4799075242949695,-3.41796875,3.036685106230945,-0.8325344178734756,-3.036685106230945,-25.243247427591463,-5.7957346846417686,-5.559181801994311,-10.369006809362414,1.3618586917198034,-6.97829148860399,6.095637854429521,-139.38560530181627,25.45682451253482,34.46631922604607,32.50148261299308,1577310602.999,-27.692958580720948,-51.12127379839882,5.17366
35247,1577310603.33,-0.2285586658012572,-0.988746890482088,10.326250155416348,-0.5454108172160819,-0.1470974141935014,8.914021546898816,1.5205516348489891,-1.935274078518006,3.7058737989472177,-3.8993649366425305,2.0923149294969514,-0.3883547899199695,-3.84521484375,3.372378465605945,-0.4052883241234756,-3.189272996855945,-13.371909536966465,-3.354328434641769,-5.559181801994311,-10.369006809362414,1.3618586917198034,-2.525660004861394,6.429585215710214,-115.41060148618736,25.31305597987241,34.70593344715009,32.30979123610986,1577310602.999,-27.692958580720948,-51.12127379839882,5.17366
35248,1577310603.34,1.1289536755073355,0.2131423429163486,9.98627351967416,-0.308384852860613,0.0611981302400913,9.900432630883191,3.002562462485708,0.7629911924780866,2.9014220411347176,-2.8617672803925305,2.4280082888719514,0.0083737257050304,-3.326416015625,3.341860887480945,0.2050632383765244,-2.945132371855945,4.633461556783536,-10.861652653391769,-6.233022020417861,-11.066082897386776,0.9986963739278524,-1.6907916016596571,6.179124694749696,-86.19106558588967,25.504747356755622,34.562164914487674,32.30979123610986,1577310602.999,-27.692958580720948,-51.12127379839882,5.17366
35249,1577310603.35,0.9733305675971792,0.1413162931116611,9.440395541158535,0.9054753888386046,-0.9347897603849076,8.53573768459413,3.4191535513528954,4.270496624606992,7.567721076779249,-3.7467770460175305,0.8716118044969513,-0.2662844774199695,-2.410888671875,3.433413621855945,-0.4052883241234756,-3.799624559355945,11.988197884908535,2.6271168778582314,-6.233022020417861,-10.717544853374594,2.451345645095649,6.379602962623795,6.095637854429521,-91.4355976705585,25.504747356755622,34.8017791355917,32.357714080330666,1577310602.999,-27.692958580720948,-51.12127379839882,5.17366
35250,1577310603.36,0.4621685131538203,-1.824323269876619,9.117178317037444,0.4457886700886047,-2.086400758920065,9.253998182641004,2.2531773428568016,-3.8290875917016,9.313094087033155,-3.792553413205031,2.6568901248094514,-0.8156008836699695,-3.0517578125,2.304263231230945,-1.1071926209984757,-3.738589403105945,9.485756478658535,0.7045094559832317,-6.148791993114921,-10.107603276353275,1.4526492711677892,6.657892430357706,7.013993097951428,-83.19419010893608,25.48078593464522,34.70593344715009,32.357714080330666,1577310602.999,-27.692958580720948,-51.12127379839882,5.17366
35251,1577310603.37,0.3077425060737417,-0.8498831941930254,10.096406796041348,0.4936727032917297,-1.246035976205221,9.253998182641004,1.477456004966177,-0.4963588807640999,15.006505634884718,-4.204540717892531,0.9326469607469512,-1.0292239305449695,-5.096435546875,1.7854644031059452,-0.2832180116234756,-3.219790574980945,2.5582662442835367,2.3829762528582314,-7.0753222934473055,-10.19473778735632,2.2697644861996773,6.379602962623795,6.262611535069867,-91.4355976705585,25.60059304519724,34.94554766825411,32.357714080330666,1577310602.999,-27.692958580720948,-51.12127379839882,5.17366
35252,1577310603.38,0.1353599865424917,-1.3119641146031815,10.340615365377284,-0.8494744280559257,-0.32067703455483,10.15062670436952,-0.5803603219381195,-2.907319952541444,12.947492207150342,-3.3805661085175305,0.1086723513719513,-0.3273196336699695,-3.7994384765625,-0.1371430187690548,-0.6341701600609756,-3.448672410918445,-19.521201529153963,-3.033893864329269,-7.243782348053194,-10.369006809362414,3.177670280679544,4.153287220752498,4.926822089947089,-137.8871675633394,25.45682451253482,34.72989486926049,32.40563692455147,1577310602.999,-27.692958580720948,-51.12127379839882,5.17366
35253,1577310603.39,-0.9947031970512572,0.2442669644983799,10.706928219381192,0.8743507672565733,-1.8230385763028771,11.308223207055068,-0.3565024667135096,-1.3558772767601937,6.8710083936737805,-3.7162594678925305,-0.2270210080030487,-0.1136965867949695,-4.852294921875,0.0154448718559451,0.1440280821265244,-3.494448778105945,-16.484702505716463,-5.3990061690167686,-5.222261692782536,-11.066082897386776,1.3618586917198034,-0.0210547952561845,4.175440527065527,-134.14107321714732,25.31305597987241,34.562164914487674,32.64525114565549,1577310602.999,-27.692958580720948,-51.12127379839882,5.17366
35254,1577310603.4,-0.7672540393364135,-1.3311177278844315,9.825862008443693,0.0914468243854796,-2.53651067102944,9.99141229396913,0.5652651724466455,2.4317497496069924,4.776081941037061,-4.509716499142531,-0.3796088986280487,-0.5714602586699695,-3.35693359375,-1.7545746593940548,-0.9546047303734756,-3.402896043730945,-1.4395364900914631,-4.4834788252667686,-5.8961019112060855,-11.76315898541114,3.5408325984714875,5.823024027155972,4.091953686745352,-116.90903922466424,25.31305597987241,34.562164914487674,32.50148261299308,1577310602.999,-27.692958580720948,-51.12127379839882,5.17366
35255,1577310603.41,-0.0777239612114135,-1.4388568025914628,9.53376940590463,-1.206210475419207,-1.59798362024819,11.88762000881288,2.140649864829458,-1.4133381166039436,9.490265009884718,-3.0143551710175305,0.7190239138719513,-0.3883547899199695,-6.317138671875,-2.2123383312690548,0.3271335508765244,-3.433413621855945,4.816567025533536,0.7045094559832317,-5.8961019112060855,-11.76315898541114,3.5408325984714875,5.823024027155972,4.091953686745352,-116.90903922466424,25.64851588941804,34.61008775870848,32.45355976877228,1577310602.999,-27.692958580720948,-51.12127379839882,5.17366
35256,1577310603.42,-0.3554513537895385,0.0120294034632236,10.977473006978848,-0.3538746844035818,-1.5764358053067835,9.093586671410536,1.7264529776224269,-1.9855523133812876,5.0131079053925305,-3.3195309522675305,-1.4782417111280486,-0.7545657274199695,-4.82177734375,-0.8390473156440549,0.3881687071265244,-3.219790574980945,13.910805306783535,-7.1995432783917686,-5.8961019112060855,-11.76315898541114,3.5408325984714875,9.162497639962917,6.095637854429521,-140.884043040293,25.45682451253482,34.753856291370894,32.45355976877228,1577310602.999,-27.692958580720948,-51.12127379839882,5.17366
35257,1577310603.43,1.9262228283393663,-1.2521090730992754,8.094854208150723,2.0906052106159483,-1.0952012716153765,6.740086439476943,-0.1913025521627284,2.577796050876524,8.192607710080031,-2.9838375928925305,-1.3866889767530486,-0.6630129930449695,-1.8310546875,0.4426909656059451,-0.7409816834984756,-3.891177293730945,18.702065072408537,3.969890315358232,-5.390721747388423,-10.543275831368502,1.5434398506157752,14.72828699464116,6.76353257699091,-164.85904685592186,25.45682451253482,34.753856291370894,32.45355976877228,1577310602.999,-27.692958580720948,-51.12127379839882,5.17366
35258,1577310603.44,0.9278407360542104,-1.7489059175816972,7.489121188131192,0.9461768170612608,-1.0640766500333452,7.836630799828505,0.206134923423208,-6.539323870998476,4.620458833126905,-2.9228024366425305,1.3293754763719514,-0.4341311571074695,0.091552734375,1.2056304187309452,-1.4123684022484757,-4.806704637480945,23.523842416158537,5.343181330983232,-6.064561965811974,-9.67193072133805,1.3618586917198034,8.049339769027267,6.095637854429521,-191.8309261485041,25.38494024620361,34.8017791355917,32.50148261299308,1577310602.999,-27.692958580720948,-51.12127379839882,5.17366
35259,1577310603.45,0.4825192272651479,0.0623076383265049,10.019792342916348,0.4840958966511046,-1.5572821920255335,4.5853049453363175,1.5708298697122705,-1.006323834377381,7.946004939083936,-3.1059079053925305,1.6955864138719514,-0.9071536180449696,-5.126953125,1.1751128406059452,-0.1611476991234756,-4.379458543730945,31.458412728658537,-0.0279124190167683,-5.390721747388423,-11.58888996340505,0.453952897239937,14.72828699464116,4.759848409306741,-208.3137412717489,25.31305597987241,34.753856291370894,32.30979123610986,1577310602.999,-27.692958580720948,-51.12127379839882,5.17366
35260,1577310603.46,0.1353599865424917,-0.7469325228063066,7.939231100240567,0.4374089642780582,-0.554111696420064,8.582424616967177,-0.7455602364889007,-5.933590850978943,10.805878822140578,-3.6247067335175305,1.3598930544969514,-1.1512942430449695,-5.126953125,1.4497710437309452,-0.6189113709984756,-3.601260301543445,22.71512659584604,-6.6654856612042686,-6.064561965811974,-11.240351919392868,0.8171152150318806,6.379602962623795,4.091953686745352,-209.81217901022575,25.60059304519724,34.753856291370894,32.285829813999456,1577310602.999,-27.692958580720948,-51.12127379839882,5.17366
35261,1577310603.47,0.4178757824409292,-0.339918240579744,8.738894454732755,-0.1216371233684255,-0.0752713643888138,8.801494068871474,-4.826476966225228,5.084525189060117,18.772584846310497,-2.5565914991425305,1.2988578982469514,-1.2123293992949695,0.579833984375,0.2595854968559451,-1.809096917873476,-1.1445952624809452,3.9010396817835367,-18.00276593464177,-7.243782348053194,-11.066082897386776,3.5408325984714875,6.379602962623795,4.091953686745352,-206.81530353327216,25.504747356755622,34.61008775870848,32.45355976877228,1577310602.999,-27.692958580720948,-51.12127379839882,5.17366
35262,1577310603.48,-0.245318077422351,-1.2928105013219315,10.053311166158537,-0.4616137591106131,-1.782337148080221,10.6115105239496,-1.6374003548971032,-3.4627747376976936,12.42555624523628,-2.6176266553925305,1.1462700076219514,-1.1207766649199695,-1.556396484375,2.121157762480945,-1.1377101991234757,-2.517886278105945,-12.914145865091465,-8.633869450266769,-5.8961019112060855,-10.369006809362414,2.088183327303706,7.492760833559443,4.091953686745352,-211.31061674870253,25.31305597987241,34.46631922604607,32.30979123610986,1577310602.999,-27.692958580720948,-51.12127379839882,5.17366
35263,1577310603.49,0.8512262829292104,-2.5641315828649,9.854592428365567,0.6205653912800109,-2.1223137838224084,9.55087918850038,-0.4379053231588221,-5.849793792873475,14.944256391720655,-2.5871090772675305,0.9021293826219512,-0.4799075242949695,-3.0517578125,1.0225249499809452,0.2966159727515244,-0.7478667468559452,-16.423667349466463,-11.899250309641769,-7.243782348053194,-11.066082897386776,2.088183327303706,5.823024027155972,4.091953686745352,-212.8090544871794,25.2651331356516,34.753856291370894,32.45355976877228,1577310602.999,-27.692958580720948,-51.12127379839882,5.17366
35264,1577310603.5,0.7817944347846792,-1.7333436067906816,10.232876290670257,1.290941856123761,-2.40243537806069,9.720867506371471,2.2579657461771143,2.3742889097632425,11.1111395338105,-3.2890133741425305,2.3059379763719514,-0.5104251024199695,-1.28173828125,4.196353074980945,-0.1611476991234756,-1.2971831531059452,-21.062339224466463,4.030925471608232,-7.243782348053194,-11.066082897386776,2.088183327303706,-9.76118616594311,3.424058964183964,-209.81217901022572,25.408901668314016,34.70593344715009,32.45355976877228,1577310602.999,-27.692958580720948,-51.12127379839882,5.17366
35265,1577310603.51,0.6728582592475698,-0.9863526888219316,9.440395541158535,1.5159968121784484,-0.2428654805997513,12.543631263695692,3.7232171621927392,0.0207886778296491,3.294071113400342,-1.3053707960175305,1.4514457888719514,-0.1594729539824695,-3.41796875,-0.7474945812690549,-0.8325344178734756,-2.212710496855945,-7.878745474466464,6.991130549733232,-6.56994212962964,-10.891813875380684,2.451345645095649,-2.8039494725953062,4.175440527065527,-164.10982798668337,25.528708778866022,34.562164914487674,32.45355976877228,1577310602.999,-27.692958580720948,-51.12127379839882,5.17366
35266,1577310603.52,1.7394750988471792,-0.4596283235875565,8.667068404928067,1.0395506818073543,-1.5022155538419395,8.57404491115663,1.7815196158060205,3.97840402206793,7.907697712521436,-1.9767575147675305,-0.4711616330030487,-1.1818118211699695,0.213623046875,-1.0221527843940548,-1.1377101991234757,-1.7244292468559452,4.450356088033536,10.287028987233231,-5.8961019112060855,-9.671930721338049,1.725021009511747,-9.76118616594311,3.758006325464657,-164.85904685592186,25.504747356755622,34.61008775870848,32.45355976877228,1577310602.999,-27.692958580720948,-51.12127379839882,5.17366
35267,1577310603.53,-0.053781944609851,-1.326329324564119,11.259988802877286,0.1560902692096989,-0.95274627283608,9.125908393822646,1.2057141165384424,-5.481086737209412,12.184938978390576,-1.0917477491425305,0.2612602419969513,-0.2662844774199695,-1.708984375,0.930972215605945,-1.1071926209984757,-3.555483934355945,-4.704917349466464,9.173137385670731,-5.727641856600198,-9.84619974334414,2.996089121783565,-0.8559231984579209,3.507545804504137,-128.8965411324786,25.408901668314016,34.41839638182526,32.40563692455147,1577310602.999,-27.692958580720948,-51.12127379839882,5.17366
35268,1577310603.54,-0.1734920276176635,-0.1052864778844316,7.891347067037442,0.8192841290729795,1.2223859354158726,8.408844996605849,3.924330101645864,2.1228977354468364,8.57567997570503,-2.8312497022675305,0.2002250857469513,-0.3883547899199695,-4.852294921875,0.2901030749809451,0.4492038633765244,-2.731509324980945,-12.608970083841465,-0.1805003096417683,-6.064561965811974,-11.240351919392868,3.3592514395755155,8.605918704495092,3.59103264482431,-140.884043040293,25.408901668314016,34.70593344715009,32.30979123610986,1577310602.999,-27.692958580720948,-51.12127379839882,5.17366
35269,1577310603.55,0.0204383068549917,-0.3351298372594316,9.907264864889004,0.2470699322956359,0.1378125833650913,11.777486732445691,1.1686039908060206,1.7015182432593363,6.531031757931593,-2.9838375928925305,-1.7528999142530486,0.1609616163300304,-4.82177734375,-3.2194184093940548,0.7543796446265244,-2.090640184355945,-7.237876333841464,-0.8213694502667683,-6.064561965811974,-9.84619974334414,1.5434398506157752,14.72828699464116,4.091953686745352,-161.86217137896827,25.504747356755622,34.562164914487674,32.50148261299308,1577310602.999,-27.692958580720948,-51.12127379839882,5.17366
35270,1577310603.56,-1.454389915801257,0.1532873014124424,10.599189144674162,-1.826308705399676,-0.4942566549161576,7.408068702660537,2.5979423819193017,6.281626019138242,1.22069247570503,-2.0988278272675305,-0.5932319455030487,0.1304440382050304,-1.434326171875,-5.966000440644055,-0.2221828553734756,-2.029605028105945,9.607826791158535,-3.354328434641769,-6.233022020417861,-11.066082897386776,2.088183327303706,10.553944978632478,1.6708353174603163,-177.59576763297463,25.31305597987241,34.70593344715009,33.12447958786354,1577310602.999,-27.692958580720948,-51.12127379839882,5.17366
35271,1577310603.57,-0.1375790027153197,-2.3079520052281817,7.778819589010099,0.8695623639362609,-3.247588564095846,7.479894752465224,0.0553002188333643,-0.6400109803734749,9.825453242306592,-2.4955563428925305,-5.659149914253049,0.2219967725800304,1.3427734375,-0.9611176281440548,-0.7104641053734756,-4.287905809355945,15.833412728658535,8.700114924733231,-5.8961019112060855,-11.41462094139896,0.9986963739278524,6.101313494889882,1.6708353174603163,-180.59264310992825,25.64851588941804,34.61008775870848,32.50148261299308,1577310602.999,-27.692958580720948,-51.12127379839882,5.17366
35272,1577310603.58,0.6572959484565543,-0.7325673128453691,9.918038772359708,2.863932346846417,-1.8445863912442837,3.852679237328505,-0.3780502816549159,-9.010139984279723,13.723213545040968,-3.105907905392531,-1.0357368283155486,-0.3120608446074695,-1.556396484375,-0.7780121593940549,-0.4358059022484756,-3.952212449980945,8.448158822408537,-5.8872874190167686,-5.8961019112060855,-10.02046876535023,0.9986963739278524,6.101313494889882,0.8359669142585815,-186.5863940638354,25.43286309042442,34.753856291370894,32.45355976877228,1577310602.999,-27.692958580720948,-51.12127379839882,5.17366
35273,1577310603.59,0.0443803234565542,-2.377383853372713,9.26561881996713,0.9916666486042296,-0.3745465719083451,9.35216045070741,1.902426799643912,0.6337043028296495,10.744826679806591,-3.0143551710175305,-3.0346381955030486,0.4356198194550305,-6.622314453125,-1.1747406750190548,0.8001560118140243,-3.997988817168445,-4.872764029153964,0.1551930497332316,-5.222261692782536,-10.02046876535023,-0.0907905794479859,6.379602962623794,1.253401115859449,-182.84029971764343,25.31305597987241,34.873663401922904,32.38167550244107,1577310602.999,-27.692958580720948,-51.12127379839882,5.17366
35274,1577310603.6,1.7514461071479603,2.0614660245569736,11.04690485512338,3.247004612471417,-1.2340649679044398,9.730444313012098,4.247547325766958,0.6839825376929304,4.424134296994093,-4.265575874142531,-1.7223823361280486,-0.2052493211699695,-1.861572265625,-2.6701020031440548,-1.5344387147484757,-5.203433153105945,7.929359994283536,7.509929377858231,-6.233022020417861,-10.369006809362414,2.451345645095649,6.101313494889882,3.841493165784832,-158.1160770327762,25.45682451253482,34.70593344715009,32.45355976877228,1577310602.999,-27.692958580720948,-51.12127379839882,5.17366
35275,1577310603.61,1.3061245983588978,-1.6663059603063066,9.119572518697598,1.5566982404011047,-1.8182501729825649,9.811847169457412,4.587523961509145,-5.59840261855707,6.9452286451386245,-3.2584957960175305,-2.6073921017530486,-0.1136965867949695,-2.99072265625,-1.3273285656440548,-1.870132074123476,-4.654116746855945,18.122231088033537,7.082683284108232,-6.401482075023749,-9.149123655319777,1.9066021684077188,6.379602962623795,3.758006325464657,-161.86217137896827,25.504747356755622,34.753856291370894,32.30979123610986,1577310602.999,-27.692958580720948,-51.12127379839882,5.17366
35276,1577310603.62,-1.0856828601371948,0.2610263761194736,10.647073177877283,0.0148323712604796,-1.552493788705221,12.352095130883193,-3.744297815834603,-7.705300079494569,17.963344685177685,-3.6857418897675305,-0.5932319455030487,-0.7545657274199695,-7.32421875,-4.440121534394055,-0.5578762147484756,-3.067202684355945,8.539711556783537,-7.565754215891768,-6.064561965811974,-10.891813875380686,1.1802775328238315,5.823024027155972,3.424058964183964,-188.8340506715505,25.45682451253482,34.562164914487674,32.45355976877228,1577310602.999,-27.692958580720948,-51.12127379839882,5.17366
35277,1577310603.63,0.4154815807807729,-1.9272739412633375,9.268013021627286,-0.8446860247356129,0.1497835916658726,9.18696053615663,-5.867954688393198,-5.409260687404726,19.64407425060737,-4.631786811642531,-2.7599799923780486,-1.8837161180449693,-4.669189453125,-2.4869965343940548,-0.4663234803734756,-1.6023589343559452,-13.219321646341465,-15.042560856516769,-6.064561965811974,-11.240351919392868,1.5434398506157752,6.101313494889882,4.008466846425181,-182.0910808484049,25.45682451253482,34.562164914487674,32.50148261299308,1577310602.999,-27.692958580720948,-51.12127379839882,5.17366
35278,1577310603.64,1.8687619884956168,-1.738132010110994,8.750865463033536,1.015608665205792,-0.3146915304044388,8.923598353539441,-3.1912372323385094,-5.277579596096132,12.86608935070503,-2.5565914991425305,-0.7763374142530487,-0.6935305711699695,0.213623046875,0.9004546374809451,-1.1682277772484757,-0.9614897937309452,-33.78816930259146,-21.57332257526677,-5.053801638176648,-10.891813875380686,0.0907905794479934,-2.525660004861394,3.424058964183964,-182.8402997176433,25.60059304519724,34.8017791355917,32.45355976877228,1577310602.999,-27.692958580720948,-51.12127379839882,5.17366
35279,1577310603.65,0.2574642712104609,-0.969593277200838,9.406876717916347,1.3507968976276672,-1.128720094857564,9.366525660668348,-0.4235401131978846,10.531333965915588,9.945163325314406,-3.5331539991425305,0.4443657107469513,-0.6172366258574695,-2.01416015625,0.9614897937309452,-1.2597805116234757,-0.5342436999809452,-40.47151891196646,-13.486164372141769,-6.233022020417861,-10.543275831368504,1.5434398506157792,-0.8559231984579215,3.424058964183964,-205.3168657947953,25.33701740198281,34.562164914487674,32.45355976877228,1577310602.999,-27.692958580720948,-51.12127379839882,5.17366
35280,1577310603.66,0.3316845226753042,0.7326841031702548,11.470678548971035,1.082646311690167,-0.8390216939786577,10.685730775414443,1.7815196158060205,-0.1539880433617561,1.977260200314405,-2.8617672803925305,-1.2951362423780486,-0.0831790086699695,-6.89697265625,-1.0526703625190548,0.3271335508765244,-4.532046434355945,-28.752768911966463,5.678874690358232,-6.233022020417861,-10.02046876535023,0.9986963739278524,-0.8559231984579215,4.091953686745352,-188.8340506715505,25.31305597987241,34.61008775870848,32.45355976877228,1577310602.999,-27.692958580720948,-51.12127379839882,5.17366
35281,1577310603.67,-0.2572890857231323,-1.4747698274938066,8.497080087056974,0.7354870709675109,-2.3605368490079552,10.270336787377332,2.9391161184915675,4.574560235446837,3.4185695997284675,-2.7396969678925305,-1.1730659298780486,-0.7545657274199695,-2.6397705078125,-3.677182081269055,-1.549697503810976,-3.586001512480945,4.725014291158536,3.1459157059832314,-6.233022020417861,-10.02046876535023,0.9986963739278524,-3.082238940329218,3.5910326448243106,-173.10045441754409,25.408901668314016,34.89762482403331,32.30979123610987,1577310602.999,-27.692958580720948,-51.12127379839882,5.17366
35282,1577310603.68,0.6094119152534292,-1.007900503763338,9.279984029928068,0.9174463971393858,-2.2085050435880333,8.739244825707411,0.6801868521341455,-4.183429437404724,3.4185695997284675,-3.1669430616425305,-2.0580756955030486,-1.9142336961699693,-2.74658203125,-2.1207855968940548,-1.931167230373476,-7.431216356230945,24.897133431783537,30.18448992473323,-6.569942129629636,-10.02046876535023,0.9986963739278524,-3.082238940329218,3.758006325464657,-163.36060911744488,25.504747356755622,34.70593344715009,32.30979123610986,1577310602.999,-27.692958580720948,-51.12127379839882,5.17366
35283,1577310603.69,1.5910345959174916,0.4693219205530674,9.234494198385098,0.4529712750690734,0.4538472025057163,9.929163050805068,-2.8656258065572597,-5.2632143861351945,11.891649275021436,-3.2279782178925305,-0.0744331173780487,-2.219409477419969,-3.84521484375,-0.3812836437690549,-2.419448480373476,-5.844302293730945,24.988686166158537,20.23575945598323,-7.5807024572649615,-11.41462094139896,0.6355340561359087,-3.082238940329218,4.425901048026049,-151.37310720963063,25.504747356755622,34.562164914487674,32.357714080330666,1577310602.999,-27.692958580720948,-51.12127379839882,5.17366
35284,1577310603.7,-0.1734920276176635,-1.297598904642244,9.32307965981088,-2.317120045731707,1.2199917337557162,9.617916834984754,-0.1242649056783534,-11.952613824611756,10.103180634884716,-4.051952827267531,-1.0815131955030486,-1.2733645555449695,-2.5634765625,-2.5480316906440548,-0.9546047303734756,-6.149478074980945,18.091713509908537,7.540446955983231,-5.8961019112060855,-12.111697029423322,0.6355340561359087,-3.082238940329218,3.424058964183964,-152.87154494810736,25.408901668314016,34.753856291370894,32.45355976877228,1577310602.999,-27.692958580720948,-51.12127379839882,5.17366
35285,1577310603.71,0.5734988903510855,0.7614145230921299,10.244847298971036,-0.3514804827434256,-0.3170857320645951,9.85733700100038,-0.1673605355611659,-6.929578741603945,12.25317372570503,-4.479198921017531,-1.7223823361280486,-1.4259524461699695,-4.45556640625,-1.4493988781440548,-1.0156398866234757,-3.494448778105945,10.767494759908535,-18.09431866901677,-4.7168815289648665,-8.452047567295411,1.1802775328238315,-7.2565809563379,4.175440527065527,-116.15982035542574,25.2172102914308,34.61008775870848,32.30979123610986,1577310602.999,-27.692958580720948,-51.12127379839882,5.17366
35286,1577310603.72,1.0523392223823351,-1.259291678079744,9.478702767721035,1.980471934248761,-1.0353462301114702,7.048938453637099,-2.159336316811166,1.7278544615210552,15.277050422482374,-4.357128608517531,-1.5697944455030486,-0.7850833055449695,-4.94384765625,1.1751128406059452,-1.1682277772484757,-4.074282762480945,-3.6978372713414633,-7.382648747141768,-5.8961019112060855,-10.717544853374594,0.6355340561359087,-1.4125021339257453,6.930506257631256,-85.4418467166513,25.408901668314016,34.8017791355917,32.26186839188906,1577310602.999,-27.692958580720948,-51.12127379839882,5.17366
35287,1577310603.73,0.9888928783881948,-0.5733529024449789,9.625946169820644,2.4210050397175107,-0.1375206075528764,10.041690528832412,-2.2287681649556967,-12.01486306777582,8.702572663693312,-3.609447944455031,1.2835991091844514,-0.8613772508574695,-3.448486328125,3.006167528105945,-0.5273586366234756,-1.8159819812309448,-9.282554068216465,-26.66975812214177,-5.222261692782532,-10.543275831368504,2.0881833273036983,-1.9690810693935703,6.095637854429521,-86.94028445512816,25.504747356755622,34.70593344715009,32.50148261299308,1577310602.999,-27.692958580720948,-51.12127379839882,5.17366
35288,1577310603.74,1.2247217419135854,-0.4620225252477128,10.841003512349944,0.93420580876048,-0.3937001851895952,10.20808754421327,1.5911805838235986,6.0146725340308205,9.562091059689406,-4.143505561642531,0.4443657107469513,-0.6935305711699695,-2.62451171875,-0.6712006359565548,-1.1682277772484757,-2.594180223418445,-1.4700540682164636,-17.40767316120427,-6.064561965811974,-10.891813875380686,-0.2723717383439576,8.049339769027267,6.095637854429521,-92.93403540903536,25.45682451253482,34.681972025039684,32.45355976877228,1577310602.999,-27.692958580720948,-51.12127379839882,5.17366
35289,1577310603.75,1.576669385956554,-1.745314615091463,8.66467420326791,-0.097695106766863,-2.0456993306974085,8.478276844750381,0.8908765982278956,-7.870499994045351,8.927627619748,-3.6857418897675305,0.5664360232469513,-0.2357668992949695,-5.645751953125,0.4426909656059451,0.7848972227515244,-2.731509324980945,2.0394674161585367,-14.523762028391769,-5.8961019112060855,-10.717544853374594,0.9986963739278524,8.049339769027267,7.431427299552298,-116.90903922466424,25.504747356755622,34.70593344715009,32.45355976877228,1577310602.999,-27.692958580720948,-51.12127379839882,5.17366
35290,1577310603.76,1.0571276257026478,-2.365412845071932,9.64869108559213,0.4026930402057921,-2.36412815149819,10.041690528832412,-0.5935284310689783,6.339086858981992,19.526758369259717,-3.5941891553925305,0.2002250857469513,-0.1747317430449695,-2.044677734375,0.0154448718559451,0.2050632383765244,-1.6633940906059452,-7.878745474466464,-9.183185856516769,-5.8961019112060855,-10.717544853374594,0.9986963739278524,6.101313494889882,6.847019417311081,-161.11295250972978,25.45682451253482,34.562164914487674,32.50148261299308,1577310602.999,-27.692958580720948,-51.12127379839882,5.17366
35291,1577310603.77,0.3795685558784292,-0.7493267244664629,9.912053268209316,-0.6651209002238943,-0.5948131246427201,8.384902980004286,0.3473928213724268,0.4182261534155866,14.518088496212842,-2.1903805616425305,1.3904106326219514,0.2525143507050305,-1.77001953125,-0.2286957531440548,0.1745456602515244,-2.975649949980945,-24.083579458841463,3.695232112233232,-7.243782348053194,-9.671930721338049,1.725021009511747,-1.9690810693935703,6.262611535069867,-146.87779399420018,25.31305597987241,34.8017791355917,32.16602270344745,1577310602.999,-27.692958580720948,-51.12127379839882,5.17366
35292,1577310603.78,-0.7002163928520385,-0.1938719393102128,11.075635275045254,-0.0569936785442068,-2.672980165658346,9.548484986840222,0.3952768545755518,0.9617099302710552,13.443091950802687,-4.174023139767531,-1.3561713986280486,-0.1442141649199695,-0.091552734375,-0.5338715343940549,-1.1377101991234757,-1.9990874499809448,-38.54891149009146,5.221111018483232,-7.0753222934473055,-11.58888996340505,2.2697644861996773,-2.8039494725953062,4.676361568986569,-146.1285751249618,25.408901668314016,34.753856291370894,32.45355976877228,1577310602.999,-27.692958580720948,-51.12127379839882,5.17366
35293,1577310603.79,-0.0394167346489135,-1.505894449075838,11.05408746010385,-0.4520369524699881,-1.4327837056974086,8.049714747582412,2.353733812583364,1.821228326267149,9.147894172482374,-3.9298825147675305,-0.6542671017530487,-0.8461184617949695,-5.035400390625,-0.4118012218940549,0.4186862852515244,-2.945132371855945,-40.89876500571646,6.624919612233232,-4.88534158357076,-10.369006809362414,2.451345645095649,-0.5776337307240097,4.50938788834622,-132.64263547867057,25.504747356755622,34.562164914487674,32.50148261299308,1577310602.999,-27.692958580720948,-51.12127379839882,5.17366
35294,1577310603.8,0.9685421642768668,-0.4584312227574784,10.194569064107757,1.1712317731159485,0.1689372049471226,9.967470277367568,1.5828008780130518,-0.9512571961937872,5.077751350216749,-3.2279782178925305,-1.7223823361280486,0.0999264600800304,-4.791259765625,-2.2123383312690548,0.3271335508765244,-4.776187059355945,-30.217612661966463,7.967693049733231,-6.401482075023745,-10.717544853374594,1.9066021684077263,-0.8559231984579215,3.758006325464657,-140.884043040293,25.480785934645223,34.70593344715009,32.50148261299308,1577310602.999,-27.692958580720948,-51.12127379839882,5.17366
35295,1577310603.81,1.0667044323432728,-1.7524972200719315,8.987891427389005,0.4553654767292296,0.1785140115877476,8.856560707055067,3.1797333853372702,-5.45714472060785,0.4138465162323738,-2.8312497022675305,0.1697075076219513,0.2830319288300305,-1.28173828125,-1.5409516125190548,-0.1916652772484756,-3.616519090605945,-13.738120474466465,2.4440114091082314,-5.727641856600198,-11.240351919392868,0.8171152150318806,-2.8039494725953062,4.175440527065527,-132.64263547867057,25.408901668314016,34.70593344715009,32.30979123610986,1577310602.999,-27.692958580720948,-51.12127379839882,5.17366
35296,1577310603.82,0.7770060314643668,-2.473151919778963,8.827479916158536,1.1149680341022763,-2.453910713754049,11.05084652858827,2.161000578940786,2.904604577487852,6.610040412716749,-2.0988278272675305,-1.5697944455030486,0.7713131788300305,-3.6163330078125,-0.1981781750190548,0.7086032774390244,-3.814883348418445,13.620888314596035,7.9219166825457314,-6.738402184235517,-9.497661699331958,2.2697644861996773,14.72828699464116,6.262611535069867,-158.86529590201468,25.504747356755622,34.61008775870848,32.40563692455147,1577310602.999,-27.692958580720948,-51.12127379839882,5.17366
35297,1577310603.83,0.2454932629096792,-0.0717676546422441,10.517786288228848,0.2255221173542296,-2.1606210103849084,8.679389784203504,0.2013465201028955,-11.928671808010192,10.438368867306592,-2.5871090772675305,-0.3490913205030487,0.0388913038300304,-4.69970703125,-1.7240570812690548,0.0219577696265244,-4.409976121855945,11.805092416158535,-2.133625309641769,-5.727641856600198,-11.240351919392868,1.1802775328238315,9.162497639962917,4.091953686745352,-185.8371751945969,25.504747356755622,34.753856291370894,32.64525114565549,1577310602.999,-27.692958580720948,-51.12127379839882,5.17366
