,timestamp,acc_x_dashboard,acc_y_dashboard,acc_z_dashboard,acc_x_above_suspension,acc_y_above_suspension,acc_z_above_suspension,acc_x_below_suspension,acc_y_below_suspension,acc_z_below_suspension,gyro_x_dashboard,gyro_y_dashboard,gyro_z_dashboard,gyro_x_above_suspension,gyro_y_above_suspension,gyro_z_above_suspension,gyro_x_below_suspension,gyro_y_below_suspension,gyro_z_below_suspension,mag_x_dashboard,mag_y_dashboard,mag_z_dashboard,mag_x_above_suspension,mag_y_above_suspension,mag_z_above_suspension,temp_dashboard,temp_above_suspension,temp_below_suspension,timestamp_gps,latitude,longitude,speed
40574,1577399411.14,0.7779403540634521,0.6288575043468931,14.866065269209695,0.6121564878882428,-2.1508690182569543,11.335727328565646,-2.3288574733827163,2.465735734148724,14.362815759277344,-4.407370962747714,-9.090888790967988,-0.3885408727134145,0.4799075242949695,10.920826981707316,-1.7610875571646345,6.762806962176067,-19.109958555640244,9.851595250571648,-8.90291800213675,7.464347489316236,-3.0810253404003385,-13.133962691955478,-3.299349088411588,-32.3515360841082,27.70919819091263,33.17240243208434,35.616467487345375,1577399411.0,-27.69021942911841,-51.12590479777783,7.0376015
40575,1577399411.15,0.346984055235327,-1.4684631499499807,12.309057896162823,0.2458436338843365,-1.3488114621046108,11.067576742628146,-3.7103118312928736,-4.106347822980182,17.57104598388672,-1.5692361971227131,2.5668260527820124,1.5645841272865857,3.043384086794969,-11.723215987042684,3.1827600990853657,-31.62830631907393,-29.913181211890244,-10.228971155678352,-10.66587206196581,9.509374198717948,-2.179261826136828,-12.928517496125668,-3.1160519168331664,-31.90905173552409,27.75712103513344,33.12447958786354,35.66439033156618,1577399411.0,-27.69021942911841,-51.12590479777783,7.0376015
40576,1577399411.16,-0.7304066918349844,-1.1524285308093556,9.218143552901106,0.0710669126929303,0.832306250297732,12.29819639594846,2.619957358160251,19.328098026629192,4.826710546875,-2.3626932283727133,4.153740115282012,1.5340665491615857,0.6019778367949695,5.275075028582317,-0.7540074790396342,1.2086077434260671,-16.760105040015244,14.764925328696648,-10.842167467948716,7.668850160256405,-2.930731421356421,-11.28495592948718,-2.3828632305194803,-31.319072604078613,27.852966723575044,32.88486536675951,35.66439033156618,1577399411.0,-27.69021942911841,-51.12590479777783,7.0376015
40577,1577399411.17,1.0724271582626708,0.7796922089367369,9.029001621748762,4.462032757419492,-1.2410723873975795,7.703723410108612,-4.158027541742092,-21.09081440012862,7.472303381347656,10.118996224752289,-5.428779415967988,-0.1749178258384145,-1.7173581007050305,-0.6758527057926829,1.1685999428353655,-12.890513350323932,-4.095310118140244,6.250521031821647,-9.960690438034188,8.282358173076922,-2.479849664224669,-16.421085825232456,-4.032537774725275,-28.22168216398985,27.61335250247102,32.83694252253871,35.66439033156618,1577399411.0,-27.69021942911841,-51.12590479777783,7.0376015
40578,1577399411.18,-1.647385927674828,1.493164303663299,8.102445579268291,-1.0302658509789435,-0.1564990353467982,13.416288571241427,0.2784281345274387,4.07703345143388,7.785943798828124,2.2149434903772867,0.7968065215320121,1.3509610804115857,1.4564700242949695,-8.610423018292684,-0.7845250571646342,-3.674204756573933,4.144435975609756,-10.076383265053352,-10.4895766559829,9.304871527777776,-1.7283800690050757,-14.57207906276416,-2.3828632305194803,-29.84412477546492,27.75712103513344,33.17240243208434,35.52062179890376,1577399411.0,-27.69021942911841,-51.12590479777783,7.0376015
40579,1577399411.19,1.7475920264267333,-3.072578262254668,7.625999448897198,3.5402651182593363,-2.146080614936642,5.900889560010956,2.09083879126572,4.220685551043254,6.58884296875,-3.0035623689977133,-8.633125119092988,0.1302579554115854,0.8156008836699695,2.864186356707317,-3.4090367759146343,7.739369462176067,31.21352777248476,15.558382359946648,-11.194758279914527,8.077855502136751,-3.531907097532104,-14.57207906276416,-2.3828632305194803,-29.84412477546492,27.90088956779585,32.88486536675951,35.856081708449395,1577399411.0,-27.69021942911841,-51.12590479777783,7.0376015
40580,1577399411.2,0.1506595191025145,1.993552450635956,14.68650014469798,-1.6144510560570686,1.9120911990282008,9.291079110792204,-0.379977322015529,-16.055808308820026,10.733206042480468,4.534279427877286,-5.215156369092988,-0.4190584508384145,0.3273196336699695,-14.012034346417684,2.9081018959603657,2.276722977801067,24.80483636623476,-8.245328577553353,-10.66587206196581,9.100368856837605,-2.179261826136828,-12.312181908636234,-4.032537774725275,5.702117894125108,27.61335250247102,33.12447958786354,35.616467487345375,1577399411.0,-27.69021942911841,-51.12590479777783,7.0376015
40581,1577399411.21,4.044828519346656,-0.9776518096179494,11.563264079024153,2.127686138767149,0.2792456668016383,9.659786166456268,9.4577972995665,17.961008878679973,2.7246014892578123,4.152809701314787,-3.521430783155488,0.1607755335365857,0.2357668992949695,13.453785966082316,-2.5850621665396343,19.976918290301068,49.27993402248475,-1.2262856088033538,-10.13698584401709,7.668850160256408,-3.0810253404003447,-15.599305041913214,16.863339785214784,4.227170065511412,27.733159613023037,33.12447958786354,35.52062179890376,1577399411.0,-27.69021942911841,-51.12590479777783,7.0376015
40582,1577399411.22,1.1729836279892332,0.2601504486828307,9.536572373701889,5.786026275485899,1.9480042239305448,5.900889560010956,-5.410195010003811,-9.86679701731612,7.266402038574219,12.865578256002289,8.578788943407012,-0.4495760289634145,-0.4661373975800305,3.291432450457317,2.9996546303353657,15.033070634051068,77.93593988185975,0.9709800161966464,-9.784395032051282,7.668850160256405,-1.7283800690050757,-9.8468395586785,17.229934128371625,-4.032537774725275,27.565429658250217,33.12447958786354,35.66439033156618,1577399411.0,-27.69021942911841,-51.12590479777783,7.0376015
40583,1577399411.23,3.241573862364234,-2.5793727202624805,4.226233091475323,1.7350370665015238,-2.711112206733518,5.805121493604706,1.949580893316501,-12.454929011945026,21.44965267333984,4.229103646627286,3.970634646532013,0.4049161585365854,-0.9239010694550304,7.106129716082317,-2.6766149009146343,11.584584305926068,38.96499261623475,-23.473600061928355,-11.194758279914527,8.077855502136751,-3.531907097532104,-15.804750237743024,18.146419986263737,1.7197587568681325,27.90088956779585,33.12447958786354,35.616467487345375,1577399411.0,-27.69021942911841,-51.12590479777783,7.0376015
40584,1577399411.24,-1.4773976098037342,2.278462448194549,17.312939365889385,2.5347004209937114,1.1459466677782006,11.369246151807834,2.1866068576719697,6.73938569752763,22.737733166503904,-12.311423697122711,3.909599490282013,-2.5858064977134143,-2.4192623975800305,1.7350359660823171,2.4808558022103657,3.833119462176067,-22.649997618140244,-13.189176233803352,-9.079213408119656,7.259844818376065,-0.5260287166537173,-16.215640629402646,18.146419986263737,1.1297796254226546,27.852966723575044,33.02863389942193,35.52062179890376,1577399411.0,-27.69021942911841,-51.12590479777783,7.0376015
40585,1577399411.25,0.8114591773056395,-3.443679519578887,8.887743723799543,-0.6926834168969124,0.5282426394578883,15.422629562452364,1.7053723239805636,-2.700951448468464,18.811242443847654,-15.912497915872711,4.001152224657012,-0.1444002477134145,-1.5952877882050305,14.766041825457316,-2.0662633384146343,-25.46375553782393,-79.93149175876525,-15.996793421303352,-8.90291800213675,7.873352831196581,-1.578086149961158,-14.98296945442378,17.046636956793204,-0.6401577689137783,27.70919819091263,32.98071105520113,35.616467487345375,1577399411.0,-27.69021942911841,-51.12590479777783,7.0376015
40586,1577399411.26,1.7978702612900144,-0.1444696318835745,9.20138414128001,-1.7988045838890998,-1.5068287716749231,5.697382418897675,4.635875156011814,32.7571751384456,5.889736083984375,5.358254037252286,3.2382127715320124,1.1068204554115857,7.682055961794969,-3.788645674542683,2.2367151772103657,-13.653452803448932,-100.95810308689023,16.992708531821645,-9.255508814102562,7.464347489316236,-3.381613178488186,-15.599305041913214,-4.032537774725275,-1.6726212489433638,27.90088956779585,33.12447958786354,35.66439033156618,1577399411.0,-27.69021942911841,-51.12590479777783,7.0376015
40587,1577399411.27,-0.6944936669326407,-0.781327273485137,8.186242637373761,-3.934432464748476,0.363042724907107,16.13370745551877,-4.914595266351467,-1.2213348224919014,13.524845178222655,1.9097677091272869,3.5433885527820124,1.3204435022865857,0.9987063524199696,-0.7979230182926829,2.8165491615853657,-18.07850163157393,-75.75058355564025,63.89822610994665,-9.960690438034188,7.873352831196581,-2.179261826136828,-13.750298279444912,-3.849240603146853,-34.56395782702874,27.75712103513344,33.02863389942193,35.76023602000779,1577399411.0,-27.69021942911841,-51.12590479777783,7.0376015
40588,1577399411.28,-1.829345253846703,-0.0774319853991995,10.106392368819073,2.1899353819312117,-1.861170617378048,10.380440866163305,-3.50201628685928,-23.91836656077315,2.7820623291015623,3.1304708341272867,5.465995974657012,2.1139005335365857,3.073901664919969,6.770436356707317,1.9315393959603653,-31.84192936594893,-45.41611089939025,10.889192906821648,-9.608099626068377,7.873352831196581,-1.8786739880489929,-16.421085825232456,-4.032537774725275,-3.4425586432797965,27.852966723575044,33.12447958786354,35.76023602000779,1577399411.0,-27.69021942911841,-51.12590479777783,7.0376015
40589,1577399411.29,0.7611809424423583,2.007917660596893,14.523694431807352,0.6552521177710553,1.8809665774461692,13.150532186964083,11.133738461675875,19.39274147145341,1.1827356201171877,8.410011849752287,-6.710517697217988,1.7171720179115857,-1.9920163038300305,-5.375559737042683,3.5794886147103657,5.694691727801067,2.465969178734756,1.2151206411966462,-9.431804220085471,7.668850160256405,-2.0289679070929103,-16.421085825232456,13.563990696803195,-3.737548209002536,27.75712103513344,32.88486536675951,35.76023602000779,1577399411.0,-27.69021942911841,-51.12590479777783,7.0376015
40590,1577399411.3,0.3541666602157958,-1.0303242461413868,9.1582885113972,1.9146021910132427,1.3063581790086696,13.926253524854708,-5.024728542718655,-10.156495418195028,4.7381250854492185,-2.4237283846227133,-4.086005978467988,0.5269864710365855,4.355639946169969,7.197682450457317,-2.0052281821646343,15.368763993426068,39.72793206935975,2.679964391196646,-8.726622596153845,8.077855502136751,-2.329555745180745,-16.010195433572836,15.030368069430567,-3.737548209002536,27.75712103513344,33.02863389942193,35.616467487345375,1577399411.0,-27.69021942911841,-51.12590479777783,7.0376015
40591,1577399411.31,2.7699161353134527,-0.1444696318835745,10.295534299971417,2.6496221006812117,0.4612049929735137,9.508951461866426,1.843038919439548,2.089846073504192,8.016984259033203,5.053078256002286,2.0480272246570124,2.6937345179115857,2.478808891482469,8.647267411394816,0.7718714272103658,25.576893876238568,48.33388910060975,-11.541227015053355,-9.608099626068377,7.055342147435894,-2.780437502312504,-16.421085825232456,15.763556755744258,-3.737548209002536,27.75712103513344,33.148441009973936,35.71231317578699,1577399411.0,-27.69021942911841,-51.12590479777783,7.0376015
40592,1577399411.32,2.5759858008407965,-2.1244744048327933,11.46869311344798,2.4293555479468365,-0.5204176876905482,7.725271225050018,-7.533851882562405,-15.916944612530964,13.299790222167967,-7.214988150247714,1.651298709032012,1.6561368616615857,1.6700930711699695,4.298512528582317,3.8236292397103657,11.615101884051068,52.60635003810975,-1.9587074838033536,-10.4895766559829,6.441834134615387,-2.630143583268586,-12.312181908636234,16.496745442057946,-4.032537774725275,27.61335250247102,33.12447958786354,35.616467487345375,1577399411.0,-27.69021942911841,-51.12590479777783,7.0376015
40593,1577399411.33,1.5608442969345455,3.274450338819549,8.605227927901105,0.2961218687476178,2.9415979128953884,11.63979093940549,-7.356680959710842,-3.4359713581364324,15.617377429199218,16.466652474752287,11.294853396532012,3.7618497522865857,5.362720024294969,10.890309403582316,2.0536097084603657,8.044545243426068,16.259914491234756,-16.637662561928355,-9.784395032051282,6.441834134615387,-2.930731421356421,-12.312181908636234,19.429500187312687,-2.5575899461115803,27.852966723575044,33.17240243208434,35.80815886422859,1577399411.0,-27.69021942911841,-51.12590479777783,7.0376015
40594,1577399411.34,0.3661376685165771,-2.339952554246856,9.479111533858136,4.095719903415587,-3.3599408566358613,9.420366000440644,7.269496982183688,1.5391796916682536,12.260706701660157,-1.0504373689977131,4.153740115282012,-0.1749178258384145,4.660815727419969,6.953541825457317,3.0301722084603657,-17.681773115948932,-8.245700743140244,0.5437339224466463,-9.255508814102562,7.464347489316236,-3.0810253404003385,-15.599305041913214,18.32971715784216,-2.2626003803888417,27.852966723575044,32.789019678317906,35.52062179890376,1577399411.0,-27.69021942911841,-51.12590479777783,7.0376015
40595,1577399411.35,-1.6737221459365468,3.2002300873547056,14.336946702315169,-2.7516968446312884,1.742102881157107,14.936606625440646,-1.5363767238709976,-5.6003296589176825,10.194510668945313,2.1539083341272867,16.635429568407012,4.219613424161586,0.5104251024199695,0.6974383098323171,4.311910489710366,-7.031138350323933,-20.635837461890244,-7.909635218178353,-8.726622596153845,7.259844818376065,-2.0289679070929103,-13.133962691955478,18.696311500999,-2.852579511834319,27.90088956779585,32.98071105520113,35.856081708449395,1577399411.0,-27.69021942911841,-51.12590479777783,7.0376015
40596,1577399411.36,-0.3449402245498282,-0.2976985381335745,15.548412742354229,-3.7764151551781633,-4.700693786323361,12.992514877393772,4.185765243902439,2.9565470744807545,13.627795849609374,-16.248191275247713,-7.442939572217988,-2.2195955602134143,12.076587211794967,4.206959794207317,1.2906702553353655,0.2625628215510671,-27.776950743140244,7.043978063071647,-8.726622596153845,7.668850160256405,-2.0289679070929103,-13.133962691955478,-1.099783029470529,-32.3515360841082,27.852966723575044,33.12447958786354,35.76023602000779,1577399411.0,-27.69021942911841,-51.12590479777783,7.0376015
40597,1577399411.37,0.0908044775986083,-0.6783766020984182,10.846200681807352,-1.4875583680687874,-1.3559940670850794,11.405159176710178,1.11400451392197,-1.84143305247237,5.6311623046875,2.4285665372522867,12.485038943407012,4.952035299161586,6.156177055544969,-3.697092940167683,4.495015958460366,-1.4159039753239329,-19.201511290015244,7.227083531821647,-9.431804220085471,8.077855502136751,-2.930731421356421,-14.777524258593967,-3.665943431568431,-38.84130653000845,27.70919819091263,32.789019678317906,35.52062179890376,1577399411.0,-27.69021942911841,-51.12590479777783,7.0376015
40598,1577399411.38,-0.0552418236709219,-0.513176687547637,10.307505308272198,0.1500755674780866,0.7772396121141383,11.436283798292209,1.5425666110899383,11.91086128346513,6.49307490234375,5.022560677877286,8.456718630907012,1.3814786585365857,4.782886039919969,2.497975419207317,1.6873987709603655,5.450551102801067,1.0621605849847562,18.335481969321645,-8.374031784188034,7.668850160256405,-2.0289679070929103,-12.723072300295856,-4.032537774725275,-41.4962126215131,27.90088956779585,32.98071105520113,35.66439033156618,1577399411.0,-27.69021942911841,-51.12590479777783,7.0376015
40599,1577399411.39,1.017360520079077,0.2864866669445494,6.510301475264385,1.294503961032774,1.991099853813357,6.822657199171112,-3.703129226312405,-18.426067952374712,7.211335400390625,23.668800912252287,-5.215156369092988,1.9613126429115848,0.3273196336699695,6.709401200457317,3.1217249428353657,0.7508440715510671,21.50893792873476,11.621614781821648,-9.431804220085471,6.0328287927350415,-2.329555745180745,-13.133962691955478,-4.032537774725275,-40.02126479289941,27.61335250247102,33.17240243208434,35.856081708449395,1577399411.0,-27.69021942911841,-51.12590479777783,7.0376015
40600,1577399411.4,-0.8118095482802969,1.0430543915539243,10.230890855147198,3.3678825987280865,-3.36712346161633,9.994974398878146,2.552919711675876,3.73226841237138,12.169727038574218,10.424172006002289,0.3390428496570121,-1.1819979039634143,4.386157524294969,-0.5537823932926829,-0.0521031821646341,11.981312821551068,12.964016053734756,-10.412076624428352,-9.608099626068377,7.873352831196581,-2.780437502312504,-13.133962691955478,-4.032537774725275,-40.02126479289941,27.70919819091263,33.17240243208434,35.616467487345375,1577399411.0,-27.69021942911841,-51.12590479777783,7.0376015
40601,1577399411.41,0.2943116187118895,-2.153204824754668,6.321159544112042,-1.954427691799256,1.991099853813357,9.420366000440644,-6.102119289788967,0.5814990276057537,12.4498486328125,2.3675313810022867,2.1090623809070124,2.5106290491615857,1.2123293992949695,-1.0420636432926829,-0.0521031821646341,11.950795243426068,23.55361566310976,-1.6535317025533538,-10.13698584401709,7.259844818376065,-2.930731421356421,-16.421085825232456,-2.5661604020979016,-38.54631696428571,27.70919819091263,32.98071105520113,35.66439033156618,1577399411.0,-27.69021942911841,-51.12590479777783,7.0376015
40602,1577399411.42,-0.5005633324599844,0.2146606171398619,13.503764524580792,0.3583711119116803,-2.5243644772413303,9.018140121534394,-1.6896056301209976,-5.621877473859088,15.459360119628906,-6.146872915872714,0.0643846465320121,-2.8909822789634143,7.590503227419969,6.984059403582317,-0.7845250571646342,-0.1646832721989328,8.935695741234756,-18.499234827553355,-9.255508814102562,7.055342147435894,-3.0810253404003385,-16.421085825232456,-2.5661604020979016,-40.02126479289941,27.61335250247102,33.17240243208434,35.52062179890376,1577399411.0,-27.69021942911841,-51.12590479777783,7.0376015
40603,1577399411.43,1.831389084532202,-3.764502542039824,6.251727695967511,2.4963931944312114,-1.2985332272413297,9.178551632764862,8.105073361578219,15.14782192799638,11.09712469482422,5.968605599752286,14.132988162157012,3.7923673304115857,0.1747317430449695,2.650563309832317,2.0841272865853657,10.394398759051068,15.832668397484756,2.863069859946646,-9.608099626068377,7.873352831196581,-2.479849664224669,24.66795334072978,-2.5661604020979016,-32.3515360841082,27.70919819091263,32.98071105520113,35.66439033156618,1577399411.0,-27.69021942911841,-51.12590479777783,7.0376015
40604,1577399411.44,-0.3353634179092032,2.434085556104705,11.626710423018292,-1.6072684510765998,1.0453901980516382,12.607048410108614,-2.2139357936952164,-15.117281258038776,11.635820068359374,1.1468282560022869,3.0245897246570124,-1.0294100133384143,4.172534477419969,-2.384837080792683,0.9854944740853658,2.337758134051067,7.714992616234756,-0.0971352181783536,-10.13698584401709,7.668850160256405,-3.231319259444269,25.28428892821921,-3.48264625999001,-2.70508472897295,27.852966723575044,32.88486536675951,35.616467487345375,1577399411.0,-27.69021942911841,-51.12590479777783,7.0376015
40605,1577399411.45,0.3038884253525146,-0.7837214751452932,8.09765717594798,-2.8187344911156638,-1.2530433956983609,10.198481539991429,4.923179355230563,15.957062089129192,8.202534887695313,1.6351095060022869,0.3695604277820121,0.5269864710365855,0.7850833055449695,7.502858231707317,1.5042933022103655,14.849965165301068,-7.177585508765244,-6.078580530678353,-9.079213408119656,6.850839476495728,-3.531907097532104,-14.777524258593967,15.39696241258741,-4.032537774725275,27.852966723575044,32.88486536675951,35.66439033156618,1577399411.0,-27.69021942911841,-51.12590479777783,7.0376015
40606,1577399411.46,-0.5699951806045157,-1.154822732469512,7.7433153302448545,2.38865411972418,0.6551353274461695,7.030952743604706,2.8833195407774386,16.189299650164347,5.4779333984375,4.259621224752286,3.4823533965320124,0.4049161585365854,2.341479789919969,9.364430497332316,-0.8760777915396342,11.889760087176068,15.619045350609756,18.182894078696645,-9.608099626068377,5.010315438034185,-3.682201016576021,-13.750298279444912,16.680042613636363,5.8496126769864745,27.75712103513344,33.12447958786354,35.66439033156618,1577399411.0,-27.69021942911841,-51.12590479777783,7.0376015
40607,1577399411.47,1.7571688330673585,-1.7246427275866991,4.118494016768292,0.6193390928687116,-3.32881623505383,4.272832431104705,-2.860370241937405,-16.982364351300493,6.452373474121093,-2.9120096346227133,2.9635545684070124,0.4964688929115854,-0.8018307569550305,0.117604325457317,1.3211878334603655,-0.9886578815739328,17.389064881859756,13.605257359946648,-9.431804220085471,8.486860844017091,-3.231319259444269,-13.750298279444912,16.680042613636363,-2.4100951632502112,27.75712103513344,32.98071105520113,35.616467487345375,1577399411.0,-27.69021942911841,-51.12590479777783,7.0376015
40608,1577399411.48,1.4124037940048582,1.570975857618378,7.604451633955792,1.5913849668921494,2.2556591372606234,7.308680136182831,2.8354355075743136,-1.5098361225407295,8.70172593383789,18.816505990377287,-2.285468869092988,-0.4648348180259145,1.0139651414824693,0.2091570598323171,1.0770472084603655,7.052723954363568,10.095363709984756,-8.443692835365853,-6.7873731303418765,7.873352831196581,-1.8786739880489929,-9.025058775359255,-3.299349088411588,3.6371909340659343,27.78108245724384,33.05259532153234,35.736274597897385,1577399411.0,-27.69021942911841,-51.12590479777783,7.0376015
40609,1577399411.49,0.241639182188452,3.303180758741424,11.753603111006573,-0.939286187893006,1.4931059085008571,8.759566342237518,-0.4254671535584977,-13.015172200421588,9.22485899658203,-2.3321756502477133,-5.245673947217988,0.0387052210365854,2.188891899294969,10.096852372332316,0.1310022865853658,1.9105120403010671,17.846828553734756,-9.984830530678352,-6.7873731303418765,7.873352831196581,-1.8786739880489929,-14.777524258593967,16.863339785214784,0.6872952768385466,27.61335250247102,33.12447958786354,35.616467487345375,1577399411.0,-27.69021942911841,-51.12590479777783,7.0376015
40610,1577399411.5,0.9144098486923584,2.1946653900890807,8.88295532047923,-1.3343294618187873,0.8777960818407008,6.803503585889862,3.6734060886290014,8.420115262957317,11.501744775390623,0.9637227872522866,16.421806521532012,1.8087247522865848,-0.7713131788300305,-1.1641339557926829,2.1146448647103657,3.924672196551067,20.41030511623476,-12.426236780678352,-9.079213408119656,8.486860844017091,-2.329555745180745,-16.421085825232456,17.229934128371625,-1.6726212489433638,27.75712103513344,32.83694252253871,35.66439033156618,1577399411.0,-27.69021942911841,-51.12590479777783,7.0376015
40611,1577399411.51,-1.9466611351943592,-0.9369503813952932,11.145475889326883,-1.6910655091820683,0.5473962527391383,12.872804794385958,1.6742477023985325,9.22217281910966,11.17373914794922,-13.318503775247711,17.886650271532012,1.4425138147865857,0.3578372117949695,-4.551585127667683,0.0089319740853658,10.363881180926068,28.07021722560976,6.921907750571647,-9.431804220085471,8.486860844017091,-3.231319259444269,-16.421085825232456,14.297179383116884,-1.6726212489433638,27.565429658250217,33.12447958786354,35.856081708449395,1577399411.0,-27.69021942911841,-51.12590479777783,7.0376015
40612,1577399411.52,-0.147418587586938,-0.9584981963367,6.20144946110423,-0.0654025819359749,-2.0407357418897667,12.250312362745332,-1.7662200832459976,-12.220297249249713,13.374010473632811,-8.359397329935213,-1.2936475800304876,0.5269864710365856,-0.4966549757050305,9.242360184832316,-2.1272984946646343,-0.8971051471989329,19.43374261623476,2.893587438071646,-9.519951923076924,7.771101495726494,-2.104114866614869,-16.421085825232456,14.297179383116884,-1.6726212489433638,27.733159613023037,32.98071105520113,35.76023602000779,1577399411.0,-27.69021942911841,-51.12590479777783,7.0376015
40613,1577399411.53,-0.2707199730849844,0.9424979218273618,10.91323832829173,-0.5562139222680066,0.9603960391160916,7.33501635444455,3.1430904209043917,10.432441758318644,6.543353137207031,1.0857930997522869,4.214775271532012,1.3509610804115857,0.5104251024199693,-1.5150861042301829,2.1909388100228657,7.602040360613568,7.638698670922256,1.3524497427591464,-9.608099626068377,8.691363514957262,-1.8786739880489929,-13.031240094040571,14.022233625749251,-1.5988738575126793,27.565429658250217,32.90882678886992,35.664390331566175,1577399411.0,-27.69021942911841,-51.12590479777783,7.0376015
40614,1577399411.54,1.0963691748642332,3.0110881562023617,6.890979539229229,3.0159349546851177,1.3542422122117943,5.314310153272674,0.6136163669493138,-11.892291621808306,8.372523205566406,11.919533334127289,-6.008613400342988,-0.1138826695884145,-3.0296139600800305,6.221119950457317,-2.5545445884146343,2.703969071551067,12.140041444359756,1.7644370474466462,-9.079213408119656,7.668850160256405,-2.930731421356421,-15.393859846083402,10.081344436813186,2.0147483225908704,27.565429658250217,32.789019678317906,35.52062179890376,1577399411.0,-27.69021942911841,-51.12590479777783,7.0376015
40615,1577399411.55,1.963070175840796,2.1539639618664244,8.195819444014386,2.663987310642149,2.632745898735232,6.264808212354706,2.437998031988376,-6.548433516339557,7.548917834472656,3.832375131002287,-14.584052853467988,-0.1749178258384145,-7.302074897580031,-2.201731612042683,1.5958460365853655,-0.3783063190739328,8.142238709984756,-11.693814905678352,-8.90291800213675,8.691363514957262,-1.578086149961158,-16.215640629402646,14.847070897852149,3.1947065854818257,27.94881241201665,32.98071105520113,35.80815886422859,1577399411.0,-27.69021942911841,-51.12590479777783,7.0376015
40616,1577399411.56,1.6410500525497802,-1.2098893706531062,5.429319425703839,0.6121564878882428,3.408467236625857,10.634226242139864,0.9727466159727512,14.57321352955888,6.87614716796875,-1.9354471346227131,4.840385623094512,0.7558683069740856,1.1207766649199695,1.0636492473323171,-1.1812535727896345,8.349721024676068,-0.7688941025152439,-2.263883265053354,-9.431804220085468,8.282358173076918,-2.6301435832685867,-15.599305041913214,16.863339785214784,0.6872952768385466,27.852966723575044,33.12447958786354,35.66439033156618,1577399411.0,-27.69021942911841,-51.12590479777783,7.0376015
40617,1577399411.57,0.7228737158798583,-0.4820520659656058,11.02816000797923,3.3978101194800394,-2.71590061005383,5.252060910108612,-0.8935335781190451,-4.299081056622761,8.158242156982421,2.3370138028772867,-6.283271603467988,-1.2430330602134143,-4.219799506955031,1.7045183879573171,2.0078333412728657,-5.078013350323933,-12.197727110327744,-0.6617104134908538,-8.374031784188034,7.668850160256405,-1.4277922309172344,-15.804750237743024,15.030368069430567,-0.935147334636517,27.90088956779585,33.148441009973936,35.688351753676585,1577399411.0,-27.69021942911841,-51.12590479777783,7.0376015
40618,1577399411.58,-1.4965512230849842,-0.8028750884265432,12.050484116865947,-2.4069318055687874,0.027854492485232,15.307707882764864,0.06055578345322,12.023388761492471,7.48906279296875,-17.346824087747713,10.806572146532012,2.7242520960365857,-3.853588569455032,-17.033274580792682,1.4432581459603655,0.5372210246760671,2.679592225609756,11.530062047446648,-10.13698584401709,7.259844818376065,-4.13308277370778,-10.463175146167934,16.680042613636363,-3.8850429918639056,27.70919819091263,33.12447958786354,35.66439033156618,1577399411.0,-27.69021942911841,-51.12590479777783,7.0376015
40619,1577399411.59,0.0429204443954833,1.1412166596203306,8.8518306988972,-1.5689612245140998,5.522547302543826,15.149690573194553,-2.3384342800233413,-5.854115034894245,6.971915234375,-6.665671743997714,3.818046755907013,2.7242520960365857,-5.409985053830031,4.420582841082317,-0.5709020102896342,-6.451304365948933,16.351467225609756,15.192171422446648,-9.608099626068377,7.055342147435894,-3.0810253404003385,-10.668620341997745,16.496745442057946,-4.032537774725275,27.94881241201665,32.98071105520113,35.616467487345375,1577399411.0,-27.69021942911841,-51.12590479777783,7.0376015
40620,1577399411.6,-0.6944936669326407,3.629989285352752,6.868234623457745,1.2657735411108997,0.0853153323289825,4.646327890089081,2.8533920200254856,-0.1607034870426826,3.1483751831054687,5.632912240377288,-4.986274533155488,0.1760343225990855,-2.922802436642531,-3.5902814167301838,-0.4335729087271343,2.124135087176068,34.18899163967225,-4.125455530678353,-9.78439503205128,6.032828792735044,-2.930731421356428,-12.620349702380947,18.054771400474525,-2.778832120403634,27.90088956779585,33.12447958786354,35.59250606523497,1577399411.0,-27.69021942911841,-51.12590479777783,7.0376015
40621,1577399411.61,0.864131613829077,3.386977816846893,6.012307529951886,-2.6607171815453508,6.774714770805544,9.099542977979706,5.933532455816501,-16.88180788157393,7.745242370605468,4.015480599752286,-11.044013790967988,-1.7923494664634143,-1.2595944288300305,-8.640940596417684,-2.6155797446646343,11.859242509051068,64.75234613185975,-13.799527796303352,-10.13698584401709,5.623823450854701,-2.630143583268586,-13.133962691955478,19.429500187312687,-2.852579511834319,27.70919819091263,33.02863389942193,35.66439033156618,1577399411.0,-27.69021942911841,-51.12590479777783,7.0376015
40622,1577399411.62,1.0820039649032958,1.3112049774914245,9.807117161299542,-0.8267587098656624,-1.4685215451124232,5.062918978956269,-5.817209292230374,0.1457543254573162,2.430114685058593,3.1304708341272867,-15.072334103467988,-1.8533846227134143,-4.921703803830031,4.603688309832317,-0.6929723227896342,18.756215165301068,64.41665277248475,-22.619107874428355,-9.255508814102562,5.41932077991453,-2.479849664224669,-13.133962691955478,17.229934128371625,-29.40164042688081,27.70919819091263,33.12447958786354,35.616467487345375,1577399411.0,-27.69021942911841,-51.12590479777783,7.0376015
40623,1577399411.63,3.2284057532333748,-3.133630404588653,6.747327439619855,3.954462005466368,-6.359875536811643,1.5913265717297056,-5.750171645745999,3.2965237102229423,7.560888842773437,-10.327781118997711,1.3003465605945124,0.0844815882240856,-8.919506538205031,-0.5842999714176829,0.6192835365853658,14.178578446551068,64.50820550685975,-1.8976723275533536,-8.814770299145298,6.339582799145299,-2.4047027047027107,-13.133962691955478,17.229934128371625,-29.40164042688081,27.70919819091263,32.98071105520113,35.66439033156618,1577399411.0,-27.69021942911841,-51.12590479777783,7.0376015
40624,1577399411.64,2.401209079649389,4.0573542816906425,10.417638584639386,1.108953332370665,3.197777490532107,8.547679495313691,-0.8743799648377956,0.3504585674006767,16.073472845458983,-13.257468618997711,9.707939334032012,-0.9073397008384144,-10.185986030392533,-0.2943829792301837,-1.2728063071646345,-2.148325850323933,19.159084413109756,-8.703092249428352,-8.55032719017094,7.873352831196581,-1.578086149961158,-12.106736712806422,17.779825643106893,-28.959156078296704,27.70919819091263,32.93278821098032,35.59250606523497,1577399411.0,-27.69021942911841,-51.12590479777783,7.0376015
40625,1577399411.65,2.109116477110327,2.582526059034393,7.403338694502667,0.968892535251524,0.497118017875857,9.5759891083508,-2.359982094964748,7.436098380633098,11.008539233398436,5.724464974752286,5.649101443407012,-0.4800936070884145,-9.072094428830033,4.756276200457317,0.0699671303353658,-8.862193037823932,-12.518161680640244,8.173128453696647,-8.55032719017094,7.873352831196581,-1.578086149961158,-12.106736712806422,-3.1160519168331664,-28.959156078296704,27.90088956779585,32.98071105520113,35.80815886422859,1577399411.0,-27.69021942911841,-51.12590479777783,7.0376015
40626,1577399411.66,0.145871115782202,0.0590375092297057,12.572420078780013,4.13163292831793,-0.2067772702100794,9.283896505811738,-3.937760989007717,-7.898763252667682,19.498378320312497,-14.539206900247711,3.1161424590320124,-4.386343607088414,-10.842113960080033,7.960621903582317,-0.8760777915396342,-21.25232975657393,-41.02157964939025,2.008577672446646,-8.55032719017094,7.873352831196581,-1.578086149961158,-13.133962691955478,-1.099783029470529,-29.696629992603548,27.565429658250217,33.02863389942193,35.80815886422859,1577399411.0,-27.69021942911841,-51.12590479777783,7.0376015
40627,1577399411.67,1.8026586646103275,-2.128065707323028,8.317923728682354,3.188317474216368,0.3893789431688257,9.226435665967989,2.5457371066954075,0.4881251628596599,14.8248966796875,-15.363181509622716,14.255058474657012,-1.2582918492759143,-14.778881538205033,4.786793778582317,-2.6766149009146343,-24.54822819407393,-60.00351324314025,1.3066733755716462,-8.374031784188034,7.055342147435896,-2.630143583268583,-16.421085825232456,-4.032537774725275,-29.99161955832629,27.876928145685447,32.88486536675951,35.76023602000779,1577399411.0,-27.69021942911841,-51.12590479777783,7.0376015
40628,1577399411.68,-1.0560181176162344,-2.7158422148913868,9.424044895674545,3.037482769626524,0.7090048647996853,12.274254379346896,-0.0160586696717798,5.3196241130549735,10.52131919555664,-18.47597447837272,11.813652224657012,-1.0599275914634143,-13.253002631955033,5.580250809832316,-1.4253941977896345,-20.53516667063643,-69.99802007907775,9.287020055259148,-9.960690438034188,6.237331463675212,-3.682201016576021,-14.366633866934349,-1.4663773726273726,-30.72909347263313,27.517506814029414,33.05259532153234,35.688351753676585,1577399411.0,-27.69021942911841,-51.12590479777783,7.0376015
40629,1577399411.69,-0.4670445092177969,0.0135476776867369,9.689801279951888,0.5618782530249616,1.940821618950076,12.927871432569551,1.796351987066501,-3.8334088337223697,6.89530078125,-3.980124868997713,3.5739061309070124,0.8321622522865855,-12.429028022580033,4.908864091082317,0.5582483803353658,-24.79236881907393,-62.44491949314025,10.248323766196648,-9.960690438034188,6.237331463675212,-3.682201016576021,-16.421085825232456,-1.832971715784216,-29.40164042688081,27.70919819091263,33.02863389942193,35.616467487345375,1577399411.0,-27.69021942911841,-51.12590479777783,7.0376015
40630,1577399411.7,-0.0265114037490469,5.220936288526581,12.27314487126048,-0.1515938417015999,-1.3392346554639856,12.53282815864377,3.266391806402438,-4.5875823566715885,4.991910461425781,-3.4308084627477133,-1.919257931592988,-2.0975252477134143,-4.799633491330031,5.366627762957317,-3.1038609946646343,-25.18909733469893,-44.22592535251525,4.816194859946647,-9.960690438034188,6.237331463675212,-3.682201016576021,25.0788437323894,-2.5661604020979016,-1.6726212489433638,27.565429658250217,32.789019678317906,35.66439033156618,1577399411.0,-27.69021942911841,-51.12590479777783,7.0376015
40631,1577399411.71,-0.3018445946670161,-0.7154867278308401,7.3123590314167295,0.4266058592261335,0.0877095339891388,9.687319485548066,5.424764603033298,1.0292147380549723,5.230133526611328,-10.205710806497711,9.463798709032012,-0.2359529820884144,-10.231762397580033,-1.7439679401676829,-0.0521031821646341,-13.134653975323932,-0.0975073837652438,1.2456382193216462,-10.136985844017092,7.055342147435896,-2.479849664224669,-16.010195433572836,16.496745442057946,-2.70508472897295,27.80504387935424,32.93278821098032,35.56854464312457,1577399411.0,-27.69021942911841,-51.12590479777783,7.0376015
40632,1577399411.72,-0.6202734154677969,1.282474557569549,7.817535581709698,1.208312701267149,-3.455708923042111,9.47303843696408,-1.6776346218202165,-5.739193355206745,7.987056738281249,-7.642234243997714,-1.736152462842988,-1.7618318883384143,-3.975658881955032,-3.117258955792683,-4.568704744664634,-6.329234053448933,23.09585199123476,4.449983922446647,-10.13698584401709,6.850839476495728,-2.630143583268586,-16.215640629402646,17.41323129995005,-2.70508472897295,27.852966723575044,33.17240243208434,35.80815886422859,1577399411.0,-27.69021942911841,-51.12590479777783,7.0376015
40633,1577399411.73,-0.3353634179092032,-0.5275418975085745,10.048931528975324,-1.911332061916444,3.5401483279344506,6.973491903760956,2.2105488742735324,-0.4911033161442452,15.497667346191406,-11.945212759622711,-3.109443478467988,-0.1749178258384145,-16.91511200695503,-7.878001143292683,0.8939417397103658,-2.270396162823933,19.83047113185976,-9.252408655678352,-8.55032719017094,6.237331463675212,-1.8786739880489929,-16.421085825232456,17.229934128371625,-4.032537774725275,27.90088956779585,33.22032527630515,35.856081708449395,1577399411.0,-27.69021942911841,-51.12590479777783,7.0376015
40634,1577399411.74,2.298258408262671,3.944826803663299,8.9667523785847,-4.415666998439882,4.505011596977419,12.420300680616428,2.430815427007907,10.304351969500283,8.774749084472656,3.740822396627287,-8.724677853467988,-1.5482088414634143,-7.881908881955031,0.7889910442073171,-1.7610875571646345,1.6663714153010671,13.391262147484756,-3.393033655678354,-8.55032719017094,6.237331463675212,-1.8786739880489929,-16.421085825232456,19.79609453046953,-4.032537774725275,28.044658100458264,33.12447958786354,35.66439033156618,1577399411.0,-27.69021942911841,-51.12590479777783,7.0376015
40635,1577399411.75,0.0357378394150145,-6.9775211699695125,8.8518306988972,2.927349493259337,-4.54147937592297,5.455568051221895,-0.4984903041932647,-2.1407082599919014,11.713631622314452,-12.921775259622711,6.595146365282012,0.5880216272865855,-11.544018256955033,6.175343583269816,-2.4935094321646343,-10.143931319073932,2.053981874047256,1.1540854849466464,-8.726622596153845,6.441834134615387,-2.930731421356421,-16.010195433572836,19.79609453046953,-3.737548209002536,27.565429658250217,33.07655674364274,35.59250606523497,1577399411.0,-27.69021942911841,-51.12590479777783,7.0376015
40636,1577399411.76,0.3637434668564208,0.3511301117687687,10.945560050703838,-1.9783697084008185,4.789921594536013,11.055605734327363,-1.5244057155702164,-3.1989453937809635,12.926294763183591,-19.376243033060213,10.63872546684451,0.0234464319740856,-5.440502631955031,-8.885081221417684,3.7625940834603657,-15.606577803448932,-19.537204649390244,-5.559781702553353,-9.255508814102564,7.055342147435894,-2.479849664224666,-16.421085825232456,19.429500187312687,4.227170065511412,27.90088956779585,33.12447958786354,35.76023602000779,1577399411.0,-27.69021942911841,-51.12590479777783,7.0376015
40637,1577399411.77,-0.4239488793349844,0.8084226288586118,8.179060032393291,1.1077562315405869,1.5050769168016382,9.200099447706268,1.1858305637266575,4.8503605876643485,8.20971749267578,12.529884896627289,11.569511599657012,1.9918302210365848,-8.888988960080031,16.108815262957318,-4.446634432164634,-16.491587569073932,-27.624362852515244,1.2761557974466462,-9.784395032051282,5.623823450854701,-5.335434126059131,-16.010195433572836,19.79609453046953,2.1622431054522404,27.75712103513344,33.12447958786354,35.856081708449395,1577399411.0,-27.69021942911841,-51.12590479777783,7.0376015
40638,1577399411.78,-1.905959706971703,-1.892236843797637,8.583680112959698,-1.7389495423851935,0.4420513796922632,8.74520113227658,1.4396159397032198,4.498412943621379,13.845668200683592,-29.85903111899772,-3.475654415967988,-2.5552889195884143,-14.412670600705033,-1.1030987995426829,0.1310022865853658,-41.058237959698936,-37.42050543064025,3.290315953696646,-10.13698584401709,6.850839476495728,-2.930731421356421,-16.421085825232456,13.93058503996004,-3.147569077557058,27.90088956779585,33.02863389942193,35.76023602000779,1577399411.0,-27.69021942911841,-51.12590479777783,7.0376015
40639,1577399411.79,0.825824387266577,-0.7873127776355275,10.520589256026105,0.4828695982398057,-0.6556900814893769,12.549587570264864,-4.7625634609315455,2.0383707378108324,14.877569116210935,-5.322898306497713,-1.0037305878429876,-0.9378572789634144,-11.482983100705033,-3.300364424542683,-0.7082311118521342,-22.33570378001143,-53.80844488376525,7.150789586509148,-9.872542735042732,6.135080128205129,-2.7052905427905447,-13.442130485700195,11.639370395229772,-2.3363477718195265,27.733159613023037,33.00467247731153,35.35289184413095,1577399411.0,-27.69021942911841,-51.12590479777783,7.0376015
40640,1577399411.8,-0.6513980370498281,-3.017511624071074,13.2571617535847,-0.7525384584008187,-4.3966301754835175,12.43227168891721,-3.044723769769436,-11.827648176984088,12.840103503417968,-10.602439322122711,3.4518358184070124,-0.8768221227134145,-4.219799506955031,2.559010575457317,-0.4793492759146341,-35.015757490948936,-67.96860113376525,11.804720250571648,-8.90291800213675,7.055342147435894,-3.381613178488186,-11.079510733657369,13.563990696803195,-0.7876525517751477,27.70919819091263,33.17240243208434,35.52062179890376,1577399411.0,-27.69021942911841,-51.12590479777783,7.0376015
40641,1577399411.81,-0.3042387963271719,0.0781911225109557,13.858106370283917,-0.4341096376000374,-1.516405578315548,10.29903800971799,3.1778063449766574,7.230197037859661,13.88636962890625,-13.410056509622711,0.0643846465320121,0.1302579554115854,-10.262279975705033,1.3993426067073171,-1.2422887290396345,-27.84412663157393,-71.41708746189025,6.403108922446647,-11.018462873931622,5.010315438034185,-2.780437502312504,-16.421085825232456,13.563990696803195,-0.7876525517751477,27.90088956779585,33.12447958786354,35.52062179890376,1577399411.0,-27.69021942911841,-51.12590479777783,7.0376015
40642,1577399411.82,-1.7287887841201404,5.34304057319455,16.54918903629954,-4.075690362697695,6.283903430473513,16.143284262159398,4.022959531011813,12.212530692644815,16.0507279296875,-4.285300650247714,-3.078925900342988,-0.3275057164634145,-10.872631538205033,-8.122141768292684,1.2906702553353655,-23.23597233469893,-67.63290777439025,12.933870641196648,-10.313281249999996,7.464347489316236,-3.381613178488186,-16.421085825232456,17.229934128371625,-0.4926629860524088,27.61335250247102,33.02863389942193,35.856081708449395,1577399411.0,-27.69021942911841,-51.12590479777783,7.0376015
40643,1577399411.83,-0.0672128319717036,-3.0881405730456843,10.55410807926829,-1.5474134095726937,-1.1177710018995335,13.904705709913303,-0.6672815212342799,-9.073119166974324,12.319364642333984,-10.663474478372711,5.740654177782012,0.8169034632240856,-3.014355171017531,6.236378739519817,-0.1741734946646343,-29.202158858136432,-65.84762945407775,-6.1090981088033525,-10.489576655982903,6.8508394764957234,-2.6301435832685893,-16.421085825232456,16.130151098901102,-18.192036929416737,27.75712103513344,32.93278821098032,35.59250606523497,1577399411.0,-27.69021942911841,-51.12590479777783,7.0376015
40644,1577399411.84,-0.2491721581435782,-0.8411823149890432,13.06323141911204,1.0574779966773054,-3.403036486518674,9.623873141553924,5.6725644748594695,13.706512528582316,10.965443603515624,-4.498923697122714,-1.369941525342988,-0.6631990758384145,-1.5647702100800305,-3.697092940167683,0.6803186928353658,-20.79456608469893,-62.04819097751525,9.393831578696648,-11.018462873931622,5.828326121794872,-2.179261826136828,-16.010195433572836,-3.299349088411588,-34.71145260989011,27.75712103513344,32.98071105520113,35.80815886422859,1577399411.0,-27.69021942911841,-51.12590479777783,7.0376015
40645,1577399411.85,-0.1701635033584219,-1.8323818022937304,12.459892600752667,-0.7046544251976936,-3.3407872433546117,10.330162631300022,1.6886129123594698,-1.1279609577458076,8.398859423828124,-0.1654276033727134,1.224052615282012,1.0152677210365857,29.01384307116997,-50.968821455792686,0.7718714272103658,-9.106333662823932,-43.52402105564025,13.086458531821648,-9.431804220085471,6.0328287927350415,-2.0289679070929103,-16.010195433572836,-4.032537774725275,3.637190934065935,27.75712103513344,33.17240243208434,35.616467487345375,1577399411.0,-27.69021942911841,-51.12590479777783,7.0376015
40646,1577399411.86,0.1386885108017333,0.9664399384289244,12.033724705244854,-0.0151243470726941,0.7568888980028102,14.65887923286252,3.352583066168064,1.8276809917170829,6.836642840576172,-0.6231912752477134,-4.269111447217988,0.5880216272865855,19.202441703982476,-18.757517744855186,1.3669642006478655,-3.3995465534489324,-7.238620665015244,4.388948766196647,-10.66587206196581,7.055342147435894,-3.0810253404003385,-13.955743475274724,8.065075549450551,0.0973161453930693,27.852966723575044,32.98071105520113,35.71231317578699,1577399411.0,-27.69021942911841,-51.12590479777783,7.0376015
40647,1577399411.87,-1.6497801293349843,-2.638030660936309,10.566079087569072,-2.7540910462914447,-6.608872509467893,6.717312326124237,0.9535930026915012,-2.35858061106612,16.737863806152344,-4.743064322122714,5.404960818407012,2.1139005335365857,3.8368411180449695,-13.462717940167684,2.0841272865853657,-0.6224469440739329,-4.308933165015244,-2.294400843178354,-10.66587206196581,7.055342147435894,-3.0810253404003385,-12.312181908636234,-3.665943431568431,3.637190934065935,27.78108245724384,32.88486536675951,35.66439033156618,1577399411.0,-27.69021942911841,-51.12590479777783,7.0376015
40648,1577399411.88,-0.8980008080459219,-2.667958181688262,13.345747215010478,-4.997458001857851,1.1243988528367943,19.53826221626096,-4.244218801507717,-3.766371187237995,22.42169854736328,-10.632956900247711,-5.886543087842988,0.3133634241615854,24.10051299304497,-53.715403487042686,1.7789515053353655,-4.101450850323933,-17.248386290015244,-9.008268030678352,-11.371053685897431,5.41932077991453,-2.479849664224669,-12.312181908636234,-3.665943431568431,3.637190934065935,27.75712103513344,32.98071105520113,35.76023602000779,1577399411.0,-27.69021942911841,-51.12590479777783,7.0376015
40649,1577399411.89,-2.102284243104516,-1.2529850005359182,17.11661482975657,0.1021915342749616,0.3391007083055445,21.42728732612424,2.976693405523533,2.0754808635432536,21.63640040283203,-2.6068338533727133,-3.475654415967988,1.5645841272865857,-23.69001435070503,-3.849680830792683,0.0699671303353658,-7.244761397198933,-32.50717535251525,-14.165738733803352,-10.4895766559829,4.396807425213674,-2.329555745180745,-15.599305041913214,-2.1995660589410586,-35.59642130705832,27.852966723575044,33.12447958786354,35.616467487345375,1577399411.0,-27.69021942911841,-51.12590479777783,7.0376015
40650,1577399411.9,-0.9267312279677968,-3.553812795946074,16.032041477705793,0.0854321226538678,-9.989485253608516,11.682886569288302,0.3957440158750949,0.9142930583674724,17.64526623535156,-1.1725076814977131,-2.438056759717988,1.8697599085365848,56.75432158679497,-61.588938643292686,1.1685999428353655,-7.397349287823933,-40.89950933689025,-6.383756311928353,-11.194758279914527,6.0328287927350415,-2.630143583268586,-16.421085825232456,-2.5661604020979016,-34.41646304416737,27.75712103513344,33.12447958786354,35.616467487345375,1577399411.0,-27.69021942911841,-51.12590479777783,7.0376015
40651,1577399411.91,-1.3816295433974843,0.9472863251476747,12.902819907881574,-0.189901068264101,0.9639873416063264,15.938580020216037,3.195762857427829,5.118511173601848,9.51336029663086,11.522804818502289,-6.252754025342988,2.2817472132240857,12.168139946169967,11.393849442644816,0.9549768959603656,0.1404925090510671,-18.347019102515247,7.5780356802591475,-11.194758279914527,6.441834134615387,-3.531907097532104,-15.393859846083402,-4.032537774725275,-35.59642130705832,27.733159613023037,33.10051816575314,35.56854464312457,1577399411.0,-27.69021942911841,-51.12590479777783,7.0376015
40652,1577399411.92,-0.6585806420302969,-3.510717166063262,7.180677940108136,-1.5186829896508185,-5.2417833615186735,9.84653389594846,0.4388396457579074,-5.171767561749713,9.859322436523437,5.999123177877286,-11.806953244092988,2.4190763147865857,5.515307914919969,-4.490549971417683,-1.0897008384146345,10.730092118426068,3.503566834984756,9.821077672446648,-10.66587206196581,5.010315438034185,-3.0810253404003385,-16.215640629402646,-3.1160519168331664,-30.72909347263314,27.852966723575044,32.98071105520113,35.80815886422859,1577399411.0,-27.69021942911841,-51.12590479777783,7.0376015
40653,1577399411.93,0.0572856543564208,0.6935009491711118,9.991470689131573,4.126844524997617,5.0221591555711695,16.851967953565644,5.030918429937595,-0.900511800030964,8.8489693359375,17.900978646627287,-12.661445431592988,1.0152677210365857,-11.788158881955033,-9.892161299542684,1.4127405678353655,0.5982561809260671,23.24843988185976,0.8183921255716463,-9.431804220085471,5.21481810897436,-2.329555745180745,-9.641394362848688,0.549891514735265,-39.28379087859256,27.565429658250217,33.12447958786354,35.80815886422859,1577399411.0,-27.69021942911841,-51.12590479777783,7.0376015
40654,1577399411.94,0.8054736731552489,-0.6939389128894343,9.960346067549542,0.5594840513648054,2.783580603325076,15.070681918409395,-2.0008518459413103,0.1026586955745037,11.25514200439453,17.153297982564787,-12.325752072217988,1.1220792444740857,-9.957104194455033,28.01067073170732,-3.0733434165396343,18.542592118426068,17.083889100609756,6.952425328696647,-10.489576655982903,6.646336805555558,-3.381613178488183,20.55904942413356,0.3665943431568428,-39.431285661453934,27.637313924581424,32.88486536675951,35.80815886422859,1577399411.0,-27.69021942911841,-51.12590479777783,7.0376015
40655,1577399411.95,-0.7375892968154532,-3.472409939500762,17.619397178389384,0.7366549742163677,-2.4178225033643765,12.683662863233614,-2.08464890404678,-4.740811262921588,12.259509600830077,-3.888572134622713,-4.116523556592988,0.7100919397865855,2.417773735232469,13.804738114519816,0.9702356850228658,16.116444657488568,22.24135980373476,-9.588102015053352,-10.842167467948716,6.850839476495728,-2.630143583268586,16.655590703367142,-1.8329717157842156,-37.36635870139476,27.565429658250217,32.88486536675951,35.56854464312457,1577399411.0,-27.69021942911841,-51.12590479777783,7.0376015
40656,1577399411.96,1.709284799864233,-5.359040847703887,8.600439524580791,2.0223412657202737,-4.358322948921018,6.592813839796112,2.1387228244688448,7.800017032976848,6.785167504882812,5.144630990377286,4.519951052782012,3.0904630335365857,12.168139946169967,8.906666825457316,-1.2422887290396345,38.65367610280106,31.36611566310976,4.175325719321647,-10.13698584401709,4.396807425213674,-2.630143583268586,20.96993981579318,-2.5661604020979016,3.0472118026204567,27.565429658250217,32.83694252253871,35.616467487345375,1577399411.0,-27.69021942911841,-51.12590479777783,7.0376015
40657,1577399411.97,2.542466977598609,-3.2114419585437304,10.51101244938548,5.137197625583555,-2.023976330268673,7.943143576124237,4.37011877173447,-10.283388106183308,4.805162731933594,6.731545052877286,-7.168281369092988,-0.3580232945884145,16.62370635241997,-5.955393721417683,3.9151819740853657,28.094594071551068,53.12514886623475,6.372591344321647,-9.255508814102562,7.873352831196581,-3.982788854663856,-14.777524258593967,-2.5661604020979016,3.0472118026204567,27.75712103513344,33.02863389942193,35.76023602000779,1577399411.0,-27.69021942911841,-51.12590479777783,7.0376015
40658,1577399411.98,3.58873310308689,2.9416563080578304,11.923591428877666,-0.0749793885765999,3.7292902590867945,11.690069174268771,-0.0878847194764664,-5.492590584210651,7.163451367187499,29.039894662252287,-13.470161251905488,0.2675870569740854,12.137622368044967,-0.1570538776676829,1.8399866615853653,35.113637040301064,65.72890863185975,-12.578824671303352,-10.313281249999996,6.850839476495726,-2.930731421356428,-16.421085825232456,13.197396353646353,3.3422013683431966,27.70919819091263,33.12447958786354,35.616467487345375,1577399411.0,-27.69021942911841,-51.12590479777783,7.0376015
40659,1577399411.99,1.3932501807236082,2.0127060639172054,11.25082076237376,3.414569531101133,0.7580859988328887,7.973071096876191,1.9364127841856424,2.900283335467082,6.951564520263672,30.687843881002287,-4.391181759717988,0.7711270960365855,14.472217094607467,8.525197098894816,0.6345423256478656,39.73705012623856,89.91408929592225,-9.847501429115852,-10.4895766559829,7.259844818376065,-2.630143583268586,-14.777524258593967,3.849240603146854,2.014748322590871,27.75712103513344,32.81298110042831,35.616467487345375,1577399411.0,-27.69021942911841,-51.12590479777783,7.0376015
40660,1577399412.0,2.465852524473609,-2.8475233061999807,7.362637266280011,2.750178570407774,-4.082989758003049,1.840323544385956,-3.595390151605373,0.0715340739924725,9.56962403564453,12.651955209127289,6.534111209032012,0.6795743616615855,9.970874321169967,6.984059403582317,1.9925745522103653,41.03404719655106,91.36367425685977,-6.780484827553353,-11.018462873931622,6.237331463675212,-2.479849664224669,-7.9978327962102,13.74728786838162,1.4247691911453937,27.565429658250217,32.98071105520113,35.66439033156618,1577399412.0,-27.690223174994788,-51.125975915479415,7.0212665
40661,1577399412.01,2.662177060606421,-3.939279263231231,4.314818552901104,1.1005736265601178,-0.6281567623975794,3.1523460541515806,3.81466398657822,-2.253235738019245,6.983886242675781,16.863380990377287,9.891044802782012,0.7100919397865855,13.175220024294967,4.237477372332317,1.9010218178353653,33.404652665301064,78.39370355373475,-2.904752405678354,-10.4895766559829,6.441834134615387,-3.531907097532104,-9.641394362848688,16.680042613636363,-3.2950638604184275,27.852966723575044,32.88486536675951,35.616467487345375,1577399412.0,-27.690223174994788,-51.125975915479415,7.0212665
40662,1577399412.02,1.0424996375107176,1.2417731293468937,9.360598551680402,-0.3670719911156624,2.24488522978992,9.889629525831271,-6.85389861107803,-5.535686214093464,15.82567297363281,19.579445443502287,-1.6903760956554876,-0.2969881383384145,11.679858696169967,1.1552019817073171,3.2132776772103657,19.976918290301068,57.21450433498475,-15.691617640053352,-9.167361111111113,6.339582799145299,-2.2544087856587867,-9.8468395586785,16.496745442057946,-1.6726212489433638,27.58939108036062,33.17240243208434,35.76023602000779,1577399412.0,-27.690223174994788,-51.125975915479415,7.0212665
40663,1577399412.03,2.877655210020484,7.873711727979706,9.615581028487044,0.9186143003882428,5.1167301211473415,10.810200064161346,3.684179996099704,5.161606803484661,13.346477154541017,20.556007943502287,-7.961738400342988,0.2523282679115854,9.299487602419967,8.265797684832316,1.0770472084603655,24.874989579363564,36.11159906154725,1.9780600943216464,-8.90291800213675,6.646336805555557,-2.179261826136828,-12.517627104466044,15.580259584165834,-3.8850429918639056,27.852966723575044,32.93278821098032,35.64042890945578,1577399412.0,-27.690223174994788,-51.125975915479415,7.0212665
40664,1577399412.04,0.0429204443954833,-0.7765388701648245,9.335459434248762,2.9417147032202737,1.167494482719607,8.807450375440643,-1.8763533596131847,-5.65300209544112,5.614402893066406,7.860695443502286,12.393486209032012,2.8463224085365857,11.557788383669967,7.930104325457317,1.5042933022103655,16.925160477801068,20.74599847560976,-8.855680140053353,-8.90291800213675,6.646336805555557,-2.179261826136828,-16.215640629402646,13.74728786838162,-3.5900534261411665,27.75712103513344,33.02863389942193,35.52062179890376,1577399412.0,-27.690223174994788,-51.125975915479415,7.0212665
40665,1577399412.05,1.7188616065048583,-4.217006655809356,9.80232875797923,1.9983992491187117,-2.308886327827267,8.635067855909393,1.7221317356016572,6.954863846941692,10.805032092285156,-14.874900259622711,16.208183474657012,1.0152677210365857,6.522387993044969,4.481617997332317,1.0770472084603655,16.742055009051068,25.59829339748476,-0.4633461556783537,-8.90291800213675,6.646336805555557,-2.179261826136828,-15.599305041913214,13.563990696803195,3.3422013683431966,27.565429658250217,32.98071105520113,35.76023602000779,1577399412.0,-27.690223174994788,-51.125975915479415,7.0212665
40666,1577399412.06,0.2655811987900145,1.6272395966320494,11.648258237959698,2.080999206394102,-0.6018205441358612,9.48740364692502,0.1682948581602517,-4.825805421857136,8.820238916015624,7.372414193502286,6.381523318407012,1.8087247522865848,10.306567680544967,5.122487137957317,2.3435267006478657,16.909901688738568,24.53017816310976,-6.154874475990853,-9.960690438034188,6.237331463675212,-1.578086149961158,-15.188414650253591,13.563990696803195,1.2772744082840235,27.90088956779585,33.148441009973936,35.71231317578698,1577399412.0,-27.690223174994788,-51.125975915479415,7.0212665
40667,1577399412.07,3.056023233702124,-0.3120637480945125,6.250530595137432,0.3535827085913678,5.843370325004763,5.735689645460175,5.492999350347751,-15.579362178448932,2.6216508178710938,13.124977670064789,-8.022773556592988,0.7863858850990856,10.367602836794967,-0.2791241901676829,3.6100061928353657,17.535512040301068,46.56386956935975,7.379671422446647,-10.4895766559829,8.282358173076922,-2.780437502312504,-14.777524258593967,16.496745442057946,-3.147569077557058,27.733159613023037,33.17240243208434,35.66439033156618,1577399412.0,-27.690223174994788,-51.125975915479415,7.0212665
40668,1577399412.08,-0.5747835839248282,9.037293734815645,10.003441697432354,-1.6312104676781622,1.430856665336795,5.987080819776581,-6.94966667748428,-5.296266048077839,4.477157104492187,30.687843881002287,-3.231513790967988,-0.4800936070884145,12.351245414919967,6.495778153582317,-0.5403844321646342,16.619984696551068,39.72793206935975,-7.726529749428353,-10.66587206196581,5.010315438034185,-1.578086149961158,-16.421085825232456,16.496745442057946,-4.032537774725275,27.61335250247102,33.17240243208434,35.616467487345375,1577399412.0,-27.690223174994788,-51.125975915479415,7.0212665
40669,1577399412.09,-0.1988939232802969,-4.025470522996856,7.700219700362042,-0.2521503114281624,-3.381488671577268,0.4492923798351744,2.483487863531345,4.242233365984661,9.811438403320311,-2.3932108064977133,0.2474901152820121,0.2523282679115854,8.139819633669969,8.113209794207316,1.8094690834603653,24.676625321551068,32.83095941310975,-12.090543421303352,-10.66587206196581,5.010315438034185,-1.578086149961158,-16.421085825232456,16.496745442057946,-4.032537774725275,27.70919819091263,32.98071105520113,35.616467487345375,1577399412.0,-27.690223174994788,-51.125975915479415,7.0212665
40670,1577399412.1,1.7021021948837645,0.358312716749237,0.7426696759479796,-3.129980706935976,3.7675974856492944,6.073272079542206,2.921626767339939,1.4577768352229412,8.202534887695313,12.529884896627289,17.703544802782012,3.7313321741615857,9.116382133669967,-6.291087080792683,4.342428067835366,19.915883134051068,21.14272699123476,-2.782682093178354,-10.4895766559829,5.623823450854701,-3.231319259444269,-16.421085825232456,16.496745442057946,-4.032537774725275,27.852966723575044,33.12447958786354,35.52062179890376,1577399412.0,-27.690223174994788,-51.125975915479415,7.0212665
40671,1577399412.11,-1.3397310143447498,-0.0798261870593562,9.012242210127669,-0.2641213197289442,0.3019905825731226,7.774352359083221,-0.643339504632717,-2.6003949787419014,10.366893188476562,-0.3790506502477111,3.4976121855945124,2.4801114710365857,5.927295219607469,1.674000809832317,0.8634241615853657,7.708851884051068,7.348781678734756,0.0859702505716462,-9.255508814102564,5.41932077991453,-2.780437502312504,-14.674801660679062,7.056941105769232,-3.0738216861263736,27.876928145685447,33.07655674364273,35.56854464312457,1577399412.0,-27.690223174994788,-51.125975915479415,7.0212665
40672,1577399412.12,-0.6561864403701406,3.88018335883908,7.82232398503001,1.1484576597632428,7.131450818168825,10.131443893507052,3.812269784918064,6.461658304949505,11.473014355468749,-2.9120096346227133,-6.435859494092988,-0.9683748570884144,5.637378227419969,-4.246409346417683,3.6405237709603657,7.922474930926067,1.5504418349847562,7.562776891196647,-10.66587206196581,7.873352831196581,-1.8786739880489929,-12.928517496125668,18.146419986263737,-3.8850429918639056,27.70919819091263,33.12447958786354,35.616467487345375,1577399412.0,-27.690223174994788,-51.125975915479415,7.0212665
40673,1577399412.13,-0.802232741639672,2.446056564405487,11.169417905928448,1.0981794248999617,-1.037565246284298,9.37248196723752,-4.2370361965272485,-9.601040633038776,9.622296472167967,6.029640756002286,-2.193916134717988,1.5035489710365857,7.163257133669969,1.7960711223323171,-3.5921422446646343,0.9034319621760672,-0.5552710556402439,3.839632359946646,-10.66587206196581,7.873352831196581,-1.8786739880489929,-13.133962691955478,19.429500187312687,-4.032537774725275,27.70919819091263,32.83694252253871,35.616467487345375,1577399412.0,-27.690223174994788,-51.125975915479415,7.0212665
40674,1577399412.14,0.4834535498642338,-0.1217247161120906,10.083647453047588,-0.8219703065453499,-2.08383137177258,11.127431784132051,-1.531588320550685,1.4649594402034098,10.869675537109377,-0.8825906893102134,-2.956855587842988,0.8016446741615856,2.341479789919969,-2.781565596417683,3.1217249428353657,3.192250321551067,-11.053317930640244,-0.8600746713033537,-10.489576655982903,6.646336805555553,-2.479849664224666,-14.777524258593967,-4.032537774725275,-27.631703032544383,27.852966723575044,33.02863389942193,35.76023602000779,1577399412.0,-27.690223174994788,-51.125975915479415,7.0212665
40675,1577399412.15,1.419586398985327,2.2401552216320493,13.98978746159251,2.3359816832007425,2.413676446830935,9.675348477247285,-0.7774147976014665,-1.374563728741902,9.380482104492186,4.076515756002286,0.8883592559070121,0.4354337366615854,0.8003420946074693,6.205861161394817,-0.4946080649771341,4.336659501238567,-7.986301329077744,-0.7685219369283537,-10.13698584401709,4.805812767094015,-2.630143583268586,-13.750298279444912,-4.032537774725275,-31.17157782121724,27.61335250247102,32.93278821098032,35.616467487345375,1577399412.0,-27.690223174994788,-51.125975915479415,7.0212665
40676,1577399412.16,3.1721420142197028,0.2122664154797057,7.513471970869855,4.603290655368712,-0.2762091183546107,8.620702645948455,-0.5308120266053727,1.0555509563166912,8.863334545898438,3.1304708341272867,-5.672920040967988,1.2288907679115857,2.738208305544969,4.908864091082317,2.1146448647103657,0.9339495403010672,-15.264743711890244,2.313753453696646,-10.313281249999996,5.010315438034185,-3.381613178488186,-14.777524258593967,-3.299349088411588,-28.5166717297126,27.61335250247102,32.98071105520113,35.66439033156618,1577399412.0,-27.690223174994788,-51.125975915479415,7.0212665
40677,1577399412.17,2.154606308653296,3.231354708936737,10.161459007002666,3.746166461032774,2.812311023246951,8.558453402784393,-4.055076870355373,2.7458573283870047,9.490615380859374,12.072121224752289,-1.614082150342988,0.1912931116615854,-2.7549557569550305,4.359547684832317,-0.5403844321646342,-4.620249678448933,-19.293064024390244,6.128450719321647,-10.313281249999996,5.010315438034185,-3.381613178488186,-15.599305041913214,-4.032537774725275,-31.171577821217245,27.61335250247102,33.02863389942193,35.616467487345375,1577399412.0,-27.690223174994788,-51.125975915479415,7.0212665
40678,1577399412.18,-0.9889804711318592,1.0143239716320498,7.329118443037823,4.004740240329649,0.0972863406297633,8.046094247510956,1.32469426001572,0.8328902019221599,1.4772224243164065,-3.140891470560212,9.067070193407012,-0.7852693883384145,-2.6023678663300305,2.986256669207317,-1.3643590415396345,-7.519419600323933,-14.044040586890244,9.607454625571648,-9.43180422008547,6.237331463675212,-3.2313192594442626,-13.750298279444912,-3.849240603146853,-29.54913520974218,27.733159613023037,33.22032527630515,35.76023602000779,1577399412.0,-27.690223174994788,-51.125975915479415,7.0212665
40679,1577399412.19,-2.1884755028701406,3.832299325635955,3.048285874678448,-0.0474460694848035,2.1598910708543726,8.29149991767697,0.6052366611387665,-4.728840254620807,7.038952880859375,-0.5011209627477134,7.327568240282012,0.9542325647865856,-2.526073921017531,-2.216990401105183,-0.5098668540396343,-6.436045576886432,-13.967746641577744,1.6728843130716462,-9.431804220085471,5.623823450854701,-2.630143583268586,5.766995324387152,-3.665943431568431,-29.99161955832629,27.75712103513344,33.17240243208434,35.52062179890376,1577399412.0,-27.690223174994788,-51.125975915479415,7.0212665
40680,1577399412.2,-0.6202734154677969,1.1005152313976745,6.912527354170636,-1.8826016419945688,-1.724701122749142,7.588801730421112,3.77635676001572,0.9837249065120036,17.207127331542967,-6.238425650247714,-16.842353634717988,-4.050650247713414,1.2123293992949695,-6.748850752667683,-3.2259313071646343,-3.246958662823933,-36.74911871189025,-9.038785608803352,-9.079213408119656,7.259844818376065,-2.630143583268586,27.13329569068752,-4.032537774725275,-29.99161955832629,27.75712103513344,33.17240243208434,35.616467487345375,1577399412.0,-27.690223174994788,-51.125975915479415,7.0212665
40681,1577399412.21,-1.6330207177138905,-0.3288231597156058,12.325817307783916,-2.8570417176781637,2.1395403567430447,13.806543441846896,0.8817669528868137,4.084216056414348,13.388375683593749,-1.3250955721227131,-11.867988400342988,-0.9683748570884144,-2.0530514600800305,-14.927561690167684,2.1451624428353657,-22.01526920969893,-66.41220464939025,-2.996305140053354,-9.079213408119656,7.259844818376065,-2.630143583268586,27.13329569068752,-4.032537774725275,-29.99161955832629,27.61335250247102,32.98071105520113,35.66439033156618,1577399412.0,-27.690223174994788,-51.125975915479415,7.0212665
40682,1577399412.22,0.54330859136814,0.1416374665050968,12.262370963789776,2.1336716429175397,-2.492042754829221,10.041661331251191,-0.2351281215760763,-0.005080379132527,16.176423516845702,-13.425315298685211,-1.3089063690929876,1.2136319788490857,-5.104809272580031,0.3464861613948171,-1.7000524009146338,-33.96290104563643,-111.68503179782772,7.257601109946647,-9.43180422008547,6.646336805555553,-2.4798496642246657,4.739769345238097,-3.1160519168331664,-13.324709094991547,27.733159613023037,32.88486536675951,35.736274597897385,1577399412.0,-27.690223174994788,-51.125975915479415,7.0212665
40683,1577399412.23,1.0317257300400144,-2.0622251616687306,11.665017649580792,3.5258999082983986,-1.571472216499142,17.237434420850803,5.217666159429782,11.511029606219036,8.549694128417968,-17.316306509622713,2.3837205840320124,0.7406095179115855,-9.529858100705033,-16.941721846417682,3.4879358803353657,-37.609751631573936,-109.25888433689023,28.345247594321645,-10.4895766559829,6.0328287927350415,-2.0289679070929103,-16.421085825232456,-4.032537774725275,-1.6726212489433638,27.61335250247102,33.12447958786354,35.52062179890376,1577399412.0,-27.690223174994788,-51.125975915479415,7.0212665
40684,1577399412.24,-0.3377576195693594,2.6136506806164244,14.66016392643626,-3.1467401185570694,5.8697065432664814,21.817542196729708,0.1802658664610325,-3.998608748273152,0.0981622680664062,-7.581199087747714,-0.942695431592988,0.8626798304115855,-2.9075436475800305,-12.180979658917684,-2.4629918540396343,-39.623911787823936,-78.37509527439025,27.368685094321645,-9.960690438034188,6.646336805555557,-2.780437502312504,-16.421085825232456,-4.032537774725275,-1.6726212489433638,28.044658100458264,32.98071105520113,35.66439033156618,1577399412.0,-27.690223174994788,-51.125975915479415,7.0212665
40685,1577399412.25,-1.447470089051781,3.264873532178924,11.994220377852276,1.572231353610899,0.908920703422732,10.811397164991428,6.651792953863375,-3.095994722394245,5.561730456542969,-3.766501822122713,-6.374824337842988,-0.3580232945884145,-3.914623725705032,-0.0960187214176829,-3.9583531821646334,-21.83216374094893,-32.84286871189025,13.269564000571648,-9.960690438034188,6.646336805555557,-2.780437502312504,-9.641394362848688,16.680042613636363,-3.8850429918639056,27.70919819091263,33.12447958786354,35.52062179890376,1577399412.0,-27.690223174994788,-51.125975915479415,7.0212665
40686,1577399412.26,-2.394376845643578,3.4779574799328303,8.176665830733135,-4.134348303371522,2.722528460991092,7.922792862012908,1.373775394048923,-2.9284006061833074,5.8262897399902345,-2.3932108064977133,-5.825507931592988,0.9237149866615856,-2.831249702267531,-14.561350752667684,-1.7000524009146345,-2.636607100323933,7.074123475609756,-3.4998451791158534,-8.90291800213675,6.646336805555557,-3.381613178488186,-9.53867176493378,15.855205341533468,-2.926326903265004,27.90088956779585,33.12447958786354,35.64042890945578,1577399412.0,-27.690223174994788,-51.125975915479415,7.0212665
40687,1577399412.27,1.9702527808212644,-4.09250816948123,3.0004018414753237,4.708635528415586,-1.8515938107374232,3.2959981537609555,2.483487863531345,2.6189646403987235,10.31661495361328,-13.928855337747711,-5.672920040967988,-3.5623689977134143,-8.766918647580031,3.932301591082317,-2.1883336509146343,-0.4698590534489328,-11.297458555640244,-5.773404749428353,-10.13698584401709,6.0328287927350415,-3.231319259444269,-16.215640629402646,13.74728786838162,-3.8850429918639056,27.61335250247102,32.83694252253871,36.28738730643664,1577399412.0,-27.690223174994788,-51.125975915479415,7.0212665
40688,1577399412.28,1.4435284155868895,-1.7749209624499809,5.566986021162824,2.0510716856421487,-0.7981450802686733,2.843494039991424,-4.272949221429592,-1.5660998615544013,12.811373083496091,-5.383933462747714,-16.384589962842988,0.9847501429115856,-7.424145210080031,-14.042551924542684,0.8634241615853658,-10.082896162823932,-22.466892149390244,-2.569059046303354,-10.313281249999996,7.055342147435894,-2.780437502312504,-16.215640629402646,13.74728786838162,-3.8850429918639056,27.61335250247102,33.17240243208434,35.616467487345375,1577399412.0,-27.690223174994788,-51.125975915479415,7.0212665
40689,1577399412.29,0.7085085059189208,3.892154367139862,13.150619779707744,-0.6926834168969124,6.326999060356326,15.78894241645627,-0.2674498439881852,-1.74566498606612,10.26633671875,-6.497825064310213,-19.192207150342988,-1.6397615758384143,-6.294994819455031,-14.744456221417684,-2.4935094321646343,-22.28992741282393,-31.316989805640244,-8.550504358803353,-10.13698584401709,7.259844818376065,-2.329555745180745,-16.215640629402646,14.113882211538462,-35.15393695847422,27.58939108036062,32.83694252253871,35.76023602000779,1577399412.0,-27.690223174994788,-51.125975915479415,7.0212665
40690,1577399412.3,-0.2276243432021719,-2.239396084520293,10.283563291670635,-0.7417645509301161,-3.364729259956174,11.895970517042208,3.1718208408262667,3.517987363787395,12.172121240234372,-14.020408072122711,0.6442186309070121,1.9613126429115848,-2.617626655392531,-10.182078291730184,-1.4406529868521338,-31.826670576886432,-32.12570562595275,5.838533727134148,-9.079213408119656,5.623823450854701,-2.630143583268586,-16.11291803148774,11.272776052072926,-19.003258235154263,27.75712103513344,32.93278821098032,35.664390331566175,1577399412.0,-27.690223174994788,-51.125975915479415,7.0212665
40691,1577399412.31,-1.724000380799828,0.9185559052257992,13.628263010908915,-2.1699058412133185,1.301569775688357,19.80880700385861,-1.529194118890529,-1.8294620441715888,12.849680310058591,-17.713035025247713,5.771171755907012,1.0763028772865857,-4.311352241330031,-19.10846989329268,-2.6460973227896343,-13.348277022198932,-20.361179258765244,2.191683141196646,-11.371053685897431,6.237331463675212,-3.0810253404003385,-16.010195433572836,9.16485857892108,-1.3776316832206257,27.61335250247102,32.88486536675951,35.66439033156618,1577399412.0,-27.690223174994788,-51.125975915479415,7.0212665
40692,1577399412.32,-0.0815780419326406,-0.9537097930163868,9.98668228581126,1.7494022764624615,-1.8731416256788291,13.090677145460177,3.8769132297422826,5.913386124773723,13.357251062011718,-15.668357290872711,-1.095283322217988,-0.0528475133384145,-2.7854733350800305,-1.0420636432926829,-4.324564119664634,-5.230601240948933,-14.318698790015244,7.654329625571647,-10.313281249999996,7.055342147435894,-2.780437502312504,-16.010195433572836,9.16485857892108,-1.3776316832206257,27.94881241201665,32.98071105520113,35.66439033156618,1577399412.0,-27.690223174994788,-51.125975915479415,7.0212665
40693,1577399412.33,1.0508793433212644,-2.440509023973418,11.918803025557354,-1.0637846742211312,3.2696035403367945,9.338963143995333,1.949580893316501,-9.414292903546588,12.437877624511716,-14.569724478372711,-18.276679806592988,-1.1209627477134143,-5.593090522580031,-11.143382002667684,1.2601526772103655,-14.385874678448932,-13.952487852515244,2.344271031821646,-10.13698584401709,6.441834134615387,-2.630143583268586,-15.18841465025359,9.898047265234768,-4.032537774725275,27.61335250247102,32.83694252253871,35.616467487345375,1577399412.0,-27.690223174994788,-51.125975915479415,7.0212665
40694,1577399412.34,1.1262966956161864,-0.0331392546863094,10.093224259688212,1.8200312254370707,0.5234542361375758,10.264322085645722,-0.0160586696717795,0.9466147807795828,10.927136376953124,1.5130391935022864,-17.773139767530488,-0.3122469274009143,-3.334789741330031,-9.281809737042684,-1.0591832602896345,-11.639292647198932,-27.456516172827747,-9.984830530678352,-9.431804220085471,6.441834134615387,-3.8324949356199385,-15.393859846083402,13.380693525224777,-19.8144795408918,27.70919819091263,33.00467247731153,35.71231317578699,1577399412.0,-27.690223174994788,-51.125975915479415,7.0212665
40695,1577399412.35,1.831389084532202,-0.053489968797637,9.548543382002668,1.6368747984351175,-0.7430784420850794,5.608796957471894,-1.7542490749452164,2.56389800221513,13.03642803955078,-5.933249868997714,-5.062568478467988,-1.1514803258384143,-2.5108151319550305,-10.563548018292684,0.4056604897103658,-15.789683272198932,-42.76108160251525,4.266878453696647,-10.313281249999996,6.237331463675212,-2.780437502312504,-15.599305041913214,16.863339785214784,-34.12147347844463,27.565429658250217,32.83694252253871,35.66439033156618,1577399412.0,-27.690223174994788,-51.125975915479415,7.0212665
40696,1577399412.36,-0.6322444237685781,-1.0255358428210744,10.048931528975324,1.0407185850562115,-0.3839481930616419,12.975755465772677,0.7955756931211887,-3.440759761456745,11.195286962890624,-0.5316385408727134,-0.3933790253429878,2.8158048304115857,-1.4121823194550305,-15.263255049542684,-0.1741734946646341,-21.40491764719893,-50.11581793064025,4.633089391196647,-9.960690438034188,6.237331463675212,-2.479849664224669,-15.599305041913214,-4.032537774725275,-32.3515360841082,27.75712103513344,33.17240243208434,34.8497019798125,1577399412.0,-27.690223174994788,-51.125975915479415,7.0212665
40697,1577399412.37,0.2536101904892333,0.0877679291515807,8.935627757002667,0.6576463194312115,-1.4493679318311732,11.425509890821504,4.182173941412204,3.189981736345989,7.807491613769531,-9.839499868997711,-9.945380978467988,-1.1514803258384143,-1.3358883741425305,-7.435496260480183,-2.4935094321646343,-12.051279951886432,-28.646701719702747,7.303377477134147,-10.13698584401709,7.259844818376065,-3.231319259444269,-9.538671764933785,-3.940889188936064,-3.368811251849112,27.61335250247102,32.98071105520113,35.64042890945578,1577399412.0,-27.690223174994788,-51.125975915479415,7.0212665
40698,1577399412.38,1.04728804083103,-0.6029592498034964,15.959018327071025,-2.797186676174257,0.6718947390672633,13.667679745557834,7.219218747320407,2.4681299358088795,6.229712719726562,-4.956687368997713,-12.402046017530488,0.0539640100990855,-0.3745846632050305,-16.422923018292682,0.8939417397103658,-3.277476240948933,4.541164491234756,6.433626500571647,-9.255508814102562,6.237331463675212,-1.578086149961158,-1.629031725486053,-4.032537774725275,-29.99161955832629,27.75712103513344,33.12447958786354,35.616467487345375,1577399412.0,-27.690223174994788,-51.125975915479415,7.0212665
40699,1577399412.39,1.963070175840796,-0.5490897124499807,15.601085178877666,1.840381939548399,-0.0846729855421107,13.811331845167208,0.1060456149961887,-6.423935030011433,11.271901416015623,-6.543601431497714,-19.863593869092988,-1.2430330602134143,-0.4051022413300305,-3.330882002667683,-2.2493688071646343,-8.038218428448932,13.208156678734756,1.0014975943216462,-10.4895766559829,6.441834134615387,-1.7283800690050757,-14.777524258593967,-2.5661604020979016,-39.431285661453934,27.70919819091263,33.02863389942193,35.52062179890376,1577399412.0,-27.690223174994788,-51.125975915479415,7.0212665
40700,1577399412.4,2.1258758887314206,-0.1372870269031058,11.3034931988972,1.3950604307593364,0.6168281008836695,7.974268197706269,3.103586093511814,-0.6778510456364327,12.502521069335936,5.083595834127286,0.8578416777820121,3.0294278772865857,2.860278618044969,-6.474192549542683,0.5887659584603658,12.011830399676068,4.724269959984756,-10.961393030678352,-11.194758279914527,5.21481810897436,-2.630143583268586,-15.599305041913214,-3.665943431568431,-41.79120218723584,27.61335250247102,33.02863389942193,35.76023602000779,1577399412.0,-27.690223174994788,-51.125975915479415,7.0212665
40701,1577399412.41,1.0233460242294683,1.0310833832531436,10.441580601240949,2.5634308409155864,0.5569730593797633,11.42790409248166,0.3203266635801736,5.142453190203411,11.77947216796875,3.679787240377287,-5.398261837842988,0.4506925257240856,-0.1609616163300304,-5.345042158917683,-0.2504674399771345,2.337758134051067,1.1994896865472562,-2.7826820931783534,-11.194758279914527,6.032828792735041,-3.081025340400345,-16.215640629402646,-2.9327547452547447,-41.64370740437447,27.78108245724384,33.07655674364273,35.56854464312457,1577399412.0,-27.690223174994788,-51.125975915479415,7.0212665
40702,1577399412.42,-0.5029575341201407,-1.7773151641101368,11.413626475264383,2.261761431735899,-1.5786548214796106,11.366851950147678,-0.0615485012147477,-7.767082161359088,10.544064111328124,-8.771384634622713,0.4000780059070121,0.6490567835365855,2.280444633669969,-5.131419112042683,0.3446253334603658,-9.655650069073932,0.7569848037347561,-6.566861780678353,-10.842167467948716,4.805812767094015,-2.630143583268586,-15.599305041913214,-2.9327547452547447,-39.431285661453934,27.70919819091263,32.88486536675951,35.616467487345375,1577399412.0,-27.690223174994788,-51.125975915479415,7.0212665
40703,1577399412.43,3.610280918028296,-4.056595144578886,4.851119724776105,-1.1092745057640998,-2.2059356564405483,9.975820785596897,10.554341659918062,8.932474418230754,6.347028601074219,-1.2945779939977131,-6.313789181592988,0.2218106897865854,5.820483696169969,-4.673655440167683,-1.8221227134146345,0.8118792278010671,-0.7078589462652439,-15.844205530678352,-10.13698584401709,6.0328287927350415,-3.531907097532104,-15.599305041913214,-2.9327547452547447,-39.431285661453934,27.61335250247102,32.88486536675951,35.616467487345375,1577399412.0,-27.690223174994788,-51.125975915479415,7.0212665
40704,1577399412.44,0.8090649756454833,-1.6480282744616994,11.899649412276103,6.420489715427305,1.289598767387576,9.54965289008908,6.378853964605563,12.830234720965128,7.290344055175779,-0.1654276033727134,-19.283759884717988,-2.0364900914634143,-0.8628659132050305,-0.1875714557926829,-0.6319371665396342,19.427601884051068,13.269191834984756,16.168733922446645,-10.842167467948716,7.259844818376065,-2.329555745180745,-16.421085825232456,-3.665943431568431,-39.431285661453934,27.517506814029414,32.98071105520113,35.76023602000779,1577399412.0,-27.690223174994788,-51.125975915479415,7.0212665
40705,1577399412.45,0.992221402647437,-0.3970579070300589,8.073715159346417,-0.2880633363305061,-6.039052514350705,7.926384164503143,-2.1181677272889665,-11.85159019358565,3.229778039550781,9.798561654439789,-2.087104611280488,1.5951017054115857,3.501147758669969,-9.007151533917684,-1.2117711509146345,4.321400712176067,34.14321527248475,16.016146031821645,-11.194758279914527,7.055342147435896,-2.930731421356428,-16.421085825232456,-3.665943431568431,-39.431285661453934,27.805043879354244,33.17240243208434,35.66439033156618,1577399412.0,-27.690223174994788,-51.125975915479415,7.0212665
40706,1577399412.46,3.126652182676734,-0.139681228563262,11.746420506026103,1.04790119003668,1.4164914553758576,10.913150735548069,3.146681723394626,6.095345450945598,10.08677159423828,7.097755990377286,-16.140449337842988,-3.0740877477134143,6.736011039919969,0.3922625285823171,-0.7845250571646343,12.851063798113568,35.34865960842225,-7.360318811928354,-9.431804220085471,7.259844818376065,-2.630143583268586,23.02439177409129,-2.3828632305194803,-17.45456301510989,27.852966723575044,32.93278821098032,35.664390331566175,1577399412.0,-27.690223174994788,-51.125975915479415,7.0212665
40707,1577399412.47,1.4507110205673583,-1.5355007964343557,10.180612620283917,2.4485091612280865,-1.444579528510861,5.436414437940644,-2.1373213405702165,-16.335929903058307,15.875951208496092,11.065041146627289,4.764091677782012,2.4495938929115857,2.585620414919969,3.840748856707317,-0.7234899009146342,-2.087290694073933,8.508449647484756,-11.632779749428352,-9.431804220085471,7.259844818376065,-2.630143583268586,20.55904942413356,-3.299349088411588,3.932180499788673,27.852966723575044,33.17240243208434,35.616467487345375,1577399412.0,-27.690223174994788,-51.125975915479415,7.0212665
40708,1577399412.48,2.4586699194931403,0.5761850678234557,9.210960947920636,2.3311932798804302,1.9599752322313255,10.95026086128049,7.226401352300876,0.85204381520341,14.10903038330078,6.884132943502286,-0.7595899628429879,-2.1890779820884143,4.569262993044969,-0.9199933307926828,0.1920374428353658,3.833119462176067,-5.804294493140244,-29.577115686928355,-11.723644497863248,7.873352831196581,-2.479849664224669,-12.723072300295856,-4.032537774725275,-4.032537774725275,27.75712103513344,33.12447958786354,35.616467487345375,1577399412.0,-27.690223174994788,-51.125975915479415,7.0212665
40709,1577399412.49,2.40719458379978,-0.9692721038074026,11.510591642500714,2.6687757139624613,-2.373529772651485,10.41395968940549,4.777133053961032,21.049529020281533,8.207323291015625,5.266701302877287,-3.323066525342988,-0.3580232945884145,10.001391899294967,4.054371903582317,-3.2259313071646343,24.646107743426068,21.81411370998476,3.503939000571646,-10.225133547008546,5.930577457264956,-2.5549966237466246,-16.010195433572836,-4.032537774725275,4.227170065511412,27.92485098990625,32.98071105520113,35.76023602000779,1577399412.0,-27.690223174994788,-51.125975915479415,7.0212665
40710,1577399412.5,2.401209079649389,3.219383700635956,11.909226218916729,0.9389650144995714,1.582888470756717,6.491060269239472,-1.3975130275819352,-8.961788789777057,6.15429536743164,6.792580209127286,-5.215156369092988,-2.3721834508384143,4.401416313357469,-2.781565596417683,0.4666956459603656,11.020009110613568,39.75844964748475,4.053255406821646,-9.960690438034188,6.237331463675212,-3.0810253404003385,-16.11291803148774,6.8736439341908095,4.890896588387574,27.852966723575044,32.98071105520113,35.52062179890376,1577399412.0,-27.690223174994788,-51.125975915479415,7.0212665
40711,1577399412.51,1.9487049658798583,1.203465902784393,8.547767088057354,0.7941158140601179,2.469940185844607,11.405159176710178,6.263932284918063,7.759315604754192,13.939042065429687,14.421974740377289,3.4518358184070124,-0.6937166539634145,3.8978762742949695,6.282155106707317,-2.5850621665396343,14.788930009051068,28.83315667873476,-0.7990395150533537,-9.960690438034188,6.237331463675212,-3.0810253404003385,-16.215640629402646,17.046636956793204,-3.5900534261411665,27.565429658250217,32.88486536675951,35.80815886422859,1577399412.0,-27.690223174994788,-51.125975915479415,7.0212665
40712,1577399412.52,0.4068390967392333,-1.4445211333484185,7.683460288740948,0.3751305235327741,0.3199470950242945,7.677387191846893,-0.9090958889100602,-6.974601411847369,15.148113903808593,7.006203256002286,0.2474901152820121,-1.3956209508384143,4.050464164919969,4.176442216082317,-1.1507359946646345,8.105580399676068,9.485012147484756,-4.796842249428353,-9.960690438034188,7.055342147435894,-2.179261826136828,-16.010195433572836,16.496745442057946,-1.3776316832206257,27.75712103513344,32.83694252253871,35.66439033156618,1577399412.0,-27.690223174994788,-51.125975915479415,7.0212665
40713,1577399412.53,-0.1294620751357661,-0.0798261870593562,9.752050523115948,0.312881280368712,-0.6628726864698451,9.473038436964082,3.95472478369736,6.393423557635051,6.806715319824218,-1.035178579935213,-0.3476026581554876,-0.8920809117759144,5.698413383669969,1.0331316692073171,-0.6471959556021344,5.526845048113567,3.228908631859756,1.2761557974466475,-10.489576655982903,6.8508394764957234,-2.4798496642246657,-16.010195433572836,14.297179383116884,-3.4425586432797965,27.685236768802227,32.88486536675951,35.71231317578699,1577399412.0,-27.690223174994788,-51.125975915479415,7.0212665
40714,1577399412.54,1.9127919409775145,-2.926531960985137,9.13913489811595,5.426896026462461,-2.081437170112423,6.042147457960175,0.280822336187595,-11.186002132062214,5.154716174316406,2.7032247403772867,-4.635322384717988,-1.6092439977134143,2.646655571169969,0.4227801067073171,-1.0286656821646345,9.082142899676068,30.20644769435976,4.358431188071647,-8.55032719017094,7.873352831196581,-1.8786739880489929,-16.421085825232456,14.663773726273726,-2.852579511834319,27.75712103513344,32.83694252253871,35.66439033156618,1577399412.0,-27.690223174994788,-51.125975915479415,7.0212665
40715,1577399412.55,0.5241549780868896,1.3902136322765806,9.768809934737044,0.5499072447241804,1.1938307009813258,10.121867086866429,-5.7382006374452175,-3.917205891827839,0.9576806640625,9.447609506002289,2.9940721465320124,-0.8157869664634145,4.477710258669969,-11.875803877667684,-0.5709020102896342,14.575306962176068,47.32680902248475,-15.813687952553352,-8.55032719017094,7.873352831196581,-1.8786739880489929,-16.421085825232456,14.663773726273726,-2.852579511834319,27.75712103513344,32.88486536675951,35.616467487345375,1577399412.0,-27.690223174994788,-51.125975915479415,7.0212665
40716,1577399412.56,2.3090323157333743,1.0227036774425968,7.885770329024151,0.221901617282774,3.283968750297732,9.113908187940645,7.3604766452696255,5.616505118914349,5.406107348632812,9.172951302877289,-5.444038205030488,-0.8920809117759144,5.484790336794969,7.624928544207317,-2.8902379477896343,25.775258134051068,68.41445550685975,-7.848600061928353,-9.960690438034186,6.032828792735042,-2.4798496642246723,-16.421085825232456,13.93058503996004,-2.852579511834319,27.733159613023037,33.17240243208434,35.66439033156618,1577399412.0,-27.690223174994788,-51.125975915479415,7.0212665
40717,1577399412.57,1.4243748023056395,0.3607069184093932,8.198213645674542,3.1512073484839456,-0.2821946225050013,7.250022195509002,0.6112221652891575,-4.652225801495807,11.654973681640625,1.3299337247522869,-0.7901075409679879,-1.6092439977134143,1.7616458055449693,1.7808123332698171,-0.8913365806021343,22.158925126238568,65.91201410060975,-10.061124475990852,-10.13698584401709,8.895866185897432,-1.7283800690050757,-16.421085825232456,13.563990696803195,3.0472118026204567,27.75712103513344,32.93278821098032,35.664390331566175,1577399412.0,-27.690223174994788,-51.125975915479415,7.0212665
40718,1577399412.58,2.034896225645483,1.653575814893768,11.052102024580792,-1.7844393739281623,3.0852500125047637,8.132285507276581,-1.0838726101014664,9.966769535418257,8.978256225585938,2.9778829435022867,-6.557929806592988,-1.1209627477134143,3.501147758669969,-3.117258955792683,-0.7845250571646342,21.197621415301068,49.55459222560975,-8.672574671303353,-9.784395032051282,5.21481810897436,-2.930731421356421,-16.215640629402646,13.74728786838162,2.604727454036349,27.565429658250217,32.88486536675951,35.66439033156618,1577399412.0,-27.690223174994788,-51.125975915479415,7.0212665
40719,1577399412.59,2.8273769751572027,2.872224459913299,10.506224046065167,2.474845379489805,1.4452218752977322,9.585565914991424,-4.881076443109279,2.5758690105159108,12.289437121582033,1.9402852872522869,-1.614082150342988,-1.3651033727134143,1.9447512742949693,2.681080887957317,-0.6319371665396342,9.265248368426068,34.26528558498475,7.043978063071647,-9.784395032051282,5.21481810897436,-2.930731421356421,-16.421085825232456,13.563990696803195,2.457232671174979,27.852966723575044,33.12447958786354,35.616467487345375,1577399412.0,-27.690223174994788,-51.125975915479415,7.0212665
40720,1577399412.6,2.5448611792587648,1.634422201612518,8.127584696699932,3.4684390684546487,0.9208917117235133,6.714918124464081,5.145840109625095,-9.5723102131169,18.94292353515625,0.4907003263147867,-3.368842892530488,-1.9907137242759143,3.6232180711699695,1.2467547160823171,-2.3104039634146343,2.246205399676067,0.4823266006097561,-14.684537561928352,-9.343656517094017,6.748588141025641,-3.005878380878383,-13.955743475274724,16.496745442057946,0.3923057111158077,27.58939108036062,33.02863389942193,35.76023602000779,1577399412.0,-27.690223174994788,-51.125975915479415,7.0212665
40721,1577399412.61,2.4203626929306394,-2.210665664598418,7.851054404951886,3.6755375120581646,0.9568047366258576,8.378888278272676,1.4216594272520475,5.967255662127239,1.5945383056640623,0.2923360685022865,-0.0882032440929878,-1.4261385289634143,0.5867190477324695,3.047291825457317,-1.6542760337271345,5.755726884051067,22.836452577172253,6.830355016196648,-9.255508814102562,7.873352831196581,-1.8786739880489929,-16.421085825232456,19.429500187312687,-3.737548209002536,27.61335250247102,32.98071105520113,35.856081708449395,1577399412.0,-27.690223174994788,-51.125975915479415,7.0212665
40722,1577399412.62,-0.3569112328506094,2.745331771925018,7.597269028975323,-2.20103046279535,1.1243988528367943,6.039753256300019,6.019723715582126,-14.724632185773151,17.616535815429685,5.907570443502286,12.240898318407012,0.8626798304115855,0.3578372117949695,-8.824046065167684,-0.9676305259146342,0.4761858684260671,8.416896913109756,-16.363004358803355,-9.960690438034188,6.646336805555557,-2.179261826136828,-15.599305041913214,16.863339785214784,-4.032537774725275,27.70919819091263,33.02863389942193,35.99985024111181,1577399412.0,-27.690223174994788,-51.125975915479415,7.0212665
40723,1577399412.63,0.6797780859970458,0.5187242279797057,7.300388023115948,0.2913334654273053,5.850552929985232,14.079482431104708,-0.7271365627381852,-0.7233408771794015,8.034940771484374,-1.7218240877477131,-9.335029415967988,-3.0435701695884143,-0.4051022413300305,-0.8589581745426829,-0.8150426352896342,5.236928055926067,11.499172303734756,-17.980435999428355,-8.726622596153845,5.623823450854701,-2.930731421356421,-16.010195433572836,19.429500187312687,-3.4425586432797965,27.565429658250217,32.88486536675951,35.52062179890376,1577399412.0,-27.690223174994788,-51.125975915479415,7.0212665
40724,1577399412.64,2.283893198301733,-0.6520403838366995,3.924563682295636,2.156416558689024,-0.4533800412061737,4.069325289991425,-0.0639427028749044,-1.306328981427448,8.884882360839843,6.334816537252286,-0.7595899628429879,-0.1138826695884145,0.7087893602324695,3.9017840129573167,-2.0815221274771343,4.473988602801068,17.09914788967226,1.3219321646341462,-8.726622596153845,5.623823450854701,-2.930731421356421,-13.133962691955478,-4.032537774725275,-17.60205779797126,27.852966723575044,32.98071105520113,35.71231317578699,1577399412.0,-27.690223174994788,-51.125975915479415,7.0212665
40725,1577399412.65,0.9874329993271244,1.061010904005096,11.509394541670636,-3.364612469631288,2.067714306938357,9.80822666938596,3.2951222263243136,9.564543656512004,10.134655627441406,-2.606833853372713,-2.941596798780488,-2.5552889195884143,-9.865551460080033,0.4838152629573171,-1.2117711509146345,-0.2867535846989328,8.935695741234756,-0.5243813119283537,-9.78439503205128,7.464347489316236,-2.780437502312504,-13.133962691955478,-4.032537774725275,-31.761556952662723,27.80504387935424,33.02863389942193,35.76023602000779,1577399412.0,-27.690223174994788,-51.125975915479415,7.0212665
40726,1577399412.66,2.877655210020484,-1.5929616362781056,7.537413987471416,1.1149388365210553,2.2592504397508573,10.174539523389866,4.664605575933689,-2.562087752179401,9.804255798339844,-6.085837759622714,-1.614082150342988,-1.1209627477134143,-4.250317085080031,2.742116044207317,-3.2259313071646343,-0.7445172565739329,9.515529725609756,0.4826987661966463,-8.726622596153845,6.0328287927350415,-2.329555745180745,-13.133962691955478,-4.032537774725275,-27.631703032544383,27.61335250247102,33.02863389942193,35.76023602000779,1577399412.0,-27.690223174994788,-51.125975915479415,7.0212665
40727,1577399412.67,0.624711447813452,3.255296725538299,13.841346958662823,2.398230926364805,-1.7223069210889856,11.496138839796116,0.2401209079649387,-2.0760648151676824,16.23029305419922,1.1773458341272869,-1.949775509717988,-3.9285799352134143,3.8673586961699695,-2.110178877667683,-1.2422887290396345,-3.826792647198933,-0.8299292587652439,0.1470054068216463,-9.431804220085471,6.850839476495728,-2.0289679070929103,-13.133962691955478,-4.032537774725275,-27.631703032544383,27.61335250247102,33.02863389942193,35.66439033156618,1577399412.0,-27.690223174994788,-51.125975915479415,7.0212665
40728,1577399412.68,1.3262125342392332,-1.6192978545398244,12.641851926924542,2.4221729429663674,-0.6018205441358606,8.206505758741425,-2.3384342800233413,-11.588228010968464,12.871228125,-15.088523306497711,-2.346504025342988,-1.9144197789634143,-9.804516303830033,5.763356278582317,-2.8292027915396343,-9.167368819073932,-4.247898008765244,-7.238248499428353,-9.431804220085471,7.259844818376065,-3.231319259444269,-12.723072300295856,17.963122814685313,-30.286609124049026,27.852966723575044,32.789019678317906,35.80815886422859,1577399412.0,-27.690223174994788,-51.125975915479415,7.0212665
40729,1577399412.69,0.0800305701279056,1.999537954786346,11.501014835860088,-0.9392861878930072,2.1479200625535912,10.342133639600805,1.2839928317930644,7.400185355730755,10.087968695068358,-5.979026236185212,1.6665574980945124,-1.8839022008384143,-0.8170895460175305,-1.8812970417301835,-1.1202184165396338,-5.428965498761433,-21.566623594702744,-0.6922279916158534,-9.960690438034185,7.259844818376065,-3.531907097532104,-14.161188671104536,-3.1160519168331664,-31.02408303835588,27.805043879354244,33.00467247731153,35.59250606523497,1577399412.0,-27.690223174994788,-51.125975915479415,7.0212665
40730,1577399412.7,-0.7447719017959219,0.6935009491711118,7.855842808272198,2.3359816832007425,-1.1668521359327355,7.375717782667206,1.55453761939072,-7.704832918195026,11.341333264160156,-0.0738748689977134,-0.3933790253429878,0.4049161585365854,-10.597973335080033,-3.636057783917683,-2.5545445884146343,-15.392954756573932,-35.25375738376525,2.954622594321646,-9.960690438034188,8.282358173076922,-2.479849664224669,-16.010195433572836,-2.1995660589410586,-31.761556952662723,27.75712103513344,32.98071105520113,35.616467487345375,1577399412.0,-27.690223174994788,-51.125975915479415,7.0212665
40731,1577399412.71,-0.2108649315810782,-0.781327273485137,8.56931490299876,0.6265216978491803,-0.8316639035108607,10.67013926704221,-1.1987942897889663,-4.740811262921588,7.872135058593749,-22.99257604087272,-4.482734494092988,-3.6234041539634143,-4.463940131955031,-8.946116377667684,-1.5169469321646345,-15.850718428448932,-31.774753477515244,-6.749967249428353,-10.13698584401709,7.668850160256405,-2.630143583268586,-16.010195433572836,-2.1995660589410586,-31.761556952662723,27.75712103513344,33.17240243208434,35.76023602000779,1577399412.0,-27.690223174994788,-51.125975915479415,7.0212665
40732,1577399412.72,1.1167198889755614,1.0873471222668156,12.742408396651104,-4.9830927918969135,3.176229675590701,12.518462948682831,0.9942944309141576,11.47032817799638,9.014169250488282,-7.291282095560213,-5.001533322217988,-2.0822664586509143,-1.6563229444550305,-6.382639815167683,-0.5098668540396342,-12.493784834698932,-21.490329649390244,15.100618688071648,-9.784395032051282,6.850839476495728,-2.630143583268586,-15.393859846083402,-2.749457573676323,-1.525126466081995,27.637313924581424,32.98071105520113,35.66439033156618,1577399412.0,-27.690223174994788,-51.125975915479415,7.0212665
40733,1577399412.73,1.6087283301376707,-0.3527651763171683,10.958728159834696,0.7953129148901964,-2.0371444393995324,8.82899819038205,0.0677383884336889,-7.372038887433307,9.78151088256836,-2.8814920564977133,-5.123603634717988,-1.3040682164634143,-4.112987983517531,-0.3554181354801828,-1.7000524009146345,-15.83545963938643,-21.047824766577744,-3.5608803353658525,-10.842167467948716,7.668850160256405,-2.329555745180745,-16.31836322731755,-3.940889188936064,2.0884957140215548,27.852966723575044,32.98071105520113,35.616467487345375,1577399412.0,-27.690223174994788,-51.125975915479415,7.0212665
40734,1577399412.74,2.607110422422828,0.3535243134289245,13.02492419254954,-0.6160689637719123,-0.0367889523389857,10.50972775581174,4.015776926031345,16.51969947926591,8.578424548339843,-6.391013540872714,-6.466377072217988,-3.1046053258384143,-4.952221381955031,-4.276926924542683,-1.2117711509146345,-0.5003766315739329,-3.515476133765244,6.006380406821647,-10.66587206196581,7.464347489316236,-2.179261826136828,-16.215640629402646,-3.849240603146853,5.554623111263735,27.852966723575044,32.98071105520113,35.66439033156618,1577399412.0,-27.690223174994788,-51.125975915479415,7.0212665
40735,1577399412.75,0.3733202734970458,-0.9968054228991996,7.855842808272198,-1.9089378602562872,0.3367065066453882,10.59831321723752,-8.096489272699124,-18.64394030344893,14.257470886230468,1.6656270841272869,12.973320193407012,0.2523282679115854,-4.402904975705031,-4.490549971417683,-0.9065953696646342,-8.862193037823932,-5.804294493140244,3.320833531821646,-10.13698584401709,7.668850160256405,-2.0289679070929103,-9.8468395586785,16.496745442057946,5.997107459847844,27.70919819091263,33.12447958786354,35.856081708449395,1577399412.0,-27.690223174994788,-51.125975915479415,7.0212665
40736,1577399412.76,0.3362101477646244,0.9101761994152532,9.250465275313214,-0.0151243470726936,-0.1110092038038294,13.890340499952364,-8.393370278558498,-4.803060506085651,21.47598889160156,-4.300559439310214,0.1101610137195123,-0.7852693883384144,-4.067211616330031,0.5753679973323171,-0.8150426352896342,-12.371714522198932,-23.748630430640244,-16.240934046303355,-10.842167467948716,8.077855502136751,-3.231319259444269,-9.8468395586785,17.229934128371625,4.227170065511412,27.805043879354244,33.17240243208434,35.66439033156618,1577399412.0,-27.690223174994788,-51.125975915479415,7.0212665
40737,1577399412.77,-0.2898735863662344,-3.1731347319812304,8.823100278975323,0.8815041746558213,-2.256213891303829,6.789138375928926,3.1897773532774383,9.744108781023725,16.40746397705078,-1.813376822122713,1.407158084032012,-0.8768221227134145,-3.533153999142531,-0.4317120807926828,-2.9054967368521343,-18.44471256907393,-52.89291754001525,4.724642125571648,-8.90291800213675,7.464347489316236,-2.479849664224669,-6.354271229571711,16.863339785214784,-0.3451682031910399,27.565429658250217,33.00467247731153,35.71231317578699,1577399412.0,-27.690223174994788,-51.125975915479415,7.0212665
40738,1577399412.78,-0.1055200585342031,-1.1045444976062306,9.433621702315168,-1.0278716493187874,1.7157666628953885,13.27981907661252,-0.3943425319764664,4.651641849871379,12.66053837890625,-13.623679556497711,1.834404177782012,-1.5787264195884143,-6.905346381955031,-6.107981612042683,-0.2352086509146341,-20.36731999094893,-79.80942144626525,-0.2802406869283537,-10.66587206196581,6.646336805555557,-2.479849664224669,-6.354271229571711,16.680042613636363,-3.8850429918639056,27.70919819091263,32.789019678317906,35.52062179890376,1577399412.0,-27.690223174994788,-51.125975915479415,7.0212665
40739,1577399412.79,2.176154123594702,2.7142071503429865,11.011400596358136,0.0423364927710553,1.9695520388719507,15.50163821723752,4.769950448980564,9.734531974383096,7.682993127441406,-1.3556131502477131,-8.053291134717988,-1.2430330602134143,-5.074291694455031,2.894703934832317,-2.2493688071646343,-21.83216374094893,-64.97787847751525,18.915315953696645,-8.90291800213675,6.646336805555557,-2.479849664224669,-6.354271229571711,16.680042613636363,-3.8850429918639056,27.75712103513344,33.12447958786354,35.52062179890376,1577399412.0,-27.690223174994788,-51.125975915479415,7.0212665
40740,1577399412.8,0.9622938818954831,-0.5897911406726375,11.252017863203838,1.5482893370093365,-0.680829198921017,10.564794393995331,2.852194919195408,-12.557879683331745,4.975151049804687,-1.7370828768102131,3.970634646532013,0.6948331507240857,-0.1609616163300304,-0.5842999714176829,-0.6319371665396342,-27.72205631907393,-33.48373785251525,21.478792516196645,-10.66587206196581,6.237331463675212,-2.179261826136828,-6.55971642540152,16.863339785214784,3.0472118026204567,27.66127534669183,33.17240243208434,35.616467487345375,1577399412.0,-27.690223174994788,-51.125975915479415,7.0212665
40741,1577399412.81,0.7946997656845458,3.262479330518768,7.623605247237042,-0.6615587953148812,1.0058858706590603,12.14975589301877,1.3618043857481426,0.1445572246272392,3.260902661132812,3.4051290372522867,7.388603396532012,-0.1749178258384145,-5.135326850705031,-4.231150557355184,-1.0439244712271345,-4.742319990948932,14.581447694359758,-3.1794106088033534,-10.4895766559829,6.0328287927350415,-1.7283800690050757,-16.11291803148774,11.456073223651348,-17.52831040654057,27.90088956779585,32.90882678886992,35.616467487345375,1577399412.0,-27.690223174994788,-51.125975915479415,7.0212665
40742,1577399412.82,1.924762949278296,-1.7509789458484182,9.98668228581126,4.541041412204649,-5.567394787299924,8.462685336378144,1.51623039282822,2.8655674113948173,13.48414375,-5.597556509622714,-10.433662228467988,-1.7923494664634143,-1.1375241163300305,0.9720965129573172,-2.8902379477896343,8.929555009051068,40.39931878810975,5.029817906821647,-9.960690438034188,6.646336805555557,-2.479849664224669,-15.804750237743024,13.74728786838162,2.30973788831361,27.852966723575044,32.98071105520113,35.66439033156618,1577399412.0,-27.690223174994788,-51.125975915479415,7.0212665
40743,1577399412.83,0.9024388403915772,-3.809992373582793,10.31947631657298,-1.0182948426781624,-1.121362304389767,9.966243978956271,1.7724099704649383,-8.087905183820025,9.65342109375,-7.184470572122714,-2.102363400342988,1.1678556116615857,-5.196362006955031,-9.098704268292684,2.9386194740853657,6.488148759051067,28.31435785060976,-6.902555140053353,-8.55032719017094,7.464347489316236,-2.479849664224669,-16.421085825232456,13.93058503996004,2.1622431054522404,27.70919819091263,32.98071105520113,35.52062179890376,1577399412.0,-27.690223174994788,-51.125975915479415,7.0212665
40744,1577399412.84,3.004547898008765,2.7872303009777526,10.70254858219798,2.662790209812071,2.9008964846727325,7.338607656934785,-3.390685909662014,2.168854728289348,13.775039251708984,5.587135873189788,-8.343208126905488,-2.4484773961509143,0.9224124071074692,8.662526200457316,-1.2422887290396345,4.123036454363567,9.652858827172256,-9.420255335365852,-9.255508814102562,6.237331463675212,-2.179261826136828,-16.215640629402646,16.31344827047952,-0.1976734203296697,27.685236768802227,32.88486536675951,35.80815886422859,1577399412.0,-27.690223174994788,-51.125975915479415,7.0212665
40745,1577399412.85,1.726044211485327,-0.9704692046374808,9.268421787764389,-2.1794826478539435,-2.708718005073361,7.081230978467987,5.217666159429782,1.4122870036799724,7.314286071777343,8.165871224752287,11.874687380907012,1.2899259241615857,-7.180004585080031,-3.941233565167683,1.6568811928353655,-4.498179365948933,5.731350038109756,1.2456382193216462,-9.255508814102562,6.237331463675212,-2.179261826136828,-15.599305041913214,16.496745442057946,-4.032537774725275,27.75712103513344,32.789019678317906,35.616467487345375,1577399412.0,-27.690223174994788,-51.125975915479415,7.0212665
40746,1577399412.86,0.6725954810165771,-2.5602191069812306,8.116810789229229,-0.1468054383812874,3.054125390922732,12.381993454053928,2.062108371343845,3.4545410197932545,0.2681505859374999,-19.69667760337272,19.59563464653201,1.0763028772865857,2.860278618044969,0.148121903582317,-1.8831578696646345,-4.742319990948933,13.879543397484756,5.609651891196647,-10.313281249999996,7.873352831196581,-3.381613178488186,-12.106736712806422,19.97939170204795,-3.5900534261411665,27.61335250247102,32.789019678317906,35.76023602000779,1577399412.0,-27.690223174994788,-51.125975915479415,7.0212665
40747,1577399412.87,-0.668157448670922,0.2409968354015807,5.0402616559284485,-0.6136747621117561,-2.043129943549923,5.249666708448456,1.4108855197813448,-1.3075260822575263,6.809109521484374,-0.6231912752477134,14.956962771532012,1.6866544397865857,0.9071536180449696,0.3007097942073171,-1.1812535727896345,3.131215165301067,34.50942620998475,-0.4023109994283537,-10.66587206196581,5.010315438034185,-2.780437502312504,-12.106736712806422,19.97939170204795,-3.5900534261411665,27.75712103513344,33.02863389942193,35.856081708449395,1577399412.0,-27.690223174994788,-51.125975915479415,7.0212665
40748,1577399412.88,0.6079520361923588,2.650760806348846,10.193780729414776,-0.1084982118187879,0.9699728457567164,12.02166610420041,1.64432018164658,-5.705674531964557,9.226056097412108,-1.8133768221227125,-12.020576290967988,-2.1127840367759143,0.5409426805449693,-4.872019697980183,-0.8455602134146344,7.861439774676068,44.45815667873475,-8.245328577553353,-11.371053685897431,7.464347489316236,-2.780437502312504,-13.442130485700195,17.138285542582416,-3.073821686126373,27.58939108036062,33.05259532153234,35.616467487345375,1577399412.0,-27.690223174994788,-51.125975915479415,7.0212665
40749,1577399412.89,2.935116049864234,-0.4006492095202933,7.228561973311261,4.134027129978087,1.160311877739138,8.862517013624236,-0.5188410183045915,1.800147672625285,8.482656481933594,2.9168477872522867,-17.269599728467988,-3.2266756383384143,-1.1680416944550305,4.206959794207317,-1.3948766196646345,12.683217118426068,45.89248285060975,-15.447477015053352,-11.371053685897431,7.464347489316236,-2.780437502312504,-12.928517496125668,16.680042613636363,-2.70508472897295,27.565429658250217,32.789019678317906,36.28738730643664,1577399412.0,-27.690223174994788,-51.125975915479415,7.0212665
40750,1577399412.9,3.385225961973609,-0.8938547515124807,7.693037095381573,0.4900522032202741,-2.294521117866329,2.678294125440643,4.954303976812595,4.395462272234661,15.799336755371092,2.3980489591272867,-1.675117306592988,-1.0294100133384143,-1.8394284132050305,4.054371903582317,-0.1741734946646341,6.305043290301067,23.12636956935976,-9.404996546303352,-9.255508814102562,7.873352831196581,-2.479849664224669,-12.928517496125668,16.680042613636363,-2.70508472897295,27.75712103513344,32.83694252253871,35.80815886422859,1577399412.0,-27.690223174994788,-51.125975915479415,7.0212665
40751,1577399412.91,0.5169723731064209,-1.2817154204577932,8.671068473555401,2.774120587009336,2.12996355010242,8.017363827589081,2.1866068576719697,5.154424198504192,15.483302136230469,-5.856955923685212,8.365165896532012,1.1373380335365857,-5.562572944455031,-1.5303448932926829,1.1991175209603655,2.124135087176067,-7.574314024390244,-9.435514124428352,-9.079213408119658,7.055342147435896,-2.3295557451807483,-14.777524258593967,-2.5661604020979016,-1.6726212489433638,27.757121035133437,33.17240243208434,35.52062179890376,1577399412.0,-27.690223174994788,-51.125975915479415,7.0212665
40752,1577399412.92,1.7212558081650144,0.1619881806164244,10.187795225264386,1.0119881651343363,1.0872887271043727,9.157003817823457,4.118727597418063,7.917332914324504,0.3196259216308593,4.992043099752286,-5.215156369092988,-1.3651033727134143,-3.243237006955031,6.846730302019817,-1.5932408774771345,-0.0731305378239328,14.398342225609758,15.482088414634148,-10.313281249999996,7.464347489316236,-3.682201016576021,-14.469356464849252,8.523318478396606,-30.507851298341084,27.852966723575044,33.00467247731153,35.64042890945578,1577399412.0,-27.690223174994788,-51.125975915479415,7.0212665
40753,1577399412.93,1.4938066504501708,3.5354183197765803,5.068992075850323,3.9041837706030864,0.0709501223680445,3.370218405225799,-1.519617312249904,-16.702242757062212,8.813056311035156,8.684670052877287,9.768974490282012,1.4119962366615857,-6.203442085080031,-8.274729658917684,-1.5474645102896345,-4.070933272198933,36.06582269435975,-0.4633461556783537,-7.668850160256408,7.668850160256405,-2.630143583268586,-11.901291516976611,19.79609453046953,-32.3515360841082,27.61335250247102,33.12447958786354,35.76023602000779,1577399412.0,-27.690223174994788,-51.125975915479415,7.0212665
40754,1577399412.94,1.6518239600204832,1.5458367401867368,9.294758006026106,0.5810318663062116,3.817875720512576,14.555928561475802,-1.3376579860780289,-10.51801986887862,12.401964599609377,-2.5457986971227133,-2.773750119092988,-2.4027010289634143,-3.5484127882050305,-9.190257002667684,0.7108362709603658,-2.239878584698933,21.23427972560976,-12.273648890053352,-7.668850160256408,7.668850160256405,-2.630143583268586,-14.777524258593967,20.895877559940057,-30.58159868977177,27.517506814029414,32.789019678317906,35.66439033156618,1577399412.0,-27.690223174994788,-51.125975915479415,7.0212665
40755,1577399412.95,1.6637949683212645,-6.113214370653106,5.657965684248761,5.584913336032773,-0.6520987789991419,11.627819931104709,-7.402170791253811,7.49834762379716,18.346767321777342,-9.503806509622711,3.0856248809070124,-0.3275057164634145,-0.1304440382050304,17.634694169207318,-5.606302400914634,6.457631180926067,-3.790134336890244,-9.740689905678352,-9.960690438034188,6.237331463675212,-1.8786739880489929,-14.777524258593967,20.895877559940057,-30.58159868977177,27.565429658250217,32.98071105520113,35.76023602000779,1577399412.0,-27.690223174994788,-51.125975915479415,7.0212665
40756,1577399412.96,1.2005169470810302,0.4899938080578311,14.3022307782429,-1.1715237489281622,-2.0634806576612514,6.536550100782441,0.8207148105528298,1.6445245647151296,15.952565661621092,-10.617698111185211,6.091606326219512,0.4049161585365857,-1.061230171017531,-4.246409346417684,3.9609583412728657,-18.154795576886432,-34.29245367282775,-1.4856850228658538,-10.401428952991449,5.930577457264956,-2.554996623746624,-15.496582443998308,-2.841106159465534,-32.27778869267752,27.78108245724384,33.07655674364273,35.56854464312457,1577399412.0,-27.690223174994788,-51.125975915479415,7.0212665
40757,1577399412.97,1.266357492735327,-3.572966409227324,6.742539036299542,2.048677483981993,-0.901095751655392,14.44340108344846,1.231320395269626,-2.9284006061833074,17.343596826171876,5.083595834127286,11.477958865282012,1.7782071741615857,2.738208305544969,9.700123856707316,-2.1272984946646343,-17.193491865948932,-69.40292730564025,0.9404624380716464,-10.4895766559829,6.441834134615387,-2.630143583268586,23.229836969921102,-1.649674544205794,-2.70508472897295,27.70919819091263,32.789019678317906,35.616467487345375,1577399412.0,-27.690223174994788,-51.125975915479415,7.0212665
40758,1577399412.98,1.2448096777939208,-2.596132131883574,9.816693967940166,-3.144345916896913,-0.1253744137647669,10.370864059522678,-2.8196688137147485,12.006629349871378,14.95178936767578,-2.5763162752477133,10.989677615282012,0.6490567835365855,-0.9544186475800304,1.7045183879573171,3.5489710365853657,-22.28992741282393,-92.74887457126523,13.025423375571648,-10.4895766559829,6.441834134615387,-2.630143583268586,-16.215640629402646,-1.649674544205794,-3.8850429918639056,27.852966723575044,32.88486536675951,35.52062179890376,1577399412.0,-27.690223174994788,-51.125975915479415,7.0212665
40759,1577399412.99,1.3740965674423582,1.787651107862518,16.63298609440501,-0.559805224758241,-2.8703266171339084,8.25438979194455,-0.1656962734315454,-1.7109490619938543,12.405555902099607,6.548439584127286,4.733574099657012,-0.9378572789634144,5.561084282107469,6.755177567644816,-1.2728063071646345,-25.40272038157393,-96.07529058689023,19.754549352134145,-12.252530715811965,7.668850160256405,-2.0289679070929103,-16.11291803148774,-3.757592017357642,-2.4838425546808955,27.75712103513344,32.98071105520113,35.736274597897385,1577399412.0,-27.690223174994788,-51.125975915479415,7.0212665
40760,1577399413.0,0.9215924536728278,-1.1632024382800594,10.2416647626179,3.0566363829077736,-1.5954142331007044,12.427483285596896,3.6303104587461887,-1.0297986896794016,3.1100679565429687,5.510841927877287,7.220756716844512,-0.6631990758384144,-1.1985592725800305,-1.8660382526676829,1.6873987709603655,-21.13025944407393,-48.80356207126525,11.804720250571648,-8.902918002136753,7.668850160256408,-2.780437502312504,-16.421085825232456,-4.032537774725275,-4.032537774725275,27.78108245724384,32.98071105520113,34.8497019798125,1577399413.0,-27.6902272128056,-51.126047969378334,7.119808
40761,1577399413.01,1.3381835425400146,3.312757565382049,8.744091624190167,-3.5776964173851944,7.263131909477419,20.69705581977658,1.6934013156797822,-5.32739066965987,4.441244079589843,4.992043099752286,-6.039130978467988,-1.2125154820884143,6.888598930544969,2.192799637957317,0.0394495522103658,-4.894907881573933,-17.614597227515244,-2.752164515053354,-8.90291800213675,5.828326121794872,-1.578086149961158,-16.010195433572836,16.496745442057946,-4.032537774725275,27.70919819091263,32.88486536675951,35.66439033156618,1577399413.0,-27.6902272128056,-51.126047969378334,7.119808
40762,1577399413.02,1.8768789160751709,0.1763533905773619,9.13913489811595,1.6416632017554302,-0.3743713864210169,11.520080856397678,3.536936594000095,8.293222574969036,3.4931402221679684,15.337502084127289,-8.785713009717988,-1.4566561070884143,11.954516899294967,15.071217606707316,-1.4559117759146345,3.466908524676067,8.874660584984756,-9.740689905678352,-8.90291800213675,5.828326121794872,-1.578086149961158,-12.723072300295856,-4.032537774725275,3.0472118026204567,27.75712103513344,32.83694252253871,35.08931620091653,1577399413.0,-27.6902272128056,-51.126047969378334,7.119808
40763,1577399413.03,-0.1007316552138906,-4.140392202684356,11.43038588688548,1.8284109312476176,-4.712664794624143,6.456344345167206,4.173794235601657,4.036332023211223,8.453926062011718,-3.5833963533727133,1.986992068407012,-0.0528475133384145,0.2968020555449695,-0.6453351276676829,0.5887659584603658,14.270131180926068,25.11001214748476,6.555696813071647,-9.431804220085471,6.441834134615387,-2.329555745180745,-12.723072300295856,-4.032537774725275,3.0472118026204567,27.90088956779585,32.98071105520113,35.616467487345375,1577399413.0,-27.6902272128056,-51.126047969378334,7.119808
40764,1577399413.04,1.0436967383407958,0.3223996918468937,9.14392330143626,-2.858238818508241,1.697810150444217,13.928647726514864,1.668262198248142,-2.139511159161823,14.086285467529295,4.915749154439787,1.6970750762195124,0.1760343225990857,2.707690727419969,3.1846209270198167,1.1838587318978655,9.082142899676068,13.833767030297256,-1.1194740853658538,-9.608099626068372,6.850839476495726,-1.7283800690050757,-16.31836322731755,15.122016655219776,-3.9587903832945903,27.852966723575044,32.90882678886992,35.59250606523497,1577399413.0,-27.6902272128056,-51.126047969378334,7.119808
40765,1577399413.05,0.0668624609970458,0.3463417084484557,9.606004221846415,2.922561089939024,-5.239389159858518,4.308745456007049,-3.4086424221131857,-8.049597957257525,11.820173596191406,12.682472787252289,-8.022773556592988,-0.8463045445884145,8.628100883669969,4.542653153582317,0.7718714272103658,2.642933915301067,4.235988709984756,-8.703092249428353,-10.13698584401709,8.077855502136751,-2.930731421356421,-16.421085825232456,15.030368069430567,-37.07136913567202,27.852966723575044,33.12447958786354,35.616467487345375,1577399413.0,-27.6902272128056,-51.126047969378334,7.119808
40766,1577399413.06,1.1921372412704834,-2.689505996629668,9.888520017744854,0.221901617282774,-1.236283984077267,7.461909042432831,0.8051524997618138,11.10640952565263,7.671022119140624,-3.1561502596227133,6.595146365282012,0.0387052210365854,3.8368411180449695,-4.917796065167683,2.4808558022103657,22.479359696551068,0.6349144912347561,-0.9211098275533536,-8.374031784188034,5.623823450854701,-3.231319259444269,-16.421085825232456,9.16485857892108,-34.71145260989011,27.565429658250217,33.02863389942193,35.66439033156618,1577399413.0,-27.6902272128056,-51.126047969378334,7.119808
40767,1577399413.07,2.2826960974716552,1.5685816559582213,9.3498246442097,-0.4101676209984748,3.9878640383836697,16.392281234815645,0.1323818332579075,-3.9243884968083074,8.444349255371094,17.672096810689787,-0.0729444550304878,-0.1749178258384143,3.257007133669969,2.223317216082317,-0.1131383384146341,3.985707352801067,12.872463319359756,4.968782750571647,-9.431804220085468,6.032828792735044,-3.231319259444269,-15.18841465025359,7.698481206293707,0.9822848425612848,27.92485098990625,32.789019678317906,35.66439033156618,1577399413.0,-27.6902272128056,-51.126047969378334,7.119808
40768,1577399413.08,1.6087283301376707,-1.8778716338366996,10.929997739912825,-0.0223069520531629,-1.8420170040967985,5.112000112989471,2.657067483892673,2.69797329518388,11.652579479980467,-0.1043924471227134,-3.048408322217988,-2.1280428258384143,6.385058891482469,5.046193192644817,-0.2046910727896343,9.066884110613568,3.747707459984756,-5.040982874428353,-10.13698584401709,7.668850160256405,-2.329555745180745,-13.133962691955478,10.264641608391608,0.8347900596999157,27.94881241201665,32.93278821098032,35.808158864228595,1577399413.0,-27.6902272128056,-51.126047969378334,7.119808
40769,1577399413.09,1.5321138770126708,1.4500686737804869,9.893308421065166,1.141275054782774,0.0446139041063258,16.315666781690645,2.8210702976133764,2.513619767351849,12.77546005859375,9.081398568502289,16.055595584032012,1.3509610804115857,2.921313774294969,-7.786448408917683,1.9010218178353653,4.840199540301067,0.4518090224847561,6.616731969321647,-10.4895766559829,5.623823450854701,-2.630143583268586,-15.599305041913214,15.030368069430567,0.6872952768385466,27.70919819091263,32.789019678317906,35.616467487345375,1577399413.0,-27.6902272128056,-51.126047969378334,7.119808
40770,1577399413.1,1.2543864844345458,-1.0901792876452931,9.81429976628001,3.4277376402319923,-0.3073337399366419,15.33643830268674,-1.969727224359279,-13.67836606028487,15.634136840820313,-8.466208853372713,3.818046755907013,-1.8533846227134143,8.567065727419969,8.723561356707316,-2.1578160727896343,5.267445634051067,-7.726901915015244,-1.8061195931783536,-9.255508814102562,7.873352831196581,-4.583964530839531,-16.421085825232456,13.563990696803195,-1.0826421174978862,27.75712103513344,33.22032527630515,35.66439033156618,1577399413.0,-27.6902272128056,-51.126047969378334,7.119808
40771,1577399413.11,-0.4933807274795161,0.2757127594738468,7.388973484541729,-1.482769964748475,-0.1397396237257044,10.35649884956174,5.57679640845322,9.653129117937786,6.605602380371093,6.212746224752287,6.015312380907012,0.7100919397865857,0.9376711961699696,9.791676591082316,0.9549768959603658,5.328480790301067,-3.698581602515244,-12.151578577553352,-9.519951923076922,7.771101495726493,-3.156172299922304,-16.010195433572836,13.563990696803195,-34.12147347844463,27.66127534669183,33.12447958786354,35.52062179890376,1577399413.0,-27.6902272128056,-51.126047969378334,7.119808
40772,1577399413.12,-0.955461647889672,1.651181613233612,10.750432615401104,2.24859332260504,0.0494023074266388,11.99173858344846,1.4827115695860322,-3.870518959454792,10.542867010498046,19.945656381002287,-3.567207150342988,-0.8463045445884145,4.248828422732469,1.6129656535823171,-1.3033238852896345,3.741566727801068,4.815822694359756,6.784578649009148,-9.784395032051282,6.441834134615387,-2.930731421356421,-16.215640629402646,17.229934128371628,-33.23650478127641,27.90088956779585,32.90882678886992,35.688351753676585,1577399413.0,-27.6902272128056,-51.126047969378334,7.119808
40773,1577399413.13,-1.5372526513076403,1.7565264862804868,12.033724705244854,-1.820352398830506,2.9320211062547634,12.449031100538305,-1.9338141994569351,-1.7432707844059638,6.057330200195312,2.3370138028772867,3.4823533965320124,-1.2735506383384143,0.6935305711699695,-2.049143721417683,1.9010218178353653,3.314320634051067,12.933498475609756,-11.358121546303352,-9.431804220085471,5.623823450854701,-2.630143583268586,-16.421085825232456,17.596528471528472,-34.12147347844463,27.565429658250217,33.12447958786354,35.80815886422859,1577399413.0,-27.6902272128056,-51.126047969378334,7.119808
40774,1577399413.14,1.515354465391577,0.3990141449718932,9.1199812848347,-0.4053792176781624,-0.939402978217892,8.922372055128143,5.44272111548447,15.607508646746378,10.960655200195312,1.5130391935022869,5.893242068407012,0.6490567835365855,8.872241508669969,4.267994950457317,-2.6766149009146343,12.072865555926068,28.16176995998476,7.532259313071647,-9.079213408119656,6.441834134615387,-3.531907097532104,-16.421085825232456,17.596528471528472,-34.12147347844463,27.70919819091263,33.17240243208434,35.616467487345375,1577399413.0,-27.6902272128056,-51.126047969378334,7.119808
40775,1577399413.15,0.7563925391220457,0.0602346100597843,8.902108933760479,1.1723996763648052,-0.9322203732374232,7.022573037794159,-5.6256731594178735,-9.714765211896198,8.88009395751953,3.0694356778772867,-4.360664181592988,-1.8839022008384143,1.3343997117949693,-0.569041182355183,-0.3572789634146343,3.894154618426067,21.600490663109756,-5.2698647103658525,-8.90291800213675,6.850839476495726,-3.2313192594442626,-13.442130485700194,6.690346762612386,-36.11265304707312,27.75712103513344,33.05259532153234,35.64042890945578,1577399413.0,-27.6902272128056,-51.126047969378334,7.119808
