,timestamp,acc_x_dashboard,acc_y_dashboard,acc_z_dashboard,acc_x_above_suspension,acc_y_above_suspension,acc_z_above_suspension,acc_x_below_suspension,acc_y_below_suspension,acc_z_below_suspension,gyro_x_dashboard,gyro_y_dashboard,gyro_z_dashboard,gyro_x_above_suspension,gyro_y_above_suspension,gyro_z_above_suspension,gyro_x_below_suspension,gyro_y_below_suspension,gyro_z_below_suspension,mag_x_dashboard,mag_y_dashboard,mag_z_dashboard,mag_x_above_suspension,mag_y_above_suspension,mag_z_above_suspension,temp_dashboard,temp_above_suspension,temp_below_suspension,timestamp_gps,latitude,longitude,speed
21553,1577399220.93,-1.455849794862328,-0.015182742235137,12.095973948408917,-3.228142975002382,0.8873728884813258,13.954983944776584,-3.5834191433045923,-29.62614331858565,-17.436970690917967,-9.870017447122711,2.5057908965320124,-3.8370272008384143,7.804126274294969,-6.016428877667683,-4.812845369664634,-12.341196944073932,9.912258241234756,8.844515172446647,-7.668850160256408,6.850839476495728,-4.433670611795614,-14.777524258593967,21.2624719030969,-2.5575899461115803,28.57180938688711,33.55578518585078,35.13723904513733,1577399220.0,-27.694034557502818,-51.113723081898335,7.4393373
21554,1577399220.94,-3.4502197777724843,1.4093672455578306,11.140687486006572,-2.5050940736351945,-2.6057673336866425,7.617532150342987,3.117951303472751,-12.979259175519244,15.454571716308592,-4.498923697122714,3.909599490282013,-0.8463045445884145,-13.558178413205033,8.204762528582316,-8.108743807164634,1.5748186809260671,31.61025628810976,-40.96017232755335,-8.02144097222222,3.987802083333333,-4.13308277370778,-16.421085825232456,21.2624719030969,0.9822848425612848,28.428040854224697,33.55578518585078,35.13723904513733,1577399220.0,-27.694034557502818,-51.113723081898335,7.4393373
21555,1577399220.95,-0.5089430382705317,-5.166307614061307,13.884442588545635,0.3775247251929302,-4.572603997505001,16.46650148628049,1.4886970737364231,10.872974863787396,20.501548815917968,-17.056907095560213,-4.436958126905488,-5.820669778963414,3.516406547732468,-8.915598799542684,-2.7834264243521343,-10.723765303448932,-6.613010313452744,-21.77987447599085,-7.228111645299142,4.908064102564102,-4.208229733229735,-16.421085825232456,9.53145292207792,-1.3776316832206257,28.61973223110792,33.50786234162997,34.993470512474914,1577399220.0,-27.694034557502818,-51.113723081898335,7.4393373
21556,1577399220.96,0.6390766577743896,-6.872176296922637,14.439897373701886,6.063753668064024,-4.317621520698362,11.613454721143771,1.396520309820407,-2.806296321515339,12.952630981445312,-11.914695181497711,-6.985175900342988,-3.3487459508384143,2.188891899294969,4.420582841082317,-4.934915682164634,8.075062821551068,-33.08700933689025,2.832552281821646,-7.668850160256408,5.623823450854701,-4.734258449883449,-16.421085825232456,-2.1995660589410586,-3.737548209002536,28.76350076377033,33.65163087429239,35.424776110462155,1577399220.0,-27.694034557502818,-51.113723081898335,7.4393373
21557,1577399220.97,2.1330584937118893,-1.3703008818835745,15.613056187178447,8.295149615329649,-7.037434606635861,11.637396737745334,4.35096515845322,15.612297050066692,5.42047255859375,-4.895652212747714,-16.506660275342988,-8.048452982088415,-2.8465084913300305,-10.746653487042684,-1.2728063071646345,0.9339495403010672,-13.006442930640244,17.664095250571645,-7.668850160256408,5.623823450854701,-4.734258449883449,-14.366633866934349,-4.032537774725275,-32.3515360841082,28.66765507532872,33.699553718513194,35.32893042202055,1577399220.0,-27.694034557502818,-51.113723081898335,7.4393373
21558,1577399220.98,-0.3269837120986568,3.220580801466033,9.956754765059308,-7.671781256252382,3.315093371879763,16.013997372510957,6.903184128179782,-19.041377779034868,2.6623522460937497,21.090065560689787,2.6431199980945124,-2.0822664586509143,3.9589114305449695,-17.857249190167682,-5.056985994664634,1.1780901653010671,4.846340272484756,22.363802281821645,-7.580702457264955,5.317069444444446,-4.057935814185818,-16.421085825232456,-4.032537774725275,-32.3515360841082,28.523886542666308,33.50786234162997,35.13723904513733,1577399220.0,-27.694034557502818,-51.113723081898335,7.4393373
21559,1577399220.99,1.1107343848251707,-4.92329614555545,4.7792936749714166,0.1835943907202739,-1.2781825131300022,6.07087787788205,-1.7626287807557637,-9.95657957957198,9.332598071289064,-8.222068228372713,-6.649482540967988,-6.217398294588414,6.201953422732469,4.329030106707317,-7.620462557164634,-13.01258366282393,2.465969178734756,-13.814786585365852,-6.7873731303418765,5.010315438034185,-4.884552368927366,8.540505468089604,15.855205341533468,-40.97998088149831,28.57180938688711,33.579746607961184,35.233084733578934,1577399220.0,-27.694034557502818,-51.113723081898335,7.4393373
21560,1577399221.0,-0.7782907250381094,1.2250137177257994,9.55333178532298,0.6504637144507427,0.1840761508104274,11.584724301221897,2.545138556280369,1.981508448382122,5.835866546630859,17.717873177877287,-21.511543087842988,-6.217398294588414,4.149646293826219,6.312672684832316,-9.085306307164634,0.5982561809260689,16.32094964748476,-8.878568323647103,-6.963668536324786,6.441834134615387,-4.734258449883449,-3.837567580656521,13.884760747065435,-21.54754323951289,28.61973223110792,33.56776589690598,35.18516188935813,1577399221.0,-27.69402467211269,-51.11379329653731,6.986426
21561,1577399221.01,1.2687516943954842,0.2026896088390812,9.382146366621807,1.1173330381812117,1.6463348147508572,17.09857072456174,6.852905893316501,13.919596476336222,2.3391350219726563,15.306984506002289,-27.843940548780488,-5.027212747713414,2.097339164919969,8.296315262957316,-10.550150057164634,14.209096024676068,30.17593011623476,-3.942350061928354,-7.051816239316239,5.5215721153846165,-5.109993247493249,-16.215640629402646,11.914316152597404,-2.115105597527472,28.64369365321832,33.55578518585078,35.13723904513733,1577399221.0,-27.69402467211269,-51.11379329653731,6.986426
21562,1577399221.02,3.3157941138290776,-0.8196345000476369,9.210960947920636,3.13564503769293,-2.71590061005383,5.826669308546112,0.8027582981016576,-2.6003949787419014,4.3813890380859375,12.896095834127289,-34.17633800971799,-3.8370272008384143,-6.996899116330031,-1.9881085651676829,-0.8455602134146342,32.183949540301064,77.08144769435975,7.288118688071647,-7.139963942307691,4.601310096153845,-5.485728045103049,-16.215640629402646,17.046636956793204,-2.115105597527472,28.66765507532872,33.55578518585078,35.32893042202055,1577399221.0,-27.69402467211269,-51.11379329653731,6.986426
21563,1577399221.03,-0.1486156884170157,1.5410483368664245,12.244414451338605,-2.054984161525818,-2.033553136909298,9.89681213081174,-5.977620803460843,-12.538726070050494,18.392257153320312,4.992043099752286,0.3085252715320121,-3.2266756383384143,6.919116508669969,-11.112864424542684,-8.047708650914634,9.631459305926068,56.66518792873475,-22.558072718178355,-8.197736378205128,4.601310096153845,-3.982788854663856,-11.901291516976611,13.93058503996004,-4.032537774725275,28.61973223110792,33.699553718513194,35.08931620091653,1577399221.0,-27.69402467211269,-51.11379329653731,6.986426
21564,1577399221.04,3.8209706641220462,-8.126737966844512,7.762468943526104,3.9520678038062114,-6.288049487006955,10.155385910108617,-7.457237429437405,1.8552143108088783,20.08495772705078,-20.39858190024772,3.665458865282013,-4.569449075838414,4.111499321169969,-0.1875714557926829,-3.5616246665396343,-16.522105147198932,8.386379334984756,-25.853971155678355,-7.316259348290597,6.0328287927350415,-4.433670611795614,-9.025058775359255,-4.032537774725275,-30.876588255494507,28.428040854224697,33.747476562734,34.94554766825411,1577399221.0,-27.69402467211269,-51.11379329653731,6.986426
21565,1577399221.05,1.228050266172827,-9.6925458525867,9.165471116377669,2.63765109238043,-3.1588279171827365,7.876105929639862,-1.1796406765077163,5.482429825945598,21.736956872558597,-16.004050650247713,8.212578005907012,-1.6092439977134143,2.494067680544969,-12.394602705792684,0.0089319740853658,-3.643687178448933,-31.347507383765244,-4.949430140053353,-6.611077724358971,5.623823450854701,-5.335434126059131,-9.025058775359255,-4.032537774725275,-30.876588255494507,28.81142360799113,33.55578518585078,35.13723904513733,1577399221.0,-27.69402467211269,-51.11379329653731,6.986426
21566,1577399221.06,1.879273117735327,4.603232260206268,13.704877464033917,-1.1284281190453498,0.5665498660203883,10.416353891065649,0.9919002292540012,9.952404325457318,3.308786694335937,29.009377084127287,2.3226854277820124,-2.1280428258384143,6.491870414919969,-16.453440596417682,-5.270609041539634,-15.209849287823932,-45.04989996189025,16.595980016196645,-7.139963942307691,4.192304754273503,-3.982788854663856,-12.312181908636234,-2.5661604020979016,-27.631703032544383,28.61973223110792,33.50786234162997,35.28100757779974,1577399221.0,-27.69402467211269,-51.11379329653731,6.986426
21567,1577399221.07,-0.0839722435927969,-2.469239443895293,10.08963295719798,0.4589275816382429,-3.07981926239758,8.570424411085174,6.445891611089938,-5.708068733624714,0.7972691528320313,3.5577169278772867,-2.590644650342988,-2.2501131383384143,1.3649172899199695,2.467457841082317,-3.3785191977896343,-1.3853863971989329,-13.799899961890244,13.422151891196648,-8.374031784188034,4.396807425213674,-4.433670611795614,-9.8468395586785,-1.832971715784216,-30.876588255494507,28.76350076377033,33.699553718513194,35.233084733578934,1577399221.0,-27.69402467211269,-51.11379329653731,6.986426
21568,1577399221.08,0.5480969946884521,-1.135669119188262,5.495159971358135,-1.2625034120141,3.319881775200076,5.30473334663205,2.6702355930235324,9.124010551043254,-0.8882488159179687,1.7266622403772869,17.062675662157012,-1.4871736852134143,4.599780571169969,-8.427317549542684,-1.6390172446646345,9.997670243426068,15.802150819359756,7.928987828696647,-7.139963942307691,4.192304754273503,-4.884552368927366,-3.2725932921245406,-3.299349088411588,-29.99161955832629,28.475963698445504,33.747476562734,35.13723904513733,1577399221.0,-27.69402467211269,-51.11379329653731,6.986426
21569,1577399221.09,2.137846897032202,-1.0494778594226368,5.317989048506573,3.583360748142149,-4.202699841010861,5.395713009717987,-2.13492713891006,-19.620774580792684,10.412383020019533,15.978371224752289,-8.419502072217988,-3.8065096227134143,5.545825493044969,-3.544505049542683,-2.2798863852896343,6.579701493426067,34.32632074123475,-21.612027796303355,-7.316259348290597,4.805812767094015,-4.433670611795614,-1.834476921315863,-2.0162688873626373,-38.98880131286983,28.428040854224697,33.55578518585078,35.08931620091653,1577399221.0,-27.69402467211269,-51.11379329653731,6.986426
21570,1577399221.1,0.7587867407822021,-3.8650590117663866,6.474388450362042,-3.6998007020531634,-4.214670849311642,11.137008590772677,2.643899374761814,-4.67616781809737,13.565546606445311,13.445412240377289,-14.400947384717988,-1.6702791539634143,6.308764946169969,-17.521555830792682,0.5277308022103658,7.006947587176067,24.80483636623476,-30.797818811928355,-7.845145566239314,5.828326121794872,-5.185140207015214,-13.133962691955478,-4.032537774725275,-41.79120218723584,28.57180938688711,33.55578518585078,35.13723904513733,1577399221.0,-27.69402467211269,-51.11379329653731,6.986426
21571,1577399221.11,4.005324191954077,0.1931128021984557,13.956268638350323,6.054176861423398,-1.5475301998975797,13.569517477491427,-0.4972932033631852,11.36737750660966,12.045228552246092,4.900490365377286,-13.088691525342988,-5.210318216463414,-0.3745846632050305,14.582936356707316,-4.477152010289634,16.192738602801068,23.03481683498476,6.586214391196647,-6.7873731303418765,5.41932077991453,-3.982788854663856,-15.599305041913214,-2.5661604020979016,-41.79120218723584,28.428040854224697,33.41201665318837,35.13723904513733,1577399221.0,-27.69402467211269,-51.11379329653731,6.986426
21572,1577399221.12,-0.7711081200576406,-2.172358438035918,12.390460752608137,-1.475587359768006,-1.8276517941358603,10.27988439643674,4.039718942632907,-12.581821699933307,20.310012683105462,6.456886849752286,23.44084949028201,4.402718892911586,-11.544018256955033,-4.154856612042683,-2.4324742759146343,6.030385087176067,10.247951600609756,3.564974156821646,-6.963668536324786,3.5787967414529875,-3.531907097532104,-16.421085825232456,-4.032537774725275,-37.07136913567202,28.38011801000389,33.55578518585078,35.08931620091653,1577399221.0,-27.69402467211269,-51.11379329653731,6.986426
21573,1577399221.13,3.1625652075790778,1.2872629608898618,10.992246983076884,2.6591989073218363,3.271997741996951,11.553599679639865,-0.7055887477967789,-6.407175618390339,17.137695483398435,-4.498923697122714,6.015312380907012,-4.569449075838414,4.233569633669969,10.005299637957316,-2.4935094321646343,-11.273081709698932,-5.865329649390244,-5.987027796303353,-9.255508814102562,5.010315438034185,-3.982788854663856,-12.928517496125668,-3.849240603146853,-30.139114341187657,28.284272321562284,33.36409380896756,35.32893042202055,1577399221.0,-27.69402467211269,-51.11379329653731,6.986426
21574,1577399221.14,1.3932501807236082,0.7509617890148619,4.465653257490948,2.8507350401343365,-2.409442797553829,8.232841977003144,-2.003246047601466,-13.57062698557784,12.69884560546875,21.441017709127287,6.167900271532012,-0.2359529820884145,3.8063235399199695,1.1246844035823171,-1.0286656821646345,-15.606577803448932,-9.710544493140244,-12.487271936928352,-8.02144097222222,4.396807425213674,-4.433670611795614,-14.777524258593967,-1.099783029470529,-29.10665086115808,28.61973223110792,33.891245095396414,35.13723904513733,1577399221.0,-27.69402467211269,-51.11379329653731,6.986426
21575,1577399221.15,1.898426731016577,-4.066171951219512,3.055468479658917,4.409360320896055,-5.3160036129835175,5.785967880323456,4.614327341070408,5.362719742937786,2.5139117431640625,2.1539083341272867,3.879081912157013,-2.6163240758384143,6.186694633669969,-6.291087080792683,-0.8760777915396342,-0.6224469440739329,-21.612399961890244,-2.202848108803354,-6.963668536324786,6.0328287927350415,-3.531907097532104,-11.490401125316987,-0.3665943431568428,-39.431285661453934,28.61973223110792,33.65163087429239,35.13723904513733,1577399221.0,-27.69402467211269,-51.11379329653731,6.986426
21576,1577399221.16,1.1658010230087643,-0.984834414598418,0.9892724469440732,1.4836458921851177,-0.2259308834913294,9.738794821241424,10.841645859136811,9.581303068133098,-1.7477672119140624,12.346779427877289,12.790214724657012,0.4659513147865854,-6.478100288205031,-2.903635908917683,-3.0123082602896343,10.028187821551068,4.174953553734756,16.321321813071645,-8.374031784188034,6.441834134615387,-3.8324949356199385,29.59863804064525,1.832971715784216,-31.171577821217245,28.475963698445504,33.50786234162997,35.28100757779974,1577399221.0,-27.69402467211269,-51.11379329653731,6.986426
21577,1577399221.17,-0.0983374535537344,0.0159418793468932,11.74881470768626,0.1692291807593365,3.006241357719607,13.184051010206272,-4.311256447992092,-23.59514933665206,0.316034619140625,3.1915059903772867,-18.063056759717988,-2.6163240758384143,-0.0388913038300304,-3.971751143292683,-0.7845250571646342,8.685414384051068,37.86635980373475,15.802522984946648,-7.316259348290597,4.396807425213674,-4.433670611795614,26.516960103198084,-2.3828632305194803,-31.90905173552409,28.81142360799113,33.55578518585078,35.28100757779974,1577399221.0,-27.69402467211269,-51.11379329653731,6.986426
21578,1577399221.18,1.362125559141577,2.7501201752453306,10.115969175459698,1.3783010191382428,1.837870947563357,9.7292180146008,-3.8012914943788103,-28.25426576731612,17.621324218749997,3.862892709127287,-5.978095822217988,0.8321622522865855,0.8766360399199695,10.493580887957316,-0.8760777915396342,-3.765757490948933,44.24453363185975,-32.35421529630335,-7.4925547542735025,4.192304754273503,-4.2833766927516965,26.31151490736827,17.963122814685313,-29.696629992603548,28.57180938688711,33.65163087429239,35.233084733578934,1577399221.0,-27.69402467211269,-51.11379329653731,6.986426
21579,1577399221.19,0.979053293516577,-2.3950191924304494,8.150329612471417,4.634415276950742,-3.733436315620237,3.753290670850799,3.498629367437595,28.160307950945597,22.608446276855467,-2.6068338533727133,-3.994453244092988,-1.1209627477134143,1.2428469774199695,0.026051591082317,-4.995950838414634,11.798207352801068,7.165676209984756,-18.163541468178355,-7.845145566239314,5.010315438034185,-4.583964530839531,-12.723072300295856,17.229934128371625,-1.3776316832206257,28.66765507532872,33.41201665318837,35.13723904513733,1577399221.0,-27.69402467211269,-51.11379329653731,6.986426
21580,1577399221.2,0.8138533789657958,-8.29433208305545,9.357007249190168,0.4637159849585553,-4.614502526557736,14.649302426221896,0.0725267917540012,1.0172437297541912,16.558298681640625,-18.14028111899772,9.402763552782012,0.6795743616615855,-4.799633491330031,-7.511790205792683,1.5958460365853655,1.1475725871760671,-21.002048399390244,1.3066733755716462,-7.4925547542735025,5.828326121794872,-3.982788854663856,-16.215640629402646,-2.3828632305194803,-2.70508472897295,28.66765507532872,33.747476562734,35.424776110462155,1577399221.0,-27.69402467211269,-51.11379329653731,6.986426
21581,1577399221.21,-0.5460531640029532,-0.656828787157012,13.470245701338603,1.7302486631812113,-3.4006422848585176,11.589512704542209,-0.3775831203553727,0.5647396159846599,17.259799768066404,-2.2406229158727133,-3.872382931592988,-0.1749178258384145,2.616137993044969,-3.147776533917683,-2.3104039634146343,-10.174448897198932,-19.506687071265244,7.654329625571647,-7.139963942307691,4.192304754273503,-4.884552368927366,-12.106736712806422,-3.849240603146853,-2.4100951632502112,28.57180938688711,33.84332225117561,35.13723904513733,1577399221.0,-27.69402467211269,-51.11379329653731,6.986426
21582,1577399221.22,1.0245431250595458,1.6775178314953303,14.791845017744851,0.2865450621069928,0.9328627200242944,15.41305275581174,9.991704269781344,2.642906657000286,13.481749548339844,1.8182149747522869,-8.877265744092988,-2.0364900914634143,7.682055961794969,-6.199534346417683,-0.6929723227896342,1.8494768840510671,-16.973728086890244,10.217806188071648,-6.611077724358971,3.987802083333333,-4.734258449883449,-13.133962691955478,-2.5661604020979016,-2.5575899461115803,28.428040854224697,33.50786234162997,34.94554766825411,1577399221.0,-27.69402467211269,-51.11379329653731,6.986426
21583,1577399221.23,-1.2307948388076404,2.352682699659393,10.111180772139386,-1.1212455140648812,-2.407048595893673,5.141927633741425,-8.87221061058975,-13.92736303294112,11.413159313964844,10.088478646627289,-4.360664181592988,-1.1514803258384143,6.644458305544969,2.101246903582317,-5.758890291539634,-6.573374678448933,-24.328464415015244,-2.111295374428354,-7.845145566239314,5.41932077991453,-3.682201016576021,-13.955743475274724,17.229934128371625,-4.032537774725275,28.57180938688711,33.55578518585078,35.32893042202055,1577399221.0,-27.69402467211269,-51.11379329653731,6.986426
21584,1577399221.24,1.1346764014267332,-6.649515542528106,6.366649375655011,3.1021262144507427,-6.606478307807736,0.5570314545422057,-0.3943425319764664,3.3204657268245046,3.4548329956054684,-15.027488150247711,2.0480272246570124,-4.661001810213414,-2.6634030225800305,-11.997874190167684,-1.3338414634146345,-5.230601240948933,-29.028171446265244,-12.761930140053352,-6.25848691239316,4.396807425213674,-3.531907097532104,-15.393859846083402,-3.849240603146853,-33.973978695583256,28.57180938688711,33.699553718513194,35.13723904513733,1577399221.0,-27.69402467211269,-51.11379329653731,6.986426
21585,1577399221.25,3.8497010840439216,-1.7701325591296682,5.207855772139386,1.6177211851538675,0.8730076785203882,9.951878768995334,-0.2674498439881852,9.887760880633095,4.872200378417968,12.438332162252289,-15.682685665967988,-2.2195955602134143,-6.325512397580031,-4.246409346417683,-2.0052281821646343,2.002064774676067,-6.231540586890244,1.3982261099466462,-6.082191506410258,4.192304754273503,-3.381613178488186,-14.57207906276416,16.680042613636363,-31.90905173552409,28.61973223110792,33.41201665318837,35.13723904513733,1577399221.0,-27.69402467211269,-51.11379329653731,6.986426
21586,1577399221.26,1.4171921973251709,-0.359947781297637,9.498265147139389,4.653568890231992,-1.4134549069288294,10.363681454542208,-0.6457337062928727,0.4809425578791912,13.242329382324218,10.698830209127289,-19.741523556592988,-4.752554544588414,-0.0083737257050304,-2.903635908917683,-4.446634432164634,-1.9957379596989329,-0.951999571265244,-1.7450844369283538,-7.4925547542735025,5.828326121794872,-4.583964530839531,-12.723072300295856,-3.665943431568431,-32.3515360841082,28.57180938688711,33.65163087429239,35.13723904513733,1577399221.0,-27.69402467211269,-51.11379329653731,6.986426
21587,1577399221.27,-1.4151483666396718,5.177840658643769,14.554819053389386,-0.0342779603539436,3.188200683891482,15.025192086866427,-0.504475808343654,4.668401261492473,13.060370056152342,12.835060677877289,-16.567695431592988,-1.3651033727134143,-2.9685788038300305,-8.640940596417684,-4.782327791539634,4.687611649676067,12.201076600609756,0.6352866568216463,-5.553305288461537,4.396807425213674,-3.531907097532104,-12.723072300295856,-3.665943431568431,-4.032537774725275,28.66765507532872,33.41201665318837,35.233084733578934,1577399221.0,-27.69402467211269,-51.11379329653731,6.986426
21588,1577399221.28,-0.6741429528213131,-5.324324923631622,11.475875718428448,1.4261850523413675,-3.5442943844678925,8.175381137159393,2.1530880344297825,-5.5452630207340885,12.524068884277344,-24.61000768149772,13.629448123094512,-4.325308450838414,1.5785403367949695,6.434742997332317,-9.115823885289634,2.948109696551067,7.165676209984756,-0.3717934213033537,-7.051816239316237,5.521572115384614,-4.057935814185818,-11.28495592948718,-3.849240603146853,-3.5900534261411665,28.547847964776707,33.699553718513194,35.32893042202055,1577399221.0,-27.69402467211269,-51.11379329653731,6.986426
21589,1577399221.29,3.988564780332984,0.3631011200695495,14.801421824385478,-0.1683532533226936,-4.51634025849133,7.631897360303925,-0.408707741937404,-2.6482790119450264,13.366827868652344,4.839455209127286,-26.363838009717988,-6.095327982088414,-1.4732174757050305,-7.145579268292683,0.5582483803353658,-2.117808272198933,12.811428163109756,-9.923795374428352,-6.611077724358971,5.623823450854701,-4.734258449883449,-16.421085825232456,11.731018981018982,-2.5575899461115803,28.61973223110792,33.55578518585078,35.424776110462155,1577399221.0,-27.69402467211269,-51.11379329653731,6.986426
21590,1577399221.3,3.3038231055282963,-2.2633381011218554,11.82542916081126,0.8707302671851178,1.0693322146532007,11.668521359327364,2.081261984625095,-18.21058980296065,11.784260571289062,17.443214974752287,-2.499091915967988,-1.0904451695884143,4.294604789919969,2.650563309832317,-3.4090367759146343,-9.930308272198932,-1.0740698837652438,-14.074185999428352,-6.434782318376065,6.646336805555557,-4.884552368927366,-9.025058775359255,16.863339785214784,-2.5575899461115803,28.475963698445504,33.699553718513194,35.13723904513733,1577399221.0,-27.69402467211269,-51.11379329653731,6.986426
21591,1577399221.31,1.4722588355087645,-3.311998428270293,7.048996848799542,2.359923699802305,-2.167628429878048,9.367693563917204,-1.3208985744569353,6.016336796160442,2.382230651855469,2.1233907560022867,11.935722537157012,-3.7759920445884143,-4.311352241330031,2.528492997332317,-1.8831578696646345,0.2930803996760671,11.071926209984756,-11.205533655678352,-8.197736378205128,5.828326121794872,-3.982788854663856,-3.067148096294731,-3.48264625999001,-31.61406216980136,28.428040854224697,33.31617096474676,34.94554766825411,1577399221.0,-27.69402467211269,-51.11379329653731,6.986426
21592,1577399221.32,0.2440333838486083,-2.533882888719512,6.270881309248761,2.405413531345274,-3.3144510250928927,8.034123239210174,6.1226743869688445,4.675583866472942,8.303091357421874,2.4285665372522867,5.893242068407012,-3.5318514195884143,-2.2361569288300305,-6.718333174542683,-2.9512731040396343,8.685414384051068,8.661037538109756,7.471224156821647,-4.4955328525641,5.21481810897436,-2.930731421356421,-8.614168383699631,-4.032537774725275,-27.631703032544383,28.475963698445504,33.55578518585078,35.08931620091653,1577399221.0,-27.69402467211269,-51.11379329653731,6.986426
21593,1577399221.33,-0.7711081200576406,1.8762365692882996,6.541426096846417,-3.4675631410180072,0.8179410403367945,7.983845004346893,-9.152332204828031,-8.688849800519245,4.979939453125,6.395851693502286,1.285087771532012,-4.661001810213414,-1.9920163038300305,-5.284007002667683,-2.9817906821646343,-2.972300459698933,3.473049256859756,15.649935094321648,-5.905896100427352,5.21481810897436,-4.13308277370778,-9.8468395586785,-4.032537774725275,-1.0826421174978862,28.475963698445504,33.55578518585078,35.233084733578934,1577399221.0,-27.69402467211269,-51.11379329653731,6.986426
21594,1577399221.34,4.25910956793064,1.0550253998547057,6.448052232100324,-5.799515558010194,1.5936623782274195,3.9759514252453294,-1.82846932641006,-17.396561238507527,4.92247861328125,4.473244271627286,-21.603095822217988,-7.010855325838414,7.285327446169969,3.932301591082317,-3.7142125571646334,-4.162486006573933,22.30239495998476,-4.613736780678353,-6.434782318376065,4.192304754273503,-4.583964530839531,-2.656257704635109,-3.1160519168331664,-1.525126466081995,28.57180938688711,33.50786234162997,35.32893042202055,1577399221.0,-27.69402467211269,-51.11379329653731,6.986426
21595,1577399221.35,2.587956809141578,0.1595939789562682,11.241243955733136,2.280915045017149,0.1978428103563258,3.4995052948742367,11.023605185308687,2.81289497487138,-1.7980454467773437,2.6727071622522867,1.101982302782012,-2.7689119664634143,-7.942944038205031,2.070729325457317,-2.2493688071646343,17.443959305926068,34.50942620998475,-25.274137171303355,-6.434782318376065,5.41932077991453,-3.381613178488186,0.219975036982249,-3.849240603146853,-29.54913520974218,28.475963698445504,33.55578518585078,35.424776110462155,1577399221.0,-27.69402467211269,-51.11379329653731,6.986426
21596,1577399221.36,0.8856794287704833,-1.6384514678210744,4.36270258610423,1.893054376071837,0.1152428530809352,11.602680813673066,-0.3320932888124051,-6.209653981427448,11.75912145385742,5.236183724752286,14.438163943407012,1.9002774866615848,-2.938061225705031,-3.880198408917683,-3.8820592368521343,6.976430009051068,42.79494867092225,-20.360807093178355,-8.374031784188034,4.396807425213674,-3.231319259444269,-4.916154858763031,-2.1995660589410586,-31.90905173552409,28.475963698445504,33.48390091951957,35.18516188935813,1577399221.0,-27.69402467211269,-51.11379329653731,6.986426
21597,1577399221.37,-0.1486156884170157,-4.624020938035918,8.456787424971417,4.895383257907774,-6.60408410614758,6.774773165967987,5.258367587652439,23.04150480153153,18.92855832519531,-21.13100377524772,-4.940498165967988,-7.377066263338414,-3.0296139600800305,-3.086741377667683,-2.6155797446646343,11.889760087176068,12.506252381859756,1.7339194693216462,-8.374031784188034,4.396807425213674,-3.231319259444269,-7.176052012890954,-3.1160519168331664,-35.15393695847422,28.38011801000389,33.65163087429239,35.32893042202055,1577399221.0,-27.69402467211269,-51.11379329653731,6.986426
21598,1577399221.38,-0.9650384545302968,-3.474804141160918,11.61473941471751,-3.8147223817406632,-1.545135998237423,18.30045995796018,-4.021558047113186,-0.1654918903629952,20.283676464843747,-7.123435415872714,15.872490115282012,1.5951017054115857,-0.1609616163300304,-14.103587080792684,-2.0662633384146343,-3.613169600323933,-20.910495665015244,16.168733922446645,-6.434782318376065,5.010315438034185,-2.780437502312504,-7.176052012890954,-3.1160519168331664,-35.15393695847422,28.57180938688711,33.41201665318837,35.32893042202055,1577399221.0,-27.69402467211269,-51.11379329653731,6.986426
21599,1577399221.39,1.6386558508896238,-2.26692940361209,14.733187077071026,3.1188856260718363,-2.69674699677258,16.863938961866427,4.44673322485947,-12.723079597882526,11.77228956298828,-18.155539908060216,0.979911990282012,-2.7689119664634143,-1.6563229444550305,16.688649247332318,-3.4395543540396343,-16.766245772198932,-45.72128668064025,5.853792516196647,-6.6992254273504255,4.908064102564103,-3.3064662189662246,-13.955743475274724,-3.299349088411588,-35.301431741335584,28.547847964776714,33.65163087429239,35.08931620091653,1577399221.0,-27.69402467211269,-51.11379329653731,6.986426
21600,1577399221.4,0.8114591773056395,-2.246578689500762,7.108851890303448,5.531043798679258,-2.085028472602658,6.884906442335175,-0.7139684536073259,2.60220522877763,13.579911816406248,1.8487325528772869,16.025078005907012,0.8931974085365855,-7.363110053830032,0.5906267863948162,-3.0275670493521343,-18.73462956126143,-51.70273199314025,5.228182164634147,-6.434782318376065,6.237331463675212,-4.583964530839531,-9.8468395586785,-3.299349088411588,-35.301431741335584,28.57180938688711,33.45993949740917,35.13723904513733,1577399221.0,-27.69402467211269,-51.11379329653731,6.986426
21601,1577399221.41,1.0628503516220458,-2.4069902007312307,5.346719468428448,1.8762949644507427,2.0701085085985134,13.028427902296116,-1.531588320550685,-13.331206819562214,5.628768103027343,-2.5763162752477133,4.519951052782012,-1.1819979039634143,-5.715160835080031,-2.690012862042683,-2.2188512290396343,-21.22181217844893,-49.44443121189025,-3.881314905678354,-6.434782318376065,6.237331463675212,-4.583964530839531,-13.750298279444912,-0.916485857892108,-32.20404130124683,28.61973223110792,33.50786234162997,35.13723904513733,1577399221.0,-27.69402467211269,-51.11379329653731,6.986426
21602,1577399221.42,-1.7862496239638903,4.0382006684093925,8.667477171065167,0.7989042173804304,3.9519510134813256,12.04201681831174,6.187317831793063,7.10330434987138,-4.556165759277343,5.419289193502286,-5.856025509717988,-0.0528475133384145,-10.323315131955033,8.754078934832316,0.1615198647103658,-12.432749678448932,-26.220554258765244,-2.446988733803354,-6.434782318376065,6.237331463675212,-4.583964530839531,-15.804750237743024,-3.1160519168331664,-32.20404130124683,28.61973223110792,33.55578518585078,35.08931620091653,1577399221.0,-27.69402467211269,-51.11379329653731,6.986426
21603,1577399221.43,1.0221489233993897,-1.5438805022449034,4.457273551680402,6.995098113864805,-1.085449279487423,5.642315780714081,5.464268930425876,1.1441364177424724,2.5258827514648434,7.936989388814788,-10.525214962842988,-3.0893465367759143,0.1747317430449695,1.7960711223323171,-4.049905916539634,-6.970103194073933,-8.184665586890244,2.252718297446646,-7.580702457264955,5.112566773504273,-2.8555844618344626,-15.804750237743024,-3.1160519168331664,-32.20404130124683,28.57180938688711,33.55578518585078,35.13723904513733,1577399221.0,-27.69402467211269,-51.11379329653731,6.986426
21604,1577399221.44,-2.0927074364638902,-0.7789330718249807,11.868524790694073,-2.283630420070741,-1.2841680172803926,11.57993589790158,1.1331581272032205,3.284552701922161,9.077615594482422,1.2383809903772869,2.0785448027820124,-0.5106111852134145,-3.105907905392531,-14.927561690167684,-0.0521031821646341,-1.5074567096989329,5.502468202172256,0.8641684927591462,-7.4925547542735025,7.464347489316236,-5.185140207015214,6.588776107706397,-0.7331886863136859,-1.3776316832206257,28.428040854224697,33.53182376374038,35.13723904513733,1577399221.0,-27.69402467211269,-51.11379329653731,6.986426
21605,1577399221.45,0.9838416968368896,0.6312517060070494,14.487781406905013,5.762084258884336,-1.2410723873975795,9.71724700630002,0.4603874606993137,-7.032062251691119,3.0789433349609374,-22.10756627524772,-13.638007931592988,-0.8157869664634145,-3.1211666944550305,14.460866044207316,-5.240091463414634,1.0560198528010671,21.56997308498476,4.083772984946647,-7.4925547542735025,7.464347489316236,-5.185140207015214,-16.215640629402646,-2.0162688873626373,0.5398004939771768,28.61973223110792,33.55578518585078,35.08931620091653,1577399221.0,-27.69402467211269,-51.11379329653731,6.986426
21606,1577399221.46,1.4435284155868895,-4.135603799364043,9.23969136784251,2.3120396665991803,-5.215447143256955,6.928002072217987,3.83381759985947,3.825642277117473,5.331887097167969,-4.529441275247714,3.5128709746570124,0.6490567835365855,-8.980541694455031,4.573170731707317,-1.7916051352896345,9.814564774676068,26.72744378810976,13.513704625571648,-7.4925547542735025,7.464347489316236,-5.185140207015214,-14.98296945442378,-2.749457573676323,0.5398004939771768,28.61973223110792,33.41201665318837,35.13723904513733,1577399221.0,-27.69402467211269,-51.11379329653731,6.986426
21607,1577399221.47,0.4966216589950927,-1.5630341155261531,12.481440415694072,-0.5394545106469135,3.41924114409656,15.276583261182834,-2.04634167748428,-5.918758479718464,17.496825732421875,-14.432395376810216,1.1935350371570124,0.8931974085365854,-11.849194038205033,-2.308543135480183,2.8318079506478657,-6.375010420636433,3.122097108422256,-10.717252405678352,-6.963668536324786,6.032828792735044,-2.630143583268583,-15.907472835657927,6.690346762612387,-2.778832120403635,28.4520022763351,33.699553718513194,35.113277623026924,1577399221.0,-27.69402467211269,-51.11379329653731,6.986426
21608,1577399221.48,0.9910243018173582,1.8331409394054867,14.487781406905013,5.218600482028868,-2.277761706245236,10.26791338813596,-5.637644167718655,-9.98171869700362,11.487379565429686,0.2313009122522865,-5.001533322217988,-0.0528475133384145,-4.616528022580031,20.68645198170732,0.9549768959603658,-15.576060225323932,-13.708347227515244,-4.430631311928353,-8.197736378205128,7.873352831196581,-3.381613178488186,-14.777524258593967,-3.665943431568431,-4.032537774725275,28.428040854224697,33.65163087429239,35.13723904513733,1577399221.0,-27.69402467211269,-51.11379329653731,6.986426
21609,1577399221.49,0.222485568907202,-5.665498660203888,7.968370286299542,2.754966973728086,-8.734923583686642,-0.5634549224109183,3.8457886081602513,3.368349760027629,6.9144543945312495,-8.466208853372713,18.92424792778201,2.1749356897865857,-3.0601315382050305,6.770436356707317,-2.5545445884146343,-10.632212569073932,-28.753513243140244,-3.789762171303354,-7.4925547542735025,7.055342147435894,-3.0810253404003385,-12.723072300295856,-4.032537774725275,-4.032537774725275,28.66765507532872,33.55578518585078,35.13723904513733,1577399221.0,-27.69402467211269,-51.11379329653731,6.986426
21610,1577399221.5,2.915962436582984,-5.543394375535918,4.38185619938548,6.547382403415586,-3.5730248043897674,5.3861362030773625,4.710095407476658,13.605956058855757,7.42441934814453,-20.30702916587272,2.5668260527820124,-2.9214998570884143,-11.025219428830033,-10.960276533917684,2.4808558022103657,-12.127573897198932,-25.213474180640244,1.8559897818216464,-8.02144097222222,6.850839476495728,-3.531907097532104,-12.723072300295856,-4.032537774725275,-4.032537774725275,28.81142360799113,33.41201665318837,35.13723904513733,1577399221.0,-27.69402467211269,-51.11379329653731,6.986426
21611,1577399221.51,-0.7459690026259999,3.629989285352752,6.10568139469798,-4.504252459865663,4.409243530571169,7.361352572706269,3.639887265386813,0.133783317156536,-1.7298106994628906,14.833962045064789,-10.860908322217988,0.0387052210365854,-1.351147163205031,-3.925974776105183,0.1004847084603655,5.618397782488568,10.186916444359758,28.80301126619665,-7.316259348290595,6.646336805555558,-3.3816131784881867,-11.901291516976611,16.863339785214784,-4.032537774725275,28.40407943211429,33.53182376374038,35.16120046724773,1577399221.0,-27.69402467211269,-51.11379329653731,6.986426
21612,1577399221.52,0.1386885108017333,-5.792391348192169,5.126452915694073,3.90178956894293,-0.5611191159132044,2.311981271436737,-8.343092043695217,-19.57767895090987,8.734047656249999,-7.489646353372714,1.834404177782012,0.7711270960365855,-9.377270210080033,17.451588700457318,-3.7142125571646334,-4.467661787823933,43.05434808498475,4.755159703696647,-5.729600694444443,7.464347489316236,-2.479849664224669,-13.133962691955478,17.229934128371625,-4.032537774725275,28.57180938688711,33.41201665318837,35.13723904513733,1577399221.0,-27.69402467211269,-51.11379329653731,6.986426
21613,1577399221.53,2.528101767637672,-4.286438503953887,7.092092478682354,-1.3750308900414436,-0.6209741574171107,10.296643808057834,-7.450054824456936,-11.401480281476276,18.330007910156247,-5.811179556497714,8.639824099657012,2.5411466272865857,-1.9614987257050305,-17.430003096417682,4.922262052210366,4.138295243426067,29.22988519435976,-35.25338521817835,-8.374031784188034,6.441834134615387,-3.231319259444269,-16.421085825232456,15.030368069430567,-4.032537774725275,28.428040854224697,33.41201665318837,35.233084733578934,1577399221.0,-27.69402467211269,-51.11379329653731,6.986426
21614,1577399221.54,0.2272739722275145,-2.495575662157012,14.952256528975322,-2.447633233791444,-1.6409040646436732,19.89260406196408,5.18654153784775,4.292511600847942,20.46084738769531,-23.14516393149772,0.8273240996570121,-0.2969881383384145,-5.684643256955031,9.394948075457316,2.9386194740853657,-6.329234053448933,-5.529636290015244,-18.956998499428355,-7.4925547542735025,4.601310096153845,-3.0810253404003385,-15.804750237743024,13.74728786838162,-3.2950638604184275,28.66765507532872,33.55578518585078,35.28100757779974,1577399221.0,-27.69402467211269,-51.11379329653731,6.986426
21615,1577399221.55,0.1542508215927494,-2.560219106981231,13.17815309879954,4.823557208103086,-4.255372277534299,13.52402764594846,3.924797262945408,6.2389975505549735,11.511321582031249,-6.848777212747712,14.33135241996951,3.9754727991615857,-6.417065131955031,16.780201981707318,3.5794886147103657,-10.082896162823932,-15.112155821265244,-6.322721155678353,-7.4925547542735025,6.032828792735041,-2.780437502312504,-9.8468395586785,-3.665943431568431,-4.032537774725275,28.547847964776714,33.50786234162997,34.993470512474914,1577399221.0,-27.69402467211269,-51.11379329653731,6.986426
21616,1577399221.56,-0.3545170311904532,-0.417408621141387,11.86373638737376,-1.1727208497582415,-2.662031072700314,16.14089006049924,2.892896347418064,6.99436817433427,20.37226192626953,-16.431296743997713,5.343925662157012,0.3133634241615854,-4.860668647580031,-9.495432783917684,3.8999231850228657,-8.602793623761432,-36.82541265720275,13.452669469321648,-6.7873731303418765,6.237331463675212,-3.682201016576021,-9.025058775359255,-2.566160402097902,-2.85257951183432,28.428040854224697,33.53182376374038,35.065354778806125,1577399221.0,-27.69402467211269,-51.11379329653731,6.986426
21617,1577399221.57,-2.126226259706078,0.5809734711437682,8.279616502119854,-4.4036959901391,-1.693576501167111,9.219253060987516,7.271891183843844,11.621162882586225,6.004657763671875,-4.498923697122714,7.449638552782012,4.738412252286586,-2.8465084913300305,4.542653153582317,0.2835901772103658,-11.456187178448932,-53.89999761814025,30.664583531821645,-6.611077724358971,5.21481810897436,-2.930731421356421,-9.025058775359255,-3.665943431568431,-3.4425586432797965,28.61973223110792,33.65163087429239,35.13723904513733,1577399221.0,-27.69402467211269,-51.11379329653731,6.986426
21618,1577399221.58,-3.5076806176162343,0.3463417084484557,5.07138627751048,-2.5793143251000386,-2.6440745602491424,-1.413396511766387,-2.132532937249904,-21.28953313792159,-0.076614453125,2.6116720060022867,-1.308906369092988,2.3580411585365857,-2.7549557569550305,-2.934153487042683,-0.9371129477896342,-16.430552412823932,-36.96274175876525,34.93704446932165,-7.139963942307691,4.601310096153845,-3.381613178488186,-16.421085825232456,-4.032537774725275,-27.33671346682164,28.428040854224697,33.65163087429239,34.993470512474914,1577399221.0,-27.69402467211269,-51.11379329653731,6.986426
21619,1577399221.59,0.2392449805282958,-6.465162014696075,7.652335667158916,-2.967174994045351,-1.066295666206173,3.741319662550018,3.422014914312595,-9.873979622296588,-0.86191259765625,-12.952292837747711,-17.055976681592988,-0.4800936070884145,-6.172924506955031,-8.335764815167684,5.563131192835366,-7.885630537823933,16.076809022484756,4.877230016196647,-8.55032719017094,6.237331463675212,-3.682201016576021,-11.901291516976611,18.32971715784216,-1.0826421174978862,28.428040854224697,33.55578518585078,35.13723904513733,1577399221.0,-27.69402467211269,-51.11379329653731,6.986426
21620,1577399221.6,2.7770987402939213,2.417326144483612,5.09053989079173,5.08931359238043,1.608027588188357,6.975886105421112,-0.1142209377381852,-5.751164363507527,8.482656481933594,17.077004037252287,-16.323554806592988,0.8016446741615855,-2.8770260694550305,4.420582841082317,0.1615198647103658,2.215687821551067,23.15688714748476,-33.33077779630335,-7.139963942307691,5.828326121794872,-3.682201016576021,-11.079510733657369,18.696311500999,-4.032537774725275,28.38011801000389,33.41201665318837,35.08931620091653,1577399221.0,-27.69402467211269,-51.11379329653731,6.986426
21621,1577399221.61,-1.1757282006240468,-2.2154540679187305,11.348983030440166,-0.3718603944359749,0.9161033084032008,9.367693563917204,6.180135226812594,0.7945829753596599,11.298237634277344,-9.778464712747711,-12.783515744092988,2.3580411585365857,-13.191967475705033,0.9415789348323172,2.2672327553353657,4.504506180926067,19.83047113185976,-17.400602015053355,-7.668850160256408,6.0328287927350415,-3.531907097532104,0.0145298411524369,-4.032537774725275,-4.032537774725275,28.475963698445504,33.50786234162997,35.28100757779974,1577399221.0,-27.69402467211269,-51.11379329653731,6.986426
21622,1577399221.62,2.3150178198837645,-0.9728634062976368,13.41517906315501,4.20824738144293,-0.5419655026319544,11.503321444776583,-4.428572329339748,-0.3330860065739327,13.517662573242188,-8.557761587747713,-6.496894650342988,1.9307950647865848,-9.926586616330033,1.7960711223323171,1.1380823647103655,1.8494768840510671,23.55361566310976,-3.148893030678354,-6.963668536324786,7.668850160256405,-5.03484628797129,0.0145298411524369,-4.032537774725275,-4.032537774725275,28.428040854224697,33.747476562734,35.13723904513733,1577399221.0,-27.69402467211269,-51.11379329653731,6.986426
21623,1577399221.63,-2.535634743592797,-0.5012056792468558,19.738265647627667,2.113320928806212,-2.9744743893507053,15.79612502143674,2.0597141696836885,-1.5445520466129952,7.71890615234375,-18.20131627524772,16.299736209032012,3.4261563929115857,-8.065014350705031,9.120289872332316,0.7413538490853658,-5.871470381573933,26.08657464748476,6.799837438071647,-8.90291800213675,5.41932077991453,-3.381613178488186,-2.861702900464919,1.0997830294705304,-2.852579511834319,28.61973223110792,33.65163087429239,35.13723904513733,1577399221.0,-27.69402467211269,-51.11379329653731,6.986426
21624,1577399221.64,1.802658664610327,-5.473962527391387,4.396221409346417,1.363935809177305,-0.5156292843702357,8.103555087354705,1.853812826910251,-3.629901692609089,9.39724151611328,-16.644919790872713,16.604911990282012,5.013070455411586,-5.043774116330031,6.739918778582317,0.2530725990853658,4.412953446551067,17.938381288109756,17.358919469321645,-8.374031784188034,7.668850160256405,-2.930731421356421,-14.366633866934349,-4.032537774725275,-37.07136913567202,28.57180938688711,33.50786234162997,35.424776110462155,1577399221.0,-27.69402467211269,-51.11379329653731,6.986426
21625,1577399221.65,0.174601535704077,-0.4006492095202933,8.95956977360423,-0.4317154359398811,-3.6999174923780487,5.417260824659393,-5.09176618920303,-16.13002856028487,8.238447912597655,-7.337058462747714,-5.001533322217988,0.5269864710365855,-2.1751217725800305,-10.197337080792684,6.661764005335366,-11.425669600323932,3.778225038109756,6.891390172446647,-6.611077724358971,6.850839476495728,-2.930731421356421,-11.490401125316987,-4.032537774725275,-34.71145260989011,28.475963698445504,33.65163087429239,35.233084733578934,1577399221.0,-27.69402467211269,-51.11379329653731,6.986426
21626,1577399221.66,-1.0392587059951406,0.7006835541515807,9.831059177901103,-1.264897613674256,0.9352569216844508,6.149886532667206,-6.458855337152249,-9.85961441233565,5.810727429199218,10.363136849752289,5.893242068407012,4.829964986661586,-10.262279975705033,-0.2180890339176829,0.2835901772103658,-9.228403975323932,4.266506288109756,1.6423667349466462,-7.4925547542735025,6.646336805555557,-3.982788854663856,-11.490401125316987,-1.832971715784216,-32.3515360841082,28.57180938688711,33.50786234162997,34.993470512474914,1577399221.0,-27.69402467211269,-51.11379329653731,6.986426
21627,1577399221.67,-2.066371218202172,-0.1468638335437312,6.773663657881573,-2.612833148342226,0.0015182742235133,7.765972653272675,-2.5802486476991238,-7.522873592023151,7.208941198730468,-8.695090689310213,3.1161424590320124,4.768929830411586,-5.226879585080031,-2.903635908917683,6.234517911585366,-12.890513350323932,0.207668397484756,-9.191373499428352,-6.963668536324786,5.623823450854699,-4.133082773707776,-12.517627104466046,-1.649674544205794,-32.20404130124683,28.547847964776714,33.55578518585078,34.993470512474914,1577399221.0,-27.69402467211269,-51.11379329653731,6.986426
21628,1577399221.68,0.739633127500952,-2.952868179246856,8.253280283858135,-4.860988507228944,-2.806880273139768,5.1060146088390805,-2.7646021755311545,16.816580485125286,12.459425439453124,-23.75551549399772,-11.227119259717988,3.1514981897865857,-5.379467475705031,1.2772722942073171,4.037252286585366,-8.007700850323932,-14.806980040015244,2.008577672446646,-8.55032719017094,5.41932077991453,-3.0810253404003385,-16.421085825232456,-0.7331886863136862,-32.3515360841082,28.76350076377033,33.41201665318837,35.08931620091653,1577399221.0,-27.69402467211269,-51.11379329653731,6.986426
21629,1577399221.69,-1.8604698754287343,1.0262949799328307,15.591508372237042,-0.8219703065453499,-3.7142827023389855,5.932014181592987,-1.5267999172303726,-7.630612666730182,16.72110439453125,-2.4542459627477133,1.193535037157012,3.7923673304115857,-3.762035835080032,-8.457835127667684,7.851949552210366,-26.56238835032393,-35.61996832126525,9.760042516196648,-8.197736378205128,5.010315438034185,-4.583964530839531,25.0788437323894,-4.032537774725275,-31.761556952662723,28.61973223110792,33.41201665318837,35.13723904513733,1577399221.0,-27.69402467211269,-51.11379329653731,6.986426
21630,1577399221.7,1.8433600928329832,-2.2633381011218554,10.336235728194072,-3.4196791078148823,-1.341628857124142,16.16004367378049,4.597567929449314,12.11436842457841,17.604564807128906,-9.747947134622711,-3.750312619092988,6.416879049161586,-4.311352241330031,-10.655100752667684,5.563131192835366,-18.32264225657393,-53.99155035251525,9.943147984946648,-7.668850160256408,6.441834134615387,-3.231319259444269,24.66795334072978,1.832971715784216,-4.032537774725275,28.475963698445504,33.50786234162997,35.13723904513733,1577399221.0,-27.69402467211269,-51.11379329653731,6.986426
21631,1577399221.71,-4.740694472596703,-1.755767349168731,9.79035774967845,0.4206203550757428,-1.7606141476514856,13.739505795362522,6.663763962164157,20.12536717946122,9.87608184814453,-7.947410025247714,8.975517459032012,5.104623189786586,-2.7244381788300305,2.955739091082317,4.311910489710366,-13.561900069073932,-55.57846441501525,30.023714391196645,-8.55032719017094,5.010315438034185,-3.0810253404003385,-15.599305041913214,-4.032537774725275,1.867253539729502,28.57180938688711,33.65163087429239,35.13723904513733,1577399221.0,-27.69402467211269,-51.11379329653731,6.986426
21632,1577399221.72,-2.229176931092797,-7.695781668016387,7.183072141768292,-3.3981312928734755,-3.231851067817502,11.387202664259004,-3.936563888177639,-11.024393520001668,5.6563014221191406,-15.668357290872711,9.891044802782012,8.247933736661585,-4.204540717892531,-11.494334151105184,4.235616544397866,-18.47523014719893,-12.396091368140246,11.713167516196645,-9.255508814102562,5.828326121794872,-3.682201016576021,-15.599305041913214,-2.9327547452547447,-0.4926629860524088,28.475963698445504,33.50786234162997,35.32893042202055,1577399221.0,-27.69402467211269,-51.11379329653731,6.986426
21633,1577399221.73,0.5911926245712645,-0.3958608061999807,7.8199297833698544,1.2418315245093363,-1.494857763374142,3.279238742139862,2.976693405523533,-3.809466817120808,-0.9983820922851562,-4.163230337747714,-5.001533322217988,6.722054830411586,-0.4661373975800305,2.040211747332317,4.128805020960366,5.236928055926067,37.53066644435975,1.9170249380716464,-8.02144097222222,5.21481810897436,-2.930731421356421,-16.010195433572836,-2.9327547452547447,-2.5575899461115803,28.38011801000389,33.65163087429239,35.13723904513733,1577399221.0,-27.69402467211269,-51.11379329653731,6.986426
21634,1577399221.74,1.524931272032202,1.1412166596203306,11.478269920088604,2.9656567198218364,0.3031876834032008,7.488245260694549,-6.24098298607803,-17.62401039622237,15.521609362792969,6.426369271627286,-15.408027462842988,3.2430509241615857,-6.813793647580031,-8.732493330792684,7.241597989710366,-3.430064131573933,29.07729730373476,-8.092740686928353,-8.55032719017094,6.646336805555557,-3.0810253404003385,-16.010195433572836,14.297179383116884,-2.5575899461115803,28.428040854224697,33.36409380896756,35.32893042202055,1577399221.0,-27.69402467211269,-51.11379329653731,6.986426
21635,1577399221.75,1.0820039649032958,-2.7924566680163867,6.574944920088605,0.9760751402319928,0.880190283500857,11.35248674018674,1.4491927463438448,1.2279334758479412,15.48809053955078,2.4285665372522867,-6.100166134717988,6.416879049161586,-6.203442085080031,0.239674637957317,6.326070645960366,-15.118296553448932,-7.086032774390244,-4.308560999428353,-8.374031784188034,6.441834134615387,-2.930731421356421,-16.010195433572836,-2.5661604020979016,-4.032537774725275,28.428040854224697,33.55578518585078,35.13723904513733,1577399221.0,-27.69402467211269,-51.11379329653731,6.986426
21636,1577399221.76,0.6294998511337645,-1.7270369292468557,11.827823362471417,-0.2090546815453499,-3.3407872433546117,4.459580160596893,-4.09577829857803,0.3157426433284099,8.180987072753906,-11.975730337747711,-7.748115353467988,3.2125333460365857,-8.461742866330031,1.7350359660823171,6.844869474085366,-9.869273115948932,-17.309421446265244,12.415071813071648,-8.55032719017094,5.010315438034185,-3.682201016576021,-16.421085825232456,-4.032537774725275,-32.05654651838546,28.284272321562284,33.55578518585078,35.32893042202055,1577399221.0,-27.69402467211269,-51.11379329653731,6.986426
21637,1577399221.77,-2.202840712831078,0.8371530487804869,12.28511587956126,-3.374189276271913,-6.328750915229612,5.908072164991425,2.24406769751572,-2.758412288312214,7.64229169921875,2.2149434903772867,16.269218630907012,8.858285299161585,-5.043774116330031,-13.523753096417684,9.744039395960366,-17.254527022198932,-0.921481993140244,14.459749547446648,-8.55032719017094,5.010315438034185,-3.682201016576021,-14.98296945442378,-3.849240603146853,-29.99161955832629,28.38011801000389,33.699553718513194,35.13723904513733,1577399221.0,-27.69402467211269,-51.11379329653731,6.986426
21638,1577399221.78,-2.4566260888076408,-2.8547059111804494,10.032172117354229,-3.043789447170351,-0.1397396237257044,12.829709164503146,-0.4901105983827165,4.089004459734661,15.47611953125,-21.13100377524772,14.438163943407012,5.409798971036586,-0.2830319288300305,-12.425120283917684,3.9151819740853657,3.680531571551067,-7.879489805640244,12.933870641196648,-9.079213408119656,7.259844818376065,-3.8324949356199385,-14.98296945442378,-3.849240603146853,-32.20404130124683,28.475963698445504,33.55578518585078,35.13723904513733,1577399221.0,-27.69402467211269,-51.11379329653731,6.986426
21639,1577399221.79,-2.4769768029189687,-2.410581503221465,9.428833298994856,-2.2177898744164435,-3.3910654782178926,10.014128012159397,7.314986813726657,5.729032596941692,6.066907006835937,-11.640036978372716,-7.076728634717988,4.799447408536586,-0.7407956007050305,-8.579905440167684,5.135885099085366,4.412953446551067,-1.1351050400152438,25.507112828696645,-8.726622596153845,4.805812767094016,-3.2313192594442626,-15.599305041913214,16.863339785214784,-31.761556952662723,28.595770808997518,33.55578518585078,35.233084733578934,1577399221.0,-27.69402467211269,-51.11379329653731,6.986426
21640,1577399221.8,-2.413530458924828,-2.418961209032012,10.47270522282298,-3.4472124269066784,-1.6863938961866418,10.226014859083222,-4.38308249779678,-22.128700819806355,14.911087939453123,0.4449239591272865,-5.672920040967988,7.362923971036586,-3.380566108517531,-9.693797041730184,3.4726770912728657,-14.30958073313643,0.2229271865472561,-3.2251869759908534,-7.316259348290597,6.441834134615387,-2.930731421356421,-15.393859846083402,11.181127466283716,-1.525126466081995,28.66765507532872,33.7714379848444,35.233084733578934,1577399221.0,-27.69402467211269,-51.11379329653731,6.986426
21641,1577399221.81,0.9814474951767332,-1.959274490282012,9.43841010563548,-0.0199127503930061,0.3606485232469508,8.211294162061737,-0.98571034203506,18.19324643971513,10.503362683105468,-2.6068338533727133,-8.755195431592988,6.569466939786586,-6.844311225705031,-1.8050030964176829,6.631246427210366,-5.108530928448933,-8.733981993140244,-0.7380043588033537,-7.316259348290597,6.441834134615387,-2.930731421356421,-16.421085825232456,14.663773726273726,-2.5575899461115803,28.38011801000389,33.50786234162997,35.32893042202055,1577399221.0,-27.69402467211269,-51.11379329653731,6.986426
21642,1577399221.82,2.185730930235327,-2.0765903716296683,9.23969136784251,1.344782195896055,-5.830756969917111,4.914478476026581,0.4867236789610324,-5.554839827374714,7.790732202148437,-2.0880350252477133,-18.917548947217988,4.250131002286586,3.7758059617949695,-4.887278487042683,6.844869474085366,-4.650767256573933,-9.954685118140244,6.097933141196647,-7.845145566239314,6.237331463675212,-3.381613178488186,-16.421085825232456,17.229934128371625,-3.737548209002536,28.38011801000389,33.65163087429239,35.13723904513733,1577399221.0,-27.69402467211269,-51.11379329653731,6.986426
21643,1577399221.83,1.2795256018661871,-2.216651168748809,10.882113706709696,3.296056548923399,-3.668792870796018,6.315086447217987,0.893737961187595,7.919727115984661,4.321533996582031,-2.8509744783727133,-2.956855587842988,5.470834127286586,-4.250317085080031,-7.420237471417683,5.837789395960366,-3.948862959698933,3.259426209984756,5.640169469321647,-8.109588675213674,5.317069444444443,-4.358523652273653,-15.804750237743024,-3.849240603146853,-3.000074294695689,28.499925120555904,33.55578518585078,35.13723904513733,1577399221.0,-27.69402467211269,-51.11379329653731,6.986426
21644,1577399221.84,1.5871805151962646,4.241707809522675,8.303558518721417,0.4720956907691026,1.081303222953982,8.102357986524629,-0.922263998040921,-7.50491707957198,5.753266589355468,17.443214974752287,-0.4849317597179878,5.745492330411586,-5.669384467892531,-4.887278487042683,5.380025724085366,11.050526688738568,42.58132562404725,25.293489781821645,-7.845145566239314,6.237331463675212,-3.982788854663856,-12.517627104466044,7.331886863136862,-32.20404130124683,28.61973223110792,33.60370803007159,35.113277623026924,1577399221.0,-27.69402467211269,-51.11379329653731,6.986426
21645,1577399221.85,-0.3569112328506094,-3.599302627489043,10.609174717451886,-0.7740862733422249,-4.0015869015577366,6.408460311964081,-10.79954294701553,-34.44327705882003,22.285229052734373,-11.548484243997711,-0.8816602753429879,3.3651212366615857,-2.8159909132050305,-3.117258955792683,3.7320765053353657,-11.242564131573932,18.57925042873476,-29.119352015053355,-7.845145566239314,6.237331463675212,-3.982788854663856,-16.421085825232456,17.963122814685313,-32.05654651838546,28.428040854224697,33.50786234162997,35.13723904513733,1577399221.0,-27.69402467211269,-51.11379329653731,6.986426
21646,1577399221.86,-1.781461220643578,-1.4517037383288869,7.527837180830792,-2.0094943299828496,-0.1684700436475794,12.817738156202363,4.192947848882907,30.070880875750284,11.513715783691406,-2.6983865877477133,-2.438056759717988,6.477914205411586,-6.691723335080031,-7.878001143292683,5.105367520960366,15.002553055926068,-10.809177305640244,-16.485074671303355,-8.02144097222222,5.623823450854701,-4.734258449883449,-16.421085825232456,17.963122814685313,-32.05654651838546,28.475963698445504,33.65163087429239,35.13723904513733,1577399221.0,-27.69402467211269,-51.11379329653731,6.986426
21647,1577399221.87,-0.5867545922256094,-1.5797935271472463,14.228010526778055,0.3140783811987901,-2.401063091743283,14.879145785596895,-0.5320091274354517,-4.118318831280964,9.745597857666016,-9.015525259622716,-3.994453244092988,4.982552877286585,-6.188183296017531,4.054371903582316,5.730977872522866,-2.499277998761432,6.417995545922256,9.927889195884145,-8.462179487179487,5.5215721153846165,-4.057935814185818,-5.7379356420822765,-3.299349088411588,-15.537130837912088,28.57180938688711,33.43597807529877,35.04139335669572,1577399221.0,-27.69402467211269,-51.11379329653731,6.986426
21648,1577399221.88,1.237627072813452,-2.548248098680449,10.355389341475323,4.098114105075743,-1.2003709591749232,3.300786557081268,6.9678275730040005,25.82356713063309,-0.1197100830078125,-11.701072134622711,-2.468574337842988,4.799447408536586,-3.945141303830032,1.0636492473323171,5.685201505335366,5.542103837176067,-0.921481993140244,4.297396031821647,-9.608099626068377,5.828326121794872,-4.2833766927516965,-3.2725932921245406,-4.032537774725275,-32.05654651838546,28.61973223110792,33.699553718513194,35.233084733578934,1577399221.0,-27.69402467211269,-51.11379329653731,6.986426
21649,1577399221.89,1.4171921973251709,-0.5443013091296682,11.396867063643292,5.309580145114805,1.337482800590701,6.5497182099133,1.0158422458555638,7.041055106707317,-0.3040636108398437,3.3135763028772867,-1.278388790967988,5.165658346036586,-5.471020210080031,4.115407059832317,6.661764005335366,11.554066727801068,13.726955506859756,24.438997594321645,-9.608099626068377,5.828326121794872,-4.2833766927516965,-11.901291516976611,-2.5661604020979016,-41.201223055790365,28.428040854224697,33.50786234162997,35.13723904513733,1577399221.0,-27.69402467211269,-51.11379329653731,6.986426
21650,1577399221.9,-1.1039021508193592,-2.1951033538074025,8.559738096358135,0.9401621153296492,-3.2761437985303927,8.3118506317883,-10.804331350335842,-33.38264572337081,16.086640954589843,-5.277121939310213,-4.894721798780488,4.433236471036586,-2.8159909132050305,-1.6524152057926829,2.8165491615853657,-9.380991865948932,6.006008241234756,7.471224156821647,-8.55032719017094,5.828326121794873,-3.8324949356199416,-12.723072300295856,-1.832971715784216,-36.48139000422654,28.4759636984455,33.55578518585078,34.993470512474914,1577399221.0,-27.69402467211269,-51.11379329653731,6.986426
21651,1577399221.91,-2.928283815858422,-2.9049841460437307,13.309834190108136,-3.867394818264101,-2.6105557370069548,16.137298758009006,4.748402634039157,2.592628422137005,18.454506396484373,-15.851462759622711,1.712333865282012,8.400521627286585,-2.3734860303925305,-6.428416182355182,6.905904630335366,-10.26600163157393,-38.03085699314025,-2.7979408822408525,-9.255508814102562,5.41932077991453,-3.381613178488186,-14.058466073189628,-1.5580259584165832,-39.94751740146872,28.428040854224697,33.62766945218199,35.28100757779974,1577399221.0,-27.69402467211269,-51.11379329653731,6.986426
21652,1577399221.92,-2.760689699647485,-7.516216543504668,12.095973948408917,2.5059700010718364,-8.217776025092892,8.395647689893769,1.3031464450743135,2.013231620379192,16.309301708984375,-25.37294713462272,13.919365115282012,7.423959127286586,-2.1140866163300305,3.779713700457317,4.922262052210366,-14.843638350323932,-74.98764410251525,6.647249547446647,-8.726622596153845,6.441834134615387,-4.433670611795614,-11.490401125316987,-3.299349088411588,-32.3515360841082,28.428040854224697,33.55578518585078,34.993470512474914,1577399221.0,-27.69402467211269,-51.11379329653731,6.986426
21653,1577399221.93,-0.7782907250381094,-1.7940745757312306,12.060060923506573,-0.3862256043969124,-3.2115003537061737,12.065958834913303,2.3398357639219696,12.940367997332316,8.990227233886719,-14.478171743997711,5.710136599657012,9.132943502286585,-7.027416694455031,-18.009837080792682,10.476461270960366,-10.906870772198932,-65.67978277439025,22.089144078696645,-8.726622596153845,6.441834134615387,-4.433670611795614,-16.421085825232456,-2.5661604020979016,-32.05654651838546,28.76350076377033,33.50786234162997,34.89762482403331,1577399221.0,-27.69402467211269,-51.11379329653731,6.986426
21654,1577399221.94,-0.4730300133681875,2.545415933301971,16.795791807295636,-0.2641213197289436,3.305516565239138,17.855138449171115,3.43159172095322,-1.8270678425114328,1.7334020019531249,-5.460227408060215,-13.988960080030488,5.028329244474086,4.416675102419969,-1.9575909870426829,2.1146448647103657,-8.404429365948932,-29.333347227515244,32.28201517244665,-9.167361111111113,6.544085470085472,-4.508817571317573,-9.8468395586785,-1.099783029470529,-32.05654651838546,28.61973223110792,33.41201665318837,35.32893042202055,1577399221.0,-27.69402467211269,-51.11379329653731,6.986426
21655,1577399221.95,2.0660208472275143,0.0422780976086119,7.827112388350323,5.956014593356993,-2.846384600532345,3.420496640089081,3.626719156255954,-5.849326631573932,0.3028665100097656,2.6421895841272867,-7.717597775342988,5.135140767911586,0.0679202196074695,-2.339060713605183,2.2977503334603657,13.125722001238568,42.24563226467225,18.90005716463415,-9.079213408119656,5.623823450854701,-4.433670611795614,-13.133962691955478,-3.299349088411588,-40.90623349006762,28.428040854224697,33.55578518585078,35.16120046724773,1577399221.0,-27.69402467211269,-51.11379329653731,6.986426
21656,1577399221.96,1.6853427832626708,-9.726064675828887,-2.127978114579364,1.361541607517149,-2.435779015815548,2.4915463959484554,-9.343868337640531,-17.13080485423018,11.049240661621091,-2.7594217439977133,10.806572146532012,5.592904439786586,2.585620414919969,-10.258372237042684,6.600728849085366,11.004750321551068,51.29409417873475,-1.5619789681783538,-9.784395032051282,6.441834134615387,-3.531907097532104,-16.421085825232456,-4.032537774725275,-37.661348267117496,28.475963698445504,33.41201665318837,35.52062179890376,1577399221.0,-27.69402467211269,-51.11379329653731,6.986426
21657,1577399221.97,1.6925253882431397,-1.3918486968249806,3.943717295576886,-1.9807639100609749,0.0230660891649195,7.629503158643768,-5.309638540277249,-22.49860497630049,17.84877337646484,19.304787240377287,-8.175361447217988,5.470834127286586,-6.752758491330031,-5.558665205792683,7.424703458460366,-8.526499678448932,33.89907464748475,-35.65011373380335,-9.784395032051282,6.441834134615387,-3.531907097532104,-16.421085825232456,-4.032537774725275,-37.661348267117496,28.475963698445504,33.41201665318837,35.13723904513733,1577399221.0,-27.69402467211269,-51.11379329653731,6.986426
21658,1577399221.98,-0.4167662743545161,0.6384343109875187,14.564395860030013,-0.0414605653344135,-1.2686057064893772,11.490153335645722,9.104652554693454,32.63507085377763,13.018471527099608,3.115212045064788,-5.886543087842988,6.340585103849085,0.0984377977324695,4.054371903582317,5.547872403772866,13.903920243426068,6.067043397484756,3.412386266196646,-9.255508814102564,6.850839476495726,-3.3816131784881867,-16.31836322731755,-2.107917473151848,-21.36317476093618,28.619732231107918,33.53182376374038,35.13723904513733,1577399221.0,-27.69402467211269,-51.11379329653731,6.986426
21659,1577399221.99,-2.6673158349013906,-1.2625618071765432,13.479822507979229,-1.9903407167016,-1.995245910346798,12.020469003370334,-4.65123308373428,-23.04687715647628,15.021221215820312,-15.332663931497711,23.44084949028201,11.208138814786585,-8.187084663205031,-15.537913252667684,8.614889005335366,-7.824595381573933,15.924221131859756,15.314241734946648,-8.374031784188034,5.21481810897436,-3.531907097532104,-16.010195433572836,-1.466377372627372,-3.4425586432797965,28.428040854224697,33.36409380896756,35.28100757779974,1577399221.0,-27.69402467211269,-51.11379329653731,6.986426
21660,1577399222.0,-0.1462214867568594,-3.616062039110137,7.66909507878001,-2.7038128114281634,-1.976092297065548,13.143349581983616,-4.311256447992092,-5.588358650616901,10.996568225097656,-20.88686315024772,23.41033191215701,9.407601705411585,5.606860649294969,7.899586747332317,3.1217249428353657,2.002064774676067,14.123684022484756,8.539339391196647,-9.608099626068377,5.41932077991453,-2.479849664224669,-13.5448530836151,-4.032537774725275,2.1622431054522404,28.475963698445504,33.50786234162997,35.233084733578934,1577399222.0,-27.694015410073074,-51.11386196364206,6.758698
21661,1577399222.01,1.9798295874618892,-8.263207461473419,2.710703440596417,7.749271636814024,-7.5330343502882045,2.254520431592987,4.341388351812595,3.9525349651057535,11.980585107421874,-6.574119009622714,0.8883592559070121,6.050668111661586,3.9589114305449695,0.6974383098323171,6.722799161585366,-7.885630537823933,-2.874606993140244,10.126253453696648,-9.431804220085471,6.0328287927350415,-3.531907097532104,-14.98296945442378,16.680042613636363,-3.5900534261411665,28.76350076377033,33.55578518585078,35.32893042202055,1577399222.0,-27.694015410073074,-51.11386196364206,6.758698
21662,1577399222.02,1.7272413123154051,0.8730660736828314,11.715295884444073,-0.6831066102562874,2.2568562380907013,5.838640316846893,-0.308151272210842,-1.8905141865055728,4.988319158935546,8.364235482564787,-14.706123165967988,5.165658346036586,1.7921633836699693,-12.73029606516768,4.784932950647866,4.138295243426067,8.691555116234756,-3.682950647865853,-9.079213408119658,6.0328287927350415,-3.531907097532104,-16.215640629402646,-3.849240603146853,-18.04454214655537,28.35615658789349,33.53182376374038,35.233084733578934,1577399222.0,-27.694015410073074,-51.11386196364206,6.758698
21663,1577399222.03,2.798646555235328,0.7629327973156431,9.67543606999095,6.149944927829648,-3.218682958686643,1.5458367401867368,4.77234465064072,25.198680497332315,8.066065393066406,23.546730599752287,-10.647285275342988,3.2430509241615857,0.6324954149199695,9.974782059832316,7.211080411585366,18.664662430926068,21.87514886623476,20.410677281821645,-9.255508814102562,6.237331463675212,-4.583964530839531,-15.599305041913214,15.030368069430567,-31.761556952662723,28.475963698445504,33.65163087429239,35.08931620091653,1577399222.0,-27.694015410073074,-51.11386196364206,6.758698
21664,1577399222.04,-0.6059082055068594,-4.30319791557498,9.601215818526104,-5.423625897365663,-5.873852599799924,-0.9872286162585744,-6.497162563714749,-32.116113045148154,8.058882788085937,0.1092305997522865,-2.773750119092988,5.348763814786586,0.6324954149199695,-3.880198408917683,3.9151819740853657,-1.4769391315739329,20.41030511623476,13.910433141196648,-7.845145566239314,4.192304754273503,-3.0810253404003385,-16.010195433572836,16.496745442057946,-32.3515360841082,28.61973223110792,33.55578518585078,35.28100757779974,1577399222.0,-27.694015410073074,-51.11386196364206,6.758698
21665,1577399222.05,-0.7244211876845942,-1.6611963835925594,9.141529099776106,-3.769232550197695,-0.2211424801710169,10.399594479444552,2.993452817144626,-5.602723860577838,7.352593298339843,-9.671653189310216,14.62126941215701,6.325326314786586,4.996509086794969,-10.929758955792684,9.316793302210366,-13.104136397198932,-2.905124571265244,-15.294889124428352,-8.90291800213675,3.783299412393162,-3.682201016576021,-16.010195433572836,15.030368069430567,-32.3515360841082,28.523886542666308,33.699553718513194,35.28100757779974,1577399222.0,-27.694015410073074,-51.11386196364206,6.758698
21666,1577399222.06,-4.400717836854516,-0.5299360991687307,12.70649537174876,0.5594840513648054,-0.5958350399854706,12.908717819288302,5.996978799810641,7.70903736989091,15.982493182373046,-5.689109243997714,-11.318671994092988,4.982552877286586,-1.427441108517531,2.131764481707317,4.662862638147866,-13.821299483136432,-5.270236875952744,-1.5619789681783534,-8.374031784188034,6.0328287927350415,-3.8324949356199385,-14.161188671104536,14.663773726273725,-16.71708910080304,28.61973223110792,33.45993949740917,35.233084733578934,1577399222.0,-27.694015410073074,-51.11386196364206,6.758698
21667,1577399222.07,-1.9706031517959215,-2.229819277879668,11.911620420576885,-0.3024285462914436,-5.35909924286633,9.286290707471894,3.038942648687595,5.573409489031536,2.250549560546875,-0.5011209627477134,10.745536990282012,6.905160299161586,1.7921633836699695,-2.506907393292683,7.851949552210366,5.358998368426067,12.140041444359756,8.630892125571647,-9.079213408119656,6.0328287927350415,-4.13308277370778,-12.106736712806422,-3.849240603146853,-3.8850429918639056,28.61973223110792,33.41201665318837,34.993470512474914,1577399222.0,-27.694015410073074,-51.11386196364206,6.758698
21668,1577399222.08,0.5026071631454833,-1.0829966826648243,10.168641611983135,-2.512276678615663,3.650281604301638,7.416419210889862,-1.0934494167420914,13.14866354176591,8.125920434570313,-7.825339712747714,-2.926338009717988,6.844125142911586,7.529468071169969,-11.814768721417684,2.9996546303353657,10.455433915301068,20.25771722560976,21.295687047446645,-8.374031784188034,4.396807425213674,-3.531907097532104,-12.106736712806422,-3.849240603146853,-3.8850429918639056,28.57180938688711,33.65163087429239,35.32893042202055,1577399222.0,-27.694015410073074,-51.11386196364206,6.758698
21669,1577399222.09,0.3960651892685307,-0.8794895415515437,6.564171012617901,-0.6902892152367561,-2.9744743893507053,3.743713864210174,3.501023569097751,-6.230004695538776,5.865794067382812,7.357155404439788,-11.394965939405488,4.005990377286586,5.149096977419969,-6.199534346417683,6.661764005335366,8.685414384051068,25.90346917873476,16.962190953696645,-9.079213408119656,6.441834134615387,-4.13308277370778,-12.106736712806422,17.41323129995005,-1.525126466081995,28.61973223110792,33.50786234162997,35.233084733578934,1577399222.0,-27.694015410073074,-51.11386196364206,6.758698
21670,1577399222.1,3.3133999121689213,-5.770843533250762,5.068992075850323,0.2039451048316026,-0.4318322262647678,1.620056991651581,-3.759392965326077,-10.954961671857138,-0.1592144104003906,6.639992318502286,-6.557929806592988,4.585824361661586,-1.4579586866425305,-1.2099103229801829,5.532613614710366,12.759511063738568,59.35073480373475,-5.849698694740853,-8.02144097222222,6.0328287927350415,-2.930731421356421,-14.263911269019438,16.954988371004,-2.483842554680896,28.428040854224697,33.7714379848444,35.376853266241355,1577399222.0,-27.694015410073074,-51.11386196364206,6.758698
21671,1577399222.11,0.126717502500952,0.6958951508312681,8.375384568526105,3.214653692478086,0.3798021365282008,5.503452084425018,-9.578500100335845,-15.756533101300494,13.850456604003906,1.3909688810022869,-9.121406369092988,4.402718892911586,-3.639965522580032,4.634205887957317,5.196920255335366,10.028187821551068,65.63735589748475,-10.564664515053352,-8.55032719017094,6.237331463675212,-3.682201016576021,-16.421085825232456,17.963122814685313,-1.3776316832206257,28.428040854224697,33.50786234162997,35.28100757779974,1577399222.0,-27.694015410073074,-51.11386196364206,6.758698
21672,1577399222.12,2.2958642066025146,3.351064791944549,9.179836326338606,-0.2377851014672249,-0.8125102902296107,12.207216732862522,-3.853963930902248,-4.115924629620808,19.783288317871094,12.407814584127289,-12.020576290967988,5.776009908536586,0.4799075242949695,-9.861643721417684,7.638326505335366,0.7203264934260671,31.51870355373476,-21.764615686928355,-8.02144097222222,5.623823450854701,-4.734258449883449,-9.8468395586785,-2.1995660589410586,-3.737548209002536,28.475963698445504,33.50786234162997,35.233084733578934,1577399222.0,-27.694015410073074,-51.11386196364206,6.758698
21673,1577399222.13,-0.4000068627334223,-2.863085616990997,10.68938047306712,-0.5669878297387103,-4.531902569282345,13.435442184522678,3.359765671148532,13.182182365008098,14.815319873046874,-12.021506704935216,7.663261599657011,5.043588033536586,-2.449779975705031,0.9568377238948172,3.2285364662728657,0.0641985637385671,-6.063693907202744,7.990022984946646,-9.960690438034188,5.41932077991453,-4.884552368927366,-5.532490446252465,-3.1160519168331664,-17.307068232248522,28.61973223110792,33.45993949740917,35.28100757779974,1577399222.0,-27.694015410073074,-51.11386196364206,6.758698
21674,1577399222.14,-0.5173227440810781,-2.833158096239043,14.540453843428448,4.145998138278867,-0.9561623898389856,10.397200277784396,0.13717023657822,-2.83742094309737,9.782707983398437,-24.36586705649772,12.454521365282012,5.440316549161586,-12.337475288205033,4.267994950457317,5.685201505335366,-7.610972334698933,-33.81943121189025,19.952913609946645,-6.963668536324786,4.396807425213674,-3.531907097532104,-8.203277992040011,0.0,-27.33671346682164,28.428040854224697,33.41201665318837,35.28100757779974,1577399222.0,-27.694015410073074,-51.11386196364206,6.758698
21675,1577399222.15,-2.459020290467797,-1.5211355864734182,11.581220591475322,-0.6926834168969124,-3.551476989448361,6.240866195753143,-5.407800808343655,0.612623649187785,9.51216319580078,-16.034568228372713,6.930839724657012,6.111703267911586,-4.341869819455031,-0.2180890339176829,3.9456995522103657,-10.784800459698932,-19.415134336890244,22.882601109946645,-8.55032719017094,7.055342147435894,-2.479849664224669,-9.435949167018876,-1.099783029470529,-31.171577821217245,28.57180938688711,33.699553718513194,35.233084733578934,1577399222.0,-27.694015410073074,-51.11386196364206,6.758698
21676,1577399222.16,-2.059188613221703,-4.717394802782012,7.410521299483135,-1.930485675197693,0.525848437797732,6.260019809034393,8.270273276129,-1.5972244831364326,5.061342309570312,-6.574119009622714,5.435478396532012,7.149300924161586,-7.363110053830031,-3.422434737042683,7.302633145960366,7.891957352801067,-11.938327696265244,19.373079625571645,-8.55032719017094,5.828326121794872,-3.682201016576021,-9.435949167018876,-4.032537774725275,-35.89141087278106,28.66765507532872,33.36409380896756,35.32893042202055,1577399222.0,-27.694015410073074,-51.11386196364206,6.758698
21677,1577399222.17,1.8696963110947025,5.392121707227753,7.236941679121807,1.0239591734351177,6.793868384086795,9.221647262647677,0.4723584690000951,-4.338585384015339,4.800374328613281,24.035011849752287,-15.224921994092988,4.555306783536586,-5.760937202267531,0.0870867473323171,4.861226895960366,-11.776621748761432,-2.355808165015244,-7.634977015053352,-7.139963942307691,5.41932077991453,-3.682201016576021,-12.928517496125668,-3.849240603146853,-36.03890565564243,28.428040854224697,33.62766945218199,35.20912331146853,1577399222.0,-27.694015410073074,-51.11386196364206,6.758698
21678,1577399222.18,-0.1414330834365469,-4.13081539604373,4.329183762862042,2.6687757139624613,-1.3200810421827356,4.974333517530488,-4.083807290277249,10.471946085711222,7.52737001953125,8.013283334127287,8.243095584032012,6.783089986661586,-9.285717475705033,3.047291825457317,5.410543302210366,4.901234696551067,10.431057069359756,-5.437711390053353,-7.139963942307691,5.41932077991453,-3.682201016576021,-11.28495592948718,-3.1160519168331664,-36.33389522136517,28.61973223110792,33.55578518585078,35.233084733578934,1577399222.0,-27.694015410073074,-51.11386196364206,6.758698
21679,1577399222.19,0.9622938818954831,-9.723670474168731,6.23975668766673,1.035930181735899,-7.497121325385861,5.082072592237519,-0.3847657253358414,-2.5285689289372137,-1.0103531005859374,-21.95497838462272,19.10735339653201,7.362923971036586,-0.0694088819550304,-7.481272627667683,9.011617520960366,8.899037430926068,28.95522699123476,8.752962438071647,-9.431804220085471,4.396807425213674,-3.8324949356199385,-12.928517496125668,-3.849240603146853,-36.62888478708791,28.475963698445504,33.41201665318837,35.13723904513733,1577399222.0,-27.694015410073074,-51.11386196364206,6.758698
21680,1577399222.2,0.714494010069312,-2.7122509124011525,7.728950120283916,-0.7621152650414437,-4.928142944038205,6.868147030714081,-0.8636060573670915,-11.183607930402056,3.799598034667969,-15.714133658060211,11.859428591844512,7.988534322599085,-6.294994819455031,-5.619700362042683,8.157125333460366,7.159535477801067,42.93227777248475,11.835237828696648,-9.69624732905983,6.748588141025641,-3.75734797609798,-12.928517496125668,-3.849240603146853,-36.03890565564243,28.523886542666304,33.41201665318837,35.13723904513733,1577399222.0,-27.694015410073074,-51.11386196364206,6.758698
21681,1577399222.21,1.745197824766577,2.9344737030773618,7.369819871260479,-0.7513413575707405,3.7376699648973415,10.959837667921114,2.931203573980563,9.514265421648725,11.954248889160157,7.189308724752286,8.670341677782012,12.459359517911585,-8.919506538205031,5.870167802019816,6.768575528772866,7.724110673113568,30.984645936547256,9.302278844321648,-9.960690438034188,7.055342147435894,-3.682201016576021,5.66427272647225,-0.8248372721028968,-17.675805189401945,28.57180938688711,33.579746607961184,35.376853266241355,1577399222.0,-27.694015410073074,-51.11386196364206,6.758698
21682,1577399222.22,0.3613492651962646,3.300786557081268,9.972317075850324,5.422107623142149,-3.115732287299924,1.0957268280773618,-6.12606130639053,-13.26177497141768,12.885593334960936,6.456886849752286,6.381523318407012,4.524789205411586,-9.896069038205033,12.141530106707316,2.6334436928353657,-5.016978194073933,4.815822694359756,8.600374547446647,-9.960690438034188,7.055342147435894,-3.682201016576021,27.33874088651733,-0.916485857892108,-2.70508472897295,28.475963698445504,33.50786234162997,35.13723904513733,1577399222.0,-27.694015410073074,-51.11386196364206,6.758698
21683,1577399222.23,-1.7958264306045155,-1.9329382720202928,7.712190708662823,-3.697406500393007,-4.157210009467892,5.146716037061737,1.0541494724180638,-6.694479817609088,4.666299035644531,-2.9730447908727133,17.734062380907012,10.262093892911585,-9.499340522580033,-18.13190739329268,10.659566739710366,-14.111216475323932,-10.534519102515244,-11.449674280678352,-9.255508814102562,6.237331463675212,-3.982788854663856,-14.777524258593967,-3.299349088411588,-1.6726212489433638,28.428040854224697,33.50786234162997,35.13723904513733,1577399222.0,-27.694015410073074,-51.11386196364206,6.758698
21684,1577399222.24,0.4786651465439208,-0.292910134813262,6.771269456221417,-2.8019750794945697,-0.0343947506788294,12.839285971143772,7.994940085211032,3.7202974040705983,7.448361364746093,-7.916892447122714,14.071953005907012,5.074105611661586,1.3649172899199695,6.495778153582317,2.6944788490853657,-23.51063053782393,-1.4707983993902438,-5.498746546303353,-9.784395032051282,6.850839476495728,-2.930731421356421,-16.421085825232456,-4.032537774725275,-1.3776316832206257,28.475963698445504,33.41201665318837,35.13723904513733,1577399222.0,-27.694015410073074,-51.11386196364206,6.758698
21685,1577399222.25,0.0405262427353275,-5.311156814500762,5.408968711592511,4.5123109922827735,-4.291285302436642,5.191008767774628,-4.675175100335843,-2.680600734357136,7.6614453125,-5.460227408060214,4.977714724657012,7.484994283536585,-8.858471381955031,0.9415789348323162,7.546773770960366,1.8647356731135671,17.96889886623476,16.21451028963415,-9.608099626068372,5.828326121794873,-3.8324949356199385,-16.215640629402646,-2.5661604020979016,-0.6401577689137784,28.4520022763351,33.62766945218199,35.11327762302693,1577399222.0,-27.694015410073074,-51.11386196364206,6.758698
21686,1577399222.26,-0.3856416527724844,-0.1923536650866995,11.846976975752666,-6.1275211854516005,-1.7366721310499231,10.576765402296116,-3.226683095941311,0.7227569255549725,12.23915888671875,-4.315818228372714,5.801689334032012,7.057748189786586,-4.158764350705031,-7.145579268292683,10.506978849085366,2.429310868426067,16.748195741234756,21.997591344321645,-9.079213408119656,5.21481810897436,-3.8324949356199385,-16.010195433572836,16.863339785214784,0.6872952768385466,28.61973223110792,33.55578518585078,35.13723904513733,1577399222.0,-27.694015410073074,-51.11386196364206,6.758698
21687,1577399222.27,1.2041082495712645,0.0925563324718932,11.131110679365948,0.3894957334937116,0.7197787722703882,8.017363827589081,-4.840375014886623,-7.834119807843463,11.956643090820313,-7.947410025247714,-2.193916134717988,7.759652486661586,-8.217602241330031,7.136647294207317,7.027974942835366,-3.948862959698933,15.985256288109756,19.098421422446645,-9.079213408119656,5.21481810897436,-3.8324949356199385,-16.421085825232456,17.963122814685313,-4.032537774725275,28.57180938688711,33.55578518585078,34.993470512474914,1577399222.0,-27.694015410073074,-51.11386196364206,6.758698
21688,1577399222.28,1.746394925596655,3.907716677930877,10.239270560957744,3.571389739841368,4.900054870903201,9.08996617133908,2.0214069431211885,-15.44049848215987,14.144943408203124,5.663429818502286,-1.0495069550304876,5.760751119474086,-13.741283881955033,8.265797684832316,7.851949552210366,-25.98255436594893,15.710598084984756,-14.074185999428352,-9.696247329059826,5.521572115384616,-4.057935814185818,-16.421085825232456,16.496745442057946,0.0973161453930689,28.547847964776714,33.55578518585078,35.424776110462155,1577399222.0,-27.694015410073074,-51.11386196364206,6.758698
21689,1577399222.29,-0.6633690453506095,-2.301645327684356,9.550937583662824,3.6408215879858994,-0.2738149166944549,6.972294802930879,-3.308085952386624,5.300470499773724,6.34583150024414,-6.970847525247714,14.987480349657012,8.278451314786585,-14.549999702267533,5.748097489519816,5.776754239710366,0.5829973918635671,42.16933831935975,-2.4012123666158534,-10.313281249999996,5.828326121794872,-3.381613178488186,-15.599305041913214,16.496745442057946,-2.5575899461115803,28.475963698445504,33.67559229640279,35.113277623026924,1577399222.0,-27.694015410073074,-51.11386196364206,6.758698
21690,1577399222.3,-0.1127026635146719,-5.473962527391387,7.07533306706126,-3.896125238185976,-1.6385098629835169,11.362063546827365,-13.14825477562881,-13.896238411359088,11.29344923095703,-23.90810338462272,24.90569324028201,6.752572408536586,-8.126049506955031,0.2701922160823171,10.873189786585366,-9.380991865948932,22.82119378810976,-3.576139124428354,-10.313281249999996,5.828326121794872,-3.381613178488186,-12.928517496125668,16.680042613636363,-2.70508472897295,28.61973223110792,33.747476562734,35.13723904513733,1577399222.0,-27.694015410073074,-51.11386196364206,6.758698
21691,1577399222.31,2.971029074766577,-7.272007974168731,10.834229673506574,4.581742840427305,-7.415718468940549,12.772248324659396,4.482646249761814,11.178235575457316,19.290082775878904,-26.99037877524772,5.557548709032012,4.860482564786586,-4.891186225705031,20.53386409108232,8.614889005335366,-8.923228194073932,-9.802097227515244,6.982942906821647,-10.313281249999996,5.828326121794872,-3.381613178488186,-13.955743475274724,16.496745442057946,-4.032537774725275,28.57180938688711,33.699553718513194,35.08931620091653,1577399222.0,-27.694015410073074,-51.11386196364206,6.758698
21692,1577399222.32,-0.0348911095595943,-2.5614162078113094,8.49988305485423,6.236136187595274,-3.8124449704053927,7.5816191254406435,6.139433798589938,11.051342887469035,20.508731420898435,-4.712546743997713,17.352592654344512,9.026131978849085,-7.363110053830031,9.517018387957316,4.342428067835366,-21.92371647532393,-30.737155821265244,24.744173375571645,-9.255508814102564,5.010315438034188,-4.283376692751697,-13.955743475274724,15.030368069430567,-4.032537774725275,28.66765507532872,33.50786234162997,35.233084733578934,1577399222.0,-27.694015410073074,-51.11386196364206,6.758698
21693,1577399222.33,1.410009592344702,4.574501840284393,11.044919419600324,0.8336201414526964,1.3973378420946077,16.231869723585177,0.9033147678282204,-7.196065065411823,9.622296472167967,6.609474740377286,9.219658084032012,8.003793111661585,-11.040478217892533,10.295216630144818,8.614889005335366,-23.64795963938643,-43.08151617282775,16.306063024009145,-9.255508814102562,6.646336805555557,-3.982788854663856,-16.010195433572836,14.847070897852149,-3.885042991863905,28.57180938688711,33.53182376374038,35.233084733578934,1577399222.0,-27.694015410073074,-51.11386196364206,6.758698
21694,1577399222.34,-1.0177108910537345,-0.8292113066882619,7.479953147627667,4.256131414646055,-4.736606811225705,4.672664108350799,-3.6743988063905295,-5.102335713605182,6.229712719726562,0.9942403653772866,20.93840808403201,5.989632955411586,-3.3958248975800305,11.988942216082316,8.279195645960366,-27.84412663157393,-41.32675543064025,5.731722203696647,-9.784395032051282,5.21481810897436,-3.231319259444269,-14.777524258593967,16.863339785214784,-4.032537774725275,28.428040854224697,33.699553718513194,35.233084733578934,1577399222.0,-27.694015410073074,-51.11386196364206,6.758698
21695,1577399222.35,-5.336850685975609,-9.879293582078883,10.087238755537824,-1.463616351467225,-10.14031995819836,6.841810812452362,-5.345551565179592,-8.842078706769245,13.524845178222655,-42.09657994712271,24.72258777153201,4.738412252286586,-7.149487006955031,3.901784012957317,0.8023890053353658,-17.437632490948932,-24.297946836890244,6.342073766196647,-9.784395032051282,5.21481810897436,-3.231319259444269,-14.777524258593967,-4.032537774725275,-1.6726212489433638,28.38011801000389,33.55578518585078,35.32893042202055,1577399222.0,-27.694015410073074,-51.11386196364206,6.758698
21696,1577399222.36,0.6510476660751717,-2.4441003264636523,11.648258237959698,1.6320863951148052,1.8737839724657008,8.697317099073455,6.3166047214415,3.787335050554973,4.876988781738281,-6.207908072122712,9.784233279344512,8.003793111661585,-15.023022163205033,10.676686356707316,11.636129239710366,-12.615855147198932,-24.847263243140244,13.025423375571648,-10.13698584401709,6.0328287927350415,-3.6822010165760246,-13.133962691955478,17.963122814685313,-29.99161955832629,28.523886542666304,33.55578518585078,35.13723904513733,1577399222.0,-27.694015410073074,-51.11386196364206,6.758698
21697,1577399222.37,-2.6649216332412347,2.355076901319549,9.64191724674876,-2.848662011867616,3.8370293337938257,11.512898251417209,-5.136058919915921,-5.485407979230183,12.454637036132812,5.419289193502286,14.071953005907012,9.621224752286585,-10.735302436642533,13.026539872332316,8.370748380335366,-2.133067061261433,6.768947694359756,18.030306188071645,-11.018462873931622,6.237331463675212,-4.583964530839531,-14.777524258593967,19.429500187312687,-3.737548209002536,28.61973223110792,33.48390091951957,35.25704615568934,1577399222.0,-27.694015410073074,-51.11386196364206,6.758698
21698,1577399222.38,-0.6202734154677969,6.422825521925018,16.465391978194074,0.4804753965796491,0.2553036502000758,8.910401046827362,-1.8117099147889664,-8.502102071027057,18.21987463378906,0.8111348966272866,-8.205879025342988,5.745492330411586,-7.912426460080031,6.465260575457317,6.081930020960366,-17.712290694073932,1.1537133193597562,-11.937955530678352,-10.842167467948716,6.0328287927350415,-2.930731421356421,-3.067148096294731,18.146419986263737,-2.115105597527472,28.61973223110792,33.84332225117561,35.28100757779974,1577399222.0,-27.694015410073074,-51.11386196364206,6.758698
21699,1577399222.39,1.0413025366806394,-5.284820596239044,13.44630368473704,-0.0270953553734749,-7.432477880561643,12.954207650831272,3.972681296148533,23.201916312762,15.39232247314453,-18.35390416587272,15.414726443407012,6.874642721036586,-3.2737545850800305,3.749196122332317,12.734762052210366,-9.045298506573932,-10.778659727515244,3.381868688071646,-10.842167467948716,6.0328287927350415,-2.930731421356421,-3.067148096294731,-2.749457573676323,-2.115105597527472,28.475963698445504,33.65163087429239,35.28100757779974,1577399222.0,-27.694015410073074,-51.11386196364206,6.758698
21700,1577399222.4,2.001377402403296,-6.273625881883572,8.915277042891338,2.2545788267554303,-4.613305425727658,9.935119357374235,-1.128165340814357,-3.547301735333698,12.166135736083984,-19.010032095560216,18.115532107469512,8.659921041349085,-9.133129585080033,18.27556330983232,9.118429044397866,-7.641489912823932,-23.855441954077744,20.364900914634145,-10.401428952991452,5.317069444444443,-4.057935814185818,-13.133962691955478,-3.665943431568431,-31.171577821217245,28.595770808997518,33.62766945218199,35.18516188935813,1577399222.0,-27.694015410073074,-51.11386196364206,6.758698
21701,1577399222.41,-1.7599134057021717,0.3822547333507994,12.07442613346751,1.96727462753668,-1.9665154904249231,10.888011618116428,7.973392270269626,2.719521110125286,5.846640454101562,6.243263802877286,17.154228396532012,9.499154439786585,-3.853588569455032,8.204762528582316,10.384908536585366,-6.329234053448933,-21.978610899390244,17.603060094321645,-10.66587206196581,5.010315438034185,-3.682201016576021,-16.010195433572836,-4.032537774725275,-32.3515360841082,28.428040854224697,33.55578518585078,35.47269895468296,1577399222.0,-27.694015410073074,-51.11386196364206,6.758698
21702,1577399222.42,-4.659291616151391,2.5968912689953303,8.44242221501048,-4.980698590236757,-0.9561623898389856,8.297485421827362,1.0589378757383765,3.207938248797161,-0.2202665527343749,11.583839974752289,27.49968738090701,9.499154439786585,-6.966381538205031,3.779713700457317,8.828512052210366,1.4527483684260671,3.198391053734756,32.86184915682165,-9.608099626068377,5.41932077991453,-4.884552368927366,-16.010195433572836,-4.032537774725275,-28.5166717297126,28.428040854224697,33.41201665318837,35.32893042202055,1577399222.0,-27.694015410073074,-51.11386196364206,6.758698
21703,1577399222.43,-0.6609748436904531,-2.653592971727325,5.641206272627667,-4.85141170058832,-0.0008759274366425,13.662891342237522,-7.586524319085842,-30.47847910960128,1.93451494140625,-8.069480337747713,3.665458865282013,5.226693502286586,0.9987063524199696,3.718678544207317,8.035055020960366,-13.104136397198932,17.480617616234756,-1.1957680306783538,-9.431804220085471,2.7607860576923056,-3.531907097532104,-16.421085825232456,19.429500187312687,-28.811661295435336,28.57180938688711,33.31617096474676,34.993470512474914,1577399222.0,-27.694015410073074,-51.11386196364206,6.758698
21704,1577399222.44,-0.8501167748427969,-5.1411684966296685,5.483188963057354,-0.8590804322777729,-0.7909624752882045,7.4702887482433775,2.9778905063536105,-0.5162424335758857,16.002843896484375,-1.5692361971227131,14.560234255907012,9.010873189786585,-5.440502631955031,14.399830887957318,9.271016935022866,-7.733042647198932,7.531887147484756,-9.435514124428355,-9.431804220085471,2.7607860576923056,-3.531907097532104,-15.188414650253591,8.798264235764234,-34.41646304416737,28.23634947734148,33.45993949740917,35.32893042202055,1577399222.0,-27.694015410073074,-51.11386196364206,6.758698
21705,1577399222.45,-0.4407082909560781,-4.045821237108184,14.304624979903055,0.2003538023413678,-5.514722350776486,8.802661972120331,-9.135572793206936,-16.862654268292683,26.285940026855467,-3.873313345560212,0.4458543730945121,8.446297994474085,3.348559868044969,0.6364031535823171,12.399068692835366,-12.066538740948932,-31.744235899390244,9.576937047446648,-10.31328125,3.987802083333333,-3.081025340400345,-12.928517496125668,-0.916485857892108,-41.64370740437448,28.428040854224697,33.747476562734,35.08931620091653,1577399222.0,-27.694015410073074,-51.11386196364206,6.758698
21706,1577399222.46,-1.3552933251357655,-1.8204107939929492,15.830928538252666,-6.266384881740663,-1.6361156613233607,15.22151662299924,-5.678345595941312,4.093792863054973,23.98511223144531,-5.048240103372714,25.97380847465701,11.086068502286585,-0.1609616163300304,3.321950028582317,13.985982755335366,-19.57386295969893,-67.38876714939025,6.555696813071647,-10.842167467948716,6.0328287927350415,-3.531907097532104,23.02439177409129,0.7331886863136862,-38.84130653000845,28.475963698445504,33.41201665318837,35.616467487345375,1577399222.0,-27.694015410073074,-51.11386196364206,6.758698
21707,1577399222.47,0.8569490088486083,-4.755702029344512,9.586850608565168,3.770108477634336,-7.554582165229611,20.694661618116424,4.078026169195407,30.286359025164344,11.171344946289064,-3.674949087747713,19.41252917778201,11.055550924161585,0.9987063524199696,23.00578791920732,9.438863614710366,-6.695444990948933,-67.11410894626525,29.688021031821645,-11.194758279914527,7.259844818376065,-4.734258449883449,24.66795334072978,-1.099783029470529,-36.1864004385038,28.76350076377033,33.699553718513194,35.233084733578934,1577399222.0,-27.694015410073074,-51.11386196364206,6.758698
21708,1577399222.48,-1.7096351708388908,2.1096712311535337,6.725779624678448,-1.6132539552269916,1.1710857852098415,12.062367532423067,6.151404806890719,0.3887657939631767,3.81156904296875,20.739113412252287,10.39458484184451,9.850106588224085,-9.575634467892533,-1.5913800495426829,10.323873380335366,-2.0567731159489324,-26.586765196265247,41.22366556307165,-11.194758279914527,7.259844818376065,-4.734258449883449,25.078843732389405,-4.032537774725275,-1.0826421174978866,28.547847964776714,33.55578518585078,35.28100757779974,1577399222.0,-27.694015410073074,-51.11386196364206,6.758698
21709,1577399222.49,-1.666539540956078,-0.1803826567859183,3.735421751143292,2.7717263853491803,-3.901030431831174,1.433309262159393,-4.19154636498428,-19.223337105206745,-1.68551796875,20.098244271627287,-1.186836056592988,8.766732564786585,-4.463940131955031,35.823170731707314,3.7931116615853657,-1.0802106159489329,19.86098870998476,12.689730016196648,-10.66587206196581,5.41932077991453,-4.2833766927516965,-14.777524258593967,14.297179383116884,-3.737548209002536,28.428040854224697,33.41201665318837,35.13723904513733,1577399222.0,-27.694015410073074,-51.11386196364206,6.758698
21710,1577399222.5,-2.06158281488186,-2.0023701201648243,6.0554031598346985,0.221901617282774,-0.2498729000928919,8.606337435987518,-2.90825427514053,-11.992848091534867,12.655749975585938,13.872658334127289,3.665458865282013,6.905160299161586,-11.421947944455033,2.772633622332317,8.614889005335366,8.746449540301068,18.18252191310976,-15.233853968178352,-9.784395032051282,4.805812767094015,-5.335434126059131,-12.928517496125668,16.313448270479515,1.1297796254226546,28.475963698445504,33.747476562734,35.32893042202055,1577399222.0,-27.694015410073074,-51.11386196364206,6.758698
21711,1577399222.51,-3.608237087342797,-2.4357206206531057,21.495609666182357,-9.800226532131289,4.385301513969607,17.46248937690549,-10.054946230706935,-23.202500264386437,32.31693400878906,-5.109275259622714,3.970634646532013,9.987435689786585,1.5175051805449695,-7.054026533917683,15.298238614710366,-36.541636397198936,3.747707459984756,-26.342252405678355,-9.608099626068377,5.828326121794872,-3.982788854663856,-11.6958463211468,16.313448270479515,1.1297796254226546,28.428040854224697,33.65163087429239,35.32893042202055,1577399222.0,-27.694015410073074,-51.11386196364206,6.758698
21712,1577399222.52,-2.709214363954125,-8.228491537401151,18.01084914982493,0.5068116148413677,-8.925262615669062,17.478051687696503,5.029721329107518,29.10242630421708,15.460557220458984,-24.686301626810213,13.96514148246951,11.955819478849085,-0.3745846632050309,20.16765315358232,13.772359708460368,21.563832352801068,-33.33114996189025,7.593294469321647,-11.371053685897431,4.601310096153845,-4.2833766927516965,-12.106736712806423,7.698481206293707,2.16224310545224,28.61973223110792,33.67559229640279,35.28100757779974,1577399222.0,-27.694015410073074,-51.11386196364206,6.758698
21713,1577399222.53,-3.445431374452172,1.1220630463390806,7.080121470381573,-2.394960797268006,-6.917724523628048,8.500992562940644,-0.5643308498475602,5.14963579518388,11.69567510986328,9.386574349752289,31.83318347465701,12.489877096036585,-8.553295600705031,-11.418040205792684,11.636129239710366,11.584584305926068,-18.163913633765244,36.82913431307165,-9.431804220085471,5.21481810897436,-3.8324949356199385,-15.393859846083402,18.146419986263737,2.0147483225908704,28.38011801000389,33.55578518585078,35.233084733578934,1577399222.0,-27.694015410073074,-51.11386196364206,6.758698
21714,1577399222.54,0.5385201880478271,1.871448165967987,10.803105051924542,-3.5465717958031635,9.420307605278202,15.283765866163302,-0.284209255609279,-3.6777857258122135,-5.236119030761718,-17.682517447122713,-6.069648556592988,4.250131002286586,-0.8018307569550305,28.46843440358232,4.586568692835366,23.516957352801068,55.10879144435975,41.07107767244665,-10.313281249999996,4.601310096153845,-4.884552368927366,-11.490401125316987,13.563990696803195,-39.13629609573119,28.428040854224697,33.55578518585078,35.52062179890376,1577399222.0,-27.694015410073074,-51.11386196364206,6.758698
21715,1577399222.55,-0.8668761864638906,7.090807785108612,10.953939756514384,0.537936236423399,0.8394888552782007,3.358247396925018,-5.292879128656155,-6.407175618390339,4.874594580078124,30.291115365377287,-9.701240353467988,12.337289205411585,-7.851391303830031,32.496754716082314,10.110250333460366,19.824330399676068,80.83510980373475,6.555696813071647,-11.723644497863248,4.601310096153845,-4.2833766927516965,-14.777524258593967,8.065075549450551,-34.12147347844463,28.475963698445504,33.699553718513194,35.13723904513733,1577399222.0,-27.694015410073074,-51.11386196364206,6.758698
21716,1577399222.56,-1.9203249169326404,-3.637609854051543,1.5566982404011047,-2.0717435731469123,-4.9413110531690645,-0.6867563079089656,0.8111380039122039,-8.265076106671588,15.512032556152343,9.645973763814789,1.3003465605945124,6.798348775724085,4.843921196169968,-14.25617497141768,7.867208341272866,25.714222977801068,51.66030511623475,-24.328092249428355,-10.313281249999996,4.601310096153845,-4.2833766927516965,2.4798721911101715,10.631235951548453,-34.12147347844463,28.4520022763351,33.699553718513194,35.32893042202055,1577399222.0,-27.694015410073074,-51.11386196364206,6.758698
21717,1577399222.57,1.0053895117782958,-8.157862588426543,-1.8861637469035824,-3.704589105373476,5.184964868461794,20.668325399854705,-0.8899422756288102,7.292446281023723,24.38733811035156,24.065529427877287,10.592949099657012,11.208138814786585,0.4799075242949695,18.48918635670732,14.413228849085366,9.723012040301068,10.034328553734756,0.1775229849466463,-10.313281249999996,5.010315438034185,-4.583964530839531,-14.366633866934349,8.798264235764236,-1.6726212489433638,28.475963698445504,33.65163087429239,35.13723904513733,1577399222.0,-27.694015410073074,-51.11386196364206,6.758698
21718,1577399222.58,-0.3640938378310782,2.647169503858612,15.232378123213604,0.3847073301733991,-1.8755358273389855,9.456279025342988,-6.363087270745999,-3.732852363995808,12.66532678222656,24.340187631002287,-19.405830197217988,12.428841939786585,7.956714164919969,16.322438309832318,15.633931974085366,1.2696428996760671,-1.2876929306402438,8.508821813071647,-11.194758279914527,4.805812767094015,-2.930731421356421,-16.215640629402646,16.680042613636363,-2.70508472897295,28.57180938688711,33.55578518585078,35.13723904513733,1577399222.0,-27.694015410073074,-51.11386196364206,6.758698
21719,1577399222.59,-0.7711081200576411,-1.4014255034656062,13.091961839033916,-1.0877266908226937,-5.787661340034298,3.4396502533703304,5.986204892339938,20.78377263600419,6.354211206054687,4.320656381002288,10.837089724657012,11.513314596036585,6.156177055544969,11.622731278582316,6.600728849085366,18.298451493426068,-4.949802305640244,12.476106969321648,-9.608099626068377,4.805812767094015,-5.03484628797129,-16.215640629402646,16.680042613636363,-3.8850429918639056,28.523886542666308,33.55578518585078,35.08931620091653,1577399222.0,-27.694015410073074,-51.11386196364206,6.758698
21720,1577399222.6,-2.178898696229516,-0.8052692900866995,6.582127525069073,-0.6280399720726947,4.368542102348514,15.77577430732541,-4.8164329982850616,-5.77510638010909,12.71081661376953,5.754982552877286,32.93181628715701,15.205941549161585,-2.938061225705031,-2.7815655964176838,11.773458341272866,7.541005204363568,3.244167420922256,18.594881383384145,-9.255508814102562,5.010315438034185,-4.583964530839531,-16.31836322731755,17.321582714160837,-34.342715652736686,28.57180938688711,33.699553718513194,35.376853266241355,1577399222.0,-27.694015410073074,-51.11386196364206,6.758698
21721,1577399222.61,-0.4191604760146719,1.6009033783703306,6.7688752545612605,-1.1715237489281622,-3.786108752143674,5.098832003858612,1.3294826633360324,-10.623364741925494,13.601459631347655,5.846535287252286,-2.987373165967988,6.813607564786586,18.75993682116997,13.057057450457316,10.659566739710366,-10.021861006573932,-13.586276915015244,-11.998990686928352,-10.4895766559829,4.396807425213674,-3.531907097532104,-16.421085825232456,16.496745442057946,-35.89141087278106,28.61973223110792,33.50786234162997,35.424776110462155,1577399222.0,-27.694015410073074,-51.11386196364206,6.758698
21722,1577399222.62,-1.350504921815453,-3.386218679735137,8.071320957686261,-6.0533009339867565,-7.968779052436642,1.816381527784393,1.9232446750547825,21.01361599537919,3.521870642089844,13.079201302877289,5.710136599657012,14.473519674161585,7.743091118044969,0.087086747332317,14.199605802210366,15.460316727801068,-25.152439024390244,17.358919469321645,-10.4895766559829,5.21481810897436,-3.531907097532104,-13.133962691955478,-4.032537774725275,-4.032537774725275,28.428040854224697,33.50786234162997,35.424776110462155,1577399222.0,-27.694015410073074,-51.11386196364206,6.758698
21723,1577399222.63,-2.271075460145531,-3.375444772264434,8.801552464033916,-2.586496930080507,-3.905818835151486,5.302339144971893,2.7276964328672824,-4.86770395090987,11.434707128906249,8.318459115377287,9.555351443407012,12.459359517911585,0.9681887742949696,-10.746653487042684,17.983785489710368,4.718129227801067,-28.784030821265244,37.01223978182165,-10.665872061965809,3.3742940705128195,-4.734258449883452,-13.33940788778529,-3.849240603146853,-3.8850429918639056,28.499925120555904,33.31617096474676,35.13723904513733,1577399222.0,-27.694015410073074,-51.11386196364206,6.758698
21724,1577399222.64,0.8042765723251708,2.4436623627453304,10.546925474287823,-1.7102191224633196,4.356571094047733,16.34918560493283,-0.7211510585877952,0.2918006267268486,8.609549169921875,11.919533334127289,-5.581367306592988,9.926400533536585,-2.297192085080031,6.923024247332316,13.619771817835366,5.572621415301068,-25.030368711890244,14.261385289634145,-11.194758279914527,2.7607860576923056,-4.433670611795614,-13.33940788778529,-3.849240603146853,-3.8850429918639056,28.475963698445504,33.65163087429239,35.376853266241355,1577399222.0,-27.694015410073074,-51.11386196364206,6.758698
21725,1577399222.65,-2.873217177674828,2.146781356885956,12.517353440596416,-0.0199127503930061,-5.239389159858518,9.25037768256955,-4.675175100335842,-9.256275593976277,6.519411120605469,9.325539193502289,-1.644599728467988,14.412484517911585,20.13322783679497,-33.024485518292686,14.840474942835366,-12.127573897198932,-22.619480040015244,-3.301480921303354,-11.723644497863248,5.010315438034185,-4.583964530839531,-14.366633866934349,-3.299349088411588,-3.4425586432797965,28.475963698445504,33.41201665318837,35.13723904513733,1577399222.0,-27.694015410073074,-51.11386196364206,6.758698
21726,1577399222.66,-3.304173476502953,-3.1803173369616995,12.450315794112042,3.858693939060117,-1.4804925534132043,21.97795370796017,12.658844919195406,20.78137843434403,10.603919152832033,-9.839499868997711,7.968437380907012,9.895882955411585,-10.048656928830033,6.465260575457317,14.199605802210366,-3.430064131573933,-17.919773008765244,-0.3412758431783537,-11.194758279914527,4.396807425213674,-4.13308277370778,-13.133962691955478,-3.299349088411588,-31.761556952662723,28.475963698445504,33.65163087429239,35.52062179890376,1577399222.0,-27.694015410073074,-51.11386196364206,6.758698
21727,1577399222.67,-4.052361495301781,-2.831960995408965,6.788028867842511,-1.4025642091332404,0.5557759585496853,18.57220184638791,-3.2721729274842803,-3.117542537335652,4.477157104492187,5.693947396627286,16.681205935594512,15.007577291349085,-20.08894013195503,12.04997737233232,9.042135099085366,18.969838212176068,15.146022889672254,31.09182962557165,-11.89993990384615,4.396807425213674,-3.6822010165760175,-16.421085825232456,-3.1160519168331664,-36.776379569949285,28.428040854224697,33.55578518585078,35.233084733578934,1577399222.0,-27.694015410073074,-51.11386196364206,6.758698
21728,1577399222.68,-2.097495839784203,1.2920513642101743,11.411232273604227,-3.1946241517601948,3.305516565239138,9.09714877631955,8.109861764898532,7.412156364031536,5.580884069824219,0.3228536466272865,-13.760078244092988,9.651742330411585,12.168139946169967,-19.65778629954268,17.464986661585368,13.171498368426068,45.98403558498475,25.629183141196645,-12.42882612179487,4.192304754273503,-3.0810253404003385,-16.215640629402646,-3.1160519168331664,-41.64370740437448,28.428040854224697,33.65163087429239,35.08931620091653,1577399222.0,-27.694015410073074,-51.11386196364206,6.758698
21729,1577399222.69,0.0908044775986083,5.536970907667206,11.858947984053447,-5.105197076564882,7.775491064750857,13.844850668409396,-10.215357741937405,-2.813478926495808,-2.607285607910156,19.670998177877287,-16.567695431592988,13.802132955411585,1.1207766649199695,-0.8894757526676829,13.680806974085366,15.979115555926068,69.54360589748475,14.368196813071648,-12.42882612179487,4.192304754273503,-3.0810253404003385,-14.777524258593967,23.09544361888112,-38.25132739856297,28.475963698445504,33.41201665318837,35.13723904513733,1577399222.0,-27.694015410073074,-51.11386196364206,6.758698
21730,1577399222.7,-1.0655949242568594,0.7844806122570493,7.003507017256573,2.185146978610899,-5.191505126655392,0.7198371674328307,2.37814299048447,-3.950724715070026,-1.3096283081054687,23.577248177877287,-14.950263790967988,10.872445455411585,6.186694633669969,11.012379716082316,10.323873380335366,26.965443680926068,78.69887933498475,2.771517125571646,-9.784395032051282,6.441834134615387,-5.335434126059131,-16.215640629402646,19.612797358891108,-37.80884304997887,28.475963698445504,33.65163087429239,35.28100757779974,1577399222.0,-27.694015410073074,-51.11386196364206,6.758698
21731,1577399222.71,2.862092899229468,-5.5541682830066215,3.5379001141804016,4.500339983981992,-4.026726018989377,3.4588038666515826,-7.324359237298733,-8.007699428204793,12.293028424072263,6.304298959127288,-4.406440548780488,9.544930806974085,-0.6950192335175309,4.573170731707316,13.512960294397868,29.132191727801068,58.28261956935975,-22.51229635099085,-11.371053685897436,4.601310096153845,-4.884552368927373,21.483552805367708,16.221799684690307,-16.9383312750951,28.499925120555908,33.53182376374038,35.233084733578934,1577399222.0,-27.694015410073074,-51.11386196364206,6.758698
21732,1577399222.72,0.710902707579077,1.1316398529797056,8.72972641422923,3.55702452988043,-1.1333333126905485,10.418748092725805,-2.30730965844131,5.276528483172161,22.610840478515623,10.302101693502289,-11.745918087842988,9.865365377286585,3.7147708055449695,2.131764481707317,8.309713224085366,-18.84144108469893,-13.983005430640244,-9.252408655678352,-11.723644497863248,5.828326121794872,-3.682201016576021,19.73726864081431,15.030368069430567,-4.032537774725275,28.475963698445504,33.699553718513194,35.13723904513733,1577399222.0,-27.694015410073074,-51.11386196364206,6.758698
21733,1577399222.73,0.461905734922827,-1.4828283599109182,7.908515244795636,-1.6192394593773811,-1.9162372555616416,13.658102938917208,-8.359851455316312,10.531801127215129,18.73941639404297,7.372414193502286,3.4518358184070124,11.574349752286585,-9.041576850705033,7.411305497332317,17.678609708460368,8.532826493426068,-30.828708555640244,21.875521031821645,-11.723644497863248,5.828326121794872,-3.682201016576021,-16.421085825232456,-3.299349088411588,-2.5575899461115803,28.76350076377033,33.55578518585078,35.32893042202055,1577399222.0,-27.694015410073074,-51.11386196364206,6.758698
21734,1577399222.74,-4.02123687371975,6.469512454298065,18.71354733708079,-6.769167230373475,6.4706511599657,11.055605734327363,-8.479561538324123,-6.526885701398151,10.615890161132812,6.502663216939788,16.345512576219512,12.947640767911585,3.9589114305449695,0.087086747332317,10.079732755335366,-19.36023991282393,-48.25424566501525,13.025423375571648,-10.930315170940167,5.112566773504272,-3.907641895141901,-16.421085825232456,15.763556755744256,3.0472118026204567,28.547847964776714,33.50786234162997,35.32893042202055,1577399222.0,-27.694015410073074,-51.11386196364206,6.758698
21735,1577399222.75,-4.917865395448265,-8.481079812547637,7.08251567204173,-2.001114624172303,-3.385079974067501,7.8988508454113475,5.452297922125094,-1.6953867512028389,8.2743609375,-36.05409947837271,29.30022449028201,12.917123189786585,-3.502636421017531,2.497975419207317,9.423604825647866,-2.9875592487614324,-37.87826910251525,31.83951028963415,-10.66587206196581,4.192304754273503,-2.780437502312504,-16.421085825232456,15.763556755744256,3.0472118026204567,28.428040854224697,33.7235151406236,35.304968999910145,1577399222.0,-27.694015410073074,-51.11386196364206,6.758698
21736,1577399222.76,-0.3712764428115469,-7.94956704399295,6.06019156315501,-2.213001471096131,-1.2003709591749232,13.418682772901583,-3.0519063747499047,-9.088681477765338,1.70467158203125,-19.33046666587272,13.797294802782012,9.468636861661585,-0.3135495069550305,-6.901438643292683,14.169088224085366,-1.4159039753239329,7.348781678734756,28.986116734946645,-11.194758279914527,6.850839476495728,-3.231319259444269,-12.928517496125668,15.946853927322678,3.1947065854818257,28.57180938688711,33.55578518585078,34.993470512474914,1577399222.0,-27.694015410073074,-51.11386196364206,6.758698
21737,1577399222.77,-3.953002126405297,-0.053489968797637,8.119204990889386,-2.608044745021913,0.353465918266482,2.343105893018768,-4.493215774163967,6.760933512469036,0.2489969726562499,2.5811544278772867,-0.6680372284679879,16.426644674161587,6.003589164919969,-1.2862042682926829,13.223043302210366,12.317006180926068,34.20425042873475,27.124544469321645,-11.194758279914527,6.850839476495728,-3.231319259444269,-8.614168383699631,13.93058503996004,-3.4425586432797965,28.428040854224697,33.699553718513194,35.13723904513733,1577399222.0,-27.694015410073074,-51.11386196364206,6.758698
21738,1577399222.78,-0.4706358117080317,0.9903819550304874,3.894636161543682,-3.551360199123476,-4.853922692573361,-2.0047643218249807,-15.508937612542873,-18.663093916730183,3.3255461059570317,14.025246224752289,-12.676704220655488,9.956918111661585,5.088061821169969,-1.4998273151676829,10.812154630335366,10.333363602801068,53.18618402248475,12.018343297446648,-10.225133547008546,4.294556089743587,-3.9076418951419,-12.312181908636234,15.030368069430567,-37.07136913567202,28.4759636984455,33.84332225117561,35.32893042202055,1577399222.0,-27.694015410073074,-51.11386196364206,6.758698
21739,1577399222.79,2.374872861387671,1.0669964081554868,4.963647202803449,0.8527737547339463,4.228481305229373,6.826248501661348,6.943885556402438,-7.800600984601276,9.745597857666016,13.262306771627289,-16.720283322217988,8.370004049161585,-4.112987983517532,3.3219500285823167,12.978902677210366,21.457020829363568,49.26467523342225,-4.628995569740853,-9.608099626068377,4.601310096153845,-4.2833766927516965,4.842491943153004,13.472342111013988,-37.88259044140955,28.61973223110792,33.60370803007159,35.28100757779974,1577399222.0,-27.694015410073074,-51.11386196364206,6.758698
21740,1577399222.8,2.224038156797827,4.253678817823455,9.615581028487044,3.2553551207007425,3.8466061404344503,4.959968307569549,1.796351987066501,-0.2325295368473702,13.357251062011718,14.513527474752289,2.9635545684070124,10.780892721036585,-3.0601315382050305,10.920826981707316,14.657369474085366,10.608021805926068,28.77212152248476,-20.391324671303355,-11.018462873931622,7.464347489316236,-4.2833766927516965,22.613501382431675,13.197396353646353,-36.48139000422654,28.57180938688711,33.55578518585078,35.28100757779974,1577399222.0,-27.694015410073074,-51.11386196364206,6.758698
21741,1577399222.81,-2.353675417420922,4.294380246046112,9.847818589522198,-5.3613766542016,-3.302480016792112,3.1523460541515806,-8.127613894281154,-13.764557320050494,24.564509033203123,12.346779427877289,8.273613162157012,15.877328267911585,5.912036430544969,-4.734690596417683,11.025777677210366,-13.897593428448932,6.768947694359756,-17.431119593178355,-11.018462873931622,7.464347489316236,-4.2833766927516965,-16.421085825232456,13.563990696803195,-1.6726212489433638,28.428040854224697,33.55578518585078,35.424776110462155,1577399222.0,-27.694015410073074,-51.11386196364206,6.758698
21742,1577399222.82,-3.3436778038955315,-3.8686503142566218,13.199700913740948,-5.67501707168207,-6.471205914008908,14.126169363477754,-0.8695915615174826,1.637341959734661,16.208745239257812,-21.939719595560213,17.718803591844512,9.956918111661585,-1.8546872022675305,-4.704173018292684,13.055196622522866,-10.723765303448932,-26.220554258765247,17.05374368807165,-10.048838141025636,4.908064102564103,-3.4567601380101385,-13.339407887785288,14.113882211538462,-1.6726212489433638,28.595770808997518,33.48390091951957,35.233084733578934,1577399222.0,-27.694015410073074,-51.11386196364206,6.758698
21743,1577399222.83,-2.3273391991592027,-7.504245535203887,8.887743723799543,2.759755377048399,0.2529094485399195,15.841614852979708,-1.8931127712342788,21.777366324969037,16.462530615234375,-28.48574010337272,4.458915896532012,10.078988424161585,-11.544018256955033,4.664723466082317,10.934224942835366,4.382435868426067,-61.16318121189025,28.589388219321645,-10.842167467948716,4.805812767094015,-3.8324949356199385,-14.777524258593967,13.563990696803195,-33.53149434699915,28.475963698445504,33.65163087429239,34.993470512474914,1577399222.0,-27.694015410073074,-51.11386196364206,6.758698
21744,1577399222.84,0.5073955664657958,2.2401552216320493,11.29631059391673,2.6807467222632426,0.0996805422899195,8.386070883253144,2.0118301364805635,0.7059975139338787,11.69567510986328,12.285744271627289,-13.454902462842988,11.238656392911585,-9.194164741330033,15.376393387957316,10.323873380335366,-10.052378584698932,-58.59970464939025,39.57571634432165,-11.018462873931622,4.192304754273503,-5.185140207015214,-14.777524258593967,13.563990696803195,-32.3515360841082,28.38011801000389,33.50786234162997,35.32893042202055,1577399222.0,-27.694015410073074,-51.11386196364206,6.758698
21745,1577399222.85,-3.5914776757217037,5.225724691846893,13.69051225407298,-4.358206158596132,1.2081959109422633,4.509858395460174,-5.127679214105374,-12.150865401105182,8.865728747558594,9.813820443502289,-11.379707150342988,10.963998189786585,-0.5576901319550305,-10.533030440167684,7.943502286585366,-12.921030928448932,-48.37631597751525,36.95120462557165,-11.018462873931622,4.192304754273503,-5.185140207015214,-16.421085825232456,19.429500187312687,-37.95633783284024,28.61973223110792,33.939167939617214,35.13723904513733,1577399222.0,-27.694015410073074,-51.11386196364206,6.758698
21746,1577399222.86,-1.99095386590725,1.4117614472179874,4.724227036787823,-6.521367358547304,2.3909315310594508,3.540206723096893,-3.293720742425686,-5.737996254376666,3.305195391845703,7.708107552877287,3.4060594512195124,11.391244283536585,-7.332592475705032,-7.115061690167684,11.163106778772866,-18.85669987376143,-20.559543516577744,-4.644254358803354,-10.577724358974358,4.294556089743589,-4.2082297332297385,-16.010195433572836,19.429500187312687,-3.1475690775570584,28.4520022763351,33.65163087429239,35.28100757779974,1577399222.0,-27.694015410073074,-51.11386196364206,6.758698
21747,1577399222.87,0.3924738867782958,-5.232148159715606,6.972382395674542,2.165993365329649,-2.8164570797803927,4.136362936475799,8.99092797583603,17.896365433855753,8.724470849609375,-10.388816275247711,-9.487617306592988,8.034310689786585,2.677173149294969,2.101246903582317,13.375631192835366,10.821644852801068,-16.210788633765244,5.762239781821647,-11.54734909188034,4.805812767094015,-3.231319259444269,-13.955743475274724,-4.032537774725275,-2.5575899461115803,28.475963698445504,33.55578518585078,35.13723904513733,1577399222.0,-27.694015410073074,-51.11386196364206,6.758698
21748,1577399222.88,1.793081857969702,-3.8147807769031057,8.35862515690501,3.284085540622617,-4.908989330756955,7.464303244092987,-7.617648940667873,-9.313736433820026,4.867411975097656,-0.8673319002477134,-12.112129025342988,10.536752096036585,-4.830151069455031,-0.4011945026676829,15.847555020960366,-4.345591475323933,9.240871522484756,12.170931188071648,-11.371053685897431,4.601310096153845,-3.982788854663856,-13.955743475274724,-4.032537774725275,-2.5575899461115803,28.66765507532872,33.55578518585078,35.32893042202055,1577399222.0,-27.694015410073074,-51.11386196364206,6.758698
21749,1577399222.89,-2.1286204613662343,-2.304039529344512,12.768744614912825,-2.7947924745141006,-3.343181445014768,15.006038473585177,2.179424252691501,-2.1119778400700264,10.491391674804689,-3.018821158060214,1.8496629668445124,11.787972799161585,7.498950493044969,-10.533030440167684,11.483541349085366,7.617299149676067,16.412502381859756,4.480501500571647,-11.28290598290598,4.908064102564103,-3.75734797609798,-14.777524258593967,-4.032537774725275,-41.79120218723584,28.52388654266631,33.41201665318837,35.233084733578934,1577399222.0,-27.694015410073074,-51.11386196364206,6.758698
21750,1577399222.9,-3.1820691918349846,1.165158676221893,11.751208909346415,-1.7269785340844137,-1.1644579342725805,11.260309976270722,1.8358563144590796,2.8787355205256766,12.51329497680664,-0.1349100252477134,7.205497927782012,13.680062642911585,-0.4203610303925305,-4.170115401105184,10.064473966272866,7.891957352801068,13.620143983422256,23.080965367759145,-10.313281249999996,4.601310096153845,-3.982788854663856,-13.750298279444912,-3.665943431568431,-30.28660912404903,28.61973223110792,33.579746607961184,35.376853266241355,1577399222.0,-27.694015410073074,-51.11386196364206,6.758698
21751,1577399222.91,-0.9674326561904532,3.8634239472179863,15.218012913252666,0.6911651426733991,1.3925494387742945,19.444888351514862,-3.1428860378358423,-11.126147090558309,17.132907080078123,6.334816537252286,2.6888963652820124,8.064828267911585,7.071704399294969,-1.4082745807926829,6.600728849085366,-9.686167647198932,-3.698581602515244,3.839632359946646,-11.723644497863248,3.3742940705128173,-4.2833766927516965,26.31151490736827,-4.032537774725275,-38.84130653000845,28.57180938688711,33.50786234162997,35.32893042202055,1577399222.0,-27.694015410073074,-51.11386196364206,6.758698
21752,1577399222.92,-1.637809121034203,-2.576978518602324,13.221248728682356,2.0845905088843364,-2.335222546088985,10.196087338331273,-5.982409206781155,0.2726470134455975,13.223175769042967,-12.647117056497711,0.1254198027820121,10.048470846036585,-0.3440670850800305,10.463063309832316,12.490621427210366,6.152455399676067,-10.259860899390244,9.882112828696648,-12.252530715811965,5.21481810897436,-3.8324949356199385,23.02439177409129,-3.665943431568431,-41.4962126215131,28.57180938688711,33.41201665318837,35.32893042202055,1577399222.0,-27.694015410073074,-51.11386196364206,6.758698
21753,1577399222.93,-1.9143394127822495,-1.2649560088367,11.994220377852276,-2.160329034572693,-3.4174016964796112,3.0086939545422053,6.970221774664156,-10.8747559162419,11.010933435058591,-4.956687368997712,5.160820193407011,11.162362447599085,1.2733645555449695,-6.199534346417683,12.185445645960366,-9.533579756573932,-7.757419493140244,8.966585484946647,-12.252530715811965,5.21481810897436,-3.8324949356199385,-16.421085825232456,-3.299349088411588,-32.05654651838546,28.499925120555904,33.50786234162997,35.08931620091653,1577399222.0,-27.694015410073074,-51.11386196364206,6.758698
21754,1577399222.94,-1.321774501893578,-1.2386197905749807,1.4298055524128237,-2.388975293117616,-2.991233800971799,8.868502517774628,-1.840440334710843,8.54581085011552,8.36294639892578,14.116798959127289,-0.2102735565929878,12.489877096036585,2.082080375857469,-7.023508955792684,10.033956388147866,-1.0802106159489324,-25.900119688452747,7.3033774771341475,-12.42882612179487,3.783299412393162,-3.982788854663856,4.328878953578472,11.36442463786214,-41.4962126215131,28.57180938688711,33.48390091951957,35.20912331146853,1577399222.0,-27.694015410073074,-51.11386196364206,6.758698
