,timestamp,acc_x_dashboard,acc_y_dashboard,acc_z_dashboard,acc_x_above_suspension,acc_y_above_suspension,acc_z_above_suspension,acc_x_below_suspension,acc_y_below_suspension,acc_z_below_suspension,gyro_x_dashboard,gyro_y_dashboard,gyro_z_dashboard,gyro_x_above_suspension,gyro_y_above_suspension,gyro_z_above_suspension,gyro_x_below_suspension,gyro_y_below_suspension,gyro_z_below_suspension,mag_x_dashboard,mag_y_dashboard,mag_z_dashboard,mag_x_above_suspension,mag_y_above_suspension,mag_z_above_suspension,temp_dashboard,temp_above_suspension,temp_below_suspension,timestamp_gps,latitude,longitude,speed
93941,1577396369.83,0.9681917933022104,-1.035638205923685,2.3267552475347757,-1.3123728807402812,-2.7580035221751142,4.761891916563453,5.619366481874047,5.690783765541635,-2.8118438619474078,9.002499464081556,11.790950123856708,-6.731172887290397,0.9916352062690548,10.578806807355184,-10.10169052496189,10.105040015243905,30.0387870974657,8.64987257050305,-5.689792054383788,-18.98953373015873,1.2399248321123264,-13.565960775335776,-3.658639636225843,-21.764215271907577,28.61973223110792,37.91676400994399,44.91349926618145,1577396369.0,-27.68357987398176,-51.125617232001765,9.568662
93942,1577396369.84,2.4442171167885385,-2.9749415506502475,4.3666150619879005,1.8922660413788588,-1.5345664738352711,3.1051043677353274,-1.9906034949325933,-10.831601891196646,7.230635001577983,0.9458588390815555,-9.479801829268292,-9.370943395102897,-3.112979051543445,1.0725812214176829,-9.38452743902439,-0.4387832269435974,24.5303642459032,1.737641125190549,-5.854713563206507,-18.07657537774725,2.125585426478283,-18.13128942816443,-4.420856227106227,-23.804610453648912,28.739539341659928,37.94072543205439,44.96142211040225,1577396369.0,-27.68357987398176,-51.125617232001765,9.568662
93943,1577396369.85,2.8141212732826792,1.013798415170064,5.666666563452744,-1.6786857347441877,2.6193734065358227,8.719507260801734,-4.273474777891578,1.3979801888814782,9.477593259634622,15.685849073456556,-0.0193526105182926,-7.097383824790397,-3.219790574980945,7.404978682355183,-8.11804794683689,6.534483374618903,8.0050956912157,3.2482612423780486,-6.019635072029225,-18.259167048229543,1.9484533076050947,-18.01571148758649,-4.420856227106227,-26.185071499013805,28.907269296432744,37.91676400994399,44.62596220085662,1577396369.0,-27.68357987398176,-51.125617232001765,9.568662
93944,1577396369.86,2.052765145352992,0.6211493429044389,13.900326072730088,3.224639265255812,-1.4387984074290203,0.576827414610327,-7.091450131895484,-11.106935082114614,12.465556931509624,-1.9838286609184448,-1.9419600323932928,-8.653780309165397,-9.048647996855944,12.196238447980184,-8.24011825933689,6.595518530868903,-1.3638007931592988,-26.72000047637195,-5.195027527915633,-17.34620869581807,1.7713211887318916,-17.784555606430608,-1.3719898635846908,-15.302963863060016,28.76350076377033,37.86884116572318,44.72180788929823,1577396369.0,-27.68357987398176,-51.125617232001765,9.568662
93945,1577396369.87,2.620190938810023,3.616295619759908,14.240302708472274,-1.2573062425566877,6.1053310237233225,15.569318210508763,9.134054518983422,-9.371138878501332,9.441680234732278,-0.0307036609184451,2.666194264481707,-7.677217809165397,-10.025210496855944,-3.764454911394817,-5.6461241187118905,-16.6283584222561,-7.101105480659299,-44.08450242949695,-6.019635072029225,-18.259167048229543,2.3027175453514714,-17.437821784696787,-1.3719898635846908,-15.302963863060016,28.66765507532872,37.725072633060776,44.72180788929823,1577396369.0,-27.68357987398176,-51.125617232001765,9.568662
93946,1577396369.88,-0.4958625218833364,-0.5113080423494663,8.469079606665634,4.491171943478468,-0.4619641300852706,11.84992593145603,-1.7918847571396246,4.026813611733041,5.803690812124858,-10.650820848418444,10.387141530106708,-7.845064488852897,-3.784365770293445,8.991892744855184,-10.62048935308689,8.106138648056405,23.3401786990282,-9.09609910918445,-5.689792054383788,-16.798433684371187,2.3027175453514714,-13.219226953601954,-3.2013096816976123,-20.403951817413358,28.78746218588073,37.84487974361278,44.81765357773984,1577396369.0,-27.68357987398176,-51.125617232001765,9.568662
93947,1577396369.89,-0.6622595372641958,-1.782629123892435,2.309995835913681,-1.6379843065215314,-1.6614591618235517,4.347695029356421,-2.810617563536109,-3.368875316489614,4.801717417349467,13.366513135956556,23.357112233231707,-3.740450231040396,-5.966372606230945,-8.220021317644816,-2.1671202124618905,7.816221655868903,46.3351738162157,-5.357695788871951,-6.679321107320098,-18.259167048229543,1.2399248321123264,-13.62374974562475,-3.2013096816976128,-24.824808044519585,28.76350076377033,37.62922694461916,44.76973073351903,1577396369.0,-27.68357987398176,-51.125617232001765,9.568662
93948,1577396369.9,0.7479252405678353,2.067247145638815,6.691384873999619,-3.9699367235137184,2.954561638957698,9.15525196295017,0.1174910668349844,3.619799329506478,5.251827329458842,-18.921084520293444,-5.543034251143292,-11.034151402915397,0.5643891125190549,-9.349171708269816,-9.12512802496189,10.898497046493905,38.8583671755907,-3.953887195121952,-6.184556580851943,-17.711392036782662,2.8341139019710444,-13.62374974562475,1.0671032272325378,-9.861910045083125,28.76350076377033,37.58130410039836,44.72180788929823,1577396369.0,-27.68357987398176,-51.125617232001765,9.568662
93949,1577396369.91,1.5823045191322884,-1.1553482889314974,7.860952384985947,2.2047093580292487,0.8237221614186347,4.060390830137671,-7.156093576719703,-3.88841707674352,18.683298642935405,2.212338331269056,-8.533756907393292,-9.416719762290397,-2.182192918730945,12.623484541730184,-9.94910263433689,-3.261659203506097,7.699919909965701,-2.9162895388719514,-5.442409791149711,-17.620096201541514,2.21415148591487,-13.161437983312986,-3.2013096816976128,-24.824808044519585,28.64369365321832,37.58130410039836,44.96142211040225,1577396369.0,-27.68357987398176,-51.125617232001765,9.568662
93950,1577396369.92,0.889183138517054,-0.4490587991854038,13.354448094214462,-0.6324196092559067,0.1102500666920727,7.031595090391577,-0.8246272864364997,-1.3565488211282866,13.231701462759624,-5.249209520293445,5.321223561356708,-6.944795934165397,-14.160342332793444,2.751048018292683,-5.4935362280868905,-18.5357070550686,-35.3298652462843,-14.34512254668445,-5.195027527915633,-17.34620869581807,1.7713211887318916,-13.36369937932438,0.5335516136162697,-96.40867233727808,28.57180938688711,37.772995477281576,44.72180788929823,1577396369.0,-27.68357987398176,-51.125617232001765,9.568662
93951,1577396369.93,1.846863802579554,1.466302528939596,13.385572715796494,3.449694221310499,3.636909112102229,10.46488027105564,6.780554287049828,11.558972034584604,-7.387163234506,-17.669863817168444,4.832942311356708,-5.510469762290397,-16.739077684355944,11.646922041730184,-9.18616318121189,-6.038758812881097,-3.3474433712842986,8.80246046112805,-4.535341492624759,-18.44175871871184,2.47984966422466,-13.450382834757836,0.6097732727043083,-96.57870526908988,28.81142360799113,37.725072633060776,44.76973073351903,1577396369.0,-27.68357987398176,-51.125617232001765,9.568662
93952,1577396369.94,0.5923021326576791,4.24118225306069,10.490982908667588,8.91326240978706,-0.3159178288157392,10.500793295957983,-1.1011575781845455,-10.908216344321646,-0.7217058126310003,-4.394717332793445,-0.9043623761432926,-8.684297887290397,-12.558169481230944,8.717234541730184,-7.35510849371189,-6.191346703506097,40.3232109255907,0.2270210080030487,-7.339007142610973,-17.893983707264958,2.3027175453514714,-13.565960775335776,0.6097732727043083,-96.57870526908988,28.76350076377033,37.9646868541648,44.81765357773984,1577396369.0,-27.68357987398176,-51.125617232001765,9.568662
93953,1577396369.95,0.7515165430580698,-2.718761973013529,8.595972294653915,4.182319929318311,-0.581674213093083,12.483192270567358,-2.564014792540015,-11.372691466391958,9.362671579947122,-19.958682176543444,20.564753834794207,-7.677217809165397,-11.795230028105944,0.1417950886051829,-11.04773544683689,4.154112280868903,59.1525566287157,-17.90042039824695,-6.102095826440585,-17.254912860576923,3.0998120802808264,-19.17149089336589,0.457329954528231,-96.91877113271345,28.66765507532872,37.725072633060776,44.72180788929823,1577396369.0,-27.68357987398176,-51.125617232001765,9.568662
93954,1577396369.96,2.924254549649867,-3.374773227896341,5.240498667944932,2.2322426771210457,-1.0784710575755048,4.2471385596298585,-2.3557192481064213,0.9311108651510096,16.301067991079936,-7.538027879668445,8.250911061356707,-7.921358434165397,-8.880801317168444,9.617503096417684,-7.004156345274391,9.036924780868905,24.4998466677782,-16.05410692168445,-5.689792054383788,-16.798433684371187,3.0112460208442324,-16.59988171550672,-0.685994931792345,-19.21372129473091,28.66765507532872,37.84487974361278,44.79369215562944,1577396369.0,-27.68357987398176,-51.125617232001765,9.568662
93955,1577396369.97,1.4901277552162728,-3.0994400369783723,10.780681309546493,0.7801593702362801,-1.3741549626048015,11.029911862852517,-6.99807626714939,2.554379590736947,17.644215122427592,2.1665619640815548,17.284114186356707,-7.311006871665397,-13.687319871855944,0.3859357136051829,-2.8995420874618905,-11.959168969131095,-20.3762519650343,-8.71462938262195,-5.689792054383788,-16.798433684371187,3.0112460208442324,-13.565960775335776,-1.829319818112921,-13.602634544942235,29.00311498487435,37.91676400994399,44.62596220085662,1577396369.0,-27.68357987398176,-51.125617232001765,9.568662
93956,1577396369.98,1.3943596888100227,3.525315956673971,13.852442039526965,-1.654743718142625,6.193916485149104,16.316309128477513,5.114189931581078,1.010119519936166,11.354647361197124,-8.850283739043444,11.851985280106708,-3.160616246665396,-4.135317918730945,6.703074385480183,-6.5006163062118905,-19.1613174066311,-43.2949531369093,-6.792021960746951,-6.349478089674663,-17.16361702533578,1.5941890698587031,-19.63380265567766,-1.6768764999368446,-20.74401768103691,28.76350076377033,37.725072633060776,44.96142211040225,1577396369.0,-27.68357987398176,-51.125617232001765,9.568662
93957,1577396369.99,0.1445864222084603,-2.229147733511576,13.853639140357044,3.4473000196503425,-2.554496381061833,7.023215384581031,-3.893993814756812,-0.2540189566263336,19.34768960362877,-16.845889207793444,3.932673756669207,-6.899019566977897,-12.130923387480944,15.598948408917686,-7.1109678687118905,-28.1029677972561,-61.4834296994093,9.39755323456555,-6.267017335263303,-16.889729519612334,2.922679961407635,-18.217972883597888,-4.039747931666035,-23.29451165821358,28.739539341659928,37.86884116572319,44.74576931140864,1577396369.0,-27.68357987398176,-51.125617232001765,9.568662
93958,1577396370.0,-2.496218008943883,-3.5806745706697787,3.270070701636337,0.2869538282440926,0.3520644343678535,14.72895342779392,0.2659315697646719,-5.923488487876333,23.37593389684166,-4.181094285918445,42.88836223323171,-1.3600791372903962,-8.102603074980944,-10.630909989519816,-1.1600401343368902,-58.6510635003811,-105.7034004025343,-11.49172899199695,-8.163614686724564,-17.34620869581807,2.47984966422466,-18.01571148758649,0.457329954528231,-23.46454459002536,28.66765507532872,37.725072633060776,44.91349926618145,1577396370.0,-27.683653717557146,-51.125573281432814,9.201914
93959,1577396370.01,1.2674670008217417,0.4032769918302201,14.611403965796493,0.3851160963104988,0.433467290813166,18.360957346250952,6.38311681146389,20.29541389249476,18.67372183629478,-19.409365770293444,0.3468583269817073,-7.921358434165397,2.7616547375190548,9.113963057355184,-6.6837217749618905,-35.5797744378811,-134.1763007931593,10.84713819550305,-8.163614686724564,-17.34620869581807,2.47984966422466,-18.01571148758649,0.457329954528231,-23.46454459002536,28.81142360799113,37.772995477281576,44.91349926618145,1577396370.0,-27.683653717557146,-51.125573281432814,9.201914
93960,1577396370.02,0.8053860804115853,-1.3827974466463413,5.815107066382431,1.3978633985565927,-2.0900212589915204,6.188836106016578,-4.318964609434547,-8.576263927329459,7.756162265982279,5.859188917206555,13.225276295731708,-4.625459996665397,0.4728363781440549,11.402781416730184,-1.9229795874618905,-22.0910049066311,-152.3647773556593,19.48361280487805,-6.5143995984973815,-18.44175871871184,4.251170852956559,-18.24686736874237,-3.2013096816976128,-20.74401768103691,28.76350076377033,37.772995477281576,44.57803935663581,1577396370.0,-27.683653717557146,-51.125573281432814,9.201914
93961,1577396370.03,-1.8258415441001328,0.4272190084317826,9.115514054907822,-4.002258445925828,0.2742528804127758,12.155186643125951,3.590280574891625,3.88076731046351,-3.3457508321622504,7.613949659394056,8.479792897294208,-5.205293981040397,2.7463959484565548,-2.009694169207317,-2.7774717749618905,-21.4196181878811,-67.2512519650343,17.22531202362805,-6.102095826440584,-17.254912860576923,2.9226799614076384,-18.362445309320314,-2.591536408993305,-66.31284340659342,28.715577919549524,37.70111121095037,44.81765357773984,1577396370.0,-27.683653717557146,-51.125573281432814,9.201914
93962,1577396370.04,-1.2464447423423208,-4.009236667837747,7.330636717261338,-1.8965580858184063,-1.857783697956364,8.738660874082983,-6.832876352598609,-24.435455724204456,-3.5013739400724075,-15.655703660918444,1.903254811356708,-1.7568076529153962,-1.5108061999809452,8.076365401105184,-3.0216123999618905,-11.318299828506095,30.8932792849657,8.49728467987805,-6.349478089674663,-16.798433684371187,3.0112460208442324,-18.824757071632074,-2.896423045345459,-111.88166913214992,28.81142360799113,37.86884116572318,44.81765357773984,1577396370.0,-27.683653717557146,-51.125573281432814,9.201914
93963,1577396370.05,-0.9112565099204458,3.527710158334127,14.118198423804309,0.911840461544874,-1.6016041203196454,8.293339365293921,0.8884240014052969,-12.983989183677114,6.956498911490092,18.82915962033156,1.0182450457317074,-3.923555699790396,-0.4121733874809451,7.374461104230183,-2.8690245093368905,-6.252381859756097,43.2223808474657,-27.54397508574695,-6.349478089674663,-16.798433684371187,3.0112460208442324,-18.940335012210014,-4.115969590754073,-111.88166913214992,28.475963698445504,37.772995477281576,44.72180788929823,1577396370.0,-27.683653717557146,-51.125573281432814,9.201914
93964,1577396370.06,0.5863166285072884,-2.02204928990806,7.560480076636337,-0.2972313768340314,0.002510991985041,17.051329038145482,2.832515749452172,26.98720753263148,20.256289133658065,0.152401807831555,-2.247135813643292,-3.7709678091653966,3.0973480968940548,-8.097951005144816,-2.6554014624618905,23.1970810308689,4.098845691215701,-16.74075242949695,-6.514399598497381,-17.711392036782662,2.302717545351468,-19.05591295278796,-4.115969590754073,-111.88166913214992,28.739539341659928,37.772995477281576,45.4885733968311,1577396370.0,-27.683653717557146,-51.125573281432814,9.201914
93965,1577396370.07,-3.542484134432164,-1.6413712259432165,8.994606871069932,1.7222777235077646,-3.300290198200505,16.394120682432593,3.115031545350609,-4.239167619956412,20.638164298452985,10.040097120331556,22.990901295731707,0.4709755502096037,4.302792432831555,2.812083174542683,-3.9829161108993913,-3.810975609756096,-32.0492255978468,-7.2497856326219505,-6.844242616142818,-17.711392036782662,2.8341139019710444,-13.392593864468866,-2.591536408993305,-23.124478726401804,28.81142360799113,37.82091832150238,44.96142211040225,1577396370.0,-27.683653717557146,-51.125573281432814,9.201914
93966,1577396370.08,-3.2767277501548207,0.1614626241544388,7.749622007788681,-1.5350336351348126,-2.2073371403391766,12.808803696348608,2.593095583436547,21.31773800138148,9.276480320181497,-5.920596239043445,7.182795826981708,-1.817842809165396,-0.4732085437309451,-6.816212723894817,-1.3126280249618902,-8.174989281631097,-58.9504707150343,12.95285108612805,-6.844242616142818,-17.34620869581807,1.7713211887318916,-13.277015923890923,-4.420856227106227,-24.824808044519585,28.907269296432744,37.62922694461916,44.96142211040225,1577396370.0,-27.683653717557146,-51.125573281432814,9.201914
93967,1577396370.09,-1.0118129796470083,0.1087901876310013,8.666601243628525,-4.254846721072312,-0.6894132878001141,14.886970737364232,-7.330870297911109,-5.935459496177114,8.919744272818216,7.018856885956555,-5.939762766768292,-1.6652549185403962,0.8085297375190549,-10.417286942644816,-2.0755674780868905,-7.228944359756097,-41.9521796994093,19.23947217987805,-6.844242616142818,-17.34620869581807,1.7713211887318916,-13.277015923890923,-4.420856227106227,-24.824808044519585,28.66765507532872,37.91676400994399,44.91349926618145,1577396370.0,-27.683653717557146,-51.125573281432814,9.201914
93968,1577396370.1,-2.6925425450766958,1.392082277474752,11.538446134985946,-11.308164811892624,-0.2201497624094892,14.262084104063453,4.9106827904677965,-0.4814681143411768,11.02424753209556,2.4869965343940548,-11.677067454268292,-2.412935582602896,2.7921723156440548,-5.931202958269817,-3.5098936499618905,-36.0985732660061,-24.2214668087843,-1.2073051638719514,-7.421467897022332,-18.1678712129884,3.276944199154016,-13.62374974562475,1.9817631362889991,-12.582436954071568,28.739539341659928,37.91676400994399,44.91349926618145,1577396370.0,-27.683653717557146,-51.125573281432814,9.201914
93969,1577396370.11,1.4685799402748665,-4.859178257193216,6.418445884741806,-0.6180543992949689,-1.423236096638005,5.073138132383765,-4.541625363829078,-2.091568730796256,5.136905649771342,-7.446475145293445,-23.762028391768293,-1.817842809165396,4.699520948456555,-3.352467606707317,-3.3725645483993905,-6.115052758193596,-9.9544990353468,4.880951672065549,-6.844242616142818,-19.537308741605617,1.062792713239138,-15.010685032560035,-1.6768764999368444,-66.99297513384053,28.61973223110792,37.91676400994399,44.67388504507743,1577396370.0,-27.683653717557146,-51.125573281432814,9.201914
93970,1577396370.12,-0.8968912999595083,-2.455399790396341,9.842154258765245,1.646860371212843,-0.7684219425852704,9.057089694883764,0.1174910668349844,-9.835614000571644,9.906155356802593,26.27544868283156,12.370784108231708,-0.5971396841653963,3.2804535656440548,-7.365529130144817,1.4949891625381098,-9.639833031631095,2.8476249880907014,-8.34841844512195,-6.019635072029225,-18.62435038919413,3.3655102585906094,-13.62374974562475,0.457329954528231,-105.0803518596788,28.66765507532872,37.91676400994399,44.72180788929823,1577396370.0,-27.683653717557146,-51.125573281432814,9.201914
93971,1577396370.13,0.314574740079554,1.1837867330411576,8.601957798804307,-0.8838107835723126,0.7064062800709785,9.514382211973608,1.848498867127953,6.878307788979135,10.504705771841657,6.652645948456555,-9.510319407393292,-0.9023154654153964,4.775814893769055,-3.886525223894817,-3.9981748999618905,15.781309546493905,-14.6084296994093,-7.005645007621951,-6.019635072029225,-18.62435038919413,3.3655102585906094,-20.09611441798942,0.7622165908803841,-106.44061531417302,28.66765507532872,37.772995477281576,44.72180788929823,1577396370.0,-27.683653717557146,-51.125573281432814,9.201914
93972,1577396370.14,-1.7288763768638051,1.7751545430997524,13.506479899634384,-0.9053585985137194,-0.4452047184641772,15.7644456458115,1.6821018517470945,2.834501184975228,11.470766141714702,2.242855909394055,-18.101017649580797,-2.046724645102896,4.974179151581555,-9.517018387957316,-2.4875547827743905,-0.3930068597560954,6.3571464724657005,-2.6111137576219514,-7.586389405845051,-17.985279542506106,2.9226799614076384,-16.859932081807084,0.7622165908803841,-103.72008840518455,28.78746218588073,37.89280258783359,44.74576931140863,1577396370.0,-27.683653717557146,-51.125573281432814,9.201914
93973,1577396370.15,-2.103568936678258,-2.6397533182283723,13.967363719214465,-1.329132292361375,-2.444363104694645,12.066601181700172,3.948213723084984,10.333140784584604,10.262891404165874,-2.899356004668445,11.333186451981708,1.3559853158346038,5.904965284394055,-4.771534989519817,-2.6554014624618905,23.2581161871189,29.9167167849657,10.93869092987805,-7.009164124965536,-18.62435038919413,1.2399248321123264,-20.09611441798942,0.457329954528231,-100.99956149619612,28.61973223110792,37.725072633060776,44.81765357773984,1577396370.0,-27.683653717557146,-51.125573281432814,9.201914
93974,1577396370.16,-0.3869263463462271,-4.552720444693216,9.502177623023057,-4.513420500369187,-1.357395550983708,9.938155905821263,-5.042013510801734,-8.382333592856801,12.72173650914634,-23.010439989043444,-3.010075266768293,0.8982216439596037,8.346371534394056,-3.154103348894817,0.9151551781631098,17.5818466558689,35.7150566287157,12.64767530487805,-4.370419983802041,-16.43325034340659,3.0112460208442324,-20.09611441798942,0.457329954528231,-100.99956149619612,28.76350076377033,37.62922694461916,44.72180788929823,1577396370.0,-27.683653717557146,-51.125573281432814,9.201914
93975,1577396370.17,0.965797591642054,-2.644541721548685,7.907639317358994,-0.9388774217559064,0.0456066218678535,7.900690293028296,-3.394802768614234,-6.950601000083364,18.53246393834556,10.223202589081556,-6.000797923018292,-0.2309287466653963,6.393246534394055,4.780466963605183,-0.7327940405868902,12.363340796493905,11.0568535037157,-8.74514696074695,-4.370419983802041,-16.43325034340659,3.0112460208442324,-14.895107091982094,-4.420856227106227,-12.582436954071568,28.61973223110792,37.91676400994399,44.72180788929823,1577396370.0,-27.683653717557146,-51.125573281432814,9.201914
93976,1577396370.18,1.3608408655678352,-1.649750931753763,9.684136949194931,3.696296992306593,-1.8865141178782396,6.079899930479468,-1.6602036658310302,-4.441477660239615,20.047993589224472,12.130551221894056,-7.923405344893292,-0.5818808951028962,10.497860792206556,1.4387921589176829,-0.9311582983993903,-15.972230492568595,-41.4944160275343,-12.02578660918445,-5.359949036738351,-16.615842013888887,2.8341139019710404,-17.466716269841275,-16.540100022104333,-16.83326024936602,28.64369365321832,37.725072633060776,44.86557642196064,1577396370.0,-27.683653717557146,-51.125573281432814,9.201914
93977,1577396370.19,-0.9758999547446646,0.2500480855802201,11.125446348608994,-0.4839791063262189,-2.1570589054758957,15.863805014707983,3.021657680604516,14.132738819252571,7.653211594595561,26.21441352658156,-4.139225657393292,-0.2004111685403963,10.238461378144056,-6.633107255144817,-0.0919248999618902,-2.224061547256097,-73.3242500119093,-3.770781726371952,-5.195027527915633,-16.61584201388889,2.8341139019710444,-19.17149089336589,-4.420856227106227,-20.74401768103691,28.61973223110792,37.772995477281576,44.76973073351903,1577396370.0,-27.683653717557146,-51.125573281432814,9.201914
93978,1577396370.2,-1.0596970128501333,-0.0444387186189976,10.395214842261336,0.0499278638886238,0.6010614070241035,18.667415158750952,0.8620877831435781,17.92515424894007,-1.071259255013813,2.3801850109565548,1.1708329363567074,1.5390907845846038,10.238461378144056,5.604441572980183,1.6475770531631098,1.6821884527439026,-35.6045234494093,18.65963819550305,-5.52487054556107,-18.44175871871184,2.47984966422466,-18.24686736874237,0.457329954528231,-19.38375422654269,28.66765507532872,37.772995477281576,44.76973073351903,1577396370.0,-27.683653717557146,-51.125573281432814,9.201914
93979,1577396370.21,-2.3405949010337266,1.491441646371236,11.342121598853137,-5.3274490648223125,-0.3757728703196454,8.25024373541111,-1.2424154761337645,-11.861108605063832,-1.2340649679044386,6.652645948456556,5.443293873856708,1.813748987709604,-9.903140184355944,5.238230635480183,-2.4112608374618905,14.591123999618905,17.1908867068407,24.27487257050305,-5.52487054556107,-18.44175871871184,2.47984966422466,-16.975510022385023,-3.2013096816976128,-26.185071499013805,28.64369365321832,37.725072633060776,44.72180788929823,1577396370.0,-27.683653717557146,-51.125573281432814,9.201914
93980,1577396370.22,1.913901449063929,-4.274993052115091,5.537379673804306,-0.5989007860137189,-0.9946739994700368,5.2598858618759525,-1.632670346739234,-1.8150384390482088,6.102966019644389,1.2815521984565548,-8.259098704268293,0.4099403939596037,10.085873487519056,10.517771651105184,1.128778225038109,18.1159042730564,45.9231865115282,0.8678901486280484,-7.66885016025641,-16.43325034340659,1.9484533076050947,-17.871239061864063,-1.90554147720096,-25.67497270357847,28.81142360799113,37.82091832150238,44.84161499985024,1577396370.0,-27.683653717557146,-51.125573281432814,9.201914
93981,1577396370.23,3.2785963953529915,-5.613351780142435,7.598787303198837,0.7562173536347175,0.002510991985041,9.279750449278296,-0.4092332983993895,0.0644098641744471,13.334652134146342,12.512020948456556,-9.571354563643292,-0.0173056997903963,5.325131300019055,2.552683760480183,4.4857118187881095,25.1196884527439,33.0295097537157,-4.106475085746951,-6.184556580851943,-16.61584201388889,1.7713211887318916,-18.88254604192104,-3.048866363521536,-25.84500563539025,28.81142360799113,37.91676400994399,44.96142211040225,1577396370.0,-27.683653717557146,-51.125573281432814,9.201914
93982,1577396370.24,1.3847828821693977,1.7272705098966272,14.587461949194932,-0.2134343187285626,1.266649468547541,14.918095358946264,-2.401209079649389,-3.6370259024271134,23.050322471060408,25.51250922970656,5.656916920731708,3.187040003334604,7.522396925019055,5.909617354230183,3.9058778344131095,11.051084937118905,-4.537628918159299,-21.95925828887195,-5.359949036738351,-18.259167048229543,1.5941890698587031,-20.09611441798942,-4.115969590754073,-112.56180085939702,28.76350076377033,37.91676400994399,44.62596220085662,1577396370.0,-27.683653717557146,-51.125573281432814,9.201914
93983,1577396370.25,-1.5110040257895865,0.2907495138028774,15.96652210544493,-6.505396281619188,1.3384755183522283,14.980344602110328,-6.318122995665015,-8.566687120688833,27.170743528189316,6.500058057831557,-0.2177168683307928,2.408841761147104,8.010678175019056,12.074168135480184,3.051385646913109,-18.9782119378811,-42.0437324337843,-20.34182664824695,-5.854713563206507,-16.981025354853482,2.8341139019710444,-20.09611441798942,-3.2013096816976128,-113.24193258664414,28.88330787432234,37.62922694461916,44.76973073351903,1577396370.0,-27.683653717557146,-51.125573281432814,9.201914
93984,1577396370.26,0.5180818811928353,-2.9605763406893097,12.20762549899962,1.6600284803437029,-2.871728101032536,11.017940854551734,2.4733855004287344,19.6801040658346,13.595620115103372,-8.148379442168444,17.223079030106707,3.827909143959604,23.39153755001905,1.0420636432926838,5.630120998475609,-9.212586937881095,-96.8990791134718,11.06076124237805,-5.52487054556107,-17.711392036782662,1.7713211887318916,-13.62374974562475,-2.896423045345459,-118.0028546773739,28.907269296432744,37.725072633060776,44.81765357773984,1577396370.0,-27.683653717557146,-51.125573281432814,9.201914
93985,1577396370.27,-1.6438822179282584,-1.9286754251619664,9.22684443210509,0.3132900465058114,-6.653369623249333,8.88710137701267,5.257842031190453,-3.0097450674661768,4.708343552603373,13.183407667206556,20.396907155106707,2.179959925209604,43.47210395626905,-101.11552913014482,5.4317567406631095,-7.412049828506097,-74.1177070431593,32.72824171112805,-6.844242616142818,-17.34620869581807,3.188378139717421,-13.62374974562475,-4.115969590754073,-9.18177831783601,28.907269296432744,37.91676400994399,44.91349926618145,1577396370.0,-27.683653717557146,-51.125573281432814,9.201914
93986,1577396370.28,-1.5337489415610708,2.11513117884194,11.93229230808165,-1.8678276658965316,5.992803545695979,20.50137363043064,5.518810012147484,-9.881103832114617,-3.1518204976895947,14.617733839081556,6.999690358231708,4.468778284584603,20.156674268769056,-46.94682795826981,6.8660829125381095,7.358457983993903,-25.3506171994093,36.20724561737805,-5.52487054556107,-17.711392036782662,1.4170569509855149,-17.784555606430608,-4.420856227106227,-110.52140567765568,28.66765507532872,37.62922694461916,44.76973073351903,1577396370.0,-27.683653717557146,-51.125573281432814,9.201914
93987,1577396370.29,-3.390452329012242,2.854939491830221,7.394083061255478,-3.6503108018828594,-2.646673144977849,0.0716508643173592,1.5839395836806882,-8.237484392417349,-3.890431709847798,27.511410596894056,-3.0405928448932924,4.575589808022103,-14.099307176543446,-0.2244158488948109,2.456292873475609,12.8821396246189,51.5384208865282,1.5087592892530486,-6.844242616142818,-16.2506586729243,1.4170569509855149,-20.09611441798942,-4.115969590754073,-26.185071499013805,28.76350076377033,37.86884116572319,44.76973073351904,1577396370.0,-27.683653717557146,-51.125573281432814,9.201914
93988,1577396370.3,-1.6941604527915397,-2.29019987584556,7.6610365463629,-2.270053544802781,1.735912993938166,15.43763711920017,-4.625422421934546,-7.17086755281774,7.420974033560404,1.3731049328315548,-10.364811594893292,1.1728798470846038,-15.213198778105944,-0.8347674113948171,5.0350282250381095,35.8618759527439,80.3927910037157,-15.00125047637195,-5.52487054556107,-19.172125400641026,2.125585426478283,-16.859932081807084,-4.115969590754073,-25.504939771766697,28.76350076377033,37.86884116572318,44.76973073351903,1577396370.0,-27.683653717557146,-51.125573281432814,9.201914
93989,1577396370.31,-1.3206649938071646,2.921977138314596,10.716037864722274,-4.49905529040825,4.953720025188167,18.07604734869236,-0.749209934141577,0.4546647347799158,10.260497202505716,25.69561469845656,-0.5381514386432926,4.041532190834603,3.1583832531440548,1.4235333698551829,3.9669129906631095,40.2869247808689,78.2565605349657,-27.60501024199695,-6.349478089674663,-17.893983707264958,2.3027175453514714,-15.357418854293858,0.7622165908803841,-113.24193258664414,28.81142360799113,37.86884116572318,44.96142211040225,1577396370.0,-27.683653717557146,-51.125573281432814,9.201914
93990,1577396370.32,0.4366790247475228,-0.7052383768221225,12.540419529761335,2.4321585157440926,0.0240588069264473,6.207989719297828,4.376775820252953,11.269273633705698,9.087338389029153,-4.120059129668445,-9.113590891768292,4.224637659584603,15.121273878144056,3.193552901105183,3.8143251000381095,37.2656845464939,79.7519218630907,-11.33914110137195,-4.700263001447477,-17.528800366300366,0.8856605943659495,-13.62374974562475,-1.981763136288998,-102.35982495069037,28.81142360799113,37.725072633060776,44.96142211040225,1577396370.0,-27.683653717557146,-51.125573281432814,9.201914
93991,1577396370.33,0.4342848230873665,-0.0360590128084512,12.083127012671492,3.617288337521437,-0.9982653019602706,8.97688393926853,0.0456650170302969,0.7934442696920257,13.15029860631431,1.9681977062690548,-5.771916087080792,3.6448036752096034,1.3120697765815548,0.4317120807926837,4.4551942406631095,31.6199325933689,78.9889824099657,1.0662544064405486,-6.349478089674663,-17.16361702533578,2.3027175453514714,-15.93530855718356,0.457329954528231,-101.67969322344324,28.76350076377033,37.79695689939199,44.74576931140864,1577396370.0,-27.683653717557146,-51.125573281432814,9.201914
93992,1577396370.34,-1.4882591100181022,-0.6789021585604038,3.8781979233160246,-3.3163196702910622,0.6872526667897284,13.905348056700172,1.788643825624047,-2.178957091391958,6.508783201040873,0.5186127453315549,24.028498951981707,8.069852503334603,7.980160596894055,1.4845685261051829,1.2508485375381098,25.3027939214939,70.0168144412157,2.3937690548780486,-7.009164124965536,-18.98953373015873,2.6569817830978484,-19.17149089336589,0.457329954528231,-108.48101049591436,28.66765507532872,37.86884116572318,44.62596220085662,1577396370.0,-27.683653717557146,-51.125573281432814,9.201914
93993,1577396370.35,-0.2815814732993521,-2.6613011331697787,5.364997154273056,-0.3858168382598126,-5.973416351764958,1.026937326719702,2.0089103783584217,4.946187049233041,-1.0760476583341254,-8.423037645293444,6.145198170731708,3.278592737709604,9.292416456269056,10.792429854230184,4.2415711937881095,26.8897079839939,81.7050468630907,1.7834174923780486,-6.349478089674663,-17.893983707264958,2.6569817830978484,-19.402646774521777,0.457329954528231,-100.99956149619612,28.907269296432744,37.772995477281576,44.72180788929823,1577396370.0,-27.683653717557146,-51.125573281432814,9.201914
93994,1577396370.36,0.362458773282679,2.3868730672696734,6.860176091040635,6.507089741330031,0.8620293879811347,5.286222080137671,2.083130629823265,-2.7846901114114893,-0.3170857320645942,9.048275831269056,-1.8504072980182928,2.561429651772104,1.1137055187690548,-4.252736161394817,4.3331239281631095,23.8074325933689,104.5932304568407,7.612274914253049,-6.514399598497381,-17.34620869581807,1.5941890698587031,-19.28706883394384,0.457329954528231,-100.99956149619612,28.715577919549524,37.86884116572318,44.72180788929823,1577396370.0,-27.683653717557146,-51.125573281432814,9.201914
93995,1577396370.37,1.7056059046303351,0.9730969869474076,3.641171958960556,0.2342813917206556,1.2546784602467598,1.8637108069443116,-6.39832875128025,-3.99735325228063,3.628558603872905,13.519101026581556,-11.036198313643292,-0.4750693716653963,2.6395844250190548,0.3096417682926828,-0.0919248999618906,30.7806991949314,100.6259453005907,-13.53640672637195,-6.679321107320098,-17.16361702533578,1.5941890698587031,-19.34485780423281,0.457329954528231,-95.5585076782192,28.81142360799113,37.79695689939198,44.84161499985024,1577396370.0,-27.683653717557146,-51.125573281432814,9.201914
93996,1577396370.38,1.494916158536585,-0.0492271219393101,6.2628227768316505,0.4449711378144051,1.7885854304616031,3.3157941138290776,-1.9965889990829837,-1.048893907798208,10.07374947301353,13.122372510956556,-16.804020579268293,-0.0783408560403963,-1.2056304187309452,5.726511885480183,4.6993348656631095,21.1524032964939,68.3383476443407,-16.03884813262195,-6.679321107320098,-17.16361702533578,1.5941890698587031,-19.86495853683354,-4.420856227106227,-26.185071499013805,28.955192140653548,37.772995477281576,44.57803935663581,1577396370.0,-27.683653717557146,-51.125573281432814,9.201914
93997,1577396370.39,-1.1195520543540396,3.738399904427877,5.982701182593369,-1.2549120408965313,-2.221702350300114,5.901531906797827,-7.843229453184546,-1.1326909659036768,13.47591003209556,23.43731391720656,30.803401295731707,3.003934534584604,-5.294985887480945,0.5995587604801829,1.830682521913109,7.968809546493903,32.1444999880907,-19.27371141387195,-5.854713563206507,-16.61584201388889,2.125585426478283,-18.88254604192104,-4.26841290893015,-25.84500563539025,28.907269296432744,37.91676400994399,44.57803935663581,1577396370.0,-27.683653717557146,-51.125573281432814,9.201914
93998,1577396370.4,-1.3314389012778678,-2.1621100870272008,8.603154899634385,-1.3770163255645,-0.3494366520579267,9.926184897520484,-2.293470004942358,2.154547913490853,16.583583786978373,-13.870425340605944,4.253108326981708,1.3865028939596038,3.2804535656440548,-2.085988114519817,1.5560243187881098,6.076719702743903,-1.8520820431592988,-9.14187547637195,-6.349478089674663,-17.346208695818067,2.3027175453514714,-18.1890783984534,-3.048866363521536,-25.164873908143136,28.76350076377033,37.725072633060776,44.62596220085662,1577396370.0,-27.683653717557146,-51.125573281432814,9.201914
93999,1577396370.41,-2.3549601109946647,0.4439784200528763,17.541906797827743,-1.4512365770293436,-3.0572787296946453,14.791202670957984,-2.935116049864233,-4.118260436118521,15.82581896153892,-29.754824754668444,5.138118092606708,0.9592568002096036,-5.050845262480945,6.581004072980183,3.432855373475609,-18.3831191644436,-40.5941474728468,-0.8716118044969514,-6.349478089674663,-16.43325034340659,2.3027175453514714,-17.66897766585267,0.457329954528231,-24.824808044519585,28.61973223110792,37.84487974361279,44.69784646718783,1577396370.0,-27.683653717557146,-51.125573281432814,9.201914
94000,1577396370.42,-2.024560281893102,0.6905811910489702,14.630557579077744,-0.9388774217559064,-1.1419174015696454,7.735490378477515,9.96484249505764,23.93938881925257,13.602802720083842,-17.486758348418444,6.084163014481708,2.668241175209604,-0.9920073718559452,8.198435713605184,-2.3502256812118905,-12.355897484756095,-70.8218086056593,10.72506788300305,-6.349478089674663,-16.43325034340659,2.3027175453514714,-17.206665903540905,-4.420856227106227,-26.185071499013805,28.81142360799113,37.772995477281576,44.72180788929823,1577396370.0,-27.683653717557146,-51.125573281432814,9.201914
94001,1577396370.43,-0.2360916417563834,0.803108669076314,11.764698191870712,2.118518098263624,4.350381206828792,3.447475205137672,-7.558319455625952,0.8808326302877284,7.902208567251811,-0.0612212390434451,4.405696217606708,0.9897743783346036,-12.008853074980944,4.810984541730183,2.746209865663109,-8.785340844131097,-52.8774726681593,30.98873975800305,-4.865184510270196,-17.711392036782662,2.125585426478283,-18.13128942816443,-4.420856227106227,-13.942700408565791,28.76350076377033,37.772995477281576,44.62596220085662,1577396370.0,-27.683653717557146,-51.125573281432814,9.201914
94002,1577396370.44,-0.2588365575278677,-0.7830499307772006,8.072839231909775,1.7809356641815923,1.4486087947194168,7.1548964758896245,-1.9894063941025155,-4.082347411216177,5.184789682974468,5.935482862519056,5.809504811356708,2.012113245522104,-2.212710496855945,-0.6058855754573171,1.922235256288109,-15.499208031631095,-42.8524482540968,10.55722120331555,-7.009164124965537,-17.528800366300366,2.1255854264782794,-19.60490817053317,-3.5824179771378044,-21.93424820371936,28.691616497439128,37.74903405517118,44.86557642196064,1577396370.0,-27.683653717557146,-51.125573281432814,9.201914
94003,1577396370.45,1.4206959070717415,-2.3716027322908726,4.151136912573837,4.522296565060499,-0.0788918644602704,5.650140732481422,-3.0787681494736088,2.6453592538228845,4.626940696158061,2.2581146984565548,-2.704899485518293,1.2644325814596038,-11.062808153105944,8.808787276105184,4.0889833031631095,-11.959168969131095,-15.5849921994093,13.50216749237805,-6.019635072029225,-16.068067002442003,2.3027175453514714,-19.05591295278796,-2.896423045345459,-20.74401768103691,28.428040854224697,37.772995477281576,44.76973073351903,1577396370.0,-27.683653717557146,-51.125573281432814,9.201914
94004,1577396370.46,-1.251233145662633,0.803108669076314,4.42407590183165,-1.405746745486375,-3.0836149479563644,11.044277072813452,-4.627816623594702,-17.523395531333364,16.217270932974465,17.944149854706556,7.701594655106708,2.729276331459604,-5.264468309355945,-8.250538895769816,1.922235256288109,-15.712831078506095,-26.8764961056593,3.4618842892530486,-6.019635072029225,-16.068067002442003,2.3027175453514714,-18.824757071632074,-2.896423045345459,-18.023490772048465,28.76350076377033,37.58130410039836,44.62596220085662,1577396370.0,-27.683653717557146,-51.125573281432814,9.201914
94005,1577396370.47,-3.0277307774985704,0.6379087545255326,12.779839695776962,-6.476665861697312,1.0248351008717598,15.076112668516576,-2.607110422422828,-2.4854149038919577,22.99525583287681,-4.669375535918445,4.436213795731708,2.881864222084604,-0.7173491687309451,-6.968800614519817,6.2862489281631095,-19.4664931878811,-62.6125800900343,-15.58108446074695,-7.66885016025641,-19.35471707112332,2.3027175453514714,-19.17149089336589,-4.115969590754073,-23.46454459002536,28.81142360799113,37.772995477281576,44.76973073351903,1577396370.0,-27.683653717557146,-51.125573281432814,9.201914
94006,1577396370.48,-4.569596646639195,1.3896880758145955,16.213124876441025,-2.6698852220488747,-1.310708618610661,15.68064858770603,-2.5328901709579834,7.326023499428353,19.886384977163925,-20.828433153105944,7.777888600419208,2.683499964272104,-3.021426317168445,6.138499190167684,0.9151551781631098,-39.9743056878811,-93.7557685665968,5.5523383908155495,-6.184556580851944,-17.34620869581807,2.83411390197104,-16.282042378917378,-4.26841290893015,-24.824808044519585,28.859346452211938,37.67714978883997,44.76973073351904,1577396370.0,-27.683653717557146,-51.125573281432814,9.201914
94007,1577396370.49,-0.2360916417563834,-1.29421198522056,16.780550669898055,-3.3187138719512186,-0.5266075749094892,14.776837460997044,5.341639089295922,14.463138648354134,11.40731979772056,-24.231143114043444,0.6215165301067074,1.0813271127096038,-0.7173491687309451,0.0502423542301829,5.7369325219131095,-25.9362197503811,-120.1992500119093,20.82638624237805,-5.854713563206507,-16.2506586729243,2.125585426478283,-13.392593864468866,-4.420856227106227,-26.185071499013805,28.66765507532872,37.62922694461916,44.72180788929823,1577396370.0,-27.683653717557146,-51.125573281432814,9.201914
94008,1577396370.5,-0.3917147496665396,-7.655605796255716,13.045596080054306,0.1480901319550301,-3.2176902409251142,10.792885898497046,0.8405399682021719,8.678747437416634,2.728338779654155,-13.427920457793444,4.161555592606708,3.736356409584604,-2.487368699980945,9.266550947980184,3.7227723656631095,-22.0299697503811,-89.7121894650343,36.93966749237805,-5.854713563206507,-16.2506586729243,2.125585426478283,-12.930282102157102,0.7622165908803841,-16.663227317554238,28.66765507532872,38.15637823104801,44.72180788929823,1577396370.0,-27.683653717557146,-51.125573281432814,9.201914
94009,1577396370.51,-1.3673519261802114,-1.1996410196443887,10.09953093723204,1.2326634840058115,-1.4244331974680828,12.741766049864234,-4.79541073980564,-10.728651219809926,7.686730417837748,-5.890078660918444,10.326106373856708,6.391385706459603,12.527279737519056,3.468211104230183,6.2557313500381095,-16.4147353753811,-61.5139472775343,36.72604444550305,-5.442409791149711,-18.1678712129884,2.922679961407635,-16.628776200651203,-3.5061963180497666,-22.784412862778247,28.691616497439128,37.91676400994399,44.57803935663581,1577396370.0,-27.683653717557146,-51.125573281432814,9.201914
94010,1577396370.52,-0.1738423985923209,1.6817806783536586,13.869201451148056,-3.3881457200957503,1.454594298869807,8.341223398497046,5.059123293397485,-4.254729930747427,-3.445110201058735,13.366513135956556,-8.198063548018293,4.255155237709603,2.5785492687690548,3.7733868854801846,5.3554627953506095,-2.971742211318597,-4.7512519650343,11.64059522675305,-6.5143995984973815,-16.981025354853482,2.125585426478283,-16.455409289784292,-1.5244331817607677,-108.8210763595379,28.61973223110792,37.74903405517118,44.72180788929823,1577396370.0,-27.683653717557146,-51.125573281432814,9.201914
94011,1577396370.53,-0.5904334874595084,1.8948646261075648,7.184590415991806,3.6843259840058113,1.151727788860041,10.728242453672827,0.1462214867568594,-1.3768995352396145,8.297251841177593,6.683163526581555,-5.512516673018292,4.529813440834603,11.428646925019056,-3.123585770769817,3.539666896913109,-3.994081078506097,26.0715019412157,-5.327178210746951,-6.349478089674663,-18.98953373015873,1.5941890698587031,-19.113701923076928,0.6097732727043083,-112.90186672302058,28.66765507532872,37.725072633060776,44.76973073351903,1577396370.0,-27.683653717557146,-51.125573281432814,9.201914
94012,1577396370.54,-2.919991702791539,0.4607378316739701,9.138258970679308,-4.175838066287156,-1.302328912800114,8.324463986875953,-2.0923570654892334,-1.4056299551614893,11.20381265660728,-1.0377837390434452,12.187678639481708,4.468778284584603,-4.196353074980945,21.015818526105186,5.8895204125381095,9.372618140243905,18.9303886599657,-9.87429735137195,-6.349478089674663,-18.98953373015873,1.5941890698587031,-19.05591295278796,0.457329954528231,-113.24193258664414,28.61973223110792,37.62922694461916,44.72180788929823,1577396370.0,-27.683653717557146,-51.125573281432814,9.201914
94013,1577396370.55,-4.21525480093607,0.8797231222013139,9.80743833469298,-6.98902501697075,1.0942669490162908,10.953297409727517,0.5340821557021719,0.3684734750142909,11.42647341100181,-9.979434129668444,6.419856373856707,5.048612268959603,21.224789503144056,-17.985646317644818,4.5162293969131095,4.978086890243903,23.2638847537157,-9.78274461699695,-6.514399598497381,-16.61584201388889,2.3027175453514714,-19.922747507122512,0.6097732727043083,-110.18133981403211,28.78746218588073,37.772995477281576,44.62596220085662,1577396370.0,-27.683653717557146,-51.125573281432814,9.201914
94014,1577396370.56,-2.6853599400962267,-1.1577424905916538,11.4917592026129,-2.0210565721465312,-0.7696190434153485,10.730636655332985,1.1170702599502187,7.7174754708639,5.724682157339702,-5.523867723418445,-4.871647532393292,6.208280237709603,-6.973452684355944,0.3554181354801828,5.4012391625381095,7.114317358993902,37.6376640505907,8.97030714081555,-6.184556580851943,-17.711392036782662,3.542642377463798,-19.691591625966627,-3.048866363521536,-106.10054945054944,28.81142360799113,37.67714978883997,44.79369215562944,1577396370.0,-27.683653717557146,-51.125573281432814,9.201914
94015,1577396370.57,-1.866542972322789,-0.5735572855135289,7.486259825171494,-4.858185539431688,1.939420135051447,14.211805869200171,7.177991762635766,10.263708936440072,0.9302933328768108,0.2439545422065548,-2.857487376143293,7.245877893959603,0.7169770031440549,-7.731740067644817,6.2252137719131095,28.8733505621189,77.6767265505907,15.97409132050305,-6.349478089674663,-18.259167048229543,2.6569817830978484,-19.691591625966627,-2.7439797271693824,-111.54160326852636,28.907269296432744,37.86884116572318,44.62596220085662,1577396370.0,-27.683653717557146,-51.125573281432814,9.201914
94016,1577396370.58,-0.9423811315024772,-0.7938238382479038,8.544496958960556,0.2821654249237801,-2.487458734577458,5.068349729063453,-7.8504120581650145,-7.09425309969274,0.5304616556307173,-1.1598540515434452,-7.618229563643292,6.025174768959603,2.3954438000190548,4.322703291730183,4.7603700219131095,26.0657333746189,110.2389824099657,15.63839796112805,-6.349478089674663,-18.259167048229543,2.6569817830978484,-19.691591625966627,-2.4390930908172286,-110.86147154127924,28.66765507532872,37.725072633060776,44.72180788929823,1577396370.0,-27.683653717557146,-51.125573281432814,9.201914
94017,1577396370.59,-0.3498162206138053,-1.0978874490877475,7.173816508521103,-0.518695030398485,-0.5625205998118331,5.142569980528297,1.1194644616103748,-3.092345024741568,12.50625835973228,4.348568800019055,-2.323429758955793,6.193021448647103,-3.997988817168445,-4.679982255144816,6.7897889672256095,24.4940781011814,94.4613945193407,-6.288481921684451,-6.349478089674663,-17.893983707264955,2.6569817830978484,-19.460435744810745,-1.9817631362889976,-66.65290927021697,28.739539341659928,37.84487974361279,44.72180788929823,1577396370.0,-27.683653717557146,-51.125573281432814,9.201914
94018,1577396370.6,-0.9543521398032584,1.224488161263814,8.171001499976182,-0.6683326341582502,4.098990032512385,8.374742221739234,-7.3619949194931396,-3.474220189536489,19.375222922720564,1.2205170422065548,-6.916325266768292,3.766873987709604,-8.377261278105944,-0.163380692644817,1.983270412538109,15.109922827743905,34.8910820193407,-7.341338366996951,-6.679321107320098,-16.43325034340659,2.6569817830978484,-19.05591295278796,-4.420856227106227,-25.504939771766697,28.81142360799113,37.772995477281576,44.62596220085662,1577396370.0,-27.683653717557146,-51.125573281432814,9.201914
94019,1577396370.61,-0.0924395421470083,0.9395781637052202,4.361826658667587,-1.5470046434355935,0.4214962825123848,2.4299394995712644,-0.8186417822861083,-3.728005565513052,10.121633506216654,11.657528760956556,-0.0193526105182926,7.276395472084603,-6.393618699980945,5.451853682355183,6.8966004906631095,-8.724305687881097,8.9206230349657,-18.02249071074695,-4.865184510270196,-19.172125400641026,1.7713211887318916,-17.322243844118844,0.457329954528231,-25.504939771766697,28.61973223110792,37.772995477281576,44.76973073351903,1577396370.0,-27.683653717557146,-51.125573281432814,9.201914
94020,1577396370.62,1.0591714563881478,-2.357237522329935,7.924398728980088,0.6245362623261238,-2.078050250690739,8.748237680723609,-0.3110710303329833,8.140052063881479,9.728984433951029,-0.0917388171684451,-4.780094798018292,4.651883753334603,-4.959292528105945,-1.6282244426448171,10.31456924066311,1.9568466558689024,-9.8782050900343,0.8984077267530487,-4.865184510270196,-19.172125400641026,1.7713211887318916,-17.322243844118844,-4.420856227106227,-23.46454459002536,28.907269296432744,37.91676400994399,44.76973073351903,1577396370.0,-27.683653717557146,-51.125573281432814,9.201914
94021,1577396370.63,-1.813870535799352,-0.4490587991854038,8.718076579321885,0.6029884473847181,-0.7660277409251142,10.491216489317358,-1.3321980383896248,-1.87130217806188,5.02318107091392,-6.622500535918444,6.663996998856708,8.161405237709603,-2.502627489043445,-0.8805437785823171,5.5843446312881095,6.030943335556404,13.7118828005907,4.9114692501905495,-5.772252808795147,-19.446012906364476,2.5684157236612504,-18.160183913308916,-4.344634568018188,-15.13293093124824,28.78746218588073,37.725072633060776,44.84161499985024,1577396370.0,-27.683653717557146,-51.125573281432814,9.201914
94022,1577396370.64,0.8125686853920541,-0.3676559427400914,7.0505151230230565,-1.2836424608184065,-0.7995465641673016,8.101803232481421,1.8796234887099843,5.434604187904916,12.580478611197124,-0.0307036609184451,-5.787174876143292,5.201200159584603,0.0455902843940548,-0.4685564738948171,8.14782119378811,0.3394150152439026,25.1864921755907,10.23678663300305,-5.195027527915633,-17.711392036782662,2.8341139019710444,-13.565960775335776,-1.829319818112921,-15.643029726683572,28.76350076377033,37.62922694461916,45.4885733968311,1577396370.0,-27.683653717557146,-51.125573281432814,9.201914
94023,1577396370.65,-1.2943287755454458,-0.9614179544588412,8.482247715796493,-3.6084122728301247,1.661692742473322,6.78738652105564,-6.026030393125953,-11.849137596763052,14.986651279654154,0.7017182140815549,-0.2024580792682926,6.452420862709603,-1.3277007312309452,-1.5977068645198171,7.751092678163109,-3.383729516006097,-1.5163886837842988,4.224823742378049,-5.359949036738351,-18.259167048229543,2.6569817830978484,-19.922747507122512,-4.26841290893015,-20.40395181741336,28.76350076377033,37.62922694461916,45.00934495462306,1577396370.0,-27.683653717557146,-51.125573281432814,9.201914
94024,1577396370.66,-2.576423764559117,-0.9614179544588412,10.152203373755478,-1.3147670824004376,-0.1531121159251142,13.285249826719705,0.1869229149795157,1.1154643929830408,14.263602378286969,-9.231753465605944,8.342463795731708,7.627347620522103,0.1676605968940548,-0.163380692644817,7.751092678163109,-5.458924828506097,-23.0617988400343,-5.296660632621951,-6.019635072029225,-18.259167048229543,3.3655102585906094,-19.922747507122512,-4.26841290893015,-20.40395181741336,28.739539341659928,37.772995477281576,44.72180788929823,1577396370.0,-27.683653717557146,-51.125573281432814,9.201914
94025,1577396370.67,-2.3382006993735707,-1.7227740823885287,9.746386192358996,-1.4967264085723122,-0.529001776569646,10.776126486875953,0.0157374962783442,3.853233991371713,10.57653182164634,3.5093354015815548,1.0182450457317074,8.313993128334603,-0.3969145984184452,0.2333478229801828,7.659539943788109,-1.0186172113185972,-27.6394355587843,17.91195753144055,-5.689792054383788,-17.893983707264958,2.3027175453514714,-13.392593864468866,-30.94599358974359,-16.663227317554238,28.907269296432744,37.74903405517118,44.72180788929823,1577396370.0,-27.683653717557146,-51.125573281432814,9.201914
94026,1577396370.68,-3.501782706209508,2.9076119283536586,10.4574640854254,-3.5294036180449684,1.544376861125666,12.023505551817358,-2.291075803282202,-8.446977037681021,4.569479856314311,1.7393158703315548,1.872737233231708,8.893827112709603,-2.823062059355945,-3.611867020769817,10.31456924066311,-8.052918969131097,-13.7234199337843,3.4924018673780486,-6.019635072029225,-18.62435038919413,2.3027175453514714,-13.334804894179896,-29.87889036251105,-14.96289799943646,28.61973223110792,37.9646868541648,44.72180788929823,1577396370.0,-27.683653717557146,-51.125573281432814,9.201914
94027,1577396370.69,-0.0876511388266959,0.3386335470060014,7.780746629370713,4.141618501095655,-0.8977088322337079,8.71471885748142,6.387905214784203,19.148591297279918,0.4658182108064986,1.2815521984565548,-14.820378001143292,6.849149378334603,0.2897309093940549,8.198435713605184,3.8448426781631095,9.677793921493905,13.0710136599657,17.13375928925305,-5.854713563206507,-17.34620869581807,2.47984966422466,-13.103649013024016,-0.9146599090564606,-17.0032931811778,28.907269296432744,37.62922694461916,44.91349926618145,1577396370.0,-27.683653717557146,-51.125573281432814,9.201914
94028,1577396370.7,0.318166042569788,-2.4039244547029823,5.867779502905869,5.45364101086128,-3.684559564655583,-1.628232314393578,-12.454461850645483,-17.97350544344274,4.689189939322123,5.966000440644056,0.2705643816692072,7.825711878334603,-2.578921434355945,0.9657696979801828,8.08678603753811,4.550840796493903,34.5553886599657,16.12667921112805,-5.854713563206507,-18.80694205967644,2.47984966422466,-13.565960775335776,-1.2195465454086138,-24.484742180896028,28.81142360799113,37.86884116572318,44.72180788929823,1577396370.0,-27.683653717557146,-51.125573281432814,9.201914
94029,1577396370.71,1.2004293543373663,1.167027321420064,12.387190623511335,-3.421664543337937,1.2331306453053543,9.413825742247043,0.0720012352920158,0.4977603646627288,10.639978165640482,0.1829193859565548,-7.068913157393292,6.330350550209603,-1.4192534656059452,-7.869069169207316,8.57506728753811,3.711607398056403,18.6557304568407,0.4406440548780486,-4.865184510270196,-18.44175871871184,2.47984966422466,-13.334804894179896,-2.743979727169382,-19.72382009016624,28.76350076377033,37.82091832150238,44.62596220085662,1577396370.0,-27.683653717557146,-51.125573281432814,9.201914
94030,1577396370.72,0.1565574305092415,0.4272190084317826,11.74793878024962,2.6260888502167488,-0.3087352238352704,4.046025620176734,-3.6605591528915777,-6.088688402427114,11.479145847525247,-4.516787645293445,-8.350651438643293,6.299832972084603,-5.386538621855945,16.438181807355182,5.2181336937881095,-14.034364281631095,6.875945300590701,-1.970244616996952,-5.359949036738351,-18.62435038919413,2.3027175453514714,-13.565960775335776,0.6097732727043083,-23.80461045364892,28.57180938688711,37.772995477281576,44.57803935663581,1577396370.0,-27.683653717557146,-51.125573281432814,9.201914
94031,1577396370.73,0.8460875086342415,0.9156361471036576,15.92342647556212,1.1297128126190925,-3.459504608600896,8.436991464903295,3.699216750428735,2.8009823617330407,1.5551799661775922,-1.4955474109184452,2.422053639481707,5.719998987709603,-7.431216356230945,-6.266896317644817,9.12438369378811,0.6445907964939026,11.7892753787157,0.4406440548780487,-6.5143995984973815,-17.711392036782662,2.8341139019710444,-13.62374974562475,-4.420856227106227,-99.63929804170188,28.66765507532872,37.772995477281576,44.62596220085662,1577396370.0,-27.683653717557146,-51.125573281432814,9.201914
94032,1577396370.74,0.3696413782631478,-0.0540155252596225,6.502242942847275,1.2027359632538588,-0.1028338810618334,8.709930454161109,-2.886034915831031,0.1805286446920257,7.866295542349467,-5.371279832793444,20.259578053544207,8.283475550209603,-4.516787645293445,7.420237471417684,6.3320252953506095,5.985166968368904,21.2344658084032,15.47055128144055,-5.359949036738351,-17.528800366300366,1.9484533076050947,-13.594855260480262,-4.344634568018188,-103.55005547337278,28.78746218588073,37.74903405517118,44.72180788929823,1577396370.0,-27.683653717557146,-51.125573281432814,9.201914
94033,1577396370.75,-0.9854767613852896,-0.6405949319979037,6.519002354468369,0.5503160108612801,-4.338176617878239,6.919067612364234,-4.445857297422828,-11.293682811606802,11.505482065786966,4.302792432831555,11.638362233231708,6.025174768959603,-4.074282762480945,3.681834151105183,7.1102235375381095,-12.355897484756095,-4.629181652534299,-1.909209460746952,-6.019635072029225,-18.98953373015873,1.2399248321123264,-13.277015923890923,-3.81108295440192,-102.35982495069037,28.61973223110792,37.772995477281576,44.91349926618145,1577396370.0,-27.683653717557146,-51.125573281432814,9.201914
94034,1577396370.76,-1.9311864171470083,-2.024443491568216,5.815107066382431,-2.882969169802781,0.4693803157155098,9.023570871641576,0.4622561058974844,10.261314734779916,7.638846384634623,-10.772891160918444,16.399104420731707,6.605008753334603,-8.468814012480944,2.094920088605183,3.9058778344131095,2.506163062118903,-15.1882636837843,6.757782726753049,-5.52487054556107,-16.2506586729243,3.188378139717421,-19.46043574481075,1.219546545408615,-96.57870526908988,28.61973223110792,37.58130410039836,44.62596220085662,1577396370.0,-27.683653717557146,-51.125573281432814,9.201914
94035,1577396370.77,-2.127510953279821,2.6562207540372524,9.861307872046494,-4.429623442263718,-0.1124106877024579,4.955822251036109,7.075041091249047,8.966051636635385,3.815306333365092,2.5938080578315548,5.382258717606708,4.163602503334603,-6.179995653105945,1.2709454792301829,6.7745301781631095,-3.597352562881097,3.2138359255907014,27.99801710175305,-6.019635072029225,-17.893983707264958,3.7197744963369854,-19.576013685388688,1.219546545408615,-95.21844181459566,28.76350076377033,37.772995477281576,44.96142211040225,1577396370.0,-27.683653717557146,-51.125573281432814,9.201914
94036,1577396370.78,-1.3062997838462271,0.7229029134610805,10.571188664282822,-2.1862564866973124,0.5316295588795728,4.2483356604599365,-6.995682065489234,-9.778153160727896,4.315694480337749,-14.343447801543444,-1.2553145245807928,4.636624964272103,-6.439395067168445,4.841502119855183,3.9516542016006095,-6.160829125381096,30.3287040896532,7.3070991330030495,-6.679321107320098,-18.62435038919413,3.3655102585906094,-19.51822471509972,1.0671032272325378,-95.5585076782192,28.76350076377033,37.91676400994399,44.76973073351903,1577396370.0,-27.683653717557146,-51.125573281432814,9.201914
94037,1577396370.79,0.9394613733803352,1.2436417745450647,7.720891587866807,0.981272309689405,-1.7093431950266766,3.0260957129501715,2.911524404237328,1.4961424569478845,9.535054099478373,-2.990908739043445,4.497248951981708,3.980497034584604,-9.414858934355944,1.6676739948551829,7.323846584413109,4.337217749618903,27.6584160037157,-1.6650688357469514,-7.339007142610973,-17.528800366300366,1.9484533076050947,-19.51822471509972,1.0671032272325378,-95.5585076782192,28.66765507532872,37.91676400994399,44.76973073351903,1577396370.0,-27.683653717557146,-51.125573281432814,9.201914
94038,1577396370.8,1.5260407801186164,1.3465924459317835,8.987424266089464,-1.1304135545684064,1.0727191340748847,6.401920053770484,-4.443463095762671,-1.850951463950552,13.660263559927593,-3.082461473418445,8.708674733231707,4.773954065834603,-11.184878465605944,5.299265791730183,5.2791688500381095,-3.200624047256097,12.3996269412157,0.3185737423780487,-5.52487054556107,-18.44175871871184,3.8969066152101823,-19.86495853683354,-2.591536408993305,-26.185071499013805,28.57180938688711,37.86884116572318,44.76973073351903,1577396370.0,-27.683653717557146,-51.125573281432814,9.201914
94039,1577396370.81,-0.9974477696860709,1.1754070272306112,11.26790134738829,-2.0713348070098125,-0.1579005192454267,14.523052085020485,-3.2846694922470463,-9.210727367270865,16.10713765660728,-8.560366746855944,7.045466725419208,3.8889443002096034,-9.658999559355944,-0.071827958269817,5.2486512719131095,-14.705751000381095,-5.575226574409299,-12.52932664824695,-5.52487054556107,-18.07657537774725,3.011246020844229,-19.17149089336589,-1.3719898635846908,-25.504939771766697,28.88330787432234,37.772995477281576,44.19465660286938,1577396370.0,-27.683653717557146,-51.125573281432814,9.201914
94040,1577396370.82,-2.2879224645102894,-3.3316775980135285,10.086362828101182,1.5846111280487802,-1.541749078815739,12.564595127012671,3.941031118104516,8.156811475502572,12.630756846060404,-26.428408739043444,19.206721608231707,3.980497034584604,-10.467715379668444,11.891062666730184,1.3729188500381095,-9.6703506097561,-26.1288154415968,5.1861274533155495,-5.689792054383788,-18.259167048229543,3.3655102585906094,-18.593601190476196,-1.981763136288998,-23.46454459002536,28.907269296432744,37.79695689939198,44.76973073351903,1577396370.0,-27.683653717557146,-51.125573281432814,9.201914
94041,1577396370.83,-1.191378104158727,-4.449769773306497,7.184590415991806,-1.8007900194121562,-1.817082269733708,9.643669101622043,0.2204417382217032,-0.0265697989114893,14.661039853872904,-24.353213426543444,17.070491139481707,4.651883753334603,-14.175601121855944,-0.5906267863948171,6.6219422875381095,-16.8114638910061,-38.3816230587843,14.60080030487805,-5.689792054383788,-18.259167048229543,3.3655102585906094,-17.322243844118844,-1.3719898635846908,-26.185071499013805,29.09896067331596,37.91676400994399,44.482193668194206,1577396370.0,-27.683653717557146,-51.125573281432814,9.201914
94042,1577396370.84,-2.927174307772008,0.0178105245450639,11.072773912085555,-4.003455546755906,3.2753846614186357,13.37622948980564,-2.4706409277939216,0.7180269173971034,16.691322861685403,-18.768496629668444,14.690120045731708,3.614286097084604,-9.750552293730944,4.353220869855183,4.0584657250381095,-23.7084365472561,-67.1291816525343,7.520722179878049,-6.844242616142818,-19.172125400641026,2.8341139019710444,-17.553399725274726,-1.6768764999368446,-15.302963863060016,28.61973223110792,37.772995477281576,44.91349926618145,1577396370.0,-27.683653717557146,-51.125573281432814,9.201914
94043,1577396370.85,-1.940763223787633,-0.633412327017435,8.621111412085556,-1.7816364061309062,-0.3590134586985517,7.697183151915015,-5.377201743223609,-4.5252747183450825,13.59083171178306,-7.263369676543444,4.176814381669208,4.728177698647103,-5.966372606230945,7.160838057355183,4.6993348656631095,-40.1879287347561,-77.5661933712843,4.591034679878049,-5.854713563206507,-18.44175871871185,4.251170852956559,-18.24686736874237,-3.5061963180497666,-15.302963863060016,28.739539341659928,37.772995477281576,44.91349926618145,1577396370.0,-27.683653717557146,-51.125573281432814,9.201914
94044,1577396370.86,-2.4531223790610706,-2.30935348912681,11.666535923804306,-1.3794105272246564,-1.897288025348942,12.732189243223608,-1.9367339575790767,4.491288733803354,8.43252423497642,-13.336367723418444,-1.8809248761432928,3.675321253334604,-5.539126512480944,-0.4075213176448171,5.3707215844131095,-32.6653457269436,-86.6299140744093,19.26998975800305,-6.184556580851943,-18.80694205967644,4.251170852956559,-18.70917913105413,-3.81108295440192,-60.87178958861652,29.00311498487435,37.653188366729566,44.76973073351904,1577396370.0,-27.683653717557146,-51.125573281432814,9.201914
94045,1577396370.87,-2.263980447908727,-2.9007212991854034,8.515766539038681,-1.6906567430449688,-2.1402994938548017,14.57572452154392,2.368040627381859,-6.146149242270864,3.075498020376811,3.4788178234565548,10.783870045731708,5.964139612709603,-5.539126512480945,6.275828291730183,3.234491115663109,-16.5978408441311,-44.2715156369093,1.5087592892530486,-6.184556580851943,-18.80694205967644,4.251170852956559,-20.558426180301183,-33.38508668056082,-24.824808044519585,28.955192140653548,37.62922694461916,44.62596220085662,1577396370.0,-27.683653717557146,-51.125573281432814,9.201914
94046,1577396370.88,-2.465093387361852,-2.6780605447908723,11.170936180151962,-1.597282878298875,-2.7125136906321456,12.68669941168064,5.018421865174828,2.8105591683736657,5.565467746939311,-5.066104051543445,3.551204030106707,5.964139612709603,-1.2971831531059452,4.261668135480183,5.3402040062881095,-3.109071312881097,-18.6367500119093,8.25314405487805,-6.184556580851943,-18.80694205967644,2.8341139019710444,-20.96294897232397,-33.53752999873689,-21.764215271907577,28.61973223110792,37.772995477281576,44.81765357773984,1577396370.0,-27.683653717557146,-51.125573281432814,9.201914
94047,1577396370.89,-2.2951050694907584,-1.0919019449373577,13.232343809546494,-0.2972313768340316,-0.6678654728587085,13.448055539610326,2.113058150575219,-4.599494969809928,13.59202881261314,-7.461733934355944,-0.5839278058307926,4.911283167397103,-2.029605028105945,-2.162282059832317,4.3789002953506095,-6.313417016006096,-0.3262031369092988,0.3338325314405486,-6.184556580851944,-18.07657537774725,4.074038734083374,-20.558426180301183,-33.68997331691297,-26.185071499013805,28.715577919549524,37.82091832150238,44.72180788929823,1577396370.0,-27.683653717557146,-51.125573281432814,9.201914
94048,1577396370.9,-2.450728177400914,1.705722694955221,12.746320872534774,-1.654743718142625,-0.0597382511790204,15.351445859434545,3.138973561952172,7.728249378334604,14.184593723501813,8.209042432831556,-1.8198897198932928,4.438260706459603,-0.2901030749809451,-2.604786942644817,6.1641786156631095,2.719786108993903,-14.9441230587843,6.910370617378049,-6.019635072029225,-18.259167048229543,3.7197744963369854,-13.565960775335776,-33.232643362384735,-23.1244787264018,28.76350076377033,37.86884116572318,44.81765357773984,1577396370.0,-27.683653717557146,-51.125573281432814,9.201914
94049,1577396370.91,-2.6374759068931017,-1.42828727818931,10.234803331030868,-1.4632075853301252,-2.406055878132145,13.65635108404392,-0.8665258154892332,-1.4439371817239892,14.074460447134625,-5.859561082793445,1.5370438738567074,6.147245081459603,-6.393618699980945,-10.173146317644816,3.478631740663109,3.848936499618903,-19.7048652462843,13.04440382050305,-6.019635072029225,-18.259167048229543,3.7197744963369854,-13.508171805046809,-0.7622165908803841,-107.12074704142012,28.955192140653548,37.58130410039836,44.62596220085662,1577396370.0,-27.683653717557146,-51.125573281432814,9.201914
94050,1577396370.92,-1.5696619664634146,-2.747492392935404,10.2276207260504,-1.5206684251738751,-0.9839000919993328,14.317150742247046,-3.847306882383765,-2.198110704673208,14.067277842154152,-1.1598540515434452,-2.094547923018293,5.353788050209603,-15.091128465605944,14.240916182355184,8.84972549066311,2.078916968368903,-13.1130683712843,13.44113233612805,-5.195027527915633,-19.537308741605617,3.188378139717421,-13.392593864468866,-1.3719898635846908,-18.703622499295577,28.81142360799113,37.772995477281576,44.72180788929823,1577396370.0,-27.683653717557146,-51.125573281432814,9.201914
94051,1577396370.93,-2.947525021883336,-0.4263138834139194,12.546405033911729,-3.756852775759812,-1.829053278034489,11.960059207823218,-2.2431917700790773,-7.792162883628286,13.672234568228372,3.1278656750190548,-9.189884837080792,6.040433558022103,15.151791456269056,-15.467946122332316,5.0350282250381095,-5.474183617568597,-16.1800849728468,4.041718273628049,-5.195027527915633,-19.35471707112332,3.188378139717421,-13.450382834757836,-2.286649772641152,-65.6327116793463,28.64369365321832,37.820918321502376,44.79369215562944,1577396370.0,-27.683653717557146,-51.125573281432814,9.201914
94052,1577396370.94,-2.9750583409751328,-4.665247922720559,9.595551487769152,0.4042697095917488,-2.777157135456364,9.473680783750952,-1.7811108496689207,1.9390697640767909,10.430485520376813,5.065731885956555,1.0792802019817074,6.879666956459603,-6.729312059355945,-10.539357255144816,5.0045106469131095,5.771543921493903,-15.6155097775343,9.50436475800305,-5.52487054556107,-18.80694205967644,3.542642377463798,-13.62374974562475,-2.896423045345459,-113.24193258664414,28.66765507532872,37.86884116572318,44.72180788929823,1577396370.0,-27.683653717557146,-51.125573281432814,9.201914
94053,1577396370.95,-3.8609129552329455,1.3777170675138148,10.122275853003526,-2.7848069017363746,1.9513911433522284,16.972320383360326,3.984126747987328,7.285322071205697,6.006000852408061,6.957821729706555,-2.674381907393293,7.001737268959603,-13.351626512480944,9.571726729230184,5.7369325219131095,9.616758765243905,-1.8825996212842988,12.58664014862805,-5.52487054556107,-18.80694205967644,3.542642377463798,-17.322243844118844,-4.420856227106227,-103.03995667793744,28.907269296432744,37.772995477281576,44.72180788929823,1577396370.0,-27.683653717557146,-51.125573281432814,9.201914
94054,1577396370.96,-1.260809952303258,1.643473451791158,10.222832322730088,-3.953177311892625,1.7574608088795722,6.234325937559547,6.560287734315453,5.848801075111948,9.829540903677591,10.436825635956556,-13.950627024580792,5.384305628334603,28.701596143769056,-21.22050959889481,4.2720887719131095,7.663633765243903,6.021453113090701,9.68747022675305,-6.102095826440585,-18.35046288347069,3.276944199154016,-18.478023249898254,1.0671032272325378,-113.24193258664414,28.81142360799113,37.91676400994399,44.76973073351903,1577396370.0,-27.683653717557146,-51.125573281432814,9.201914
94055,1577396370.97,-1.6678242345298209,-2.7187619730135286,9.904403501929306,-1.8522653551055157,-1.929609747761052,6.502476523497046,-6.156514383604468,-5.424297441733756,14.232477756704936,0.0608490734565548,-6.092350657393292,6.421903284584603,0.6864594250190548,-3.688160966082317,5.8742616234756095,-1.3237929925685972,1.916838855278201,3.9043891720655486,-5.689792054383788,-18.259167048229543,3.0112460208442324,-20.03832544770045,-3.658639636225843,-100.65949563257256,28.907269296432744,37.74903405517118,44.76973073351904,1577396370.0,-27.683653717557146,-51.125573281432814,9.201914
94056,1577396370.98,-1.217714322420446,0.1734336324552201,7.567662681616806,-3.0409864793730934,-1.6399113468821451,12.061812778379858,1.273890468690453,1.8624553109517907,7.358724790396342,8.239560010956556,8.739192311356707,7.947782190834603,-3.982730028105945,-15.055958817644816,7.0491883812881095,-2.468202172256097,-4.903839855659299,2.6379096798780486,-6.184556580851943,-19.537308741605617,2.8341139019710444,-19.80716956654457,-2.4390930908172286,-112.90186672302058,28.907269296432744,37.725072633060776,44.76973073351903,1577396370.0,-27.683653717557146,-51.125573281432814,9.201914
94057,1577396370.99,-1.2153201207602895,-2.9079039041658725,11.135023155249618,0.6987565137909676,-3.483446625202458,2.8417421851181404,0.8716645897842031,6.516783338295541,8.926926877798685,-9.918398973418444,-16.193669016768293,5.842069300209603,26.412777784394056,-29.18559748951981,3.142938381288109,14.926817358993905,7.669402331840701,11.85421827362805,-6.184556580851943,-19.537308741605617,2.8341139019710444,-19.922747507122512,-1.829319818112921,-110.86147154127924,29.09896067331596,37.91676400994399,44.72180788929823,1577396370.0,-27.683653717557146,-51.125573281432814,9.201914
94058,1577396371.0,-0.7783783177817746,2.1869572286466266,11.027284080542588,1.5678517164276864,1.6856347590748846,7.503252817442359,1.1805166039443593,-2.360916417563833,6.4417455545564986,14.785580518769056,-7.389347727705792,5.979398401772103,-4.471011278105945,-4.100148270769817,6.4998719750381095,9.738829077743905,15.1462089724657,18.14083936737805,-6.761781861731459,-18.533054553952997,2.5684157236612504,-19.922747507122512,-1.829319818112921,-110.86147154127924,28.64369365321832,37.725072633060776,44.76973073351903,1577396371.0,-27.68372358550807,-51.12553424242012,8.6781225
94059,1577396371.01,-0.8178826451743522,-1.2966061868807162,9.119105357398055,-3.9447976060820777,0.9781481684987128,11.35193198614353,-3.491767935850562,-4.666532616294302,10.738140433706889,1.2815521984565548,-5.268376048018292,6.421903284584603,6.042294385956555,-9.745900223894816,5.5538270531631095,9.494688452743905,20.9445488162157,6.7272651486280495,-6.5143995984973815,-17.711392036782662,2.47984966422466,-17.00440450752951,-28.43067883983832,-21.254116476472245,28.81142360799113,37.91676400994399,44.64992362296702,1577396371.0,-27.68372358550807,-51.12553424242012,8.6781225
94060,1577396371.02,-0.7915464269126333,-0.959023752798685,10.165371482886338,0.2462524000214363,1.3696001399342597,8.59979717779392,0.0408766137099844,2.037232032143197,11.977139792837749,-1.4345122546684452,-3.559391673018293,7.154325159584603,2.2123383312690548,6.428416182355183,5.7369325219131095,4.550840796493903,14.8105156130907,-1.4819633669969514,-6.679321107320098,-17.528800366300366,2.6569817830978484,-20.03832544770045,-31.098436907919663,-19.04368836291913,28.907269296432744,37.9646868541648,44.72180788929823,1577396371.0,-27.68372358550807,-51.12553424242012,8.6781225
94061,1577396371.03,-1.2248969274009145,0.4655262349942826,10.467040892066024,1.4002576002167488,-1.967916974323552,6.811328537657203,-2.635840842344703,-3.680121532309927,8.49597057897056,10.345272901581556,3.978450123856707,7.734159143959603,6.179623487519055,-4.496876786394817,6.3167665062881095,14.591123999618905,12.1554863162157,-1.7871391482469514,-6.679321107320098,-17.528800366300366,2.6569817830978484,-18.998123982498985,-2.4390930908172286,-24.484742180896028,28.955192140653548,37.772995477281576,44.62596220085662,1577396371.0,-27.68372358550807,-51.12553424242012,8.6781225
94062,1577396371.04,0.7634875513588509,-1.686861057486185,6.25683727268126,-0.6659384324980939,0.4202991816823071,6.849635764219703,-1.2687516943954842,2.0324436288228847,5.5989865701814985,8.117489698456556,-2.7659346417682924,6.910184534584603,2.9752777843940548,-2.864186356707317,7.5222108422256095,11.325743140243905,16.3821708865282,6.376313000190549,-6.431938844086021,-17.80268787202381,2.5684157236612544,-17.95792251729752,-1.219546545408614,-20.74401768103691,28.76350076377033,37.74903405517118,44.91349926618145,1577396371.0,-27.68372358550807,-51.12553424242012,8.6781225
94063,1577396371.05,0.1661342371498665,1.523763368783346,8.90602140964415,0.6843913038300301,-1.0437551335032391,5.027648300840796,-3.1793246192001714,0.0021606210103846,12.242896177115092,11.840634229706556,-4.749577219893292,5.506375940834603,3.707699659394055,5.512888838605183,4.4857118187881095,7.907774390243903,14.3527519412157,-0.1391899294969513,-6.184556580851943,-19.537308741605617,2.47984966422466,-17.322243844118844,-3.2013096816976128,-20.0638859537898,28.66765507532872,37.725072633060776,44.482193668194206,1577396371.0,-27.68372358550807,-51.12553424242012,8.6781225
94064,1577396371.06,0.3887949915443978,0.7288884176114702,10.44549307712462,1.0530983594940926,0.8332989680592597,7.97491054449314,-0.7827287573837646,2.408333289467416,3.767422300161967,13.763241651581556,-7.984440501143292,5.719998987709603,-4.135317918730945,1.1793927448551829,6.8050477562881095,11.569883765243905,17.9233085818407,0.2270210080030487,-6.184556580851943,-18.44175871871184,2.125585426478283,-17.322243844118844,-4.420856227106227,-23.46454459002536,28.66765507532872,37.58130410039836,44.62596220085662,1577396371.0,-27.68372358550807,-51.12553424242012,8.6781225
94065,1577396371.07,0.8149628870522103,-2.442231681265482,12.14896755832579,-0.2804719652129376,-2.939962848346989,9.849570444395484,-4.216013938047828,-3.883628673423208,8.886225449576028,-3.082461473418445,0.7283280535442076,5.613187464272103,7.552914503144055,2.064402510480183,6.5914247094131095,13.584043921493905,22.2262870974657,4.499481945503049,-6.184556580851943,-18.44175871871184,2.125585426478283,-18.24686736874237,-30.336220317039285,-26.185071499013805,28.57180938688711,37.62922694461916,44.62596220085662,1577396371.0,-27.68372358550807,-51.12553424242012,8.6781225
94066,1577396371.08,1.7750377527748664,-1.533632151236185,5.810318663062119,1.1105591993378432,-1.023404419391911,7.857594663145484,0.4909865258193594,0.4726212472310882,6.774539585318217,15.991024854706556,15.575129811356708,7.703641565834603,5.874447706269056,6.794627119855183,7.842645412538109,20.4199814214939,39.0262138552782,8.46676710175305,-5.689792054383788,-18.62435038919413,1.5941890698587031,-20.21169235856736,-31.555766862447896,-60.19165786136941,28.76350076377033,37.89280258783359,44.84161499985024,1577396371.0,-27.68372358550807,-51.12553424242012,8.6781225
94067,1577396371.09,0.419919613126429,1.8996530294278773,9.98580635837462,0.8519854200409676,0.0815196467701973,10.151239853575172,-2.9303276465439216,-1.9347485220560203,8.218243186392435,16.021542432831556,5.992610280106708,7.154325159584603,4.836850050019055,4.688914229230183,5.6453797875381095,23.2581161871189,61.1056816287157,6.116913586128049,-5.359949036738351,-16.798433684371187,3.3655102585906094,-20.09611441798942,-32.165540135152206,-24.824808044519585,28.66765507532872,37.86884116572318,44.050888070206966,1577396371.0,-27.68372358550807,-51.12553424242012,8.6781225
94068,1577396371.1,1.2602843958412728,-0.1617545999666538,10.653788621558212,0.2390697950409676,1.9154781184498848,7.728307773497046,4.802943715760765,-0.6131492056497706,12.053754245962748,12.817196729706556,-1.3621260480182926,5.842069300209603,3.707699659394055,10.395701338605184,7.323846584413109,21.4270614996189,51.0653984255907,4.285858898628049,-5.52487054556107,-18.80694205967644,2.125585426478283,-20.09611441798942,-32.165540135152206,-24.824808044519585,28.66765507532872,37.772995477281576,44.72180788929823,1577396371.0,-27.68372358550807,-51.12553424242012,8.6781225
94069,1577396371.11,0.1086733973061165,1.3501837484220174,7.955523350562119,-0.0434460008574688,1.7407013972584784,6.933432822325171,-7.026806687071265,-5.482955382407583,20.31374997350181,14.770321729706556,10.753352467606708,6.650785120522103,4.592709425019055,10.853465010480184,9.12438369378811,7.144834937118903,16.8857109255907,-5.052520007621951,-5.854713563206507,-18.07657537774725,3.542642377463798,-19.402646774521777,-32.47042677150436,-20.74401768103691,28.835385030101538,37.772995477281576,44.14673375864858,1577396371.0,-27.68372358550807,-51.12553424242012,8.6781225
94070,1577396371.12,-1.1554650792563834,-0.4251167825838414,11.70723735202696,-1.4464481737090316,-0.8833436222727709,11.184337869932593,0.8932124047256096,3.552761683022104,15.332613419546732,-5.279727098418445,7.274348561356708,5.597928675209603,4.699520948456555,8.137400557355184,6.6219422875381095,-4.207704125381097,-33.6971748165968,-10.88137742949695,-6.019635072029225,-19.35471707112332,4.428302971829755,-18.24686736874237,-1.9817631362889985,-23.46454459002536,28.61973223110792,37.9886482762752,44.81765357773984,1577396371.0,-27.68372358550807,-51.12553424242012,8.6781225
94071,1577396371.13,-0.2360916417563834,-2.929451719107279,11.065591307105088,4.953252863888625,1.4366377864186346,13.804791586973607,4.127778847596703,4.359607642494759,9.673917795767435,-12.970156785918444,6.755549733231708,5.842069300209603,-1.2666655749809452,18.177683760480186,7.1102235375381095,-9.243104516006095,-41.5859687619093,20.94845655487805,-6.184556580851943,-19.172125400641026,3.188378139717421,-17.611188695563698,-1.829319818112921,-25.84500563539025,28.66765507532872,37.725072633060776,44.62596220085662,1577396371.0,-27.68372358550807,-51.12553424242012,8.6781225
94072,1577396371.14,-2.168212381502477,-2.101057944693216,8.087204441870712,2.800865571408155,-0.1004396794016767,10.352352793028295,-2.1139048804306397,-12.938499352134146,6.345977488150249,-0.4884673327934451,19.542414967606707,9.015897425209603,-3.311343309355945,6.550486494855183,7.1712586937881095,-11.348817406631095,-24.5876777462843,15.05856397675305,-6.679321107320098,-18.62435038919413,3.3655102585906094,-13.450382834757836,-1.2195465454086138,-24.484742180896028,28.66765507532872,37.725072633060776,44.91349926618145,1577396371.0,-27.68372358550807,-51.12553424242012,8.6781225
94073,1577396371.15,-4.107515726229039,2.2276586568692838,12.814555619849228,-1.0705585130645,2.9425906306569165,15.799161569883765,3.366422719667016,7.211101819740853,6.061067490591655,2.3801850109565548,0.8656571551067076,6.223539026772103,2.2733734875190548,0.5690411823551829,6.6829774437881095,6.015684546493903,-12.6858222775343,14.72287061737805,-5.195027527915633,-18.80694205967644,2.47984966422466,-15.877519586894593,-3.963526272577997,-25.84500563539025,28.69161649743912,37.62922694461916,44.62596220085662,1577396371.0,-27.68372358550807,-51.12553424242012,8.6781225
94074,1577396371.16,-1.2464447423423208,3.1949161275724083,9.3848617416754,-1.5757350633574685,1.7143651789967596,9.95371821661228,-0.8473722022079833,2.2467246774068688,3.477723899283061,15.289120557831556,-5.878727610518292,6.635526331459603,4.348568800019055,0.8131818073551829,6.7440126000381095,10.929014624618905,28.0856620974657,21.98605421112805,-6.184556580851943,-20.632858764499392,2.125585426478283,-15.068474002849005,-3.81108295440192,-106.78068117779657,28.907269296432744,37.725072633060776,44.72180788929823,1577396371.0,-27.68372358550807,-51.12553424242012,8.6781225
94075,1577396371.17,-0.2169380284751334,-1.1385888773104038,6.514213951148056,0.3396262647675301,-1.429221600788395,4.330935617735328,-0.0860160742782958,-4.848491942466176,7.54547251988853,6.744198682831555,1.1097977801067074,6.116727503334603,3.738217237519055,-0.7126970988948171,6.8355653344131095,14.621641577743905,45.2060234255907,8.46676710175305,-6.349478089674663,-18.62435038919413,3.3655102585906094,-13.565960775335776,0.6097732727043083,-112.90186672302058,28.66765507532872,37.9646868541648,44.57803935663581,1577396371.0,-27.68372358550807,-51.12553424242012,8.6781225
94076,1577396371.18,0.5492065027748666,-1.3684322366854038,7.37373234714415,0.6556608839081551,1.3959363581959785,9.763379184629857,-6.011665183165015,-4.625831188071645,11.378589377798685,7.476620557831555,-1.3010908917682926,6.727079065834603,-4.104800340605945,-1.2009783488948171,8.30040908441311,17.3377060308689,40.5368339724657,-1.6345512576219514,-6.679321107320098,-18.98953373015873,3.0112460208442324,-13.565960775335776,0.6097732727043083,-112.90186672302058,28.66765507532872,37.725072633060776,44.62596220085662,1577396371.0,-27.68372358550807,-51.12553424242012,8.6781225
94077,1577396371.19,-1.086033231111852,1.407644588265767,10.902785594214462,-0.0147155809355943,0.0144820002858227,9.241443222715796,0.3150127037978755,-4.755118077720083,17.884832389273296,5.172543409394056,-1.3773848370807926,7.062772425209603,2.8074311047065548,3.178294112042683,6.9576356469131095,10.517027319931405,7.0132744021532005,-14.16201707793445,-5.030106019092914,-18.259167048229543,4.074038734083371,-20.09611441798942,-4.420856227106227,-99.63929804170188,28.64369365321832,37.82091832150238,44.81765357773984,1577396371.0,-27.68372358550807,-51.12553424242012,8.6781225
94078,1577396371.2,0.4558326380287728,-0.0204967020174351,9.128682164038684,0.0259858472870613,-2.769974530475896,7.656481723692359,-1.7811108496689207,15.19337015470179,9.226202085318215,3.6314057140815534,-0.4465987042682927,5.658963831459603,0.8085297375190549,-0.4380388957698171,7.1712586937881095,1.1939072027439026,-6.826447277534299,3.2787788205030486,-6.5143995984973815,-19.537308741605617,3.542642377463798,-13.508171805046809,-3.2013096816976128,-98.9591663144548,28.76350076377033,37.9646868541648,44.57803935663581,1577396371.0,-27.68372358550807,-51.12553424242012,8.6781225
94079,1577396371.21,-0.2384858434165396,-1.1553482889314974,9.126287962378528,-0.0051387742949688,-0.8282769840891766,12.631632773497046,1.771884414002953,2.154547913490853,12.209377353872904,2.5632904797065548,7.762629811356708,6.208280237709603,8.651547315644056,-6.114308427019817,5.9505555687881095,-24.6239638910061,-2.7370918087842986,21.49777296112805,-4.370419983802041,-18.259167048229543,3.0112460208442324,-21.020737942612943,-2.896423045345459,-20.74401768103691,28.76350076377033,37.725072633060776,44.76973073351903,1577396371.0,-27.68372358550807,-51.12553424242012,8.6781225
94080,1577396371.22,-0.4324161778891959,0.5277754781583451,11.86764886325743,2.5470801954315925,-0.6056162296946455,9.686764731504857,-9.157646164610329,-8.027991747153678,13.483092637076028,0.1829193859565548,4.832942311356708,4.407743128334603,1.2052582531440548,6.153757979230183,4.5772645531631095,1.2244247808689026,-5.910919933784299,24.03073194550305,-5.52487054556107,-18.44175871871184,2.8341139019710444,-14.02827253764754,-3.963526272577997,-25.84500563539025,28.66765507532872,37.772995477281576,44.72180788929823,1577396371.0,-27.68372358550807,-51.12553424242012,8.6781225
94081,1577396371.23,-1.380520035311071,1.750015425668111,9.977426652564072,-3.422861644168016,2.439808282024104,11.651207193663062,-5.532824851133765,-0.4359782827982086,11.002699717154156,4.104428175019055,3.001887623856708,5.613187464272103,1.8766449718940548,0.1112775104801828,5.2944276391006095,-10.8300185785061,-12.1975410275343,27.89120557831555,-5.359949036738351,-20.450267094017097,2.6569817830978484,-19.34485780423281,-4.115969590754074,-25.16487390814314,28.69161649743912,37.653188366729566,44.55407793452541,1577396371.0,-27.68372358550807,-51.12553424242012,8.6781225
94082,1577396371.24,-3.877672366854039,4.2507590597013145,11.9514459213629,-3.402510930056687,0.8117511531178534,9.6460633032822,-0.8425837988876708,-7.513238390220083,10.739337534536968,4.760556104706555,-3.467838938643293,3.553250940834604,5.538754346894055,4.872019697980183,4.9129579125381095,-4.238221703506097,-8.7185371212843,9.50436475800305,-5.689792054383788,-19.71990041208792,3.0112460208442324,-18.478023249898254,-1.981763136288998,-25.504939771766697,28.81142360799113,37.725072633060776,44.62596220085662,1577396371.0,-27.68372358550807,-51.12553424242012,8.6781225
94083,1577396371.25,-1.9240038121665397,2.01936311243569,12.073550206030868,-0.5342573411895002,-0.6343466496165204,12.9021775610947,2.1980523095107656,3.4282631966939783,7.236620505728373,-0.7020903796684451,5.321223561356708,4.438260706459603,1.6019867687690548,5.268748213605183,5.4012391625381095,5.344297827743903,-3.1338203244092986,-0.4443657107469513,-4.700263001447477,-20.81545043498169,3.7197744963369854,-18.5936011904762,-2.896423045345459,-26.185071499013805,28.57180938688711,37.58130410039836,44.96142211040225,1577396371.0,-27.68372358550807,-51.12553424242012,8.6781225
94084,1577396371.26,-2.3884789342368515,-2.4494142862459505,9.074812626685166,-3.323502275271531,3.80210902665301,13.424113523008764,-0.998206906797827,1.740351026283822,5.984453037466655,-4.394717332793444,8.098323170731707,6.437162073647103,-1.2666655749809452,5.329783369855183,5.9505555687881095,7.388975562118903,14.8715507693407,3.8891303830030486,-5.359949036738351,-19.172125400641026,2.6569817830978524,-18.478023249898254,-2.896423045345459,-26.185071499013805,28.715577919549524,37.725072633060776,44.62596220085662,1577396371.0,-27.68372358550807,-51.12553424242012,8.6781225
94085,1577396371.27,-0.9112565099204458,1.1335084981778765,9.34176611179259,-0.8993730943633282,-0.3901380802805835,5.926671024229468,1.6030931969619375,2.183278333412729,2.9725473489900924,-3.509707567168445,1.2013505144817074,6.086209925209603,3.0363129406440548,6.260569502667683,5.2028749047256095,15.338804663681405,36.6611015505907,-0.1849662966844514,-6.5143995984973815,-19.90249208257021,2.47984966422466,-18.82475707163207,-3.658639636225842,-25.504939771766693,28.66765507532872,37.725072633060776,44.76973073351903,1577396371.0,-27.68372358550807,-51.12553424242012,8.6781225
94086,1577396371.28,-0.6574711339438833,5.443071486459127,9.363313926733994,-1.9827493455840317,3.694369951945979,7.922238107969703,2.6912578515029533,-0.0313582022318018,-1.7655777364591263,28.62530219845656,-3.528874094893293,4.560331018959603,2.7921723156440548,-1.0178728801448171,6.6524598656631095,23.9905380621189,80.1791679568407,-2.0617973513719514,-6.5143995984973815,-19.90249208257021,2.47984966422466,-18.70917913105413,-3.5061963180497666,-25.504939771766697,28.955192140653548,37.725072633060776,44.57803935663581,1577396371.0,-27.68372358550807,-51.12553424242012,8.6781225
94087,1577396371.29,0.0967023890053343,2.802267055306784,6.040162022437119,0.0618988721894051,0.941038042766291,7.711548361875953,6.586623952577172,-9.284947618735709,8.608498056997904,20.08038032345656,-4.596989329268292,3.583768518959604,3.0057953625190548,5.787547041730183,4.2415711937881095,25.8521103277439,88.7240898318407,-12.74294969512195,-6.5143995984973815,-18.44175871871184,1.4170569509855149,-20.09611441798942,-32.77531340785651,-26.185071499013805,28.907269296432744,37.772995477281576,44.62596220085662,1577396371.0,-27.68372358550807,-51.12553424242012,8.6781225
94088,1577396371.3,0.0152995325600228,-1.1242236673494663,7.419222178687119,-0.0913300340605938,0.7351366999928535,2.743579917051734,-5.291010483457984,-1.046499706138052,11.00509391881431,3.3109711437690548,3.352839772294208,3.583768518959604,0.5949066906440549,9.113963057355184,5.4012391625381095,28.2935165777439,69.4980156130907,-18.35818407012195,-5.772252808795148,-18.35046288347069,2.391283604788065,-20.09611441798942,-31.86065349880005,-25.504939771766697,28.955192140653548,37.62922694461916,44.72180788929823,1577396371.0,-27.68372358550807,-51.12553424242012,8.6781225
94089,1577396371.31,-0.4779060094321646,-0.9925425760408724,8.908415611304306,-0.2900487718535626,-0.8785552189524579,7.751052689268531,0.7112530785537345,1.820556781899057,16.983415464224468,-7.751650926543445,9.441096608231708,4.957059534584603,-0.7478667468559452,0.1875714557926828,5.3249452172256095,9.723570288681405,12.9489433474657,-2.3211967654344514,-5.030106019092914,-18.259167048229543,3.7197744963369854,-20.09611441798942,-31.86065349880005,-25.504939771766697,28.76350076377033,37.91676400994399,44.91349926618145,1577396371.0,-27.68372358550807,-51.12553424242012,8.6781225
94090,1577396371.32,-2.896049686189977,3.621084023080221,11.182907188452743,-3.170273369021531,3.80210902665301,17.427218698790014,-12.262925717832983,4.685219068276009,18.154180076040877,-3.051943895293445,4.161555592606708,4.468778284584603,-1.1140776843559452,-3.428761552019817,7.751092678163109,5.771543921493903,-24.2519843869093,0.2880561642530487,-5.030106019092914,-18.259167048229543,3.7197744963369854,-17.66897766585267,-1.981763136288998,-15.302963863060016,28.81142360799113,37.772995477281576,44.62596220085662,1577396371.0,-27.68372358550807,-51.12553424242012,8.6781225
94091,1577396371.33,-4.006959256502476,3.6234782247403774,12.20762549899962,-3.603623869509813,-1.0461493351633953,12.260531516172827,-3.847306882383765,-6.189244872153677,2.615811301626811,3.6924408703315534,3.184993092606707,5.689481409584603,3.5551117687690548,3.956492354230183,3.8448426781631095,-20.5651260003811,-5.178498058784299,6.818817883003049,-5.854713563206507,-18.80694205967644,2.47984966422466,-13.161437983312986,-4.420856227106227,-26.185071499013805,28.66765507532872,37.725072633060776,44.57803935663581,1577396371.0,-27.68372358550807,-51.12553424242012,8.6781225
94092,1577396371.34,-2.1442703649009145,-0.4059631693025918,7.5461148666754,0.3922987012909683,-0.9827029911692554,7.54754554815525,3.342480703065453,0.9179427560201509,3.199996506704936,-1.342959520293445,-1.4536787823932928,4.926541956459603,-1.3124419421684452,-3.825490067644817,4.5620057641006095,6.671812476181404,14.7189628787157,4.636811047065549,-5.195027527915633,-19.354717071123325,2.8341139019710404,-13.36369937932438,-1.7530981590248826,-13.772667476754016,28.61973223110792,37.820918321502376,44.84161499985024,1577396371.0,-27.68372358550807,-51.12553424242012,8.6781225
94093,1577396371.35,0.0536067591225218,-0.1162647684236851,0.839956016577744,2.544685993771437,3.328057097942073,8.422626254942358,-6.459380893614234,-5.107065721763052,9.151981833853371,-0.2443267077934451,3.337580983231707,5.445340784584603,-5.996890184355945,-2.269093583269817,1.0372254906631098,0.7056259527439026,30.2218925662157,6.940888195503049,-5.195027527915633,-19.90249208257021,2.8341139019710444,-16.628776200651203,-4.420856227106227,-26.185071499013805,28.66765507532872,37.91676400994399,44.76973073351903,1577396371.0,-27.68372358550807,-51.12553424242012,8.6781225
94094,1577396371.36,-0.8705550816977896,3.573199989877096,4.029032627905869,-2.873392363162156,1.4533971980397284,5.425085776426734,0.0528476220107656,-6.182062267173208,6.738626560415874,9.826474073456556,-2.826969798018293,5.384305628334603,2.7921723156440548,-7.151906083269817,6.0421083031631095,5.374815405868903,22.0431816287157,-1.817656726371952,-5.195027527915633,-19.90249208257021,2.8341139019710444,-13.392593864468866,-4.420856227106227,-20.74401768103691,28.66765507532872,37.725072633060776,44.81765357773984,1577396371.0,-27.68372358550807,-51.12553424242012,8.6781225
94095,1577396371.37,0.5563891077553348,0.469117537484518,7.589210496558213,2.357938264279249,0.8213279597584785,4.065179233457984,-0.0070074194931395,5.396296961342416,3.731509275259624,6.210141065644056,-21.885197337080797,3.537992151772104,-4.196353074980945,-2.604786942644817,4.0279481469131095,5.527403296493903,28.0246269412157,2.8210151486280486,-5.277488282326992,-19.81119624732906,2.922679961407635,-13.62374974562475,-4.420856227106227,-96.23863940546632,28.76350076377033,37.86884116572318,44.76973073351903,1577396371.0,-27.68372358550807,-51.12553424242012,8.6781225
94096,1577396371.38,0.439073226407679,1.351380849252096,8.879685191382432,0.6808000013397962,0.0491979243580883,8.263411844541968,-1.8254035803818125,-2.3465512076028965,9.584135233511576,-3.021426317168445,8.861262623856707,7.306913050209603,-4.608340379668445,-4.679982255144817,5.5233094750381095,3.269102515243903,31.3815605349657,7.627533703315549,-6.184556580851943,-19.172125400641026,3.8969066152101823,-13.508171805046809,-4.420856227106227,-98.9591663144548,28.61973223110792,37.820918321502376,44.84161499985024,1577396371.0,-27.68372358550807,-51.12553424242012,8.6781225
94097,1577396371.39,1.128603304532679,-1.6557364359041538,9.712867369116807,1.2326634840058115,-4.5560489689524575,5.707601572325172,-5.659717539122046,-7.714351329673208,9.247749900259622,-25.421328660918444,-0.5381514386432926,5.445340784584603,-6.027407762480945,0.1112775104801829,5.1876161156631095,-2.956483422256097,32.9989921755907,7.856415539253049,-6.184556580851943,-20.2676754235348,2.125585426478283,-13.508171805046809,-3.81108295440192,-94.198244223725,28.907269296432744,37.772995477281576,44.91349926618145,1577396371.0,-27.68372358550807,-51.12553424242012,8.6781225
94098,1577396371.4,-0.5353668492759146,-0.6118645120760289,5.444005809058213,-2.135978251834031,-1.2328970646555828,9.51917061529392,-1.678160178282202,4.75465091642054,8.895802256216653,-3.692813035918445,19.359309498856707,7.032254847084603,-6.881899949980945,-8.128468583269816,7.0491883812881095,1.8042587652439024,28.7570488162157,8.83297803925305,-6.184556580851943,-20.2676754235348,2.125585426478283,-13.508171805046809,-4.420856227106227,-94.198244223725,29.00311498487435,37.725072633060776,44.96142211040225,1577396371.0,-27.68372358550807,-51.12553424242012,8.6781225
94099,1577396371.41,-1.8761197789634143,2.6466439473966274,12.227976213110948,-2.7800184984160623,4.324044988567072,9.95970372076267,5.770201186463891,2.113846485268197,7.732220249380717,-14.633364793730944,6.145198170731708,4.651883753334603,-5.783267137480945,-3.886525223894817,2.441034084413109,-4.848573266006097,34.7079765505907,10.38937452362805,-6.59686035290874,-19.446012906364476,3.808340555773588,-19.05591295278796,-4.420856227106227,-94.198244223725,28.81142360799113,37.725072633060776,44.72180788929823,1577396371.0,-27.68372358550807,-51.12553424242012,8.6781225
94100,1577396371.42,-1.4523460851157584,1.763183534798971,6.392109666480088,-1.798395817752,1.318124804240901,8.901466586973608,-3.029687015440406,-0.163039293540396,10.817149088492044,-7.446475145293445,-5.787174876143292,4.072049768959603,-5.844302293730945,3.605540205792683,3.371820217225609,-0.5608535394435974,18.8540947146532,1.7223823361280486,-5.689792054383788,-18.98953373015873,2.6569817830978484,-19.113701923076924,-2.896423045345459,-94.198244223725,28.66765507532872,37.84487974361278,44.76973073351903,1577396371.0,-27.68372358550807,-51.12553424242012,8.6781225
94101,1577396371.43,-1.2033491124595084,-1.3349134134432163,7.22050344089415,-1.7864248094512187,-1.331059332721989,2.061232443907202,0.3209982079482656,0.6318356576314784,9.611668552603373,-9.247012254668444,1.872737233231708,4.621366175209603,-10.055728074980944,-1.5366717082698171,6.0421083031631095,-7.839295922256097,-0.9670722775342988,3.9806831173780486,-5.030106019092914,-18.98953373015873,1.2399248321123264,-20.15390338827839,-3.963526272577997,-25.84500563539025,28.66765507532872,37.725072633060776,44.62596220085662,1577396371.0,-27.68372358550807,-51.12553424242012,8.6781225
94102,1577396371.44,0.2499312952553353,0.6211493429044389,6.384927061499619,-2.119218840212937,3.167645586711604,6.028424594786109,-2.657388657286109,0.4235401131978846,3.817700535025248,-8.453555223418444,8.556086842606707,5.750516565834603,-10.055728074980944,-2.055470536394817,5.0045106469131095,-8.052918969131097,-2.4624336056592986,0.8984077267530487,-5.030106019092914,-18.98953373015873,1.2399248321123264,-19.113701923076928,-2.7439797271693824,-4.08079036348267,28.76350076377033,37.9646868541648,44.62596220085662,1577396371.0,-27.68372358550807,-51.12553424242012,8.6781225
94103,1577396371.45,0.7251803247963509,2.9375394491056115,8.5421027573004,1.8312138990448736,1.5611362727467597,5.23594384527439,-3.3876201636337653,8.130475257240853,1.1768961038729049,-1.8617583484184448,-4.535954173018292,3.492215784584604,-10.055728074980944,4.444773604230183,3.356561428163109,-6.740663109756097,6.509734363090701,5.720185070503049,-6.59686035290874,-18.35046288347069,2.7455478425344464,-18.5936011904762,-4.115969590754073,-4.420856227106225,28.78746218588073,38.0605325426064,44.62596220085662,1577396371.0,-27.68372358550807,-51.12553424242012,8.6781225
94104,1577396371.46,1.119026497892054,1.109566481576314,4.984319090308213,0.69755941296089,1.1253915705983222,6.990893662168921,-1.9403252600693115,-4.103895226157583,7.517939200796732,-6.591982957793445,7.030207936356708,3.949979456459604,-7.629580614043444,0.9657696979801828,4.9282167016006095,-11.272523461318595,5.4111015505907005,1.1120307736280486,-5.52487054556107,-19.537308741605617,3.188378139717421,-18.593601190476196,-1.829319818112921,-19.38375422654269,28.66765507532872,37.79695689939198,44.81765357773984,1577396371.0,-27.68372358550807,-51.12553424242012,8.6781225
94105,1577396371.47,-0.4587523961509146,-1.3277308084627475,7.749622007788681,2.731433723263624,1.690423162395197,8.374742221739234,-2.887232016661109,4.555932178627572,17.833357053579938,-9.582705614043444,11.913020436356708,4.102567347084603,-9.353823778105944,8.351023604230184,0.9761903344131098,-7.991883812881097,-18.8503730587843,6.238983898628049,-6.184556580851943,-18.44175871871184,3.188378139717421,-18.24686736874237,-4.115969590754073,-25.504939771766697,28.66765507532872,37.772995477281576,44.72180788929823,1577396371.0,-27.68372358550807,-51.12553424242012,8.6781225
94106,1577396371.48,-1.210531717439977,-1.61982341100181,7.529355455054306,-1.5709466600371564,-3.2488148625071456,12.54544151373142,-8.97568683843845,-0.5221695425638331,18.76709570104088,-15.503115770293444,14.323909108231708,4.041532190834603,-8.621401903105944,1.0878400104801829,3.6922547875381095,-21.3280654535061,-40.7314765744093,11.57956007050305,-6.184556580851943,-18.44175871871184,3.188378139717421,-18.24686736874237,-3.2013096816976128,-15.302963863060016,28.66765507532872,37.62922694461916,44.76973073351903,1577396371.0,-27.68372358550807,-51.12553424242012,8.6781225
94107,1577396371.49,-3.383269724031773,2.3880701680997523,13.277833641089462,-4.368571299929735,3.446570080119807,13.116458609678686,2.0316552941299064,1.8612582101217132,17.113899454702985,-16.784854051543444,5.244929616044208,4.239896448647103,-9.521670457793444,-1.3077898723323171,4.1195008812881095,-26.3482070550686,-91.1159980587843,7.0782172970655495,-5.277488282326992,-18.35046288347069,3.4540763180272034,-19.402646774521777,-3.81108295440192,-20.0638859537898,28.61973223110792,37.79695689939198,44.74576931140864,1577396371.0,-27.68372358550807,-51.12553424242012,8.6781225
94108,1577396371.5,-2.141876163240758,2.7448062154630337,7.912427720679306,1.2254808790253426,-1.4435868107493328,10.934143796446264,-2.274316391661108,-1.6498385244974267,9.558996116079934,4.180722120331555,8.647639576981707,5.018094690834603,-8.163638231230944,7.160838057355183,3.051385646913109,-35.2745986566311,-89.4070136837843,15.39425733612805,-6.184556580851943,-18.44175871871184,2.8341139019710444,-19.7493805962556,-3.81108295440192,-26.185071499013805,28.66765507532872,37.772995477281576,44.57803935663581,1577396371.0,-27.68372358550807,-51.12553424242012,8.6781225
94109,1577396371.51,-2.520160025545445,-0.1282357767244663,9.454293589819931,0.9860607130097176,-1.9774937809641768,8.544730539610327,-4.630210825254859,-3.725611363852895,1.361249631704936,-13.275332567168444,-10.303776438643292,3.095487268959604,-12.375064012480944,-1.8723650676448167,2.685174709413109,-30.2697158441311,-56.5700996212843,14.78390577362805,-4.370419983802041,-17.893983707264958,3.7197744963369854,-13.62374974562475,-3.81108295440192,-26.185071499013805,28.81142360799113,37.772995477281576,44.76973073351903,1577396371.0,-27.68372358550807,-51.12553424242012,8.6781225
94110,1577396371.52,-1.592406882234899,-0.858467283072123,7.366549742163682,-4.752840666384812,-1.723708404987614,8.56148995123142,9.220245778749048,-2.2603599478372702,1.6246118143221235,-12.527651903105944,6.526667897294208,5.262235315834603,-8.407778856230944,-14.201466630144816,5.4012391625381095,-25.5700088128811,-21.2612617306593,17.74411085175305,-4.370419983802041,-17.893983707264958,3.7197744963369854,-13.62374974562475,-3.81108295440192,-26.185071499013805,28.76350076377033,37.725072633060776,44.57803935663581,1577396371.0,-27.68372358550807,-51.12553424242012,8.6781225
94111,1577396371.53,-2.388478934236852,0.6833985860685015,8.118329063452745,-0.5605935594512194,0.3736122493092603,9.191164987852517,-5.646549429991187,-0.3198595022806305,8.661170493521341,-7.782168504668445,-0.6297041730182926,3.034452112709604,-8.407778856230944,0.3859357136051828,1.906976467225609,-12.8746963128811,-2.3251045040967986,5.3692329220655495,-6.679321107320098,-18.98953373015873,4.074038734083371,-15.530785765160768,-3.353752999873689,-15.302963863060016,28.66765507532872,37.772995477281576,44.410309401863,1577396371.0,-27.68372358550807,-51.12553424242012,8.6781225
94112,1577396371.54,0.2331718836342415,0.5301696798185014,6.593222605933213,-2.4041288377715317,-0.1315643009837079,7.893507688047827,-3.907161923887672,-1.4918212149271142,9.872636533560405,-6.164736864043445,-8.594792063643293,3.705838831459604,-11.520571824980944,-5.503956864519817,4.8214051781631095,-7.717225609756097,-7.375763683784299,1.4172065548780486,-5.689792054383788,-18.62435038919413,3.0112460208442324,-13.508171805046809,-3.2013096816976128,-15.302963863060016,28.907269296432744,37.91676400994399,44.57803935663581,1577396371.0,-27.68372358550807,-51.12553424242012,8.6781225
94113,1577396371.55,0.304997933438929,0.9898563985685014,14.111015818823835,-4.549333525271531,-0.5266075749094892,10.230248508360328,4.405506240174828,2.135394300209603,15.499010434927593,-12.085147020293444,-11.524479563643292,3.156522425209604,-4.379458543730945,-11.912648270769816,3.8448426781631095,-17.8795791253811,-19.8269355587843,6.971405773628049,-5.689792054383788,-20.085083753052505,2.3027175453514714,-13.508171805046809,-3.2013096816976128,-15.302963863060016,28.907269296432744,37.91676400994399,44.72180788929823,1577396371.0,-27.68372358550807,-51.12553424242012,8.6781225
94114,1577396371.56,-0.8334449559653677,-0.110279264273295,10.69927845310118,0.7083333204315926,0.6609164485280097,10.184758676817358,-3.1027101660751715,0.2343981820455409,11.249302488150247,-11.245913621855944,5.168635670731708,4.850248011147103,-9.811587449980944,2.278025557355183,3.448114162538109,-9.609315453506095,-14.2727363400343,5.872772961128049,-6.019635072029225,-19.35471707112332,2.6569817830978484,-17.90013354700855,-0.7622165908803841,-13.26256868131868,28.955192140653548,37.91676400994399,44.72180788929823,1577396371.0,-27.68372358550807,-51.12553424242012,8.6781225
94115,1577396371.57,-1.0429376012290397,1.6027720235685023,12.57633255466368,-3.311531266970749,-0.7875755558665204,12.984777518370093,-1.8960325293564213,0.2080619637838226,10.887778037466656,-5.096621629668445,4.222590748856708,4.590848597084603,-6.195254442168444,-5.778615067644816,4.3636415062881095,-8.648011742568595,-2.2182929806592986,1.6460883908155486,-4.535341492624759,-18.80694205967644,4.959699328449328,-16.224253408628414,-1.3719898635846908,-58.15126267962807,28.907269296432744,37.725072633060776,44.74576931140864,1577396371.0,-27.68372358550807,-51.12553424242012,8.6781225
94116,1577396371.58,-2.484247000643102,-4.868755063833841,8.762369310034774,-0.7784659105254377,-3.423591583698552,8.853582553770483,-0.2751580054306395,3.1241995858541345,11.965168784536967,-19.073672410918444,-6.336491282393292,3.858426722084604,-0.1069976062309451,2.186472822980183,1.2203309594131098,-9.578797875381095,-13.3572089962843,10.84713819550305,-5.689792054383788,-20.450267094017097,3.7197744963369854,-13.508171805046809,-4.115969590754073,-102.35982495069037,28.66765507532872,37.62922694461916,44.72180788929823,1577396371.0,-27.68372358550807,-51.12553424242012,8.6781225
94117,1577396371.59,-1.1770128941977895,-3.3125239847322785,5.360208750952744,0.4449711378144051,-0.6439234562571454,8.130533652403296,1.0105282860732656,6.784933924233041,7.478434873404154,8.727841260956556,8.922297780106707,6.147245081459603,-8.194155809355944,-0.102345536394817,4.7908876000381095,-24.9901748285061,-19.7964179806593,18.56808546112805,-7.503928651433692,-18.07657537774725,4.251170852956559,-13.62374974562475,-4.420856227106227,-109.84127395040856,28.66765507532872,37.725072633060776,44.72180788929823,1577396371.0,-27.68372358550807,-51.12553424242012,8.6781225
94118,1577396371.6,-1.3410157079184928,1.2891316060880331,11.686886637915634,-4.403287224002,0.7710497248951972,12.083360593321265,0.0672128319717031,-7.13256032625524,19.569153257193214,-6.027407762480944,-4.627506907393292,4.773954065834603,-4.989810106230945,-8.555714677019816,4.1500184594131095,-20.1378799066311,-32.7969062619093,15.27218702362805,-6.5143995984973815,-19.537308741605617,3.188378139717421,-13.62374974562475,-4.115969590754073,-98.27903458720766,28.76350076377033,38.0605325426064,44.76973073351903,1577396371.0,-27.68372358550807,-51.12553424242012,8.6781225
94119,1577396371.61,-1.2775693639243522,0.1590684224942826,12.55717894138243,-2.31554337634575,0.1677109065358228,11.539876816465796,-3.1350318884872808,-2.5105540213235997,9.520688889517436,-8.758731004668444,-10.364811594893292,4.468778284584603,-3.997988817168445,3.971751143292683,3.493890529725609,-12.9052138910061,-34.7500312619093,-2.3517143435594514,-7.174085633788255,-19.537308741605617,4.605435090702943,-17.20666590354091,-3.81108295440192,-110.18133981403214,28.66765507532872,37.772995477281576,44.602000778746216,1577396371.0,-27.68372358550807,-51.12553424242012,8.6781225
94120,1577396371.62,-1.5002301183188833,-0.2934356912752476,14.19960128024962,1.7115038160370617,-2.221702350300114,12.9787920142197,8.025539150331078,25.064663599526007,10.193459556021342,-4.791445848418445,-6.428044016768292,3.492215784584604,-6.881899949980945,-5.229298661394817,5.4927918969131095,-0.0878310785060974,-26.0525214962843,29.31027296112805,-5.195027527915633,-19.90249208257021,2.8341139019710444,-20.3272702991453,-3.81108295440192,-108.48101049591436,28.907269296432744,37.725072633060776,44.91349926618145,1577396371.0,-27.68372358550807,-51.12553424242012,8.6781225
94121,1577396371.63,-1.871331375643102,-1.3756148416658724,12.95940482028868,0.4545479444550301,0.6728874568287909,13.697052512266575,-3.4163505835556403,-18.52177762361852,4.131340952505717,-8.941836473418444,5.473811451981708,5.597928675209603,-5.142397996855945,-5.564992020769817,4.4857118187881095,-13.698670922256095,5.624724597465701,18.20187452362805,-5.030106019092914,-17.528800366300366,4.428302971829755,-20.558426180301183,-4.420856227106227,-109.16114222316146,28.66765507532872,37.91676400994399,44.72180788929823,1577396371.0,-27.68372358550807,-51.12553424242012,8.6781225
94122,1577396371.64,-0.8059116368735709,0.220120564828268,9.709276066626572,-2.847056144900437,0.3448818293873855,11.545862320616187,-0.7192824133896247,9.547842640053354,14.526964560904156,3.326229932831556,-4.337589915205792,4.438260706459603,3.845028760956555,2.827341963605183,3.7380311547256095,4.459288062118904,-17.2787177853468,6.1321723751905495,-4.205498474979322,-19.172125400641026,3.188378139717421,-18.102394943019945,-16.99742997663256,-62.40208597492251,28.88330787432234,37.74903405517118,44.74576931140864,1577396371.0,-27.68372358550807,-51.12553424242012,8.6781225
94123,1577396371.65,-0.1283525670493521,-2.148941977896341,9.830183250464463,-0.9939440599395,-1.637517145221989,9.330028684141576,-8.264608945372046,-12.651195152915395,21.506062400259623,18.55450141720656,9.959895436356708,6.635526331459603,4.287533643769055,-8.708302567644816,7.354364162538109,-15.102479516006095,-46.8349921994093,0.5932319455030487,-4.535341492624759,-19.172125400641026,4.251170852956559,-20.03832544770045,-29.87889036251105,-21.764215271907577,28.76350076377033,37.725072633060776,44.72180788929823,1577396371.0,-27.68372358550807,-51.12553424242012,8.6781225
94124,1577396371.66,-2.108357339998571,1.75121252649819,12.447045665015244,-2.2748419481230937,2.715141472942073,17.93957785406345,5.978496730897485,16.84058089688929,10.042624851431498,3.7839936047065534,3.581721608231707,4.896024378334603,5.142025831269055,-7.792775223894817,5.0350282250381095,5.802061499618903,-59.0725410275343,-7.829619616996951,-5.359949036738351,-20.81545043498169,3.7197744963369854,-20.44284823972324,-31.250880226095745,-18.023490772048465,28.66765507532872,37.725072633060776,44.72180788929823,1577396371.0,-27.68372358550807,-51.12553424242012,8.6781225
94125,1577396371.67,-0.7891522252524771,-0.3820211527010288,12.681677427710556,-2.1838622850371565,1.410301568156916,15.68663409185642,4.465361281678734,11.82233421720179,8.096138901724467,3.402523878144055,-1.7130781964557926,5.353788050209603,5.752377393769055,10.914500166730184,5.0045106469131095,-13.485047875381095,-46.8349921994093,17.56100538300305,-6.514399598497381,-19.172125400641026,3.188378139717417,-19.17149089336589,-1.3719898635846908,-19.38375422654269,28.715577919549524,37.9646868541648,44.57803935663581,1577396371.0,-27.68372358550807,-51.12553424242012,8.6781225
94126,1577396371.68,-1.5241721349204458,-1.265481565298685,13.773433384741804,-2.237731822390672,-4.745190900104801,10.194335483457984,2.135803066346704,-6.574711339438833,6.3507658914705605,0.1524018078315548,5.717952076981708,6.025174768959603,35.72063911251905,-11.332814286394814,7.4916932641006095,-1.4000869378810972,-1.4553535275342997,6.3763130001905495,-7.009164124965536,-19.71990041208792,3.7197744963369854,-18.01571148758649,-2.4390930908172286,-25.84500563539025,28.907269296432744,37.70111121095037,44.72180788929823,1577396371.0,-27.68372358550807,-51.12553424242012,8.6781225
94127,1577396371.69,0.2403544886147103,-1.081128037466654,11.1086869369879,-1.7624827928496565,-0.6846248844798016,11.647615891172828,9.325590651795922,13.203788575111949,7.574202939810404,3.9670990734565534,-1.6673018292682926,5.414823206459603,3.616146925019055,23.121531416730186,6.2252137719131095,23.0750107183689,24.3930351443407,9.32125928925305,-5.854713563206507,-18.44175871871184,1.7713211887318916,-18.24686736874237,-4.420856227106227,-26.185071499013805,28.66765507532872,37.772995477281576,44.62596220085662,1577396371.0,-27.68372358550807,-51.12553424242012,8.6781225
94128,1577396371.7,-0.2911582799399771,2.634672939095846,9.858913670386338,-0.3020197801543439,0.347276031047541,10.711483042051734,-8.429808859922828,-9.50760837313024,8.965234104361185,24.10870063595656,-3.223698313643293,6.513456018959603,18.783383253144056,-4.588429520769817,7.598504787538109,10.440733374618905,30.0693046755907,7.001923351753049,-5.030106019092914,-20.450267094017097,2.3027175453514714,-19.113701923076928,-33.53752999873689,-111.54160326852636,28.475963698445504,37.58130410039836,44.482193668194206,1577396371.0,-27.68372358550807,-51.12553424242012,8.6781225
94129,1577396371.71,-0.5844479833091177,0.2261060689786581,9.874475981177351,-2.43046505603325,-0.8330653874094891,9.358759104063452,5.188410183045922,-3.680121532309927,14.366553049673684,8.483700635956556,2.284724537919208,5.308011683022103,4.165463331269055,-1.2009783488948171,6.3167665062881095,11.051084937118905,28.6349785037157,-5.052520007621951,-6.019635072029224,-18.62435038919413,3.365510258590609,-19.113701923076928,-33.53752999873689,-111.54160326852636,28.78746218588073,37.725072633060776,45.39272770838949,1577396371.0,-27.68372358550807,-51.12553424242012,8.6781225
94130,1577396371.72,-0.6838073522056022,0.2165292623380326,9.753568797339463,0.1002060987519056,0.2958006953541821,6.977725553038062,2.0603857140517814,5.015618897377572,8.439706839956889,13.427548292206556,6.023127858231708,5.781034143959603,10.345272901581556,7.679636885480184,5.7216737328506095,30.2924179449314,24.1946708865282,-2.4280082888719514,-6.679321107320098,-18.62435038919413,3.7197744963369854,-21.020737942612943,-33.38508668056082,-26.185071499013805,28.76350076377033,37.84487974361278,44.72180788929823,1577396371.0,-27.68372358550807,-51.12553424242012,8.6781225
94131,1577396371.73,-1.3757316319907584,1.293920009408346,9.681742747534775,-1.7648769945098126,0.117432671672541,11.891824460508763,-2.233614963438452,-7.350432677329458,13.471121628775249,11.474423292206556,9.624202076981708,7.184842737709603,11.215023878144056,-7.212941239519817,9.03283095941311,18.2227157964939,26.9565117068407,4.346894054878049,-6.679321107320098,-18.62435038919413,3.7197744963369854,-21.020737942612943,-33.68997331691297,-26.185071499013805,28.76350076377033,37.9646868541648,44.81765357773984,1577396371.0,-27.68372358550807,-51.12553424242012,8.6781225
94132,1577396371.74,-1.066879617830602,-0.75791081334556,9.851731065405868,-4.264423527712937,2.4829039119069165,12.097725803282202,4.944201613709985,-3.538863634360708,9.001147129263527,1.1899994640815548,-2.460758860518293,5.842069300209603,12.710385206269056,5.665476729230183,7.1407411156631095,27.5916122808689,26.4377128787157,-1.6650688357469514,-6.019635072029225,-18.98953373015873,3.3655102585906094,-20.558426180301183,-32.77531340785651,-26.185071499013805,28.76350076377033,37.725072633060776,44.62596220085662,1577396371.0,-27.68372358550807,-51.12553424242012,8.6781225
94133,1577396371.75,-0.3055234899009151,1.903244331918112,9.50098052219298,-0.6168572984648908,-0.5445640873606615,7.605006387998999,0.8345544640517818,1.6745104806295257,10.776447660269389,14.999203565644056,2.055842701981707,6.727079065834603,8.346371534394056,2.567942549542683,7.934198146913109,15.430357398056405,37.5155937380907,8.26840284394055,-5.772252808795148,-19.99378791781136,3.98547267464678,-18.24686736874237,-3.2013096816976123,-21.424149408284023,28.78746218588073,37.9886482762752,44.72180788929823,1577396371.0,-27.68372358550807,-51.12553424242012,8.6781225
94134,1577396371.76,-1.4355866734946643,0.1877988424161576,8.448728892554307,-2.418494047732469,1.3528407283131658,10.970056821348608,-0.5792216162704833,-12.859490697348988,15.070448337759624,5.737118604706555,3.337580983231707,5.872586878334603,8.834652784394056,-1.8723650676448167,7.1712586937881095,20.6946396246189,15.1462089724657,-4.686309070121951,-7.174085633788255,-20.632858764499392,3.188378139717421,-18.651390160765164,-3.963526272577997,-14.96289799943646,28.76350076377033,37.772995477281576,44.72180788929823,1577396371.0,-27.68372358550807,-51.12553424242012,8.6781225
94135,1577396371.77,0.2906327234779916,-1.0715512308260289,7.924398728980088,4.019514216427687,1.956179546672541,10.69472363043064,0.2563547631240469,12.926061182533822,6.544696225943217,6.164364698456555,0.9877274676067074,5.628446253334603,5.538754346894055,9.602244307355184,5.8590028344131095,25.8521103277439,9.1342460818407,7.001923351753049,-7.174085633788255,-20.632858764499392,3.188378139717421,-16.628776200651203,-1.981763136288998,-18.023490772048465,28.66765507532872,37.62922694461916,44.62596220085662,1577396371.0,-27.68372358550807,-51.12553424242012,8.6781225
94136,1577396371.78,-1.086033231111852,2.3521571431974087,7.752016209448837,2.594964228634717,-0.5481553898508954,7.843229453184546,-1.963070175840796,-12.478812633384145,5.033954978384624,18.03570258908156,2.818782155106707,6.269315393959603,11.672787550019056,-2.726857255144817,5.5843446312881095,5.496885718368903,27.9330742068407,8.55831983612805,-4.700263001447477,-21.545817116910868,3.3655102585906094,-16.39762031949532,-4.420856227106227,-26.185071499013805,28.76350076377033,37.58130410039836,44.57803935663581,1577396371.0,-27.68372358550807,-51.12553424242012,8.6781225
94137,1577396371.79,-0.5257900426352896,2.1342847921231898,7.750819108618759,-0.7186108690215319,1.7335187922780098,11.2441929114365,0.9183515221572506,1.1681368295064791,7.151626346792827,13.335995557831556,-6.122868235518293,4.423001917397103,7.903866651581556,-3.0167742473323167,4.9434754906631095,19.3976425543064,37.7749931521532,-1.6650688357469516,-5.937174317617866,-20.176379588293653,3.808340555773584,-16.85993208180708,-4.115969590754073,-69.37343617920541,28.715577919549524,37.84487974361278,44.72180788929823,1577396371.0,-27.68372358550807,-51.12553424242012,8.6781225
94138,1577396371.8,-0.3773495397056021,-1.330125010122904,8.949117039526964,1.4792662550019051,-1.8242648747141763,6.804145932676734,-1.7835050513290769,8.283704163490853,6.8391830301424354,1.3120697765815548,-3.803532298018293,3.156522425209604,8.071713331269056,13.325388838605184,2.288446193788109,24.1126083746189,42.3373710818407,4.835175304878049,-5.689792054383788,-19.35471707112332,3.3655102585906094,-18.70917913105413,-3.5061963180497666,-112.56180085939702,28.61973223110792,37.725072633060776,44.76973073351903,1577396371.0,-27.68372358550807,-51.12553424242012,8.6781225
94139,1577396371.81,1.7534899378334603,-0.2623110696932163,9.593157286108994,3.241398676876905,-0.9743232853587078,5.913502915098609,-5.645352329161109,-1.6953283560403956,8.73299654332603,10.894589307831556,3.978450123856707,4.194120081459603,4.897885206269055,-2.177540848894817,6.9576356469131095,17.4597763433689,42.3678886599657,6.513642101753049,-5.689792054383788,-19.35471707112332,3.3655102585906094,-19.05591295278796,-1.981763136288998,-102.35982495069037,28.66765507532872,37.62922694461916,44.81765357773984,1577396371.0,-27.68372358550807,-51.12553424242012,8.6781225
94140,1577396371.82,0.0248763392006478,3.627069527230612,10.305432280005478,-4.396104619021531,4.312073980266292,11.53030000982517,3.0120808739638907,-3.287472460044301,12.65230466100181,14.602475050019056,-1.1942793683307924,3.507474573647104,7.980160596894055,-2.787892411394817,5.2486512719131095,17.1240829839939,36.2643730349657,-2.2449028201219514,-4.9476452646815545,-19.628604576846765,4.162604793519964,-19.05591295278796,-1.981763136288998,-102.35982495069037,28.835385030101538,38.0605325426064,44.76973073351903,1577396371.0,-27.68372358550807,-51.12553424242012,8.6781225
94141,1577396371.83,-1.670218436189977,-1.322942405142435,12.468593479956647,-0.3475096116973131,-0.8797523197825367,8.03237138433689,-2.9638464697861084,0.9131543526998382,17.384444242300642,-6.866641160918445,3.825862233231707,2.149442347084604,6.271176221894055,9.236033369855184,2.502069240663109,17.6428818121189,1.8558036990282003,-2.3211967654344514,-5.195027527915633,-18.80694205967644,3.542642377463798,-18.998123982498985,-1.829319818112921,-100.65949563257256,28.66765507532872,37.91676400994399,44.64992362296702,1577396371.0,-27.68372358550807,-51.12553424242012,8.6781225
94142,1577396371.84,-1.0596970128501333,-0.710026780142435,8.666601243628525,-4.874944951052781,3.390306341106135,11.123285727598608,7.2570004174209215,-1.4750618033060203,5.148876658072124,-0.5800200671684451,10.509211842606708,4.407743128334603,3.860287550019055,-6.297413895769817,7.873162990663109,3.604795874618903,-10.7937324337843,-0.5969536013719513,-5.359949036738351,-19.71990041208792,3.0112460208442324,-19.05591295278796,-4.420856227106227,-99.63929804170188,28.66765507532872,37.725072633060776,44.62596220085662,1577396371.0,-27.68372358550807,-51.12553424242012,8.6781225
94143,1577396371.85,0.1445864222084593,7.150137270150533,8.903627207983995,-2.3131491746855937,0.931461236125666,13.268490415098608,2.5859129784560784,8.973234241615854,4.071485911001811,29.17461860470656,4.192073170731708,3.431180628334604,10.116391065644056,-5.412404130144817,4.4246766625381095,5.008604468368903,-4.690216808784299,7.246063976753049,-5.359949036738351,-19.71990041208792,3.0112460208442324,-20.09611441798942,-30.336220317039285,-20.74401768103691,28.66765507532872,37.772995477281576,44.76973073351903,1577396371.0,-27.68372358550807,-51.12553424242012,8.6781225
