,timestamp,acc_x_dashboard,acc_y_dashboard,acc_z_dashboard,acc_x_above_suspension,acc_y_above_suspension,acc_z_above_suspension,acc_x_below_suspension,acc_y_below_suspension,acc_z_below_suspension,gyro_x_dashboard,gyro_y_dashboard,gyro_z_dashboard,gyro_x_above_suspension,gyro_y_above_suspension,gyro_z_above_suspension,gyro_x_below_suspension,gyro_y_below_suspension,gyro_z_below_suspension,mag_x_dashboard,mag_y_dashboard,mag_z_dashboard,mag_x_above_suspension,mag_y_above_suspension,mag_z_above_suspension,temp_dashboard,temp_above_suspension,temp_below_suspension,timestamp_gps,latitude,longitude,speed
22959,1577399234.99,0.7432799053955079,-4.668094686889648,8.889551054077147,-2.574525921779726,-2.441676927222276,5.149489807277773,-1.096145326741536,-4.151602683512371,14.139698966471352,-6.202316284179688,-3.578948974609375,-0.669097900390625,-2.488485196741616,-17.55486465081936,5.089364400724085,-6.930759974888392,-16.413370768229168,8.189246768043155,-19.43222108888961,5.454159459367795,-3.659154647435893,-32.82830009496676,-21.778632478632478,7.730862407004535,30.297031778836075,33.98709078383802,31.159642974810552,1577399234.0,-27.694440119401584,-51.114697924682325,9.946298
22960,1577399235.0,3.494217612915039,-0.0365115753173828,14.73020600402832,5.795603082126524,-2.2812654159918053,21.67546676650629,5.554946885172526,17.312415199788415,11.39714096476237,0.2826690673828124,2.997589111328125,-2.484893798828125,-4.548421720179116,23.62860702886814,-1.3651033727134148,-2.429417201450893,-2.5278727213541665,-11.906578427269343,-21.14948713860544,7.240866868471035,-3.7404691951566944,-39.53853087927163,-63.32421652421653,7.396353937470683,30.249108934615272,34.03501362805883,31.111720130589752,1577399235.0,-27.69449526431632,-51.11478143687034,9.471197
22961,1577399235.01,-1.296579909057617,0.2340332122802734,11.32086283996582,6.8586286192358985,-2.192679954566024,11.109854840236755,3.342704551188151,-21.878271775309248,14.51917992960612,2.1137237548828125,0.3425598144531251,-0.043487548828125,-6.623617032679116,-6.52276015863186,-0.4800936070884147,-4.565647670200892,8.519490559895834,-8.336021786644345,-19.34183866522036,4.607824370845206,-4.065727386039884,-40.61216780476041,-63.32421652421653,7.247683506566751,30.249108934615272,33.939167939617214,31.25548866325217,1577399235.0,-27.69449526431632,-51.11478143687034,9.471197
22962,1577399235.02,-0.8752004168701162,-2.014122146606445,10.169251841430665,-2.375807183986756,-0.0474752670660242,8.75156620498285,2.1863051493326817,15.02834681599935,7.118702598063151,-6.583786010742188,1.593780517578125,-1.508331298828125,-0.8863123451791157,-12.07695937738186,-0.9378572789634148,-9.662083217075892,25.975545247395832,13.880775088355657,-20.06489805457439,4.983973299077471,-4.065727386039884,-38.46489395378285,-63.32421652421653,7.247683506566751,30.201186090394465,33.939167939617214,31.39925719591458,1577399235.0,-27.69449526431632,-51.11478143687034,9.471197
22963,1577399235.03,-1.536000075073242,-0.8421604339599609,14.068209244995115,2.807639410251524,-3.938052964819931,14.13253443618402,-1.3846466267903643,-15.972973380533851,2.142354447428385,-3.089523315429688,2.341461181640625,-1.371002197265625,-5.814901212366616,2.1442320288681405,0.908456197599085,-3.695896693638392,7.481892903645834,-10.045006161644343,-19.974515630905135,4.889936067019402,-4.147041933760683,-39.00171241652724,-63.32421652421653,-4.7946213966518565,30.15326324617366,33.891245095396414,31.25548866325217,1577399235.0,-27.69449526431632,-51.11478143687034,9.471197
22964,1577399235.04,1.5070302349853515,-5.435436318969726,6.175723472290039,-4.801133465725037,-2.8391144028082125,10.674110138088318,8.65543803507487,16.48402142537435,8.57437720743815,-11.283493041992188,-0.0236511230468748,-0.074005126953125,-6.226888517054116,-15.18975234613186,-1.4871736852134148,-5.145481654575892,2.019246419270833,8.692786807105655,-21.330251985943946,4.043600978496815,-4.553614672364669,-108.2512941105534,-63.32421652421653,-8.511382169250194,30.249108934615272,33.939167939617214,31.30341150747297,1577399235.0,-27.69449526431632,-51.11478143687034,9.471197
22965,1577399235.05,1.8110938458251955,-2.643797183227539,3.400843748168944,-1.1380049256859748,5.2580756118402245,8.667769146877381,2.248554392496744,-0.3615814554850259,2.497893393961588,-3.5930633544921875,-4.021453857421875,-0.928497314453125,-7.752767423304116,-0.8464906273818598,0.1912931116615852,-3.100803920200893,-5.427042643229167,-10.045006161644343,-19.70336835989737,4.983973299077471,-3.7404691951566944,-99.12538024389876,-63.7990231990232,-7.247683506566755,30.392877467277685,34.08293647227963,31.30341150747297,1577399235.0,-27.69449526431632,-51.11478143687034,9.471197
22966,1577399235.06,2.2085313214111326,1.0959458099365234,9.594643442993164,2.1612049620093363,-2.810383982886337,6.462709417873476,-1.1392409566243489,-24.128821335856124,6.766754954020182,0.3437042236328124,-3.807830810546875,-2.240753173828125,-7.783285001429116,6.6913511694931405,0.2218106897865852,-8.563450404575892,-5.488077799479167,7.411048525855655,-19.884133207235884,5.548196691425858,-3.5778400997150968,-99.12538024389876,-63.7990231990232,-7.247683506566755,30.48872315571929,33.939167939617214,31.30341150747297,1577399235.0,-27.69449526431632,-51.11478143687034,9.471197
22967,1577399235.07,1.1167753643798832,-0.6470329986572265,5.349723899536132,-0.7238080384789436,0.9652720351800684,3.492702258449648,3.96878828531901,-0.715923301188148,1.1798853800455733,-4.432296752929688,1.212310791015625,-1.172637939453125,-7.600179532679116,-4.09661269769436,-1.6397615758384148,-4.031590053013392,-25.461832682291668,-5.619957333519344,-19.974515630905135,5.266084995251664,-3.496525551994298,-39.80694011064382,-58.81355311355311,-7.433521545196672,30.249108934615272,34.17878216072124,31.20756581903136,1577399235.0,-27.69449526431632,-51.11478143687034,9.471197
22968,1577399235.08,-0.0324414324951162,-1.2886790435791016,6.111080027465819,-6.903242523342225,-8.53492015231993,13.65489120498285,-0.0522734029134111,-18.61497491251628,14.310884385172525,-6.675338745117188,-3.960418701171875,-1.386260986328125,-4.456868985804116,-4.05083633050686,0.0081876429115852,-9.204319545200892,-23.462931315104168,15.101478213355657,-19.884133207235884,4.419749906729075,-4.228356481481481,-36.31762010280528,-57.62653642653642,-7.024677860210856,30.249108934615272,33.891245095396414,31.30341150747297,1577399235.0,-27.69449526431632,-51.11478143687034,9.471197
22969,1577399235.09,-1.354040748901367,-3.5009213775634764,15.673521458129882,2.2186658018530863,-2.549416001929306,12.970149530178162,-2.681106825764973,20.685845338948567,11.873587095133464,-2.0061492919921875,-3.380584716796875,-0.348663330078125,-7.966390470179116,-5.17998672113186,1.0152677210365852,-4.321507045200892,-16.688028971354168,1.2464977446056549,-20.245662901912898,4.419749906729075,-4.553614672364669,-36.85443856554967,-63.7990231990232,-7.247683506566755,30.48872315571929,34.03501362805883,31.25548866325217,1577399235.0,-27.69449526431632,-51.11478143687034,9.471197
22970,1577399235.1,0.4332307904052734,0.0903811126708984,10.871950028686522,5.060583172458555,2.435311854516006,11.35645761123285,-1.9676347310384108,6.976646632893879,15.88626907755534,2.708816528320312,4.370880126953124,-1.844024658203125,-6.135335782679116,10.75018906011814,2.815804830411585,3.033229282924107,-15.894571940104166,-12.364342099144343,-20.96872229126693,5.548196691425858,-2.2768073361823347,-36.85443856554967,-63.7990231990232,-7.247683506566755,30.36891604516728,33.939167939617214,31.25548866325217,1577399235.0,-27.69449526431632,-51.11478143687034,9.471197
22971,1577399235.11,0.0609324322509765,-4.042010952758789,7.866029844360351,2.617300378269102,-2.4368885239019624,8.394830157619568,-2.648785103352864,-7.155128666178383,15.864721262613932,-13.267135620117188,-7.012176513671875,-0.348663330078125,-3.907552579554116,2.3120787085556405,0.1760343225990852,-4.641941615513392,7.802327473958334,5.534217471168155,-19.34183866522036,5.7362711555419885,-3.415211004273499,-37.122847796921874,-58.81355311355311,-11.44762317960288,30.34495462305688,34.01105220594842,31.23152724114176,1577399235.0,-27.69449526431632,-51.11478143687034,9.471197
22972,1577399235.12,3.005800474243164,-5.933430264282226,2.335424009399413,-0.9751992127953498,-3.181485240210556,8.287091082912537,-5.865395033772787,-7.786000803629557,10.736341306559243,-9.727096557617188,0.0984191894531251,-0.867462158203125,-0.7642420326791157,-3.89824843988186,2.174935689786585,-2.429417201450893,31.133015950520832,-12.822105771019343,-21.87254652795947,5.7362711555419885,-4.065727386039884,-40.61216780476041,-65.22344322344321,-12.079472510944596,30.34495462305688,34.08293647227963,31.30341150747297,1577399235.0,-27.69449526431632,-51.11478143687034,9.471197
22973,1577399235.13,-1.4234725970458983,-0.7428010650634765,8.629780173950195,-1.4133381166039436,-4.359432457007431,11.358851812893006,0.4026249125162753,-5.803601829020182,17.35391469523112,0.8319854736328125,-3.014373779296875,0.444793701171875,-2.473226407679116,-6.24810195550686,0.3438810022865852,-5.267551967075892,50.14546712239584,-1.1338733491443451,-20.245662901912898,5.172047763193601,-3.903098290598285,-40.61216780476041,-61.42498982498982,-12.079472510944596,30.5366459999401,34.08293647227963,31.30341150747297,1577399235.0,-27.69449526431632,-51.11478143687034,9.471197
22974,1577399235.14,2.5389311505126955,1.1091139190673829,9.132562522583006,7.095654583591367,4.829513514672256,12.929448101955506,-7.917225856526692,4.223314723714192,5.17221664835612,-2.1282196044921875,-3.670501708984376,-2.530670166015625,-6.196370938929116,-0.4497621117568597,-2.6468416539634148,-7.800510951450892,53.56343587239584,4.420325869605655,-20.96872229126693,4.419749906729075,-4.228356481481481,-40.61216780476041,-61.42498982498982,-12.079472510944596,30.392877467277685,33.939167939617214,31.30341150747297,1577399235.0,-27.69449526431632,-51.11478143687034,9.471197
22975,1577399235.15,2.5102007305908205,1.9961656341552731,10.96891519592285,-1.268488916164491,-2.679899992407821,7.376097351223085,1.3291809549967448,7.827785323079427,-3.576196217854817,-4.722213745117188,1.471710205078125,-3.980255126953125,-2.824178556116616,0.00800156011814,-0.0223299352134149,-1.2544904436383928,7.0546468098958375,-11.143638974144343,-21.51101683328245,6.488569012006514,-3.089952813390304,-105.56720179683144,-60.95018315018314,5.760979197527417,30.48872315571929,33.91520651750682,31.32737292958337,1577399235.0,-27.69449526431632,-51.11478143687034,9.471197
22976,1577399235.16,2.124734263305664,-4.568735317993164,11.059894859008788,3.741378057712461,-5.760040428198837,6.766773028713319,8.461507700602212,-7.474754587809245,10.652544248453776,-8.353805541992188,1.471710205078125,-2.606964111328125,13.151773592320884,-5.45464492425686,5.959115377286585,-1.6969953264508928,-49.21976725260416,-2.6292346772693453,-19.884133207235884,5.924345619658119,-2.602065527065524,-28.80216162438384,41.133251933251934,7.545024368374619,30.201186090394465,33.747476562734,31.25548866325217,1577399235.0,-27.69449526431632,-51.11478143687034,9.471197
22977,1577399235.17,0.1974019268798828,-6.369174966430664,5.510135410766601,-1.6000858460961311,-8.578015782202744,4.346235150295351,-3.7632859761555983,-14.106693186442053,21.12478230997721,-11.161422729492188,0.4341125488281251,-3.186798095703125,3.3861485923208843,-8.50640273675686,0.2218106897865852,-9.387425013950892,-29.993693033854168,18.70255243210565,-19.884133207235884,4.419749906729075,-4.228356481481481,-28.80216162438384,44.93170533170533,9.329069539221818,30.249108934615272,34.17878216072124,31.20756581903136,1577399235.0,-27.69449526431632,-51.11478143687034,9.471197
22978,1577399235.18,-1.650921754760742,-2.022501852416992,14.009551304321288,2.278520843356993,1.4177761489495997,16.738622943264097,-5.439227138264974,4.070085817464192,17.478413181559244,2.4494171142578125,0.205230712890625,-1.584625244140625,0.4564610923208843,-11.55816054925686,-4.966177591463415,-7.190159388950892,19.780476888020832,13.300941103980657,-21.691781680620963,5.548196691425858,-3.5778400997150968,-98.05174331840998,37.8096052096052,7.024677860210852,30.249108934615272,34.08293647227963,31.20756581903136,1577399235.0,-27.69449526431632,-51.11478143687034,9.471197
22979,1577399235.19,0.8462305767822265,0.1167173309326171,13.126090891723631,-3.9871049012719126,-3.5238560776129004,15.500820684963315,-1.2864843587239578,10.274659419759114,10.311370511881508,5.1654815673828125,-0.4203796386718749,-1.416778564453125,-2.839437345179116,0.43524765386814,-2.585806497713415,0.3171648297991072,46.84956868489584,-9.694054013206843,-19.52260351255887,3.667452050264554,-4.553614672364669,-65.57422632237447,-13.232112332112331,6.987510252484869,30.249108934615272,33.963129361727624,31.20756581903136,1577399235.0,-27.69449526431632,-51.11478143687034,9.471197
22980,1577399235.2,-0.1186326922607412,-3.412335916137695,13.272137192993164,8.611184234470274,6.44799383693788,6.718888995510194,-1.8958086812337236,7.407602931722004,-7.706194081624348,-7.4382781982421875,5.103302001953125,-1.386260986328125,-13.642660001429116,5.8673765601181405,2.266488424161585,4.009791782924108,-18.519083658854168,-22.587730771019345,-19.161073817881853,5.172047763193601,-3.903098290598285,-37.92807549103848,-62.84940984940984,7.024677860210852,30.392877467277685,33.84332225117561,31.25548866325217,1577399235.0,-27.69449526431632,-51.11478143687034,9.471197
22981,1577399235.21,2.659838334350586,-1.7184382415771484,5.7495555767822255,2.477239581149961,-5.11360597995665,9.673333844143007,7.831832663981119,-39.34636708780924,7.197711252848307,-7.056808471679688,3.089141845703125,-2.744293212890625,-3.785482267054116,5.9894468726181405,-4.996695169588415,-2.978733607700893,-56.84916178385416,19.86222040085565,-19.70336835989737,6.112420083774249,-4.390985576923072,-40.07534934201602,22.615791615791608,7.024677860210852,30.440800311498485,34.17878216072124,31.25548866325217,1577399235.0,-27.69449526431632,-51.11478143687034,9.471197
22982,1577399235.22,-0.9757568865966788,-3.271078018188476,10.607390745239258,4.349505279392149,-4.823907579077743,15.18718026748285,5.8518278910319,25.89802235310872,5.809074289957682,-1.5789031982421875,2.967071533203125,-1.172637939453125,-11.781087735804116,-14.33526015863186,-4.477896341463415,-6.213596888950892,-24.317423502604168,25.26383172898065,-19.34183866522036,3.855526514380685,-4.065727386039884,-35.780801640060886,30.21269841269841,-12.005137295492622,30.392877467277685,33.84332225117561,31.20756581903136,1577399235.0,-27.69449526431632,-51.11478143687034,9.471197
22983,1577399235.23,-0.0444124407958974,-1.7507599639892577,10.109396799926756,-8.08837234511957,1.9708367324456932,10.480179803615664,0.2757322245279941,0.7421455098470042,27.37364864298502,2.0221710205078125,1.837921142578125,-1.538848876953125,3.3251134360708843,-14.48784804925686,-1.6702791539634148,-5.694798060825892,13.097127278645834,2.7113414946056547,-20.06489805457439,4.2316754426129455,-4.716243767806261,-40.61216780476041,-58.57614977614978,2.192888855833015,30.392877467277685,34.27462784916285,31.111720130589752,1577399235.0,-27.69449526431632,-51.11478143687034,9.471197
22984,1577399235.24,1.305917295532227,-0.5799953521728515,14.375864158325196,-4.188217840725037,5.162307545433974,1.523471392971132,-3.011506654866536,-5.803601829020182,18.5366503153483,5.1349639892578125,-1.030731201171875,-0.684356689453125,-9.187093595179116,15.32782577886814,-4.142202982088415,-11.462620326450892,40.07466634114584,13.880775088355657,-20.60719259658992,5.172047763193601,-3.903098290598285,-36.31762010280528,-60.47537647537647,-11.930802080040658,30.392877467277685,33.939167939617214,31.20756581903136,1577399235.0,-27.69449526431632,-51.11478143687034,9.471197
22985,1577399235.25,-2.1812374224853506,-4.09228918762207,15.161162302856445,2.8722828550757438,-6.067695341528916,11.31096777968988,5.509457053629558,10.275856520589192,18.81916611124674,-4.600143432617188,-2.144622802734375,-1.615142822265625,-9.187093595179114,-6.40068984613186,-0.8463045445884148,-1.2239728655133928,90.81013997395834,-18.757774716331845,-21.87254652795947,4.983973299077471,-3.089952813390304,-103.15151871448168,-58.81355311355311,-7.879532837908477,30.249108934615272,34.130859316500434,31.423218618024983,1577399235.0,-27.69449526431632,-51.11478143687034,9.471197
22986,1577399235.26,0.764827720336914,-0.8577227447509765,7.420708335571288,-8.5408764588891,2.8159899184808497,9.895994598537538,-0.904609193929036,1.5250494527180989,0.7261841654459633,2.8461456298828125,10.810089111328123,-1.355743408203125,9.153970857945884,-14.64043593988186,0.2523282679115852,2.422877720424107,72.94209798177083,-10.380699521019343,-20.96872229126693,5.172047763193601,-3.5778400997150968,-40.07534934201602,-60.95018315018314,-8.437046953798225,30.249108934615272,33.891245095396414,31.30341150747297,1577399235.0,-27.69449526431632,-51.11478143687034,9.471197
22987,1577399235.27,-0.9781510882568348,-0.9032125762939452,13.281713999633787,-1.3582714784203498,3.7329691543206938,16.077823285060973,-1.5701972554524737,6.51695991414388,6.287914621988932,-0.6023406982421875,-2.800750732421875,-1.508331298828125,-14.069906095179116,17.40302109136814,-1.8533846227134148,1.5073503766741072,29.057820638020832,-9.709312802269343,-20.60719259658992,6.300494547890383,-3.5778400997150968,-32.02307240085019,-63.32421652421653,6.9503426447588845,30.201186090394465,33.939167939617214,31.25548866325217,1577399235.0,-27.69449526431632,-51.11478143687034,9.471197
22988,1577399235.28,1.3705607403564453,0.7032967376708984,11.356775864868164,4.450061749118711,-0.2940780380621179,20.341896441799257,-1.7306087666829422,-38.965689023844405,-4.289668312581379,-4.417037963867188,-5.913543701171875,-0.196075439453125,2.2569982016958843,-6.79741836175686,-0.0833650914634147,-4.870823451450892,-3.5044352213541665,17.970130557105655,-20.60719259658992,5.172047763193601,-3.5778400997150968,-35.780801640060886,-62.84940984940984,7.024677860210852,30.249108934615272,34.03501362805883,31.25548866325217,1577399235.0,-27.69449526431632,-51.11478143687034,9.471197
22989,1577399235.29,2.287539976196289,-3.775057467651367,5.544851334838866,-0.7968311891137098,-2.961218687476181,6.175405218654726,5.202999241129557,12.820892885335288,11.424674283854165,3.3649444580078125,4.538726806640625,-0.135040283203125,-6.303182462366616,-0.1751039086318597,-0.2359529820884147,-3.5433088030133923,8.275349934895834,7.426307314918154,-19.70336835989737,4.607824370845206,-3.089952813390304,-38.46489395378285,-61.424989824989815,6.9503426447588845,30.36891604516728,34.058975050169224,31.27945008536257,1577399235.0,-27.69449526431632,-51.11478143687034,9.471197
22990,1577399235.3,4.020941978149414,-4.154538430786133,9.479721763305664,-3.0150590272484745,-1.0769819809332115,24.321059600978945,-6.447186037190755,-16.77862223917643,8.222429563395181,3.3954620361328125,6.568145751953125,-1.081085205078125,-0.7032068764291157,6.2641050757431405,-1.1514803258384148,-0.3542218889508928,-2.7414957682291665,-12.883140927269343,-19.70336835989737,4.607824370845206,-3.089952813390304,-38.46489395378285,-57.62653642653642,6.9503426447588845,30.392877467277685,34.03501362805883,31.25548866325217,1577399235.0,-27.69449526431632,-51.11478143687034,9.471197
22991,1577399235.31,0.448793101196289,-2.7180174346923827,12.872305515747067,1.2370431211890238,4.003513941918349,12.01486306777582,-2.26212153523763,11.973345497639976,-7.122008876546223,0.4657745361328124,5.896759033203125,-0.257110595703125,1.4635411704458845,12.45917343511814,-1.1819979039634148,8.770533970424108,-31.580607096354168,-26.890709286644345,-20.42642774925141,5.7362711555419885,-3.7404691951566944,-40.61216780476041,-65.22344322344321,-6.429996136595121,30.392877467277685,33.891245095396414,31.25548866325217,1577399235.0,-27.69449526431632,-51.11478143687034,9.471197
22992,1577399235.32,-2.924637037963867,0.9427169036865234,12.256995689086914,1.50758790878668,-3.2533112900152434,9.429125274807069,4.769648740641276,-32.29065479532878,10.865628196207682,6.4929962158203125,10.001373291015623,-1.782989501953125,-10.377279142054116,8.30878281011814,-0.6937166539634148,-8.593967982700892,-48.60941569010416,-15.721275692894343,-21.23986956227469,4.701861602903273,-3.984412838319084,-40.61216780476041,-63.32421652421653,4.571615750295951,30.36891604516728,34.03501362805883,31.39925719591458,1577399235.0,-27.69449526431632,-51.11478143687034,9.471197
22993,1577399235.33,-0.3221398333740224,-3.465008352661133,13.219464756469725,0.1835943907202745,2.993160841332412,6.080834253078553,1.3076331400553385,-2.588188999430338,9.696060685221354,-11.191940307617188,-9.362030029296877,-0.653839111328125,0.6700841391958843,-0.93804336175686,-1.6245027867759148,-0.5068097795758928,-49.265543619791664,25.20279657273065,-21.691781680620963,4.419749906729075,-3.5778400997150968,-38.46489395378285,-63.79902319902319,-3.902598811228256,30.249108934615272,33.939167939617214,31.30341150747297,1577399235.0,-27.69449526431632,-51.11478143687034,9.471197
22994,1577399235.34,-4.11694946472168,1.7758990814208984,9.333675462036132,-8.524117047268007,-0.3682982895269617,10.614255096584412,-6.0377775533040365,20.927659706624347,5.73964244181315,-1.0601043701171875,-3.166961669921875,-0.165557861328125,-5.097738126429116,-4.23394179925686,-4.996695169588415,1.0801042829241072,-58.19193522135416,5.885169619605655,-21.691781680620963,4.419749906729075,-3.5778400997150968,-105.03038333408703,-63.32421652421653,4.571615750295951,30.34495462305688,33.939167939617214,31.25548866325217,1577399235.0,-27.69449526431632,-51.11478143687034,9.471197
22995,1577399235.35,0.467946714477539,-5.550357998657226,12.53232888000488,3.717436041110899,-7.139100584448838,10.446660980373474,3.735353623453776,-5.968801743570963,6.898436045328776,-12.717819213867188,-21.141815185546875,-0.135040283203125,-0.7337244545541157,1.4118101538681402,-0.2054354039634147,5.718776157924108,-61.15214029947917,-7.908775692894345,-20.60719259658992,6.676643476122644,-3.252581908831901,-109.32493103604212,31.63711843711844,-11.782131649136728,30.48872315571929,33.939167939617214,31.111720130589752,1577399235.0,-27.69449526431632,-51.11478143687034,9.471197
22996,1577399235.36,0.3769670513916016,-2.1829133636474607,0.6786364605712886,0.4014667417944929,4.652342591820694,-5.577730731052305,3.950831772867839,6.354154201253254,3.797944895426432,3.4870147705078125,-1.854705810546875,-0.165557861328125,2.7757970298208843,-6.12603164300686,3.578744283536585,3.216334751674107,-54.28568522135416,1.5211559477306549,-19.70336835989737,5.924345619658119,-3.577840099715094,-107.1776571850646,-65.22344322344321,-9.700745616481662,30.32099320094648,33.939167939617214,31.20756581903136,1577399235.0,-27.69449526431632,-51.11478143687034,9.471197
22997,1577399235.37,0.285987388305664,4.857236618041992,11.074260068969725,-2.642760669094178,0.7713417007074129,6.927184539943788,-8.579222615559894,-6.755296988932293,16.108929831949865,-0.3887176513671875,-5.455780029296875,-1.416778564453125,-1.4661463295541155,5.4706480444931405,-1.0294100133384148,-0.2779279436383928,-47.93802897135417,0.727698916480656,-18.98030897054334,6.112420083774249,-3.415211004273499,-71.47922941256274,-18.45498575498576,7.582191976100601,30.249108934615272,33.98709078383802,31.23152724114176,1577399235.0,-27.69449526431632,-51.11478143687034,9.471197
22998,1577399235.38,1.818276450805664,-3.989338516235352,6.034465574340819,3.492381085056212,-4.8933394272222746,-4.22740099472418,5.104836973063151,14.638091945393882,22.51581347452799,-1.2126922607421875,-4.265594482421875,0.444793701171875,0.8531896079458843,-5.05791640863186,4.555306783536585,-3.680637904575893,26.585896809895832,9.547278994605657,-18.98030897054334,6.112420083774249,-3.415211004273499,-103.41992794585386,28.313471713471703,8.214041307442319,30.249108934615272,33.939167939617214,31.25548866325217,1577399235.0,-27.69449526431632,-51.11478143687034,9.471197
22999,1577399235.39,0.8821436016845703,-8.710704190063476,6.635410191040038,1.8379877378882423,-2.5805406235113373,14.186403973537535,-4.931656386311849,-1.4653084208170573,13.568681870524088,-7.2551727294921875,-4.082489013671875,1.116180419921875,4.149088045445884,-12.99248672113186,0.4659513147865852,-2.948216029575893,61.74214680989584,-0.1267932710193452,-20.96872229126693,5.548196691425858,-3.5778400997150968,-36.31762010280528,-64.27382987382987,8.288376522894284,30.392877467277685,33.939167939617214,31.25548866325217,1577399235.0,-27.69449526431632,-51.11478143687034,9.471197
23000,1577399235.4,0.7408857037353515,2.5899276458740235,17.44403358581543,-0.5418487123070692,-0.3682982895269626,12.020848571926209,2.0677921671549475,1.2209858418782582,5.732459836832682,7.210159301757812,3.958892822265624,0.124359130859375,-5.555501798304116,-2.0214173851943595,0.6948331507240852,-1.5901838030133926,42.317708333333336,-8.168175106956845,-20.697575020259173,5.830308387600054,-3.496525551994298,-40.07534934201602,-62.84940984940984,7.470689152922654,30.22514751250487,34.058975050169224,31.30341150747297,1577399235.0,-27.69449526431632,-51.11478143687034,9.471197
23001,1577399235.41,3.1853655987548826,-7.379528067016601,8.86920033996582,9.91123573593512,-5.204585643042588,25.90602110000238,-0.2653573506673173,-0.3520046488444009,-3.7294251241048166,-9.452438354492188,5.133819580078125,1.207733154296875,-3.205648282679116,7.9425718726181405,-2.8604647008384148,8.495875767299108,-50.59305826822917,-27.317955380394345,-20.06489805457439,6.112420083774249,-3.7404691951566944,-36.31762010280528,-62.374603174603166,-12.079472510944596,30.5366459999401,33.84332225117561,31.063797286368946,1577399235.0,-27.69449526431632,-51.11478143687034,9.471197
23002,1577399235.42,1.930803928833008,-2.033275759887695,3.858136265258788,-1.0302658509789435,5.155124940453505,-0.1548639707983981,2.3395340555826816,-22.01713547159831,6.311856638590495,-11.832809448242188,3.180694580078125,-0.836944580078125,12.755045076695884,-7.13311172113186,4.921517721036585,6.634303501674108,-77.08231608072917,0.3920055571056547,-20.06489805457439,6.112420083774249,-3.7404691951566944,-36.31762010280528,-62.374603174603166,-12.079472510944596,30.680414532602512,34.22670500494204,31.20756581903136,1577399235.0,-27.69449526431632,-51.11478143687034,9.471197
23003,1577399235.43,-1.6688782672119131,-1.6334440826416017,4.893628483276366,-1.4133381166039436,-1.771300462378524,-5.302397540134336,2.885412034098308,-13.754745542399084,21.115205503336583,-5.195236206054688,-6.493377685546879,-1.538848876953125,-6.928792813929116,-4.29497695550686,-1.3040682164634148,-8.777073451450892,-25.171915690104168,30.08560907273065,-19.61298593622812,4.701861602903271,-3.659154647435893,-35.243983177316515,-65.22344322344321,2.78757057944875,30.32099320094648,34.17878216072124,31.30341150747297,1577399235.0,-27.69449526431632,-51.11478143687034,9.471197
23004,1577399235.44,-0.9733626849365224,-6.718728408813476,10.355999570922853,-2.4715752503930077,-4.051777543677352,8.939511035305115,-0.0283313863118487,10.468589754231772,16.791277305094397,2.2663116455078125,-2.281951904296875,0.749969482421875,3.0809728110708843,-13.16033340081936,-1.3498445836509148,-5.542210170200892,42.07356770833333,7.456824893043153,-20.60719259658992,5.548196691425858,-3.5778400997150968,-107.1776571850646,-61.424989824989815,-1.3752014858613877,30.48872315571929,34.01105220594842,31.183604396920963,1577399235.0,-27.69449526431632,-51.11478143687034,9.471197
23005,1577399235.45,-2.7761965350341797,-1.6789339141845705,9.714353526000975,-0.5801559388695686,-9.004183677710557,19.197468048244566,0.2829148295084628,-6.799589719645182,16.084987815348306,5.5011749267578125,-0.0236511230468748,0.231170654296875,1.6161290610708845,12.39813827886814,-0.1749178258384147,-2.612522670200893,72.85054524739583,-12.181236630394343,-19.70336835989737,4.607824370845206,-4.390985576923072,-108.78811257329774,-57.15172975172975,-7.99103566108642,30.201186090394465,33.891245095396414,31.25548866325217,1577399235.0,-27.69449526431632,-51.11478143687034,9.471197
23006,1577399235.46,2.1678298931884767,1.253963119506836,14.15559760559082,1.6488458067358989,1.5231210219964746,20.310771820217223,-11.328963222249348,-13.256751597086584,8.835345188395182,-1.2432098388671875,1.227569580078125,-1.660919189453125,10.405191561070884,-11.00884414300686,6.813607564786585,-4.443577357700892,77.00093587239583,-1.5611194428943451,-19.70336835989737,4.607824370845206,-4.390985576923072,-108.78811257329774,-57.15172975172975,-7.99103566108642,30.392877467277685,33.939167939617214,31.20756581903136,1577399235.0,-27.69449526431632,-51.11478143687034,9.471197
23007,1577399235.47,1.769195316772461,-2.4211364288330075,12.57303030822754,-0.1946894715844124,-2.381821885718368,2.7660620545922256,7.271589475504556,-0.6273378397623696,13.66205573527018,-0.3887176513671875,4.935455322265624,0.505828857421875,2.3485509360708843,-0.8770082055068598,1.1068204554115852,-3.619602748325893,66.25874837239583,-5.803062802269345,-20.245662901912898,5.360122227309728,-2.7646946225071214,-40.61216780476041,-63.32421652421653,6.9503426447588845,30.32099320094648,34.08293647227963,31.30341150747297,1577399235.0,-27.69449526431632,-51.11478143687034,9.471197
23008,1577399235.48,-0.7028178973388662,-7.034763027954101,16.31995590637207,3.2098652891577744,-0.4568837509527438,18.607297339016053,1.8319633036295568,-9.823466416422525,13.498052921549478,-11.436080932617188,-3.136444091796875,1.940155029296875,-6.028524259241616,0.3436949194931404,-2.875723489900915,-3.2686505998883923,47.49043782552084,6.754920596168156,-20.60719259658992,3.2913031220322897,-3.903098290598285,-33.63352778908335,-64.74863654863654,-7.247683506566758,30.201186090394465,33.98709078383802,31.27945008536257,1577399235.0,-27.69449526431632,-51.11478143687034,9.471197
23009,1577399235.49,-2.4984691424560546,0.6266822845458984,15.443678098754882,-3.2233545716820684,-0.4712489609136804,0.4149560243187883,2.8806236307779947,2.664689442952473,4.336640268961588,3.0597686767578125,1.624298095703125,-0.135040283203125,-8.668294767054116,10.17035507574314,-4.355826028963415,-0.7204328264508928,37.20601399739584,-1.1033557710193451,-20.42642774925141,5.7362711555419885,-3.7404691951566944,-29.33898008712823,-64.74863654863654,7.024677860210852,30.249108934615272,34.17878216072124,31.39925719591458,1577399235.0,-27.69449526431632,-51.11478143687034,9.471197
23010,1577399235.5,0.9515754498291016,-5.782595559692383,14.907376926879882,2.9010132749976174,-5.020232115210557,25.0895983338891,-0.6795542378743487,-14.427516208902992,12.203986924235023,0.2826690673828124,-4.204559326171875,0.505828857421875,-3.480306485804116,5.6842710913681405,-1.8533846227134148,0.4697527204241072,30.980428059895832,-3.758385067894345,-20.42642774925141,5.7362711555419885,-3.7404691951566944,-40.07534934201602,-60.95018315018314,7.024677860210852,30.392877467277685,34.03501362805883,31.39925719591458,1577399235.0,-27.69449526431632,-51.11478143687034,9.471197
23011,1577399235.51,2.3988703533935545,-2.319382858276367,9.816107096557616,3.0626218870581643,-1.4337180282964928,9.940287329250427,-0.0522734029134115,3.79714682820638,15.321237485758465,5.7147979736328125,4.523468017578125,-0.501251220703125,-0.8405359779916157,9.75836777105564,0.588021627286585,4.162379673549108,38.77766927083334,-6.581261044456845,-20.516810172920664,5.078010531135532,-3.008638265669515,-34.70716471457212,-62.84940984940984,-0.9291901931495868,30.44080031149849,33.891245095396414,31.25548866325217,1577399235.0,-27.69449526431632,-51.11478143687034,9.471197
23012,1577399235.52,0.7241262921142577,-0.5129577056884765,12.206717454223632,1.1388808531226178,0.6875446426019435,18.364285870510194,-3.0139008565266923,-18.495264829508464,10.0108982035319,0.8930206298828125,4.248809814453125,0.048065185546875,1.7992345298208845,9.80414413824314,-2.3416658727134148,0.0119890485491072,30.064900716145832,-1.1033557710193451,-18.98030897054334,4.983973299077471,-4.065727386039884,-37.92807549103848,-62.84940984940984,-11.410455571876891,30.392877467277685,33.939167939617214,31.30341150747297,1577399235.0,-27.69449526431632,-51.11478143687034,9.471197
23013,1577399235.53,-0.7554903338623037,-0.7930792999267577,17.280030772094726,-2.196242059475037,-5.594840513648056,17.171973443752382,-0.7274382710774736,14.305297914632163,10.034840220133464,4.5551300048828125,6.049346923828125,0.872039794921875,6.315836092320884,3.0292417944931405,-2.4637361852134148,4.070826939174108,13.280232747395834,-6.718590146019345,-20.96872229126693,5.548196691425858,-3.252581908831901,-37.92807549103848,-62.84940984940984,-12.005137295492622,30.48872315571929,33.939167939617214,31.30341150747297,1577399235.0,-27.69449526431632,-51.11478143687034,9.471197
23014,1577399235.54,-0.6980294940185537,0.6841431243896484,12.81484467590332,-0.9871702210961312,3.00752605129335,11.002115765529725,-1.01713667195638,5.446751772054036,12.943795237223307,9.926223754882812,10.688018798828123,0.353240966796875,-5.616536954554116,10.53656601324314,1.4730313929115852,3.735133579799107,-5.182902018229167,0.0563121977306547,-20.96872229126693,5.548196691425858,-3.252581908831901,-32.02307240085019,-64.27382987382987,-12.079472510944596,30.15326324617366,34.17878216072124,31.25548866325217,1577399235.0,-27.69449526431632,-51.11478143687034,9.471197
23015,1577399235.55,-0.0515950457763666,-4.077923977661133,11.475288847045896,1.75658488144293,-3.93326456149962,6.196953033596132,-3.3826079121907555,6.878484364827473,12.262644864908854,-2.0671844482421875,4.187774658203125,0.399017333984375,9.733804842320888,0.6488707007431402,1.656136861661585,5.962916782924108,-14.017740885416666,-0.8592151460193449,-19.61298593622812,5.642233923483925,-4.472300124643871,-102.3462910203651,-15.843549043549045,-11.187449925520994,30.201186090394465,34.058975050169224,31.25548866325217,1577399235.0,-27.69449526431632,-51.11478143687034,9.471197
23016,1577399235.56,0.5948394024658202,-1.1091139190673829,10.32487494934082,2.82918722519293,-3.4640010361089937,16.243023199611756,0.9892043192545568,-13.723620920817051,10.578323996988932,6.9355010986328125,6.751251220703125,0.841522216796875,2.0433751548208843,13.43573593511814,-4.172720560213415,5.047389439174108,-22.364298502604168,0.5751110258556548,-19.52260351255887,5.924345619658119,-3.903098290598285,-32.02307240085019,-65.22344322344321,8.139706091990352,30.249108934615272,33.891245095396414,31.25548866325217,1577399235.0,-27.69449526431632,-51.11478143687034,9.471197
23017,1577399235.57,-0.68127008239746,0.2651578338623047,13.88744701965332,0.7151071592749616,0.3906636367425685,9.97739745498285,-2.190295485432942,-5.01351528116862,0.8219522318522133,11.268997192382812,5.896759033203125,1.146697998046875,14.067300936070884,6.0504820288681405,3.853402486661585,5.962916782924108,-30.909220377604168,6.220862978980655,-20.60719259658992,5.924345619658119,-3.903098290598285,-32.02307240085019,-65.22344322344321,8.139706091990352,30.34495462305688,34.08293647227963,31.20756581903136,1577399235.0,-27.69449526431632,-51.11478143687034,9.471197
23018,1577399235.58,-1.0571597430419912,-0.0604535919189453,7.0256650616455065,-2.7181780213891,-4.3283078354254,4.846623297268007,-0.1097342427571611,-4.850709568277995,8.25594838663737,4.8603057861328125,3.913116455078125,2.184295654296875,7.414468904820884,5.1654722632431405,0.1302579554115852,7.549830845424108,-53.43119303385416,-4.612877255394345,-18.618779275866327,4.983973299077471,-4.065727386039884,-32.02307240085019,-65.22344322344321,6.9503426447588845,30.34495462305688,34.08293647227963,31.25548866325217,1577399235.0,-27.69449526431632,-51.11478143687034,9.471197
23019,1577399235.59,-1.9430143572998044,-0.1777694732666015,9.51324058654785,-0.6639529969750374,3.8167662124261614,8.686922760158632,3.42650160929362,-25.80715669962565,7.305450327555338,2.5104522705078125,0.9529113769531252,0.597381591796875,5.674966951695884,0.9540464819931402,0.4659513147865852,3.765651157924107,-68.26273600260417,12.385413760230657,-18.618779275866327,4.983973299077471,-4.065727386039884,-39.53853087927163,-65.22344322344321,8.437046953798218,30.392877467277685,33.939167939617214,31.30341150747297,1577399235.0,-27.69449526431632,-51.11478143687034,9.471197
23020,1577399235.6,-2.0543447344970693,-5.296572622680664,6.249943723754882,-0.8016195924340228,-3.666311076392197,10.34730161147699,0.887450748697916,-0.393903177897134,12.231520243326822,0.7556915283203125,-1.854705810546875,1.634979248046875,9.047159334508386,-3.4710023461318595,0.1607755335365852,7.565089634486608,-43.039957682291664,0.0715709867931551,-18.889926546874086,5.454159459367794,-4.309671029202276,-39.53853087927163,-64.74863654863654,7.6193595838265855,30.32099320094648,33.891245095396414,31.27945008536257,1577399235.0,-27.69449526431632,-51.11478143687034,9.471197
23021,1577399235.61,-1.4474146136474608,1.0887632049560547,13.269742991333006,1.043112786716368,-1.4097760116949305,7.540100164943788,-0.8471483540852861,-4.774095115152994,7.683734189860026,12.184524536132812,-3.624725341796875,2.733612060546875,-0.3064783608041157,-3.2878968773818595,1.1678556116615852,7.458278111049108,-29.413859049479168,-2.0799182710193453,-19.52260351255887,4.795898834961333,-4.553614672364669,-40.07534934201602,-64.74863654863654,7.024677860210852,30.249108934615272,34.08293647227963,31.063797286368946,1577399235.0,-27.69449526431632,-51.11478143687034,9.471197
23022,1577399235.62,1.1431115826416014,2.108693112182617,6.048830784301757,-0.0654025819359749,-0.1193013168707117,6.568054290920351,5.44960201212565,4.596810182698567,13.36996313273112,9.926223754882812,-4.265594482421875,0.963592529296875,8.146890779820884,-3.86773086175686,-1.1209627477134148,7.214137486049108,-21.570841471354168,3.3522106352306547,-20.06489805457439,5.360122227309728,-3.415211004273499,-40.07534934201602,-63.7990231990232,5.9839848438833165,30.249108934615272,33.891245095396414,31.20756581903136,1577399235.0,-27.69449526431632,-51.11478143687034,9.471197
23023,1577399235.63,0.7636306195068359,-3.526060494995117,4.921161802368164,-0.9512571961937872,-5.051356736792588,17.5430747010766,-2.5278779195149736,-1.1420911966959633,13.326867502848309,3.700637817382813,-3.639984130859375,2.687835693359375,6.773599764195884,3.2428648413681405,2.663216939786585,6.542750767299108,-25.385538736979168,7.411048525855655,-20.06489805457439,5.360122227309728,-3.415211004273499,-40.07534934201602,-63.7990231990232,6.429996136595118,30.249108934615272,34.27462784916285,31.25548866325217,1577399235.0,-27.69449526431632,-51.11478143687034,9.471197
23024,1577399235.64,-1.3564349505615232,-0.8265981231689452,7.593090855102538,-0.4017879151879285,0.2242666213617098,9.980988757473083,0.2086945780436199,-0.5519204874674477,-6.081728255208333,4.9518585205078125,-4.357147216796875,1.299285888671875,6.346353670445884,-1.8383119164443595,-0.617422708650915,9.518214634486608,-62.83060709635417,2.543494814918155,-19.52260351255887,5.548196691425858,-3.5778400997150968,-109.32493103604212,-60.95018315018315,-1.3752014858613872,30.249108934615272,34.08293647227963,31.111720130589752,1577399235.0,-27.69449526431632,-51.11478143687034,9.471197
23025,1577399235.65,3.5301306378173827,0.4351461517333984,4.181353489379881,1.52674152206793,-1.6252541611089928,14.5934182557641,3.3738291727701823,1.5944813008626302,-0.6049919576009107,5.3180694580078125,-1.152801513671875,0.597381591796875,-0.5201014076791157,1.6254332007431402,-1.1514803258384148,13.714381626674108,-123.89628092447916,-9.526207333519343,-19.884133207235884,4.419749906729075,-2.9273237179487124,-109.32493103604212,-60.47537647537647,-7.916700445634458,30.249108934615272,34.08293647227963,31.30341150747297,1577399235.0,-27.69449526431632,-51.11478143687034,9.471197
23026,1577399235.66,2.9627048443603514,-1.9901801300048827,4.45668668029785,-3.4268617127953496,3.3211664687738187,4.070901959377382,7.393693760172526,-21.10255043741862,6.07243647257487,11.360549926757812,-0.6340026855468749,1.909637451171875,18.06510367044589,-12.59575820550686,-0.6937166539634148,8.678981236049108,-151.69779459635416,8.723304385230655,-19.52260351255887,4.795898834961333,-4.553614672364669,-40.61216780476041,-64.27382987382987,-7.768030014730527,30.48872315571929,33.939167939617214,31.447180040135382,1577399235.0,-27.69449526431632,-51.11478143687034,9.471197
23027,1577399235.67,-0.9470264666748042,-0.8301894256591796,8.395148411254882,-0.9847760194359748,-2.865450621069931,4.779585650783632,-2.321976576741536,2.7843995259602856,8.378052671305339,5.8673858642578125,-2.693939208984375,1.360321044921875,-1.0389002358041155,10.47553085699314,1.6561368616615852,5.901881626674108,-143.36649576822916,17.298743838355655,-19.52260351255887,4.795898834961333,-4.553614672364669,-35.780801640060886,-64.74863654863654,7.024677860210852,30.32099320094648,34.08293647227963,31.111720130589752,1577399235.0,-27.69449526431632,-51.11478143687034,9.471197
23028,1577399235.68,-0.9470264666748036,-0.230441909790039,9.5323941998291,0.6420840086401963,-0.7429908493414152,5.2273013612328505,6.588044901529948,3.572091872151694,21.45518213907877,3.3039093017578125,-5.181121826171875,1.726531982421875,7.307657381383384,-2.2045228539443595,-0.342764505525915,7.076808384486608,-76.39567057291666,4.145667666480655,-19.70336835989737,4.2316754426129455,-3.7404691951566944,-38.46489395378285,-61.42498982498982,7.024677860210852,30.15326324617366,34.01105220594842,31.23152724114176,1577399235.0,-27.69449526431632,-51.11478143687034,9.471197
23029,1577399235.69,-4.533540553588867,2.8197710052490232,11.89547123840332,-5.720506903225038,-2.415340708960555,5.569672198635194,1.2789027201334628,-1.1995520365397134,18.483977878824863,15.724563598632812,3.974151611328125,1.482391357421875,6.926187654820884,-19.73687148675686,0.4354337366615852,4.894801548549108,2.477010091145833,1.0328746977306549,-19.70336835989737,4.983973299077471,-4.716243767806261,-40.61216780476041,-61.42498982498982,7.0990130756628185,30.249108934615272,34.03501362805883,31.30341150747297,1577399235.0,-27.69449526431632,-51.11478143687034,9.471197
23030,1577399235.7,-1.418684193725586,-4.748300442504883,4.765538694458007,-1.5354424012719123,0.9006285903558497,4.7197306092797255,1.367488181559244,-14.968605784098305,8.301438218180339,-6.980514526367188,-19.310760498046875,1.665496826171875,-3.846517423304116,-5.57671523675686,-1.3651033727134148,2.117701939174107,11.266072591145834,-7.389976864769345,-19.52260351255887,5.548196691425858,-3.903098290598285,-40.61216780476041,-56.67692307692308,-8.362711738346256,30.201186090394465,33.891245095396414,31.20756581903136,1577399235.0,-27.69449526431632,-51.11478143687034,9.471197
23031,1577399235.71,1.1993753216552734,-0.2472013214111328,7.667311106567382,1.5195589170874615,-1.5653991196050865,9.275896368557069,-6.851806117757161,-2.1213196756998696,7.829780491129557,2.4036407470703125,-10.079193115234377,1.009368896484375,-0.2759607826791157,-4.56963515863186,2.693734517911585,0.9580339704241072,26.555379231770832,1.6127086821056549,-19.161073817881853,4.043600978496815,-2.9273237179487124,-40.61216780476041,-63.32421652421653,-9.700745616481662,30.32099320094648,34.08293647227963,31.30341150747297,1577399235.0,-27.69449526431632,-51.11478143687034,9.471197
23032,1577399235.72,3.616321897583008,0.4423287567138672,2.7807455181884757,1.4082285398901964,0.6552229201898346,9.0388704042016,2.507128171793619,2.492306923421224,9.34770434366862,1.4423370361328125,-5.486297607421875,0.872039794921875,2.7147618735708843,-6.56853652581936,-0.1901766149009147,-2.368382045200893,44.59126790364584,3.062293643043155,-20.42642774925141,4.983973299077471,-3.089952813390304,-37.391257028294085,-61.42498982498982,-11.633461218232798,30.392877467277685,34.058975050169224,31.135681552700152,1577399235.0,-27.69449526431632,-51.11478143687034,9.471197
23033,1577399235.73,3.0512903057861327,1.6298527801513671,11.58901342590332,-0.2497561097680061,-0.2868954330816492,14.27259523330316,-2.096921620686848,-14.738762424723303,16.59255856730143,3.5785675048828125,-0.1457214355468749,1.055145263671875,2.9283849204458843,-3.5625550805068595,3.578744283536585,-4.565647670200892,60.52144368489584,3.0470348539806547,-20.42642774925141,6.488569012006514,-3.415211004273499,-37.391257028294085,-61.42498982498982,-11.633461218232798,30.392877467277685,34.08293647227963,31.447180040135382,1577399235.0,-27.69449526431632,-51.11478143687034,9.471197
23034,1577399235.74,3.369719126586914,-0.6446387969970703,9.917860667114256,-3.989499102932069,-4.072128257788681,8.775508221584413,0.2565786112467441,10.555978114827475,12.94858364054362,-1.9451141357421875,0.2815246582031251,-0.196075439453125,1.7992345298208845,-2.7385804711318595,1.1373380335365852,-2.368382045200893,75.35298665364583,-7.573082333519345,-20.96872229126693,3.667452050264554,-3.5778400997150968,-35.780801640060886,-64.74863654863654,-12.005137295492622,30.392877467277685,34.08293647227963,31.25548866325217,1577399235.0,-27.69449526431632,-51.11478143687034,9.471197
23035,1577399235.75,1.87214598815918,-1.9470845001220705,10.725903727416991,7.664277477878477,0.341582502709366,12.417088946682068,-0.0774125203450521,-5.499538218180338,6.698520206705729,-3.028488159179688,2.310943603515625,0.124359130859375,-6.333700040491616,4.7992613257431405,0.847421041349085,-3.5738263811383923,67.37263997395834,-5.787804013206845,-20.96872229126693,5.548196691425858,-3.5778400997150968,-106.9092479536924,-64.03642653642653,-2.5273973253668687,30.44080031149849,34.01105220594842,31.375295773804176,1577399235.0,-27.69449526431632,-51.11478143687034,9.471197
23036,1577399235.76,1.128746372680664,0.1933317840576171,13.154821311645506,-5.234483966213319,0.4313650649652247,5.191388336330507,-1.2302206197102858,-10.524967502848304,0.1659409769694008,1.6254425048828125,3.913116455078125,-0.287628173828125,2.8368321860708843,-6.95000625238186,-0.1444002477134147,-4.748753138950892,25.792439778645832,-5.680992489769345,-18.799544123204832,5.924345619658119,-2.9273237179487124,-109.32493103604212,-63.32421652421653,6.9503426447588845,30.392877467277685,34.08293647227963,31.20756581903136,1577399235.0,-27.69449526431632,-51.11478143687034,9.471197
23037,1577399235.77,0.6953958721923827,-0.9080009796142576,6.767091282348632,1.3184459776343365,-1.8598859238043053,11.74431828017816,-4.055378578694661,-2.1787805155436195,-0.3703601949055982,0.8930206298828125,0.6172180175781251,-1.233673095703125,-4.823079923304116,21.12616562261814,-2.1890779820884148,-4.870823451450892,-6.891886393229167,2.5587536039806547,-19.52260351255887,5.172047763193601,-3.5778400997150968,-31.4862539381058,-62.84940984940984,8.511382169250187,30.34495462305688,34.03501362805883,31.20756581903136,1577399235.0,-27.69449526431632,-51.11478143687034,9.471197
23038,1577399235.78,0.5493495709228515,-0.690128628540039,9.594643442993164,2.537094622653868,-4.072128257788681,10.578342071682068,-1.9221448994954424,-1.462914219156901,5.4930396708170575,-8.933639526367188,7.697296142578125,-2.179718017578125,-4.487386563929116,-1.97564101800686,3.029427877286585,-3.314426967075893,-23.829142252604168,0.2089000883556547,-19.52260351255887,6.300494547890383,-3.903098290598285,-29.33898008712823,35.910378510378514,9.403404754673788,30.392877467277685,33.939167939617214,31.20756581903136,1577399235.0,-27.69449526431632,-51.11478143687034,9.471197
23039,1577399235.79,1.7356764935302735,0.2603694305419922,5.31261377380371,0.1069799375952745,-2.914531755103135,1.833520507961367,2.4951571634928387,0.87502370198568,13.82246724650065,-8.872604370117188,1.715850830078125,-1.615142822265625,-7.157674649866616,4.9060728491806405,1.625619283536585,-7.190159388950892,-2.9703776041666665,1.963660830543155,-19.52260351255887,5.924345619658119,-2.9273237179487124,-33.36511855771116,-22.728245828245825,8.994561069687972,30.22514751250487,33.939167939617214,31.30341150747297,1577399235.0,-27.69449526431632,-51.11478143687034,9.471197
23040,1577399235.8,3.1422699688720703,-2.509721890258789,7.815751609497069,-1.1739179505883186,0.0147739760980372,15.60855975967035,2.418542710367838,-0.7877493509928384,9.98456198527018,-9.177780151367188,8.063507080078125,0.383758544921875,-13.368001798304116,6.7218687476181405,-0.2969881383384147,-7.586887904575892,15.874226888020834,-6.047203427269345,-19.161073817881853,5.924345619658119,-3.903098290598285,-29.875798549872645,-65.22344322344321,8.585717384702155,30.392877467277685,34.17878216072124,31.447180040135382,1577399235.0,-27.69449526431632,-51.11478143687034,9.471197
23041,1577399235.81,0.7025784771728515,2.6114754608154294,11.828433591918945,3.703070831149961,-0.2892896347418054,6.654245550685976,-0.7418034810384111,-9.5840462504069,10.76507172648112,-1.6704559326171875,10.077667236328123,-1.752471923828125,-10.774007657679116,8.00360702886814,3.029427877286585,-12.927464076450892,31.712849934895832,0.9718395414806548,-21.330251985943946,5.172047763193601,-2.9273237179487124,-29.875798549872645,-65.22344322344321,7.396353937470683,30.392877467277685,34.08293647227963,31.30341150747297,1577399235.0,-27.69449526431632,-51.11478143687034,9.471197
23042,1577399235.82,0.2740163800048832,-3.3488895721435545,7.910322575073241,-0.8507007264672248,-6.044950425757431,10.489756610256286,-1.7353971700032549,4.043749599202473,15.256594040934244,-14.060592651367188,7.727813720703124,-1.584625244140625,-6.165853360804116,-0.9380433617568598,3.517709127286585,-9.662083217075892,43.73677571614584,-2.4156116303943453,-19.974515630905135,4.889936067019402,-3.821783742877487,-39.00171241652724,-64.74863654863654,-11.410455571876891,30.22514751250487,33.939167939617214,31.30341150747297,1577399235.0,-27.69449526431632,-51.11478143687034,9.471197
23043,1577399235.83,-1.0188525164794913,-0.067636196899414,14.392623569946288,0.5187826231421491,0.117724647484756,9.330963006740664,6.347427634684244,10.211213075764975,16.59255856730143,-0.9685516357421876,14.197540283203123,-2.301788330078125,-10.224691251429116,-0.9990785180068598,0.3133634241615852,-7.495335170200892,42.08882649739584,-4.704429989769345,-21.14948713860544,4.2316754426129455,-4.390985576923072,-39.00171241652724,-60.95018315018314,6.578666567499051,30.5845688441609,34.03501362805883,31.20756581903136,1577399235.0,-27.69449526431632,-51.11478143687034,9.471197
23044,1577399235.84,-0.8799888201904287,-0.9630676177978515,7.7367429547119135,3.92094318222418,-4.321125230444931,3.005482220607851,1.4488910380045563,-4.841132761637369,9.460231821695965,-9.818649291992188,0.8613586425781251,-1.477813720703125,-3.571859220179116,9.46845077886814,2.663216939786585,-10.333469935825892,40.62398274739584,-7.786705380394345,-19.884133207235884,5.548196691425858,-3.903098290598285,-109.32493103604212,34.48595848595849,2.78757057944875,30.249108934615272,33.891245095396414,31.20756581903136,1577399235.0,-27.69449526431632,-51.11478143687034,9.471197
23045,1577399235.85,-0.5136759661865224,-1.657386099243164,11.605772837524412,2.898619073337461,-2.9396708725347747,8.908386413723084,3.213417661539713,6.023754372151695,6.626694156901041,-6.187057495117188,1.837921142578125,-0.470733642578125,-12.482992032679114,6.7676451148056405,0.2523282679115852,-5.954197474888392,15.736897786458332,-4.490806942894345,-20.96872229126693,5.172047763193601,-3.903098290598285,-104.22515563997044,-22.253439153439142,-8.325544130620273,30.392877467277685,33.939167939617214,31.20756581903136,1577399235.0,-27.69449526431632,-51.11478143687034,9.471197
23046,1577399235.86,1.071285532836914,-2.921524575805664,5.907572886352538,2.4820279844702737,-3.909322544898056,12.117813739162536,7.578047288004557,-1.9393603495279947,11.55036987101237,-8.262252807617188,-0.9696960449218748,-1.477813720703125,-8.759847501429116,-6.88897109613186,1.6256192835365852,-10.394505092075892,21.184285481770832,1.9484020414806549,-18.98030897054334,4.607824370845206,-4.390985576923072,-39.00171241652724,-56.2021164021164,-7.693694799278552,30.201186090394465,34.08293647227963,31.39925719591458,1577399235.0,-27.69449526431632,-51.11478143687034,9.471197
23047,1577399235.87,2.1845893048095704,-3.532045999145508,5.900390281372069,3.294260897678281,-2.3979827469244235,10.76927965407953,3.284645160929361,-3.7272304392496745,8.825169831339517,-15.555953979492188,0.1289367675781251,-1.294708251953125,-7.539144376429116,-3.989801174256861,2.617440572599085,-10.493687220982142,20.169576009114586,0.6132579985119049,-20.787957443928423,5.360122227309728,-3.415211004273499,-39.80694011064382,-60.237973137973135,-0.2973408618078665,30.249108934615272,34.070955761224425,31.30341150747297,1577399235.0,-27.69449526431632,-51.11478143687034,9.471197
23048,1577399235.88,2.364154429321289,2.020107650756836,11.969691489868165,4.106493810886289,-0.8866429489507903,9.42074556899652,-1.008756966145833,-5.515100528971354,6.099969791666666,-2.0061492919921875,2.448272705078125,-1.874542236328125,-6.318441251429116,-1.0906312523818602,3.609261861661585,-10.592869349888392,19.15486653645833,-0.7218860444568452,-20.787957443928423,5.360122227309728,-3.415211004273499,-40.61216780476041,-64.27382987382987,7.0990130756628185,30.392877467277685,34.058975050169224,31.20756581903136,1577399235.0,-27.69449526431632,-51.11478143687034,9.471197
23049,1577399235.89,-0.5902904193115224,0.2244564056396484,15.836327171020509,-2.624804156643006,-0.849532823218368,7.690934869533632,-0.8591193623860673,-0.5794538065592447,7.896818137613932,-2.7385711669921875,2.173614501953125,-1.386260986328125,-7.996908048304116,3.731146091368141,2.083382955411585,-9.753635951450892,-3.1687418619791665,-2.7818225678943453,-20.60719259658992,5.172047763193601,-2.9273237179487124,-40.61216780476041,-61.42498982498982,6.9503426447588845,30.15326324617366,34.08293647227963,31.01587444214814,1577399235.0,-27.69449526431632,-51.11478143687034,9.471197
23050,1577399235.9,-0.0707486590576162,-5.576694216918945,10.411066209106444,3.935308392185117,-8.257192759741807,17.215069073635192,4.101666477457682,0.8594613911946605,13.855986069742835,-7.6824188232421875,2.722930908203125,-1.752471923828125,-3.754964688929116,7.1491148413681405,0.3743985804115852,-6.579807826450892,-7.288614908854167,1.5516735258556549,-20.245662901912898,4.419749906729075,-3.5778400997150968,-37.391257028294085,-60.47537647537647,-7.322018722018729,30.249108934615272,34.17878216072124,31.20756581903136,1577399235.0,-27.69449526431632,-51.11478143687034,9.471197
23051,1577399235.91,-1.7011999896240233,-3.640982174682617,15.118066672973631,0.4182261534155866,-5.048962535132431,13.74347666640863,3.3594639628092446,2.300770790608724,22.300335325113927,-2.830123901367188,2.661895751953125,-0.959014892578125,-3.022542813929116,-9.42193008050686,2.174935689786585,-6.946018763950892,1.4699300130208333,3.0470348539806547,-20.336045325582155,6.018382851716186,-4.30967102920227,-39.00171241652724,-62.84940984940984,-8.139706091990364,30.41683888938808,34.08293647227963,30.92002875370653,1577399235.0,-27.69449526431632,-51.11478143687034,9.471197
23052,1577399235.92,0.0920570538330078,-1.3844471099853517,9.67365209777832,-0.3155966554223035,-0.1456375351324309,12.56912075210199,-0.6580064229329429,-2.136881986490884,9.4362898050944,-8.994674682617188,-7.164764404296875,-0.440216064453125,-4.746785977991616,0.4505064429306402,0.3133634241615852,-3.3602033342633923,4.567464192708334,-6.291344052269344,-19.34183866522036,5.360122227309728,-3.089952813390304,-36.31762010280528,-56.67692307692308,-11.930802080040658,30.392877467277685,34.03501362805882,31.27945008536257,1577399235.0,-27.69449526431632,-51.11478143687034,9.471197
23053,1577399235.93,-1.181658229370116,-0.182557876586914,10.640909568481444,-0.1683532533226936,-2.788836167944931,9.85529317031488,-4.869407143147786,-5.209839817301432,9.101101572672526,-3.3489227294921875,-1.702117919921875,-0.562286376953125,-3.083577970179116,2.9987242163681405,0.3438810022865852,-6.579807826450892,11.662801106770834,5.793616885230655,-19.34183866522036,5.360122227309728,-3.089952813390304,-36.31762010280528,-56.67692307692308,-11.930802080040658,30.5845688441609,34.27462784916285,31.111720130589752,1577399235.0,-27.69449526431632,-51.11478143687034,9.471197
23054,1577399235.94,-0.2718615985107411,-2.931101382446289,7.116644724731445,-2.311163739162537,0.7186692641839747,7.765155120998475,1.022723142496744,9.71561333211263,4.585637241617838,-6.675338745117188,-2.495574951171875,-0.897979736328125,-0.2454432045541157,-12.10747695550686,0.6795743616615852,-2.002171107700893,7.939656575520833,0.6666637602306548,-20.06489805457439,4.983973299077471,-2.7646946225071147,-39.53853087927163,-65.22344322344321,-10.741438632809189,30.249108934615272,33.939167939617214,31.39925719591458,1577399235.0,-27.69449526431632,-51.11478143687034,9.471197
23055,1577399235.95,-1.0655394488525385,-2.917933273315429,7.026862162475585,-0.3275676637230848,-3.5142792709722754,8.886838598781678,2.8040091776529943,-1.0499144327799477,7.881255826822916,-2.280807495117188,-4.418182373046875,-1.111602783203125,-0.8100183998666156,-1.4873597680068598,-2.2043367711509148,-1.2087140764508928,3.590901692708334,-2.7360462007068453,-20.60719259658992,5.7362711555419885,-3.252581908831905,0.7228538265575217,-64.27382987382987,-11.782131649136728,30.22514751250487,33.963129361727624,31.08775870847935,1577399235.0,-27.69449526431632,-51.11478143687034,9.471197
23056,1577399235.96,-1.4617798236083983,-1.9710265167236327,14.423748191528318,1.141275054782774,-2.9731896957769623,10.293432074123476,6.172650913492838,-4.716634275309244,6.73563033243815,2.2052764892578125,-4.204559326171875,-1.691436767578125,1.6771642173208845,-11.37505508050686,-0.0223299352134147,-2.673557826450893,-21.937052408854168,-0.5235217866443452,-20.787957443928423,5.360122227309728,-1.7889200498575484,-108.2512941105534,-65.22344322344321,-12.079472510944596,30.201186090394465,34.03501362805883,31.25548866325217,1577399235.0,-27.69449526431632,-51.11478143687034,9.471197
23057,1577399235.97,1.2197260357666015,0.1813607757568359,3.259585850219725,-0.1084982118187874,1.9612599258050685,12.476943988185974,0.1560221415201816,7.991788136800129,5.722883030192057,0.5268096923828125,-5.120086669921875,-1.203155517578125,-1.2525232826791155,-5.66826797113186,1.1373380335365852,1.2632097516741072,-30.543009440104168,-3.1480335053943453,-20.787957443928423,5.360122227309728,-1.7889200498575484,-100.73583563213192,-65.22344322344321,7.247683506566751,30.5366459999401,33.891245095396414,31.063797286368946,1577399235.0,-27.69449526431632,-51.11478143687034,9.471197
23058,1577399235.98,-0.2886210101318355,-1.1893196746826171,13.5163457623291,1.0335359800757429,-1.0099443344488368,16.01557404189691,-6.016229738362631,-23.008334958903,9.27108989054362,-2.921676635742188,-3.945159912109375,-1.920318603515625,0.8837071860708843,-3.2878968773818595,2.235970846036585,-3.314426967075893,-35.303751627604164,2.2840954008556547,-19.70336835989737,4.607824370845208,-4.716243767806265,-98.58856178115435,33.536345136345126,9.329069539221818,30.34495462305688,34.08293647227963,31.25548866325217,1577399235.0,-27.69449526431632,-51.11478143687034,9.471197
23059,1577399235.99,0.276410581665039,-6.807313870239257,11.09101948059082,1.3615416075171494,-2.916925956763291,14.213937292629334,-1.583365364583333,-2.828806266276042,14.030762790934244,-5.485153198242188,-2.983856201171875,-0.104522705078125,-3.388753751429116,-1.0753724633193595,-2.5247713414634148,0.0577654157366072,-30.283610026041668,3.520057314918155,-18.98030897054334,4.983973299077471,-3.415211004273499,-98.58856178115438,-19.167195767195764,7.545024368374618,30.249108934615272,34.03501362805883,31.49510288435619,1577399235.0,-27.69449526431632,-51.11478143687034,9.471197
23060,1577399236.0,0.640329234008789,0.3274070770263672,8.931449583129881,-1.992734918361756,0.405028846703506,7.0301352113305065,1.4560736429850254,8.192901076253255,11.94062474161784,6.0199737548828125,-0.8781433105468749,-0.775909423828125,-6.715169767054116,-2.1282289086318595,-0.2054354039634147,4.101344517299108,-7.654825846354167,-3.880455380394345,-18.98030897054334,4.983973299077471,-3.415211004273499,-100.73583563213192,-64.27382987382987,7.842365230182486,30.48872315571929,34.03501362805883,31.39925719591458,1577399236.0,-27.69454082643119,-51.114862381441256,8.880051
23061,1577399236.01,1.7799692242431642,-2.2391771026611327,13.877870213012692,3.068607391208555,-3.871015318335556,9.232800738674255,-2.0993158223470045,-6.299201572672526,16.391445627848306,4.4940948486328125,-5.669403076171875,-0.745391845703125,-3.541341642054116,3.975286716368141,-3.775992044588415,2.453395298549107,15.294392903645834,-4.521324521019345,-18.98030897054334,4.983973299077471,-3.415211004273499,-30.949435475361405,-63.32421652421653,7.545024368374619,30.392877467277685,34.17878216072124,31.39925719591458,1577399236.0,-27.69454082643119,-51.114862381441256,8.880051
23062,1577399236.02,0.931224735717774,0.0460883819580078,10.327269151000976,-6.129915387111757,0.5367099380120998,14.923818084865662,-0.3922500386555986,-5.487567209879558,19.922893076578774,1.0456085205078125,-2.236175537109375,-0.547027587890625,9.215006014195884,-18.24151015863186,-0.7242342320884148,0.5002702985491072,34.64253743489584,-1.2864612397693451,-20.336045325582155,5.830308387600054,-4.309671029202276,-35.780801640060886,-62.84940984940984,7.173348291114784,30.249108934615272,34.22670500494204,31.30341150747297,1577399236.0,-27.69454082643119,-51.114862381441256,8.880051
23063,1577399236.03,2.5509021588134764,-1.1929109771728514,3.831800046997069,4.383024102634336,-2.919320158423447,9.589536786037536,2.4197398111979163,-1.7909198465983074,7.329392344156901,-7.3467254638671875,-0.0846862792968748,-0.989532470703125,-2.519002774866616,7.42377304449314,-2.997793802400915,-1.9411359514508928,50.49641927083334,-1.316978817894345,-21.87254652795947,5.360122227309728,-4.716243767806261,-33.633527789083345,-64.74863654863654,-2.4158945021889187,30.249108934615272,33.891245095396414,31.23152724114176,1577399236.0,-27.69454082643119,-51.114862381441256,8.880051
23064,1577399236.04,2.4551340924072265,-1.0109516510009764,7.854058836059569,-6.230471856838319,0.5606519546136622,3.065337262111757,-4.845465126546223,3.878549684651692,9.587124509684246,0.6488800048828125,3.394317626953125,0.017547607421875,5.339273592320884,-24.19243789300686,4.738412252286585,-1.8190656389508928,48.71114095052084,-1.1033557710193451,-21.87254652795947,5.360122227309728,-4.716243767806261,-35.780801640060886,-59.05095645095645,1.8212127785731824,30.249108934615272,34.17878216072124,31.20756581903136,1577399236.0,-27.69454082643119,-51.114862381441256,8.880051
23065,1577399236.05,1.406473765258789,-4.798578677368163,10.55471830871582,-2.8378881043969124,-1.1583848373785242,8.323004107814882,3.8191506815592446,-3.519533445231119,2.679852720133463,-1.0295867919921875,0.7087707519531251,-0.074005126953125,0.8837071860708843,13.77142929449314,-1.6397615758384148,1.4157976422991072,12.944539388020834,-6.810142880394345,-21.87254652795947,5.360122227309728,-4.716243767806261,-35.780801640060886,-59.05095645095645,1.8212127785731824,30.392877467277685,34.08293647227963,31.30341150747297,1577399236.0,-27.69454082643119,-51.114862381441256,8.880051
23066,1577399236.06,-0.0934935748291014,-0.4770446807861327,11.003631119995116,5.344296069187072,-1.4301267258062584,13.044369781643008,-3.799199001057943,-3.146037986246744,2.8809656595865887,5.1349639892578125,8.139801025390625,0.078582763671875,0.2428380454458842,-2.5096986351943604,1.167855611661585,4.360743931361608,-42.46012369791667,-8.336021786644345,-19.79375078356663,4.32571267467101,-3.659154647435893,-106.9092479536924,-64.5112332112332,-7.1733482911147926,30.297031778836075,34.058975050169224,31.111720130589752,1577399236.0,-27.69454082643119,-51.114862381441256,8.880051
23067,1577399236.07,1.674624351196289,-2.212840884399414,6.278674143676757,-4.4587626283226935,-1.5989179428472742,-0.5834260679663669,-4.673082607014973,-7.050980893961588,15.321237485758465,0.5573272705078125,1.380157470703125,-0.897979736328125,1.6771642173208845,5.0434019507431405,-1.5482088414634148,-1.2392316545758928,-38.23343912760416,21.81534540085565,-19.52260351255887,5.548196691425858,-4.228356481481481,-104.49356487134264,-64.74863654863654,7.024677860210852,30.392877467277685,33.939167939617214,31.20756581903136,1577399236.0,-27.69454082643119,-51.114862381441256,8.880051
23068,1577399236.08,-0.4873397479248036,-2.488174075317383,6.896378171997069,2.0750137022437114,-5.434429002417588,15.002826739650818,6.953160654703775,19.92448921101888,17.00914965616862,1.0150909423828125,4.523468017578125,1.787567138671875,7.750162264195884,9.89569687261814,1.3814786585365852,4.620143345424108,-13.788859049479166,4.481361025855655,-19.52260351255887,5.548196691425858,-4.228356481481481,-34.70716471457212,-64.74863654863654,7.024677860210852,30.34495462305688,33.939167939617214,31.25548866325217,1577399236.0,-27.69454082643119,-51.114862381441256,8.880051
23069,1577399236.09,-0.3939658831787099,-2.435501638793945,11.514793174438475,2.9656567198218364,-5.467947825659775,10.300614679103942,-2.1567766621907545,-22.42414975382487,7.793867466227213,-1.3957977294921875,2.967071533203125,0.200653076171875,4.515298982945884,-8.90313125238186,1.8087247522865848,-0.0490461077008927,-1.9175211588541667,-3.5447620210193453,-19.52260351255887,5.548196691425858,-4.228356481481481,-40.61216780476041,-65.22344322344321,7.247683506566751,30.48872315571929,33.891245095396414,31.20756581903136,1577399236.0,-27.69454082643119,-51.114862381441256,8.880051
23070,1577399236.1,1.137126078491211,-0.8373720306396484,8.822513407592773,0.1069799375952741,-1.948471385230088,8.963453051906678,4.204617148844401,8.457460359700523,14.568261063639325,1.7780303955078127,2.722930908203125,1.299285888671875,3.981241365758384,2.8766539038681405,3.990731588224085,3.216334751674108,11.967976888020834,0.1326061430431551,-19.61298593622812,5.642233923483925,-3.8217837428774897,-34.17034625182773,-65.22344322344321,7.099013075662818,30.12930182406326,33.939167939617214,31.23152724114176,1577399236.0,-27.69454082643119,-51.114862381441256,8.880051
23071,1577399236.11,0.017836802368164,-3.280654824829101,10.55471830871582,3.4014014219702737,-0.2892896347418054,8.323004107814882,3.4456552225748696,-4.709451670328775,13.468125400797526,4.3415069580078125,1.929473876953125,1.879119873046875,4.271158357945884,2.5409605444931405,1.4425138147865852,3.246852329799107,19.261678059895832,-6.260826474144345,-18.25724958118932,4.983973299077471,-4.065727386039884,-36.31762010280528,-60.47537647537647,-8.214041307442326,30.249108934615272,34.03501362805883,31.543025728577,1577399236.0,-27.69454082643119,-51.114862381441256,8.880051
23072,1577399236.12,-0.7267599139404287,-0.383670816040039,14.56261188781738,1.5291357237280865,-0.3012606430425867,13.978108429103942,-4.503094289143879,-16.89114971720377,8.208064353434244,2.0526885986328125,-0.2067565917968749,0.963592529296875,3.4777013266958843,3.609075778868141,1.9002774866615848,-1.0866437639508928,13.860066731770834,-0.3404163178943452,-18.25724958118932,4.983973299077471,-4.065727386039884,-40.61216780476041,-65.22344322344321,-10.592768201905258,30.249108934615272,34.08293647227963,31.30341150747297,1577399236.0,-27.69454082643119,-51.114862381441256,8.880051
23073,1577399236.13,0.1399410870361332,1.4119804290771485,10.197982261352536,-0.4436864442406624,1.6715615249261622,10.508910223537535,5.0904717631022125,-6.134001658121744,5.258407908121745,5.4096221923828125,3.638458251953125,0.688934326171875,-1.893392423304116,-4.66118789300686,-1.3040682164634148,-0.4457746233258928,4.460652669270833,-0.0962756928943452,-18.61877927586633,5.54819669142586,-3.252581908831905,-36.85443856554967,-63.7990231990232,5.240632689363649,30.34495462305688,34.08293647227963,31.25548866325217,1577399236.0,-27.69454082643119,-51.114862381441256,8.880051
23074,1577399236.14,2.6059687969970704,-1.6885107208251953,5.783074400024414,2.1839498777808206,-2.4344943222418056,14.302522754055117,-1.6300522969563804,2.0864897420247392,4.688587913004557,-10.337448120117188,-5.425262451171875,-0.104522705078125,-1.1914881264291155,3.4259703101181405,0.0844815882240852,3.063746861049107,-34.70865885416667,-2.156212216331845,-19.52260351255887,5.548196691425858,-2.602065527065524,-37.65966625966628,-64.03642653642652,-11.81929925686271,30.201186090394465,34.058975050169224,31.25548866325217,1577399236.0,-27.69454082643119,-51.114862381441256,8.880051
23075,1577399236.15,3.0584729107666013,-1.3078326568603516,4.784692307739257,-1.20504257217035,-0.2054925766363367,8.890429901271913,2.547829600016276,-10.68059061075846,13.858380271402996,-5.546188354492188,2.143096923828125,0.109100341796875,0.0292149985708842,3.2428648413681405,1.0763028772865852,3.033229282924107,-41.01053873697917,6.678626650855655,-20.245662901912898,5.924345619658119,-3.5778400997150968,-37.92807549103848,-62.84940984940984,-11.559126002780824,30.34495462305688,33.84332225117561,31.25548866325217,1577399236.0,-27.69454082643119,-51.114862381441256,8.880051
23076,1577399236.16,1.8637662823486327,-1.379658706665039,8.952997398071288,3.157192852634336,-1.2182398788824305,8.220053436428163,-3.2269848042805984,0.0837400533040355,10.300596604410806,0.8014678955078125,3.180694580078125,0.841522216796875,-1.0694178139291155,8.30878281011814,0.0387052210365852,-0.7204328264508928,-40.24759928385416,16.230628603980655,-20.245662901912898,5.924345619658119,-3.5778400997150968,-100.73583563213192,-63.32421652421653,4.720286181199885,30.34495462305688,34.08293647227963,31.25548866325217,1577399236.0,-27.69454082643119,-51.114862381441256,8.880051
23077,1577399236.17,-1.229542262573242,-3.658938687133789,9.362405881958006,-4.085267169338319,-0.1935215683355554,1.1715237489281634,-1.9724231343587235,12.95496817830404,11.318132309977212,7.698440551757812,4.492950439453125,2.764129638671875,1.7992345298208845,-5.14946914300686,0.4964688929115852,6.542750767299108,-50.40995279947917,-24.418785458519345,-20.245662901912898,5.924345619658119,-3.5778400997150968,-106.6408387223202,-62.84940984940984,7.768030014730519,30.392877467277685,33.891245095396414,31.25548866325217,1577399236.0,-27.69454082643119,-51.114862381441256,8.880051
23078,1577399236.18,-0.7782352496337881,1.7304092498779295,12.005604514770509,-2.8522533143578497,8.016195924340224,2.564949115139101,-1.0434728902180983,-45.14751771036784,17.547845029703776,5.0739288330078125,4.157257080078125,-0.135040283203125,-1.984945157679116,5.0434019507431405,-2.3721834508384148,0.2256120954241072,-35.914103190104164,12.751624697730657,-20.787957443928423,5.360122227309729,-3.4152110042734987,-37.391257028294085,42.08286528286528,7.247683506566751,30.153263246173665,34.08293647227963,31.20756581903136,1577399236.0,-27.69454082643119,-51.114862381441256,8.880051
23079,1577399236.19,0.171065708618164,-2.9071593658447266,7.277056235961913,2.156416558689024,-2.116065501441024,12.316532476955503,-1.3535220052083328,13.662454768880208,3.728513047281901,-7.3162078857421875,0.5256652832031251,-0.806427001953125,-0.9320887123666156,4.46356796636814,0.7558683069740852,1.2632097516741074,-31.870524088541664,-5.269005185081844,-19.884133207235884,6.300494547890383,-2.9273237179487124,-29.875798549872645,39.234025234025225,8.21404130744232,30.249108934615272,34.10689789439003,31.20756581903136,1577399236.0,-27.69454082643119,-51.114862381441256,8.880051
23080,1577399236.2,0.621175620727539,-0.2807201446533203,7.372824302368163,-2.3686245790062874,0.9437242202386622,4.691000189357851,-2.805605312093099,-17.58786240030924,11.624590122477214,-0.0225067138671875,3.119659423828125,-0.684356689453125,9.398111482945884,7.36273788824314,2.388558736661585,0.5307878766741072,-39.42362467447917,10.401771182105657,-19.34183866522036,5.7362711555419885,-3.7404691951566944,-32.02307240085019,35.435571835571835,8.437046953798218,30.392877467277685,34.08293647227963,31.111720130589752,1577399236.0,-27.69454082643119,-51.114862381441256,8.880051
23081,1577399236.21,-3.065894935913086,-0.192134683227539,11.553100401000975,-3.850635406643006,-4.081705064429306,9.316597796779725,-6.241284694417318,-12.83776630655924,19.123229722086585,3.2428741455078125,3.302764892578125,1.482391357421875,4.118570467320884,10.07880234136814,1.9918302210365848,-4.168919154575892,-7.288614908854167,25.81314813523065,-21.14948713860544,6.112420083774249,-4.716243767806261,-32.02307240085019,24.04021164021163,9.031728677413954,30.48872315571929,33.891245095396414,31.30341150747297,1577399236.0,-27.69454082643119,-51.114862381441256,8.880051
23082,1577399236.22,-0.0168791217041011,-2.443881344604492,4.662588023071288,1.1197272398413682,-1.92692357028868,16.73144033828363,6.801128849283854,8.189309773763021,16.79726280924479,-4.493331909179688,-6.417083740234376,0.078582763671875,0.2886144126333843,-0.6481263695693598,-0.0681063024009147,0.5765642438616072,32.063802083333336,-8.168175106956845,-20.787957443928427,5.172047763193597,-3.08995281339031,-32.02307240085019,-18.217582417582413,7.024677860210852,30.32099320094648,34.08293647227963,31.20756581903136,1577399236.0,-27.69454082643119,-51.114862381441256,8.880051
23083,1577399236.23,-0.9087192401123038,4.5699324188232415,13.219464756469725,-5.074072454982851,2.262929334984756,0.6998660218773821,-4.201424879964192,-18.04276071573893,4.343822873942057,2.4188995361328125,10.382843017578123,-3.034210205078125,1.3109532798208845,-6.73638320550686,-1.2430330602134148,-4.413059779575892,21.397908528645832,2.4366832914806547,-20.787957443928423,5.7362711555419885,-2.7646946225071147,-29.875798549872645,-65.22344322344321,7.0990130756628185,30.34495462305688,33.939167939617214,31.20756581903136,1577399236.0,-27.69454082643119,-51.114862381441256,8.880051
23084,1577399236.24,-0.2191891619873036,-1.8441338287353517,12.9034301373291,0.5738492613257429,-3.406540196265244,13.152108856350036,-9.128691896565757,17.195099318440757,5.967091599527994,-6.217575073242188,-7.927703857421875,0.536346435546875,-4.914632657679116,12.70331406011814,0.3743985804115852,3.735133579799107,-14.490763346354166,-12.303306942894343,-19.161073817881853,5.548196691425858,-2.9273237179487124,-40.07534934201602,-64.74863654863654,4.051269242132181,30.249108934615272,34.17878216072124,31.25548866325217,1577399236.0,-27.69454082643119,-51.114862381441256,8.880051
23085,1577399236.25,-0.4346673114013661,-3.886387844848632,12.139679807739256,5.072554180759337,-5.4009101791754,10.85128106093988,1.1256738138834628,-9.148301548258464,5.220100681559245,-3.4404754638671875,2.692413330078125,-0.012969970703125,7.811197420445884,-6.24810195550686,1.0763028772865852,0.3476824079241072,-34.052530924479164,-0.7066272553943452,-21.51101683328245,6.112420083774249,-3.089952813390304,-40.07534934201602,-64.74863654863654,4.051269242132181,30.249108934615272,34.08293647227963,31.39925719591458,1577399236.0,-27.69454082643119,-51.114862381441256,8.880051
23086,1577399236.26,-0.2946065142822261,0.8098387115478515,7.801386399536132,-3.6567050721703502,-0.386254801978134,4.979501489406679,-2.6128720784505206,1.2161974385579457,13.909855607096354,0.2674102783203125,-1.152801513671875,-0.272369384765625,0.3954259360708843,-7.728204494569359,1.610360494474085,-0.5373273577008928,-8.524576822916668,12.263343447730652,-20.51681017292066,5.266084995251662,-3.008638265669508,-107.17765718506458,-63.32421652421653,-9.552075185577728,30.36891604516728,33.91520651750682,31.30341150747297,1577399236.0,-27.69454082643119,-51.114862381441256,8.880051
23087,1577399236.27,1.818276450805664,-6.151302615356445,5.4287325543212885,0.5906086729468366,0.3523564101800684,16.62848966689691,-3.119245729573567,-1.3695403544108071,6.331010251871745,-1.8230438232421875,0.0984191894531251,0.902557373046875,1.8907872641958845,5.0128843726181405,-2.4332186070884148,0.3476824079241072,-3.809611002604168,-6.566002255394345,-21.330251985943946,3.667452050264554,-2.602065527065524,-40.61216780476041,-65.22344322344321,-7.1733482911147926,30.05741755773205,33.939167939617214,31.111720130589752,1577399236.0,-27.69454082643119,-51.114862381441256,8.880051
23088,1577399236.28,1.1814188092041014,3.911526962280273,11.419025108032226,2.271338238376524,-3.9069283432379,8.39483015761957,4.135185300699869,3.452381789143879,11.184057017008463,0.4352569580078124,0.4035949707031251,-0.012969970703125,0.5480138266958843,4.7382261694931405,1.4730313929115852,0.7138933454241072,3.087361653645833,-3.4837268647693453,-20.245662901912898,5.548196691425858,-3.5778400997150968,-40.61216780476041,-62.374603174603166,-7.47068915292266,30.34495462305688,33.939167939617214,31.30341150747297,1577399236.0,-27.69454082643119,-51.114862381441256,8.880051
23089,1577399236.29,0.974320365600586,-1.111508120727539,10.1836170513916,-0.9728050111351936,-0.3275968613043055,7.37968865371332,-2.76011548055013,1.929669533284505,12.340456418863932,-4.523849487304688,5.042266845703124,-0.852203369140625,2.0738927329458843,-6.37017226800686,1.1373380335365852,-2.826145717075893,24.052937825520832,-4.979088192894345,-20.42642774925141,5.360122227309728,-2.7646946225071147,-40.61216780476041,-63.32421652421653,-6.578666567499058,30.297031778836075,33.939167939617214,31.30341150747297,1577399236.0,-27.69454082643119,-51.114862381441256,8.880051
23090,1577399236.3,1.5597026715087892,-2.9885622222900388,7.619427073364257,0.8755186705054303,-4.121209391821884,12.455396173244567,-1.4026031392415368,1.3658350423177112,15.05428400065104,-1.6399383544921875,4.737091064453125,0.109100341796875,1.4330235923208845,9.36163925543064,0.1149991663490852,-4.962376185825892,49.93184407552084,5.259559268043155,-20.06489805457439,4.983973299077471,-3.415211004273499,-38.46489395378285,-64.27382987382987,7.3220187220187185,30.392877467277685,34.058975050169224,31.111720130589752,1577399236.0,-27.69454082643119,-51.114862381441256,8.880051
23091,1577399236.31,-0.8943540301513662,0.1693897674560547,16.07095893371582,3.104520416110899,0.2278579238519435,8.969438556057069,7.901264512125651,-1.740641611735026,8.959843674723308,0.6488800048828125,6.903839111328125,-0.775909423828125,-8.393636563929116,7.85101913824314,0.6185392054115852,-0.0185285295758927,42.72969563802084,-19.261314755394345,-20.60719259658992,5.548196691425858,-3.5778400997150968,-32.02307240085019,-61.42498982498982,6.9503426447588845,30.201186090394465,33.939167939617214,31.25548866325217,1577399236.0,-27.69454082643119,-51.114862381441256,8.880051
23092,1577399236.32,4.224449119262695,-2.397194412231445,10.123762009887692,2.19711798691168,1.3651037124261622,4.875353717189882,-3.212619594319661,-14.681301584879554,3.5752841410319003,-2.2502899169921875,3.821563720703125,-1.905059814453125,-4.304281095179116,9.04120468511814,2.815804830411585,-3.436497279575893,14.714558919270834,-4.368736630394345,-20.787957443928423,6.488569012006514,-3.415211004273499,-40.61216780476041,-61.42498982498982,7.545024368374619,30.201186090394465,33.939167939617214,31.111720130589752,1577399236.0,-27.69454082643119,-51.114862381441256,8.880051
23093,1577399236.33,-2.5140314532470702,1.802235299682617,11.138903513793943,-1.482769964748475,1.6955035415277246,10.616649298244567,-3.298810854085286,-0.2514481791178384,2.7732265848795565,3.899002075195313,11.939239501953123,-0.318145751953125,-6.043783048304116,0.6183531226181402,-0.4190584508384147,-1.2087140764508928,3.8503011067708335,2.5282360258556547,-20.06489805457439,4.983973299077471,-2.114178240740737,-39.53853087927163,-57.62653642653642,-11.930802080040658,30.36891604516728,34.08293647227963,31.20756581903136,1577399236.0,-27.69454082643119,-51.114862381441256,8.880051
23094,1577399236.34,-0.4155136981201162,-4.496909268188476,8.957785801391601,-2.078926178127381,-1.4409006332769625,5.039356530910585,-1.7270174641927083,4.971502742513021,9.14898560587565,-18.058395385742188,-26.451873779296875,0.811004638671875,-1.5424402748666155,5.3790953101181405,-0.4343172399009147,-3.955296107700892,14.424641927083332,12.232825869605657,-20.42642774925141,4.983973299077471,-3.089952813390304,-35.5123924086887,-64.5112332112332,-11.967969687766644,30.249108934615272,33.98709078383802,31.35133435169377,1577399236.0,-27.69454082643119,-51.114862381441256,8.880051
23095,1577399236.35,-1.3851653704833982,-1.9494787017822264,13.080601060180664,3.693494024509336,-3.181485240210556,7.698117474514101,3.06258295694987,18.128837965901692,0.2018540018717445,-3.654098510742188,5.896759033203125,0.139617919921875,-4.151693204554116,0.0385191382431402,2.663216939786585,3.155299595424107,1.1342366536458333,-17.155601864769345,-22.05331137529798,5.548196691425858,-2.9273237179487124,-34.17034625182773,-65.22344322344321,-12.079472510944596,30.249108934615272,34.03501362805883,31.20756581903136,1577399236.0,-27.69454082643119,-51.114862381441256,8.880051
23096,1577399236.36,2.555690562133789,-1.3916297149658203,8.7279424420166,-3.7021949037133184,4.491931080590224,3.900913641506288,3.474385642496745,-15.55757939249674,-4.438108815511066,-1.5483856201171875,1.532745361328125,-0.806427001953125,0.4259435141958843,-0.5413148461318598,1.7171720179115852,0.1950945172991072,-33.808390299479164,-16.667320614769345,-20.06489805457439,5.360122227309728,-2.7646946225071147,-102.88310948310946,-61.42498982498982,4.720286181199885,30.249108934615272,34.17878216072124,31.25548866325217,1577399236.0,-27.69454082643119,-51.114862381441256,8.880051
23097,1577399236.37,-1.5611391925048823,-0.2507926239013672,9.994475120239256,1.5877936644019146,-4.722154008521103,15.291328039699646,-1.3128205769856771,-5.953239432779946,17.73459275919596,2.1442413330078125,3.379058837890625,1.161956787109375,-3.449788907679116,2.7088072241806405,-0.2664705602134147,-2.0632062639508923,-30.039469401041668,11.469886416480657,-21.330251985943946,5.548196691425858,-2.602065527065524,-104.49356487134264,-15.368742368742367,7.693694799278552,30.297031778836075,33.963129361727624,31.063797286368946,1577399236.0,-27.69454082643119,-51.114862381441256,8.880051
23098,1577399236.38,1.167053599243164,-3.51768078918457,11.6009844342041,-1.0901208924828498,0.7617648940667872,8.665374945217225,2.284467417399088,-9.81867801310221,18.215827292887365,-6.339645385742188,-0.5424499511718749,0.322723388671875,3.752359529820884,-3.3794496117568595,2.663216939786585,-7.403782435825892,30.064900716145832,20.19791376023065,-19.884133207235884,4.419749906729075,-3.252581908831901,-34.17034625182773,33.536345136345126,9.329069539221818,30.48872315571929,34.03501362805883,31.111720130589752,1577399236.0,-27.69454082643119,-51.114862381441256,8.880051
23099,1577399236.39,-3.001251491088867,-0.7978677032470702,13.643238450317382,1.332811187595274,-4.158319517554306,21.17747282119379,4.060965049235026,23.439177248128253,16.992390244547526,4.9518585205078125,-2.129364013671875,1.482391357421875,1.7076817954458845,-1.97564101800686,-3.623404153963415,-2.459934779575893,51.79341634114584,7.166907900855655,-20.245662901912898,4.795898834961333,-3.5778400997150968,-34.17034625182773,41.133251933251934,6.9503426447588845,30.249108934615272,34.03501362805883,31.447180040135382,1577399236.0,-27.69454082643119,-51.114862381441256,8.880051
23100,1577399236.4,-1.373194362182617,-0.8002619049072265,11.019193430786132,0.7653853941382428,-4.438441111792587,10.77466660781488,6.728105698649088,-7.091682322184244,33.70870623575846,4.8297882080078125,16.089630126953125,0.231170654296875,-1.1304529701791155,-6.15654922113186,1.9002774866615848,-0.4152570452008928,92.99214680989584,-20.298912411644345,-21.51101683328245,4.983973299077471,-2.7646946225071147,-34.17034625182773,41.133251933251934,6.9503426447588845,30.34495462305688,33.891245095396414,31.111720130589752,1577399236.0,-27.69454082643119,-51.114862381441256,8.880051
23101,1577399236.41,3.118327952270508,0.9307458953857422,5.41436734436035,1.9888224424780865,1.191524092064834,9.520104937893006,-7.469510146077472,-7.204209800211589,5.61873525797526,-10.993576049804688,-8.919525146484375,0.093841552734375,-8.149495938929116,10.90277695074314,3.044686666349085,-6.122044154575892,111.18062337239584,6.388709658668156,-21.87254652795947,2.7270797296838984,-3.089952813390304,-39.53853087927163,-19.167195767195764,7.099013075662818,30.32099320094648,33.963129361727624,31.15964297481056,1577399236.0,-27.69454082643119,-51.114862381441256,8.880051
23102,1577399236.42,0.2692279766845703,-4.556764309692382,5.914755491333007,0.0782495176733991,4.472777467308974,10.437084173732847,5.947595957438151,49.57428257039388,-10.605572292073568,-2.7080535888671875,1.319122314453125,1.970672607421875,4.637369295445884,-19.21807265863186,-0.6631990758384148,10.387965611049108,58.44624837239584,-31.559898739769345,-20.06489805457439,5.7362711555419885,-3.415211004273499,-40.61216780476041,-65.22344322344321,7.247683506566751,30.48872315571929,33.939167939617214,31.111720130589752,1577399236.0,-27.69454082643119,-51.114862381441256,8.880051
23103,1577399236.43,4.178959287719726,-0.4435258575439453,7.866029844360351,-0.8411239198265998,-1.4792078598394616,9.81698594375238,12.792618503824867,-44.35982536417643,-19.361167763264973,3.1818389892578125,5.469512939453125,0.200653076171875,-12.421956876429116,24.81879257574314,-1.6702791539634148,2.422877720424107,-42.87211100260416,-50.023033505394345,-20.06489805457439,6.488569012006514,-3.7404691951566944,-39.53853087927163,-65.22344322344321,6.9503426447588845,30.48872315571929,33.891245095396414,31.25548866325217,1577399236.0,-27.69454082643119,-51.114862381441256,8.880051
23104,1577399236.44,0.3051410015869141,1.2874819427490234,9.428246427612304,3.1404334410132426,-1.9891728134527429,10.760301397853944,-10.189323232014972,-27.109602402750653,-5.335934438069661,8.247756958007812,9.955596923828123,0.063323974609375,-2.259603360804116,9.92621445074314,1.4425138147865852,3.643580845424107,-104.36503092447916,14.796302432105657,-20.155280478243643,6.582606244064577,-2.520750979344725,-39.53853087927163,-65.22344322344321,-11.782131649136728,30.297031778836075,34.08293647227963,31.20756581903136,1577399236.0,-27.69454082643119,-51.114862381441256,8.880051
23105,1577399236.45,-0.6357802508544912,-0.8553285430908203,6.874830357055664,-1.9125291627465215,0.4636867873773338,6.176602319484804,-3.4927411885579422,7.210081294759114,14.731066776529945,-0.1445770263671875,3.119659423828125,0.872039794921875,4.759439607945884,-3.3641908226943604,-2.1433016149009148,-3.726414271763392,-101.74051920572916,31.33682977585565,-21.330251985943946,7.052792404354905,-2.9273237179487124,-61.81649708316374,-14.181725681725675,-4.534448142569969,30.34495462305688,33.939167939617214,31.25548866325217,1577399236.0,-27.69454082643119,-51.114862381441256,8.880051
23106,1577399236.46,3.654629124145508,-2.6318261749267577,3.491823411254882,2.19711798691168,-2.2429581894293054,11.401947442775818,3.3642523661295574,-5.6024888895670575,15.390669333902991,-13.511276245117188,2.936553955078125,-0.928497314453125,-8.851400235804116,-3.0437562523818595,-3.714956888338415,-1.9716535295758928,-62.06766764322917,9.577796572730657,-21.691781680620963,4.419749906729075,-2.602065527065524,-99.66219870664315,-62.374603174603166,-9.106063892865928,30.392877467277685,33.939167939617214,31.25548866325217,1577399236.0,-27.69454082643119,-51.114862381441256,8.880051
23107,1577399236.47,-4.126526271362304,-2.021304751586914,5.687306333618164,0.3990725401343366,-1.685109202612899,3.848241204982851,4.410518491617839,7.96545191853841,13.032380698649089,4.4635772705078125,2.295684814453125,1.055145263671875,-0.0013025795541157,-7.4688050805068595,0.1912931116615852,2.697535923549107,-18.488566080729168,1.8873668852306549,-21.330251985943946,5.924345619658119,-2.9273237179487124,-99.66219870664315,-62.374603174603166,-9.106063892865928,30.249108934615272,33.939167939617214,31.111720130589752,1577399236.0,-27.69454082643119,-51.114862381441256,8.880051
23108,1577399236.48,-1.744295619506835,-2.5540146209716794,10.74505734069824,-5.497846148830507,-2.2070451645269613,12.883958270412537,-3.018689259847005,17.97321485799154,9.52726946818034,-3.776168823242188,-5.684661865234376,0.154876708984375,-3.419271329554116,-8.14019179925686,-1.3040682164634148,8.556910923549108,-22.425333658854168,-23.961021786644345,-20.96872229126693,6.112420083774252,-3.252581908831905,-40.07534934201602,-62.84940984940984,-7.247683506566755,30.392877467277685,34.17878216072124,31.30341150747297,1577399236.0,-27.69454082643119,-51.114862381441256,8.880051
23109,1577399236.49,-3.008434096069336,4.3257238494873045,11.7925205670166,-3.8231020875512094,6.033796949730849,5.630724340969178,2.08574867960612,-21.49879081217448,9.842106986490885,9.651565551757812,3.516387939453125,-0.287628173828125,2.1501866782583843,8.67499374761814,-0.7700105992759152,0.4850115094866072,-16.138712565104168,-3.331138974144344,-21.330251985943946,6.300494547890383,-3.5778400997150968,-37.928075491038456,-12.519902319902323,7.545024368374619,30.249108934615272,34.08293647227963,31.423218618024983,1577399236.0,-27.69454082643119,-51.114862381441256,8.880051
23110,1577399236.5,-0.1856703387451161,4.004900827026367,6.805398508911132,0.7414433775366803,-4.311548423804306,3.2233545716820697,2.825556992594401,19.43846627400716,-3.985604701741536,4.2194366455078125,-6.462860107421875,-1.721954345703125,-9.766927579554116,-8.14019179925686,0.0692227991615852,4.284449986049108,-35.395304361979164,16.871497744605655,-21.330251985943946,6.300494547890383,-3.5778400997150968,-33.633527789083345,-64.74863654863654,7.173348291114784,30.249108934615272,34.03501362805883,31.20756581903136,1577399236.0,-27.69454082643119,-51.114862381441256,8.880051
23111,1577399236.51,-0.6166266375732412,-4.987720608520507,4.356130210571288,-6.481863031154726,0.002802967797256,2.9073199525414446,1.269325913492838,25.79746588338216,-1.802092787679036,-16.898727416992188,-22.606658935546875,2.886199951171875,15.837320467320884,-15.95269179925686,1.0457852991615852,4.498073032924108,-69.26981608072917,-11.235191708519343,-20.06489805457439,5.7362711555419885,-2.7646946225071147,-34.70716471457212,-60.95018315018314,7.173348291114784,30.392877467277685,34.17878216072124,31.25548866325217,1577399236.0,-27.69454082643119,-51.114862381441256,8.880051
23112,1577399236.52,-1.401924782104492,0.6661866119384765,4.3226113873291006,-1.873024835353944,3.345108485375381,5.7157184999047255,-6.576472926839193,-23.20944789835612,20.40412761027018,2.235794067382812,-0.817108154296875,-0.516510009765625,-7.844320157679116,26.68036484136814,2.174935689786585,0.4697527204241072,-70.18534342447917,15.131995791480657,-19.522603512558867,5.1720477631936,-3.577840099715094,-34.70716471457212,-60.95018315018314,7.173348291114784,30.297031778836075,34.17878216072124,31.20756581903136,1577399236.0,-27.69454082643119,-51.114862381441256,8.880051
23113,1577399236.53,-2.1201852801513668,-3.4554315460205074,10.7965326763916,1.647648705905821,-1.6994744125738377,12.80494961562738,1.4596649454752606,6.302678865559898,21.17386344401041,-11.130905151367188,-23.613739013671875,0.017547607421875,0.9447423423208844,-14.59465957269436,1.793465963224085,-7.281712123325892,1.897176106770832,15.696570986793157,-20.06489805457439,5.360122227309728,-4.065727386039884,-37.65966625966627,-61.187586487586486,-9.366237146947809,30.392877467277685,34.058975050169224,31.15964297481056,1577399236.0,-27.69454082643119,-51.114862381441256,8.880051
23114,1577399236.54,0.1567004986572265,-3.048417263793945,19.082864622192385,-0.3359473695336311,1.3124312759027246,16.78171857314691,-10.725624403889972,-3.902605710856119,13.980484556070962,-2.5249481201171875,-6.981658935546875,0.139617919921875,1.1583653891958845,-0.5107972680068598,2.113900533536585,-2.978733607700893,79.56441243489583,-10.838463192894343,-20.06489805457439,5.360122227309728,-4.065727386039884,-35.780801640060886,-60.95018315018314,7.024677860210852,30.34495462305688,33.939167939617214,31.25548866325217,1577399236.0,-27.69454082643119,-51.114862381441256,8.880051
23115,1577399236.55,-1.4952986468505858,0.0808043060302734,19.748452683715826,-1.944850885158631,-6.064104039038681,12.4865207948266,5.741694614664713,0.2154211446126293,29.312951987711585,6.0504913330078125,12.671661376953123,-2.271270751953125,-13.215413907679116,11.36054062261814,-0.9683748570884148,-1.2697492327008928,113.74409993489584,-5.558922177269345,-19.70336835989737,5.360122227309728,-4.065727386039884,-38.46489395378285,-65.22344322344321,6.9503426447588845,30.48872315571929,34.08293647227963,31.20756581903136,1577399236.0,-27.69454082643119,-51.114862381441256,8.880051
23116,1577399236.56,-0.302986220092773,-3.180098355102539,9.358814579467772,2.1839498777808206,1.4812224929437408,16.063458075100037,-5.597244447835286,-8.054151389567055,3.303542252604167,-1.5636444091796875,-3.701019287109375,1.024627685546875,3.0809728110708843,-13.03826308831936,1.045785299161585,0.4239763532366072,90.06245930989584,-12.959434872581843,-20.96872229126693,5.172047763193596,-3.903098290598285,-69.60036479295738,-13.944322344322345,-2.564564933092856,30.12930182406326,33.98709078383802,31.30341150747297,1577399236.0,-27.69454082643119,-51.114862381441256,8.880051
23117,1577399236.57,1.387320151977539,3.631405368041992,8.409513621215819,-5.349405645900819,-0.686727110327743,2.806763482814882,-9.837375587972003,0.8498845845540355,-9.173839699300128,6.1115264892578125,-4.814910888671875,-0.074005126953125,4.240640779820884,3.4564878882431405,-1.4871736852134148,1.6294206891741072,-0.3916422526041667,2.3756481352306547,-21.330251985943946,5.172047763193601,-2.9273237179487124,-100.19901716938752,37.8096052096052,-12.005137295492622,30.34495462305688,34.08293647227963,31.20756581903136,1577399236.0,-27.69454082643119,-51.114862381441256,8.880051
23118,1577399236.58,3.0584729107666013,-5.136161111450195,8.088690598754882,7.1962110533179295,1.8559150527581931,16.683556305080504,6.924430234781901,-0.6895870829264321,4.113979514567057,-8.109664916992188,-11.894989013671877,1.268768310546875,-4.212728360804116,11.05536484136814,-0.4800936070884147,4.406520298549108,-32.374064127604164,2.3451305571056547,-21.330251985943946,5.172047763193601,-2.9273237179487124,-29.33898008712823,-63.7990231990232,9.254734323769853,30.680414532602512,34.17878216072124,31.25548866325217,1577399236.0,-27.69454082643119,-51.114862381441256,8.880051
23119,1577399236.59,2.385702244262695,2.3050176483154297,2.213319724731444,2.2450020201148053,-4.242116575659774,7.319833612209413,-1.278104652913411,-6.608053586832682,8.437907712809244,-3.5320281982421875,-1.732635498046875,-0.196075439453125,2.2264806235708843,-4.72222304925686,0.0997403772865852,-1.6969953264508928,-39.05741373697917,17.573402041480655,-20.42642774925141,5.7362711555419885,-4.390985576923072,-29.875798549872645,-65.22344322344321,6.9503426447588845,30.249108934615272,34.22670500494204,31.20756581903136,1577399236.0,-27.69454082643119,-51.114862381441256,8.880051
23120,1577399236.6,-0.6992265948486327,-0.969053121948242,9.272623319702149,-3.6207920472680057,-2.001143821753524,9.98338295913324,0.8012594889322915,15.023558412679035,8.08955137125651,-0.5565643310546875,0.2052307128906251,-0.012969970703125,-0.3217371498666157,-7.16362929925686,-0.1444002477134147,0.3171648297991072,-32.984415690104164,-4.872276669456844,-20.60719259658992,4.9839732990774674,-3.740469195156688,-33.09670932633896,-22.49084249084249,8.139706091990352,30.32099320094648,34.058975050169224,31.27945008536257,1577399236.0,-27.69454082643119,-51.114862381441256,8.880051
23121,1577399236.61,0.3003525982666015,-3.97736750793457,15.367063645629882,7.370987774509336,-2.0633930649175865,16.492020172268006,-6.128757216389974,-10.831425315348303,12.388340452067055,-1.0906219482421875,-1.488494873046875,-0.165557861328125,-2.015462735804116,6.9354917944931405,-3.0740877477134148,0.8969988141741072,-32.984415690104164,-10.441734677269343,-20.787957443928423,5.360122227309728,-2.7646946225071147,-31.4862539381058,26.41424501424502,8.957393461961988,30.48872315571929,34.03501362805883,31.39925719591458,1577399236.0,-27.69454082643119,-51.114862381441256,8.880051
23122,1577399236.62,-0.6333860491943349,2.044049667358398,16.935265733032224,-0.977593414455506,7.465529542504287,10.09710753799066,5.021039914957681,-15.57673300577799,16.796065708414712,1.4728546142578125,-0.6645202636718749,1.787567138671875,-0.1538904701791157,-12.07695937738186,2.327523580411585,2.544948032924107,-45.34403483072917,2.2230602446056547,-20.787957443928423,5.360122227309728,-2.7646946225071147,-35.243983177316515,-65.22344322344321,8.734387815606086,30.392877467277685,33.939167939617214,31.01587444214814,1577399236.0,-27.69454082643119,-51.114862381441256,8.880051
23123,1577399236.63,-0.1234210955810541,-2.3122002532958983,9.439020335083006,-2.6415635682641,0.2781361587152248,-0.5786376646460544,9.761559202067057,-7.256882236735026,8.718029307047525,1.7322540283203125,-1.702117919921875,-0.089263916015625,-5.616536954554116,-8.04863906488186,0.4354337366615852,-2.154758998325893,-43.75712076822917,0.1173473539806547,-20.42642774925141,5.172047763193597,-2.7646946225071183,-35.243983177316515,-65.22344322344321,8.734387815606086,30.273070356725672,33.891245095396414,31.20756581903136,1577399236.0,-27.69454082643119,-51.114862381441256,8.880051
23124,1577399236.64,-2.132156288452148,-1.753154165649414,7.691253123168944,-2.715783819728944,-4.036215232886337,11.908321093898865,2.134829813639323,-2.257789170328776,12.067517429606117,-4.722213745117188,-6.005096435546875,2.275848388671875,4.149088045445884,-12.65679336175686,-0.7547518102134148,0.6375994001116072,-18.839518229166668,5.702064150855656,-18.799544123204832,4.795898834961333,-3.903098290598285,-35.24398317731651,-64.74863654863654,-2.490229717640887,30.34495462305688,33.891245095396414,31.423218618024983,1577399236.0,-27.69454082643119,-51.114862381441256,8.880051
23125,1577399236.65,-3.288555690307617,1.4981716888427734,20.59839427307129,-4.477916241603944,-2.439282725562118,9.481797711330506,-1.393026332600911,-8.8179017191569,32.478086582438145,9.926223754882812,2.204132080078125,0.627899169921875,4.149088045445884,3.670110935118141,-0.6631990758384148,-6.030491420200892,40.10518391927084,17.115638369605655,-20.42642774925141,4.983973299077471,-1.7889200498575484,-100.73583563213192,-63.32421652421653,5.166297473911683,30.5366459999401,34.03501362805883,31.39925719591458,1577399236.0,-27.69454082643119,-51.114862381441256,8.880051
23126,1577399236.66,3.290710471801758,-4.6261961578369135,3.178182993774413,8.908065240329648,-2.805595579566025,14.7466471620141,-12.696052370198569,2.6335648213704417,22.209355662027992,-8.842086791992188,-15.984344482421877,-0.684356689453125,-5.647054532679116,0.4047300757431402,1.4730313929115852,-8.014133998325892,111.05855305989584,5.061195010230655,-20.42642774925141,4.983973299077471,-1.7889200498575484,-105.03038333408703,-51.92885632885632,-7.916700445634458,30.5366459999401,33.891245095396414,31.111720130589752,1577399236.0,-27.69454082643119,-51.114862381441256,8.880051
23127,1577399236.67,1.606389603881836,2.893991256713867,11.523172880249025,-1.2912338319359749,0.0051971694574122,8.916766119533632,4.202222947184245,3.6822251485188793,16.1400544535319,3.1055450439453125,1.074981689453125,0.490570068359375,-3.114095548304116,-2.4334046898818595,2.510629049161585,-9.234837123325892,163.09102376302084,4.664466494605655,-19.79375078356663,5.642233923483927,-2.84600917022792,-105.03038333408703,-51.92885632885632,-7.916700445634458,30.22514751250487,34.08293647227963,31.25548866325217,1577399236.0,-27.69454082643119,-51.114862381441256,8.880051
23128,1577399236.68,5.687306333618164,-5.306149429321289,10.391912595825197,1.181976483005431,-3.9643891830816496,15.42420623183832,8.24722665201823,4.937983919270832,-11.86133106282552,-16.868209838867188,-12.688446044921877,1.207733154296875,-9.248128751429116,13.58832382574314,2.663216939786585,2.804347446986608,87.40743001302084,-44.728233700706845,-20.42642774925141,4.2316754426129455,-2.114178240740737,-72.28445710667933,-56.67692307692308,-8.660052600154128,30.48872315571929,33.963129361727624,31.32737292958337,1577399236.0,-27.69454082643119,-51.114862381441256,8.880051
23129,1577399236.69,5.045660288696288,0.8062474090576172,6.010523557739257,5.685469805759336,4.441652845726943,17.080993780666443,-3.08572690633138,-43.89056183878581,-14.05082848103841,-4.661178588867188,7.392120361328125,0.597381591796875,4.454263826695884,-10.15435195550686,1.9613126429115848,-1.2087140764508928,-60.72489420572917,4.908607119605655,-20.245662901912898,5.924345619658119,-2.602065527065524,-32.02307240085019,42.08286528286528,8.139706091990352,30.249108934615272,33.939167939617214,31.25548866325217,1577399236.0,-27.69454082643119,-51.114862381441256,8.880051
23130,1577399236.7,-3.903865516967773,7.823652474975585,15.079759446411131,6.21937677597418,4.755293263207412,0.8147877015648821,-7.799909975179037,16.965255959065757,4.159469346110026,20.69892883300781,30.585479736328125,0.749969482421875,-10.224691251429116,23.23187851324314,5.531869283536585,-7.129124232700892,-87.54984537760417,50.837562197730655,-20.245662901912898,5.924345619658119,-2.602065527065524,-32.02307240085019,29.737891737891733,6.9503426447588845,30.249108934615272,34.17878216072124,31.20756581903136,1577399236.0,-27.69454082643119,-51.114862381441256,8.880051
23131,1577399236.71,-2.330875026245117,-0.3920505218505859,3.121919254760741,-4.865776910549256,-1.9963554184332115,13.99965624404535,9.1462493754069,17.48000931599935,18.02668536173502,-2.6622772216796875,0.189971923828125,1.207733154296875,-0.3064783608041157,-23.46001601800686,-6.003775247713415,0.1645769391741072,-82.33133951822917,8.753821963355655,-20.064898054574392,5.736271155541992,-2.9273237179487124,-32.02307240085019,29.737891737891733,6.9503426447588845,30.17722466828406,33.939167939617214,31.447180040135382,1577399236.0,-27.69454082643119,-51.114862381441256,8.880051
23132,1577399236.72,-3.025193507690429,-4.789001870727539,11.258613596801757,-0.8387297181664441,-5.542168077124618,12.785796002346132,-7.706536110432942,-3.792472434488933,16.949294614664712,-16.074752807617188,-2.800750732421875,-0.745391845703125,2.6232091391958843,5.86737656011814,2.373299947599085,-1.0103498186383928,-39.95768229166667,14.399573916480657,-21.330251985943946,5.924345619658119,-4.553614672364669,-30.144207781244816,-22.25343915343915,-0.4460112927118045,30.34495462305688,34.058975050169224,31.15964297481056,1577399236.0,-27.69454082643119,-51.114862381441256,8.880051
23133,1577399236.73,-1.3181277239990232,-3.0699650787353514,15.872240195922853,-2.191453656154725,-6.698567478980087,-2.81003361191168,13.477360178629556,29.843666689046223,5.555288913981119,5.6232452392578125,-3.533172607421875,0.444793701171875,12.755045076695884,4.7687437476181405,0.6185392054115852,11.395045689174108,-36.92118326822917,-18.345787411644345,-21.87254652795947,5.7362711555419885,-2.7646946225071147,-35.780801640060886,-60.95018315018314,-11.70779643368476,30.201186090394465,34.08293647227963,31.111720130589752,1577399236.0,-27.69454082643119,-51.114862381441256,8.880051
23134,1577399236.74,1.2269086407470704,-1.3964181182861328,9.450991343383787,6.245712994235898,-3.653142967261337,14.212740191799256,-1.5701972554524737,1.9919187764485675,6.12989731241862,7.1796417236328125,1.929473876953125,4.442596435546875,-5.708089688929116,16.39594101324314,1.0457852991615852,6.969996861049108,-47.99906412760416,-37.449791317894345,-21.87254652795947,5.7362711555419885,-2.7646946225071147,-34.17034625182773,-65.22344322344321,-11.33612035642493,30.249108934615272,34.03501362805883,31.063797286368946,1577399236.0,-27.69454082643119,-51.114862381441256,8.880051
23135,1577399236.75,0.9479841473388672,8.452130410766602,8.992501725463866,-2.0908971864281622,5.2772292251214745,-2.550262731784727,-2.754129976399739,-17.17486261393229,17.412572635904944,14.427566528320312,-1.686859130859375,1.024627685546875,-0.8252771889291157,-7.3162171898818595,4.891000142911585,-3.0397687639508923,-12.308756510416668,21.66275751023065,-19.79375078356663,5.642233923483923,-3.3338964565527034,-36.31762010280529,-65.22344322344321,-2.713235363996789,30.440800311498485,34.058975050169224,31.25548866325217,1577399236.0,-27.69454082643119,-51.114862381441256,8.880051
23136,1577399236.76,2.002629978637695,-11.205462319946289,-2.678034266967773,1.9696688291968365,-3.1719084335699312,19.07775796523676,3.639585557047526,13.651680861409508,22.376949778238927,-25.199508666992188,6.476593017578125,1.238250732421875,2.6232091391958843,-3.80669570550686,-2.5858064977134148,-2.276829310825893,36.68721516927084,-2.4156116303943453,-19.884133207235884,5.548196691425858,-3.5778400997150968,-98.58856178115435,-65.22344322344321,-11.48479078732886,30.249108934615272,33.891245095396414,31.20756581903136,1577399236.0,-27.69454082643119,-51.114862381441256,8.880051
23137,1577399236.77,2.275568967895508,-4.171297842407227,9.02242924621582,9.817861871189024,-4.515055564917588,6.1658284120141005,4.26926059366862,-21.62209219767253,11.447419199625651,-10.764694213867188,2.417755126953125,0.170135498046875,-10.011068204554116,14.07660507574314,3.456673971036585,-4.809788295200892,41.63106282552084,9.333655947730657,-20.96872229126693,5.172047763193601,-2.9273237179487124,-98.58856178115435,35.435571835571835,-11.48479078732886,30.392877467277685,34.03501362805883,31.20756581903136,1577399236.0,-27.69454082643119,-51.114862381441256,8.880051
23138,1577399236.78,-3.903865516967773,1.830965719604492,20.612759483032228,-9.419548468166443,6.206179469262099,11.468985089260192,3.15835102335612,8.760326869710285,4.899277659098306,15.968704223632812,20.758819580078125,-1.386260986328125,-8.942952970179116,-3.0437562523818595,-2.7078768102134148,-5.023411342075892,32.01802571614584,8.387611025855655,-21.14948713860544,5.360122227309728,-3.415211004273499,-98.58856178115435,-63.32421652421653,-9.700745616481662,30.392877467277685,34.17878216072124,31.30341150747297,1577399236.0,-27.69454082643119,-51.114862381441256,8.880051
23139,1577399236.79,0.0776918438720703,-4.506486074829101,9.893918650512694,2.1612049620093368,-1.043463157691024,12.943813311916443,0.0363120585123699,5.140293959554037,7.058847556559244,-4.294967651367188,-32.158660888671875,3.038787841796875,0.853189607945884,0.99982284918064,0.771127096036585,4.253932407924108,7.115681966145833,-11.708214169456843,-21.14948713860544,5.360122227309728,-3.415211004273499,-27.728524698895075,-65.22344322344321,9.329069539221818,30.201186090394465,33.96312936172762,31.20756581903136,1577399236.0,-27.69454082643119,-51.114862381441256,8.880051
23140,1577399236.8,0.4667496136474614,0.3824737152099609,4.189733195190429,-0.6639529969750374,-1.0961355942144615,-0.7893274107398044,1.2549607035319004,1.9129101216634117,12.3859462504069,-0.5260467529296875,4.096221923828124,0.841522216796875,3.843912264195884,13.25263046636814,3.822884908536585,1.4157976422991072,-0.8494059244791667,-0.6455920991443452,-20.69757502025917,5.078010531135531,-3.008638265669512,-40.61216780476041,18.34253154253154,9.477739970125754,30.297031778836075,34.08293647227963,31.20756581903136,1577399236.0,-27.69454082643119,-51.114862381441256,8.880051
23141,1577399236.81,-1.4067131854248045,-2.109890213012695,6.2762799420166,-1.4420685365258186,1.1256835464105373,11.96219063125238,-3.4472513570149736,0.7421455098470042,12.36679263712565,-13.084030151367188,-2.983856201171875,0.353240966796875,-3.785482267054116,-7.9265687523818595,-1.4871736852134148,-2.032688685825893,4.735310872395833,-3.0869983491443453,-20.42642774925141,4.983973299077471,-3.415211004273499,-40.07534934201602,22.615791615791608,7.024677860210852,30.201186090394465,34.03501362805883,31.20756581903136,1577399236.0,-27.69454082643119,-51.114862381441256,8.880051
23142,1577399236.82,1.7536330059814451,3.293822933959961,9.403107310180664,-0.4388980409203499,0.3332027968988185,11.344486602932069,-4.479152272542318,-1.0582941385904945,8.445090317789713,0.4352569580078124,4.126739501953125,-0.806427001953125,8.787759920445884,-0.6633851586318598,-0.6631990758384148,0.9275163922991072,-2.7720133463541665,-0.5235217866443452,-19.884133207235884,6.300494547890383,-2.602065527065524,-40.61216780476041,-63.32421652421653,7.693694799278552,30.05741755773205,34.08293647227963,31.111720130589752,1577399236.0,-27.69454082643119,-51.114862381441256,8.880051
23143,1577399236.83,0.3877409588623052,-0.9247603912353516,11.556691703491207,0.4804753965796491,0.8886575820550692,8.959861749416444,-3.729767152913411,0.5314557637532548,6.541699997965495,-1.762008666992188,4.615020751953125,0.688934326171875,-7.096639493616616,3.3038999976181405,1.0152677210365852,-3.375462123325893,1.0732014973958328,10.615394228980657,-19.884133207235884,6.300494547890383,-2.602065527065524,-37.39125702829407,-65.22344322344321,7.024677860210852,30.22514751250487,34.058975050169224,31.25548866325217,1577399236.0,-27.69454082643119,-51.114862381441256,8.880051
23144,1577399236.84,-4.2917261859130855,-0.7739256866455078,15.402976670532226,0.1021915342749616,-3.6387777573004,7.401236468654726,6.086459653727212,-2.197934128824869,20.657912986246743,1.5644073486328125,2.936553955078125,2.031707763671875,7.963785311070884,-8.90313125238186,0.1912931116615852,-5.420139857700892,18.620808919270832,11.378333682105657,-21.14948713860544,4.607824370845206,-3.415211004273499,-36.31762010280528,-65.22344322344321,6.9503426447588845,30.5845688441609,33.747476562734,31.20756581903136,1577399236.0,-27.69454082643119,-51.114862381441256,8.880051
23145,1577399236.85,-1.9238607440185544,-3.0077158355712887,17.49311471984863,-6.254413873439882,-3.782429856909775,7.362929242092226,-2.456051869710286,6.830600331624348,11.12899037882487,0.2826690673828124,0.8613586425781251,0.505828857421875,3.5082189048208843,-0.8770082055068598,3.426156392911585,-3.222874232700893,27.074178059895832,-2.3545764741443453,-20.787957443928423,4.607824370845206,-4.390985576923072,-109.32493103604212,-64.27382987382987,6.058320059335285,30.34495462305688,34.03501362805883,31.20756581903136,1577399236.0,-27.69454082643119,-51.114862381441256,8.880051
23146,1577399236.86,-0.3772064715576161,-4.841674307250976,9.568307224731443,-0.4963588807640999,-4.725745311011337,11.955008026271912,-2.470417079671224,-2.1787805155436195,15.850356052652996,-4.172897338867188,3.363800048828125,2.428436279296875,0.8837071860708843,7.5763609351181405,2.754769674161585,-1.9106183733258928,33.63545735677084,-13.615562802269343,-22.23407622263649,5.360122227309728,-3.7404691951566944,-109.32493103604212,-63.32421652421653,-12.079472510944596,30.249108934615272,33.939167939617214,31.30341150747297,1577399236.0,-27.69454082643119,-51.114862381441256,8.880051
23147,1577399236.87,0.7193378887939458,1.4490905548095705,13.470855930786133,5.803982787937071,-0.4951909775152438,7.865711590725037,0.6372566752115885,-3.402217563883464,5.424804923502604,0.4657745361328125,2.890777587890625,0.414276123046875,3.4319249595083843,3.0445005835556405,4.128060689786585,0.2561296735491072,26.76900227864584,-5.970909481956844,-22.23407622263649,5.360122227309728,-3.7404691951566944,-74.70014018902907,-64.03642653642652,6.987510252484869,30.273070356725672,34.058975050169224,31.351334351693776,1577399236.0,-27.69454082643119,-51.114862381441256,8.880051
23148,1577399236.88,-0.0946906756591787,-0.4770446807861327,8.495704880981444,0.1357103575171491,-1.1679616440191491,12.259071637111756,1.166375242106119,-1.5155866556803383,3.343046579996744,-2.7996063232421875,2.600860595703125,1.543426513671875,2.3180333579458843,4.7382261694931405,0.4964688929115852,-1.3002668108258928,0.5238850911458333,7.044837588355655,-22.23407622263649,5.7362711555419885,-2.7646946225071147,-40.61216780476041,-65.22344322344321,6.9503426447588845,30.392877467277685,34.03501362805883,31.39925719591458,1577399236.0,-27.69454082643119,-51.114862381441256,8.880051
23149,1577399236.89,-0.4610035296630849,-1.4443021514892578,6.149387254028319,-4.949573968654725,-1.4241412216558678,12.991697345119569,-9.818221974690754,-4.130054868570963,0.407755344645182,-2.5249481201171875,1.898956298828125,-0.501251220703125,10.405191561070884,-11.46660781488186,1.4730313929115852,-0.8119855608258928,-26.575724283854168,16.627357119605655,-20.787957443928423,6.864717940238775,-3.7404691951566944,-36.31762010280528,42.08286528286528,6.9503426447588845,30.201186090394465,34.27462784916285,31.25548866325217,1577399236.0,-27.69454082643119,-51.114862381441256,8.880051
23150,1577399236.9,-1.4641740252685544,-0.7236474517822266,1.9619285504150377,0.6588434202612896,-2.105291593970322,5.291944806057069,5.011463108317057,4.684198543294272,4.22052148844401,-3.806686401367188,2.387237548828125,0.048065185546875,-4.212728360804116,1.6101744116806405,1.366219869474085,0.5002702985491072,-40.964762369791664,6.510779971168155,-20.245662901912898,4.419749906729075,-2.9273237179487124,-35.78080164006091,-65.22344322344321,7.3220187220187185,30.48872315571929,33.91520651750682,31.351334351693776,1577399236.0,-27.69454082643119,-51.114862381441256,8.880051
23151,1577399236.91,-0.318548530883789,-1.8573019378662108,10.130944614868165,-1.6120568543969125,-2.970795494116806,1.8227466004906636,-2.707443044026693,2.6766604512532544,0.9656043314615884,2.9224395751953125,0.815582275390625,1.909637451171875,3.630289217320884,-14.76250625238186,5.989632955411585,0.3781999860491072,-44.42850748697917,1.3990856352306549,-20.245662901912898,4.419749906729075,-2.9273237179487124,-30.949435475361405,-65.22344322344321,7.0990130756628185,30.34495462305688,34.03501362805883,31.20756581903136,1577399236.0,-27.69454082643119,-51.114862381441256,8.880051
23152,1577399236.92,-1.3660117572021482,0.3489548919677734,8.124603623657226,-7.999786883693788,2.157584461937881,5.878524212795351,-1.268527846272786,3.332671706136067,8.792249558512369,-1.3957977294921875,-0.5119323730468749,2.214813232421875,-0.8252771889291157,8.21723007574314,-0.4800936070884147,2.728053501674107,-68.62894694010417,-12.059166317894343,-19.884133207235884,7.052792404354905,-3.252581908831901,-36.31762010280528,-63.32421652421653,-10.890109063713126,30.48872315571929,34.03501362805883,31.25548866325217,1577399236.0,-27.69454082643119,-51.114862381441256,8.880051
23153,1577399236.93,-0.7985859637451163,1.179742868041992,12.127708799438476,3.343940582126524,-2.183103147925399,27.02650747695551,-4.340288576253255,-16.283022495524083,9.299820310465496,0.8625030517578125,4.920196533203125,0.505828857421875,-4.914632657679116,16.33490585699314,2.235970846036585,-0.5983625139508928,-87.58036295572917,-8.305504208519345,-21.691781680620963,5.172047763193601,-2.2768073361823347,-35.780801640060886,-63.7990231990232,-11.70779643368476,30.34495462305688,34.27462784916285,31.30341150747297,1577399236.0,-27.69454082643119,-51.114862381441256,8.880051
23154,1577399236.94,1.3609839337158205,-3.0603882720947264,9.276214622192382,-1.9472450868187876,-4.871791612280869,16.45131874404535,4.264472190348307,10.316557948811852,16.17357327677409,-6.339645385742188,0.4035949707031251,1.909637451171875,-3.968587735804116,11.45209335699314,-0.8157869664634148,-1.5444074358258928,-63.56302897135416,10.615394228980657,-20.96872229126693,5.172047763193601,-3.903098290598285,-40.61216780476041,-61.42498982498982,5.909649628431351,30.48872315571929,33.891245095396414,31.25548866325217,1577399236.0,-27.69454082643119,-51.114862381441256,8.880051
23155,1577399236.95,2.799899131469726,5.125387203979492,12.031940733032226,3.245778314060118,5.49031317287538,4.84422909560785,-0.7106788594563804,-5.462428092447915,8.73478871866862,0.8930206298828116,5.454254150390625,0.292205810546875,-5.845418790491616,-2.4028871117568595,5.211434713224085,-4.748753138950892,-42.71952311197917,11.851356143043152,-21.330251985943946,4.795898834961333,-3.5778400997150968,-37.92807549103846,-65.22344322344321,5.760979197527418,30.36891604516728,33.939167939617214,31.375295773804176,1577399236.0,-27.69454082643119,-51.114862381441256,8.880051
23156,1577399236.96,-1.162504616088866,-6.725911013793945,3.091991734008788,-5.098014471584413,-8.008195787085556,-5.144380230564024,-4.548584120686849,22.936394899495443,12.67325044962565,-15.983200073242188,-12.627410888671877,0.444793701171875,-2.869954923304116,-5.94292617425686,-1.9754549352134148,-4.321507045200892,-18.854777018229168,13.087318057105657,-19.70336835989737,4.983973299077471,-2.439436431623926,-100.19901716938752,-63.7990231990232,7.619359583826587,30.249108934615272,33.84332225117561,31.39925719591458,1577399236.0,-27.69454082643119,-51.114862381441256,8.880051
23157,1577399236.97,-0.6884526873779288,-6.1824272369384765,1.9954473736572256,3.420555035251524,3.958024110375381,3.407708099514101,2.715423716227213,-1.4317895975748698,6.891253440348307,-11.008834838867188,-0.1762390136718749,2.275848388671875,-9.339681485804116,6.8744566382431405,2.602181783536585,-5.572727748325892,-14.582316080729166,-8.915855771019345,-19.161073817881853,6.300494547890383,-4.228356481481481,-98.58856178115435,-65.22344322344321,8.88305824651002,30.249108934615272,33.939167939617214,31.111720130589752,1577399236.0,-27.69454082643119,-51.114862381441256,8.880051
23158,1577399236.98,-1.2870031024169917,1.2228384979248046,11.653656870727538,-2.002311725002381,-4.6108236313238375,4.607203131252382,2.5406469950358077,-9.900080869547525,4.959132700602213,2.3731231689453125,4.370880126953125,-1.050567626953125,-6.287923673304116,6.1725523413681405,8.125863424161585,-4.687717982700892,-10.065714518229166,-4.490806942894345,-20.336045325582155,4.513787138787142,-2.8460091702279136,-96.44128793017684,33.536345136345126,9.031728677413954,30.36891604516728,33.891245095396414,31.25548866325217,1577399236.0,-27.69454082643119,-51.114862381441256,8.880051
23159,1577399236.99,-0.5711368060302724,-0.0125695587158203,7.332122874145507,-0.3766487977562879,1.5015732070550687,10.85247816176996,3.18349014078776,0.6104644185384115,6.224468277994792,-23.643112182617188,-15.892791748046877,-0.196075439453125,-5.753866056116616,1.61017441168064,3.365121236661585,-5.587986537388392,-24.241129557291668,-4.063560849144345,-20.42642774925141,3.855526514380685,-2.439436431623926,-32.02307240085019,37.33479853479852,7.247683506566751,30.392877467277685,33.98709078383802,31.27945008536257,1577399236.0,-27.69454082643119,-51.114862381441256,8.880051
23160,1577399237.0,0.2835931866455078,0.5811924530029297,15.48916793029785,-2.160329034572693,-1.445689036597274,2.299192730861757,-8.518170473225911,-13.38843268839518,15.371515720621744,-10.978317260742188,2.783966064453125,-0.470733642578125,-3.754964688929116,7.30170273199314,4.372201314786585,-5.145481654575892,-31.580607096354168,-3.605797177269345,-20.60719259658992,4.419749906729075,-1.6262909544159505,-33.096709326338974,20.24175824175824,9.477739970125754,30.48872315571929,33.891245095396414,31.25548866325217,1577399237.0,-27.69458347732784,-51.11493106594856,8.946359
