,timestamp,acc_x_dashboard,acc_y_dashboard,acc_z_dashboard,acc_x_above_suspension,acc_y_above_suspension,acc_z_above_suspension,acc_x_below_suspension,acc_y_below_suspension,acc_z_below_suspension,gyro_x_dashboard,gyro_y_dashboard,gyro_z_dashboard,gyro_x_above_suspension,gyro_y_above_suspension,gyro_z_above_suspension,gyro_x_below_suspension,gyro_y_below_suspension,gyro_z_below_suspension,mag_x_dashboard,mag_y_dashboard,mag_z_dashboard,mag_x_above_suspension,mag_y_above_suspension,mag_z_above_suspension,temp_dashboard,temp_above_suspension,temp_below_suspension,timestamp_gps,latitude,longitude,speed
90175,1577399907.15,0.2643840979599364,-0.5107824858874808,10.02498951237376,0.3918899351538678,-0.5730901242139856,9.765131039503142,0.2736397312071262,-0.6251786091129953,10.022128149414062,-0.2417215486852134,-0.1034620331554878,0.1455167444740854,-0.3745846632050305,0.209157059832317,-0.1436559165396341,-0.5003766315739329,0.055080506859756,-0.1276527963033537,-28.207264957264957,-18.200737713675213,2.4047027047027005,9.875899240983376,-4.032537774725275,-4.032537774725275,26.84658699493815,31.20756581903136,34.03501362805883,1577399907.0,-27.717791573305767,-51.0991188344016,0.121991724
90176,1577399907.16,0.2440333838486083,-0.5538781157702933,9.998653294112042,0.4110435484351178,-0.5874553341749232,9.8716730133801,0.242515109625095,-0.6299670124333078,10.040084661865231,-0.4095682283727134,0.1254198027820121,-0.0223299352134145,-0.2525143507050304,0.010792802019817,0.0241907631478658,-0.7445172565739329,-0.1127661728277439,-0.1581703744283537,-28.29541266025641,-17.893983707264955,2.63014358326858,3.301652974429418,-0.5498915147352645,-3.590053426141166,26.990355527600563,31.063797286368946,34.15482073861084,1577399907.0,-27.717791573305767,-51.0991188344016,0.121991724
90177,1577399907.17,0.270369602110327,-0.5873969390124808,10.010624302412824,0.3894957334937116,-0.6664639889600794,9.8058324677258,0.1994194797422825,-0.632361214093464,10.034099157714843,-0.2569803377477134,0.0033494902820121,-0.0528475133384145,-0.2219967725800304,-0.2180890339176829,-0.0215856040396341,-0.3477887409489328,-0.1280249618902439,0.0249350943216463,-27.590231036324784,-17.07597302350427,2.329555745180739,-1.629031725486053,-0.7331886863136862,-3.4425586432797965,26.990355527600563,31.20756581903136,33.939167939617214,1577399907.0,-27.717791573305767,-51.0991188344016,0.121991724
90178,1577399907.18,0.2631869971298583,-0.6137331572741994,9.993864890791729,0.3751305235327741,-0.6209741574171107,9.841745492628146,0.2544861179258762,-0.6179960041325265,10.01015714111328,-0.3180154939977134,0.0338670684070121,-0.0223299352134145,-0.3135495069550305,0.087086747332317,-0.0215856040396341,-0.5919293659489329,-7.604831602515244,-0.4023109994283537,-26.88504941239316,-19.120999732905982,1.127204392829393,-1.629031725486053,-0.7331886863136862,-3.4425586432797965,26.798664150717343,31.111720130589752,34.17878216072124,1577399907.0,-27.717791573305767,-51.0991188344016,0.121991724
90179,1577399907.19,0.3158594336532958,-0.5873969390124807,9.89091421940501,0.4254087583960553,-0.6401277706983607,9.856110702589085,0.2257556980040012,-0.6491206257145578,10.067617980957031,-0.1043924471227134,0.064384646532012,0.0234464319740854,-0.3745846632050305,-0.0960187214176829,-0.2352086509146341,-0.5003766315739329,-0.1280249618902439,-0.1886879525533537,-28.47170806623932,-17.484978365384613,2.63014358326858,-1.629031725486053,-0.7331886863136862,-3.4425586432797965,26.870548417048557,31.447180040135382,34.08293647227963,1577399907.0,-27.717791573305767,-51.0991188344016,0.121991724
90180,1577399907.2,0.279946408750952,-0.5921853423327933,10.060902537276103,0.4146348509253522,-0.6389306698682826,9.874067215040256,0.2293470004942356,-0.6455293232243234,10.03529625854492,-0.4400858064977134,-0.2713087128429878,-0.0833650914634145,-0.4051022413300304,0.117604325457317,0.1310022865853658,-0.5919293659489329,-0.0975073837652439,-0.1886879525533537,-29.17688969017094,-18.098486378205127,3.0810253404003385,-2.7589803025500137,-0.2749457573676326,-2.778832120403634,26.798664150717343,31.20756581903136,34.01105220594842,1577399907.0,-27.717791573305767,-51.0991188344016,0.121991724
90181,1577399907.21,0.3613492651962646,-0.608944753953887,9.75683892643626,0.4062551451148053,-0.6353393673780482,9.882446920850803,0.2473035129454075,-0.6563032306950265,10.084377392578125,0.2007833341272865,0.2169725371570121,0.0692227991615854,-0.2830319288300305,0.087086747332317,0.1004847084603658,-0.6224469440739329,0.146633241234756,-0.4328285775533537,-27.23764022435897,-17.893983707264955,1.127204392829393,-3.2725932921245406,-1.099783029470529,-4.032537774725275,26.51112708539252,31.39925719591458,34.03501362805883,1577399907.0,-27.717791573305767,-51.0991188344016,0.121991724
90182,1577399907.22,0.270369602110327,-0.541907107469512,10.010624302412824,0.4589275816382429,-0.6616755856397669,9.841745492628146,0.2927933444883762,-0.6826394489567452,10.007762939453125,-0.0738748689977134,0.0643846465320121,0.0387052210365854,-0.2219967725800304,0.239674637957317,0.0089319740853658,-0.3172711628239328,-0.0975073837652439,-0.0666176400533536,-28.29541266025641,-17.484978365384613,2.329555745180739,-2.450812508805297,-2.9327547452547447,-4.032537774725275,26.990355527600563,31.30341150747297,34.08293647227963,1577399907.0,-27.717791573305767,-51.0991188344016,0.121991724
90183,1577399907.23,0.2883261145614989,-0.5670462249011526,9.82148237126048,0.4637159849585553,-0.6209741574171107,9.772313644483612,0.3023701511290012,-0.6778510456364327,10.05564697265625,0.0481954435022864,0.0949022246570121,0.1149991663490854,-0.5576901319550305,0.087086747332317,0.1004847084603658,-0.5003766315739329,0.116115663109756,-0.1581703744283537,-28.20726495726496,-18.20073771367521,1.9538209475709425,-3.2725932921245406,-1.099783029470529,-4.032537774725275,26.84658699493815,31.20756581903136,34.22670500494204,1577399907.0,-27.717791573305767,-51.0991188344016,0.121991724
90184,1577399907.24,0.2655811987900145,-0.5778201323718558,10.111180772139386,0.4876580015601178,-0.6377335690382044,9.761539737012908,0.3047643527891575,-0.6862307514469796,9.937133990478516,-0.4706033846227134,-0.3628614472179878,-0.2664705602134145,-0.5271725538300305,0.178639481707317,-0.0368443931021341,-0.4698590534489328,-0.0517310165777439,0.0096763052591463,-27.41393563034188,-19.32550240384615,1.5780861499611456,-1.629031725486053,-0.3665943431568431,-2.70508472897295,26.990355527600563,31.32737292958337,34.202743582831644,1577399907.0,-27.717791573305767,-51.0991188344016,0.121991724
90185,1577399907.25,0.3326188452743895,-0.5802143340320121,9.965134470869854,0.4661101866187116,-0.5922437374952356,9.657391964796112,0.29039914282822,-0.6395438190739328,9.938331091308592,0.0176778653772865,0.3390428496570121,0.0387052210365854,-0.3440670850800305,0.148121903582317,0.0699671303353658,-0.6834821003239329,0.146633241234756,-0.1886879525533537,-27.590231036324784,-16.66696768162393,2.329555745180739,-2.450812508805297,-0.3665943431568428,-2.852579511834319,27.038278371821367,31.25548866325217,34.27462784916285,1577399907.0,-27.717791573305767,-51.0991188344016,0.121991724
90186,1577399907.26,0.3421956519150145,-0.6065505522937308,9.747262119795636,0.4996290098608991,-0.6401277706983607,9.736400619581268,0.3023701511290012,-0.6850336506169015,9.967061511230469,-0.2569803377477134,-0.2407911347179878,0.2218106897865854,-0.1304440382050304,0.4532976848323171,0.1310022865853658,-0.4088238971989328,0.207668397484756,-0.0971352181783536,-26.00357238247863,-18.098486378205127,2.7804375023124974,-3.2725932921245406,-1.099783029470529,-2.2626003803888417,26.84658699493815,31.20756581903136,34.17878216072124,1577399907.0,-27.717791573305767,-51.0991188344016,0.121991724
90187,1577399907.27,0.3050855261825927,-0.6113389556140432,9.89809682438548,0.5762434629858991,-0.6281567623975794,9.738794821241424,0.2568803195860325,-0.6826394489567452,9.962273107910155,-0.2112039705602134,-0.0882032440929878,-0.0528475133384145,-0.3440670850800305,0.148121903582317,-0.0826207602896341,-0.3477887409489328,-0.1585425400152439,-0.2192055306783537,-28.64800347222222,-18.91649706196581,2.3295557451807456,-3.2725932921245406,-1.099783029470529,-3.4425586432797965,26.870548417048557,31.30341150747297,34.17878216072124,1577399907.0,-27.717791573305767,-51.0991188344016,0.121991724
90188,1577399907.28,0.3038884253525146,-0.5658491240710746,9.979499680830791,0.4708985899390241,-0.6281567623975794,9.708867300489471,0.2736397312071262,-0.6646829365055734,9.97184991455078,-0.1043924471227134,0.1559373809070121,-0.0528475133384145,-0.3898434522675304,0.087086747332317,-0.1131383384146341,-0.4546002643864328,0.100856874047256,-0.0513588509908536,-29.17688969017094,-16.871470352564103,1.8786739880489869,-1.526309127571147,-0.274945757367632,-3.811295600433221,26.798664150717343,31.25548866325217,34.130859316500434,1577399907.0,-27.717791573305767,-51.0991188344016,0.121991724
90189,1577399907.29,0.3134652319931396,-0.5634549224109183,9.78317514469798,0.5020232115210553,-0.6185799557569545,9.650209359815642,0.299975949468845,-0.6754568439762765,9.86411083984375,-0.1959451814977134,0.0949022246570121,0.0997403772865854,-0.1914791944550304,-0.0349835651676829,-0.0521031821646341,-0.6224469440739329,-0.0669898056402439,-0.0361000619283536,-29.17688969017094,-16.871470352564103,1.8786739880489869,-1.629031725486053,-0.7331886863136862,-2.852579511834319,26.84658699493815,31.20756581903136,33.939167939617214,1577399907.0,-27.717791573305767,-51.0991188344016,0.121991724
90190,1577399907.3,0.3086768286728271,-0.5921853423327933,9.864578001143292,0.4613217832983991,-0.5970321408155481,9.688516586378142,0.3263121677305637,-0.6467264240544015,9.880870251464843,-0.3180154939977134,0.2474901152820121,-0.0833650914634145,-0.2219967725800304,-0.1265362995426829,0.1004847084603658,-0.5614117878239329,-0.0669898056402439,0.1164878286966463,-25.827276976495725,-18.71199439102564,2.329555745180739,-1.629031725486053,-0.7331886863136862,-2.852579511834319,26.559049929613323,31.30341150747297,34.27462784916285,1577399907.0,-27.717791573305767,-51.0991188344016,0.121991724
90191,1577399907.31,0.3338159461044677,-0.532330300828887,9.84662148869212,0.4589275816382429,-0.6161857540967982,9.64542095649533,0.2736397312071262,-0.6922162555973702,9.935936889648437,-0.3485330721227134,-0.2255323456554878,-0.2206941930259144,-0.4356198194550305,-0.0044659870426829,0.0089319740853658,-0.7139996784489329,0.2687035537347561,0.0249350943216463,-28.38356036324786,-18.200737713675213,2.404702704702697,-1.4235865296562409,-0.5498915147352641,-3.5900534261411665,26.918471261269357,31.25548866325217,34.27462784916285,1577399907.0,-27.717791573305767,-51.0991188344016,0.121991724
90192,1577399907.32,0.3541666602157958,-0.5179650908679495,9.754444724776103,0.4673072874487897,-0.6018205441358606,9.706473098829315,0.3023701511290012,-0.6299670124333078,9.91558617553711,-0.4095682283727134,0.3390428496570121,-0.2359529820884145,-0.3745846632050305,-0.0349835651676829,-0.0521031821646341,-0.5156354206364329,0.055080506859756,-0.1429115853658536,-27.590231036324784,-19.120999732905982,2.63014358326858,-2.656257704635109,0.3665943431568436,-3.8850429918639056,26.89450983915896,31.20756581903136,34.27462784916285,1577399907.0,-27.717791573305767,-51.0991188344016,0.121991724
90193,1577399907.33,0.3685318701767333,-0.4892346709460745,9.797540354658915,0.4948406065405866,-0.6473103756788294,9.71485280463986,0.2951875461485325,-0.6371496174137765,9.928754284667969,-0.4706033846227134,-0.0271680878429878,0.0997403772865854,-0.5576901319550305,0.239674637957317,-0.0826207602896341,-0.5003766315739329,0.085598084984756,0.1164878286966463,-27.590231036324784,-19.120999732905982,2.63014358326858,-2.450812508805297,-0.3665943431568428,-3.4425586432797965,26.89450983915896,31.30341150747297,34.27462784916285,1577399907.0,-27.717791573305767,-51.0991188344016,0.121991724
90194,1577399907.34,0.3086768286728271,-0.5850027373523246,9.716137498213604,0.4278029600562116,-0.5922437374952356,9.750765829542203,0.3311005710508762,-0.6299670124333078,9.974244116210937,-0.2874979158727134,0.0643846465320121,0.0692227991615854,-0.2219967725800304,0.087086747332317,-0.0215856040396341,-0.2562360065739328,0.024562928734756,-0.0055824838033536,-26.88504941239316,-17.893983707264955,1.4277922309172282,-1.629031725486053,0.3665943431568428,-3.4425586432797965,26.990355527600563,31.20756581903136,34.27462784916285,1577399907.0,-27.717791573305767,-51.0991188344016,0.121991724
90195,1577399907.35,0.3326188452743895,-0.5969737456531057,9.91006783268626,0.4493507749976178,-0.5659075192335169,9.765131039503144,0.3047643527891575,-0.622784407452839,9.932345587158204,-0.2264627596227134,-0.0576856659679878,-0.1749178258384144,-0.4356198194550305,0.163380692644817,-0.0063268149771341,-0.4088238971989328,-0.0669898056402439,-0.0818764291158536,-27.50208333333333,-18.405240384615382,2.7052905427905385,-2.2453673129754845,0.0,-3.4425586432797965,26.84658699493815,31.25548866325217,34.27462784916285,1577399907.0,-27.717791573305767,-51.0991188344016,0.121991724
90196,1577399907.36,0.2727638037704833,-0.5299360991687307,10.001047495772198,0.4613217832983991,-0.5826669308546106,9.70288179633908,0.2688513278868137,-0.6108133991520577,9.943119494628906,-0.2569803377477134,0.0949022246570121,-0.0528475133384145,-0.0388913038300304,0.2701922160823171,-0.1131383384146341,-0.2562360065739328,-0.0975073837652439,0.0859702505716463,-27.41393563034188,-18.098486378205127,1.8786739880489869,-2.2453673129754868,2.382863230519481,-3.2950638604184275,26.89450983915896,31.30341150747297,34.27462784916285,1577399907.0,-27.717791573305767,-51.0991188344016,0.121991724
90197,1577399907.37,0.327830441954077,-0.5873969390124808,9.917250437666729,0.4541391783179303,-0.5874553341749231,9.757948434522676,0.2640629245665012,-0.6251786091129953,10.000580334472655,-0.4095682283727134,0.2169725371570121,0.0692227991615854,-0.1304440382050304,0.239674637957317,0.0394495522103658,-0.2562360065739328,-0.1890601181402439,0.0554526724466463,-27.41393563034188,-18.098486378205127,1.8786739880489869,-2.450812508805297,0.3665943431568428,-3.147569077557058,26.84658699493815,31.20756581903136,34.03501362805883,1577399907.0,-27.717791573305767,-51.0991188344016,0.121991724
90198,1577399907.38,0.3074797278427489,-0.5706375273913871,9.908870731856185,0.4589275816382429,-0.5922437374952356,9.789073056104703,0.2664571262266575,-0.5988423908512764,10.014945544433592,-0.3943094393102134,0.0338670684070121,-0.0833650914634145,-0.1914791944550304,0.056569169207317,0.0394495522103658,-0.2257184284489328,0.055080506859756,-0.0971352181783536,-28.119117254273505,-17.893983707264958,2.028967907092904,-2.861702900464919,7.698481206293707,-4.032537774725275,26.798664150717343,31.20756581903136,33.891245095396414,1577399907.0,-27.717791573305767,-51.0991188344016,0.121991724
90199,1577399907.39,0.2919174170517333,-0.5586665190906058,9.938798252608136,0.4170290525855085,-0.5659075192335169,9.821394778516815,0.2856107395079075,-0.5593380634586983,9.981426721191406,-0.0128397127477134,0.2169725371570121,-0.0833650914634145,-0.0999264600800304,0.193898270769817,0.0241907631478658,-0.2867535846989328,-0.0822485947027439,-0.1123940072408536,-27.590231036324784,-18.71199439102564,1.127204392829393,-3.169870694209636,4.857375046828171,-3.6638008175718513,26.990355527600563,31.13568155270016,34.10689789439003,1577399907.0,-27.717791573305767,-51.0991188344016,0.121991724
90200,1577399907.4,0.2967058203720458,-0.6065505522937308,9.893308421065166,0.4469565733374616,-0.5611191159132044,9.822591879346897,0.2760339328672825,-0.594053987530964,10.007762939453125,-0.1043924471227134,0.3390428496570121,-0.1138826695884145,-0.1609616163300304,0.209157059832317,0.1004847084603658,-0.3172711628239328,0.055080506859756,-0.0361000619283536,-29.00059428418804,-18.3029890491453,2.63014358326858,-2.450812508805297,7.698481206293707,-3.737548209002536,26.84658699493815,31.30341150747297,34.17878216072124,1577399907.0,-27.717791573305767,-51.0991188344016,0.121991724
90201,1577399907.41,0.289523215391577,-0.5921853423327933,9.92922144596751,0.4541391783179303,-0.5539365109327357,9.801044064405486,0.2951875461485325,-0.594053987530964,9.991003527832031,0.2007833341272865,0.2169725371570121,-0.1749178258384145,-0.1609616163300304,0.178639481707317,-0.0215856040396341,-0.2257184284489328,-0.0669898056402439,-0.1581703744283537,-29.00059428418804,-18.3029890491453,2.63014358326858,-2.450812508805297,7.698481206293707,-3.737548209002536,26.84658699493815,31.25548866325217,34.08293647227963,1577399907.0,-27.717791573305767,-51.0991188344016,0.121991724
90202,1577399907.42,0.279946408750952,-0.5443013091296682,10.048931528975324,0.4493507749976178,-0.5419655026319544,9.927936752393771,0.2975817478086887,-0.5772945759098702,10.110713610839843,-0.0128397127477134,-0.0882032440929878,-0.0375887242759145,0.0831790086699695,0.4227801067073171,-0.1436559165396341,-0.3477887409489328,-0.0059546493902439,-0.1886879525533537,-27.9428218482906,-17.689481036324786,2.4798496642246595,-3.2725932921245406,8.065075549450551,-3.737548209002536,26.918471261269357,31.20756581903136,34.03501362805883,1577399907.0,-27.717791573305767,-51.0991188344016,0.121991724
90203,1577399907.43,0.289523215391577,-0.599367947313262,9.991470689131573,0.4493507749976178,-0.5778785275342981,9.802241165235566,0.2892020419981418,-0.574900374249714,10.006565838623048,0.1092305997522865,0.0338670684070121,-0.0528475133384145,-0.1304440382050304,0.148121903582317,0.0394495522103658,-0.0120953815739328,0.039821717797256,-0.0055824838033536,-29.00059428418804,-19.530005074786324,2.028967907092904,-3.06714809629473,8.431669892607394,-3.885042991863905,26.84658699493815,31.20756581903136,34.17878216072124,1577399907.0,-27.717791573305767,-51.0991188344016,0.121991724
90204,1577399907.44,0.3038884253525146,-0.5275418975085745,9.85978959782298,0.4397739683569928,-0.5635133175733607,9.83935129096799,0.280822336187595,-0.5868713825504952,10.01015714111328,0.2923360685022865,0.2169725371570121,0.0081876429115854,0.0221438524199695,0.4532976848323171,0.0394495522103658,-0.2562360065739328,-0.1280249618902439,0.0554526724466463,-29.70577590811965,-17.07597302350427,2.329555745180739,-3.2725932921245406,-0.7331886863136862,-4.032537774725275,26.89450983915896,31.20756581903136,34.41839638182526,1577399907.0,-27.717791573305767,-51.0991188344016,0.121991724
90205,1577399907.45,0.2847348120712645,-0.5371187041491995,9.914856236006573,0.4445623716773053,-0.5635133175733607,9.781890451124235,0.2592745212461887,-0.5892655842106514,10.034099157714843,0.1092305997522865,-0.0271680878429878,-0.1138826695884145,-0.0388913038300304,0.3007097942073171,-0.0215856040396341,0.0794573528010671,-0.2500952743902439,-0.1276527963033537,-27.590231036324784,-19.120999732905982,3.231319259444256,-3.2725932921245406,-0.7331886863136862,-4.032537774725275,26.990355527600563,31.20756581903136,34.27462784916285,1577399907.0,-27.717791573305767,-51.0991188344016,0.121991724
90206,1577399907.46,0.2739609046005614,-0.5107824858874808,9.91605333683665,0.4613217832983991,-0.5204176876905482,9.772313644483612,0.2496977146055637,-0.594053987530964,9.923965881347655,0.2160421231897865,0.0491258574695121,0.0234464319740854,0.1136965867949695,-0.1265362995426829,-0.0826207602896341,-0.1036481159489328,0.085598084984756,-0.0971352181783536,-27.766526442307693,-18.71199439102564,2.63014358326858,-3.2725932921245406,0.3665943431568428,-2.852579511834319,26.870548417048557,31.25548866325217,34.27462784916285,1577399907.0,-27.717791573305767,-51.0991188344016,0.121991724
90207,1577399907.47,0.2967058203720458,-0.5203592925281058,9.955557664229229,0.4086493467749616,-0.5934408383253138,9.785481753614471,0.2592745212461887,-0.641938020734089,9.937133990478516,0.0176778653772865,0.1559373809070121,-0.0528475133384145,-0.2067379835175304,0.239674637957317,0.0394495522103657,-0.2409772175114328,0.085598084984756,0.0096763052591463,-28.47170806623932,-17.689481036324786,2.4798496642246564,-2.861702900464919,-0.9164858578921076,-3.295063860418427,26.798664150717343,31.35133435169377,34.130859316500434,1577399907.0,-27.717791573305767,-51.0991188344016,0.121991724
90208,1577399907.48,0.2919174170517333,-0.5203592925281058,9.878943211104229,0.4134377500952741,-0.5276002926710169,9.765131039503142,0.3047643527891575,-0.6395438190739328,9.9215716796875,0.0481954435022865,0.3390428496570121,0.0387052210365854,0.0526614305449695,-0.0960187214176829,0.2530725990853658,-0.1341656940739328,0.146633241234756,0.0859702505716463,-28.29541266025641,-20.75702110042735,2.028967907092904,-2.656257704635109,-0.916485857892108,-3.8850429918639056,26.89450983915896,31.111720130589752,34.17878216072124,1577399907.0,-27.717791573305767,-51.0991188344016,0.121991724
90209,1577399907.49,0.3254362402939208,-0.532330300828887,9.883731614424542,0.4038609434546491,-0.5730901242139856,9.743583224561736,0.2760339328672825,-0.6443322223942453,9.952696301269532,0.1092305997522865,0.2169725371570121,-0.0833650914634145,0.0526614305449695,0.3617449504573171,0.0699671303353658,-0.2562360065739328,0.177150819359756,-0.1886879525533537,-29.353185096153844,-18.71199439102564,2.63014358326858,-2.0399221171456747,-0.7331886863136862,-2.852579511834319,26.84658699493815,31.25548866325217,34.17878216072124,1577399907.0,-27.717791573305767,-51.0991188344016,0.121991724
90210,1577399907.5,0.2859319129013427,-0.4784607634753714,9.870563505293685,0.460124682468321,-0.5790756283643763,9.759145535352753,0.2784281345274387,-0.6299670124333078,9.922768780517575,0.0481954435022865,-0.0576856659679878,0.0844815882240854,0.1289553758574695,0.071827958269817,0.1615198647103658,-0.2562360065739328,0.146633241234756,-0.1734291634908536,-28.47170806623932,-18.71199439102564,2.7804375023124974,-2.245367312975486,3.2993490884115886,0.8347900596999157,26.870548417048557,31.183604396920963,34.15482073861084,1577399907.0,-27.717791573305767,-51.0991188344016,0.121991724
90211,1577399907.51,0.3062826270126708,-0.5059940825671683,9.902885227705791,0.4254087583960553,-0.5491481076124232,9.734006417921112,0.2688513278868137,-0.622784407452839,9.952696301269532,0.1702657560022865,-0.0271680878429878,-0.0833650914634145,-0.0999264600800304,0.3312273723323171,0.1310022865853658,-0.0731305378239328,0.146633241234756,0.0249350943216463,-28.29541266025641,-19.530005074786324,2.930731421356415,-3.067148096294731,0.549891514735265,-2.4100951632502112,27.038278371821367,31.20756581903136,34.370473537604454,1577399907.0,-27.717791573305767,-51.0991188344016,0.121991724
90212,1577399907.52,0.3014942236923583,-0.4676868560046683,9.912462034346415,0.4708985899390241,-0.5539365109327357,9.66457456977658,0.3215237644102512,-0.6371496174137765,9.849745629882811,0.0176778653772865,-0.2102735565929878,0.0081876429115854,-0.0999264600800304,-0.0655011432926829,0.0089319740853658,-0.2562360065739328,-0.0059546493902439,-0.1581703744283537,-29.17688969017094,-17.689481036324786,1.5780861499611456,-1.4235865296562409,-0.916485857892108,-3.8850429918639056,27.08620121604217,31.30341150747297,34.08293647227963,1577399907.0,-27.717791573305767,-51.0991188344016,0.121991724
90213,1577399907.53,0.3517724585556395,-0.4772636626452933,9.895702622725324,0.4301971617163678,-0.5730901242139856,9.750765829542203,0.3119469577696262,-0.661091634015339,9.93354268798828,0.0787130216272865,0.0033494902820121,0.3133634241615854,-0.2219967725800304,0.3922625285823171,-0.1131383384146341,-0.2257184284489328,0.085598084984756,-0.0055824838033536,-28.29541266025641,-18.3029890491453,2.63014358326858,-1.4235865296562409,-0.916485857892108,-3.8850429918639056,26.990355527600563,31.447180040135382,34.17878216072124,1577399907.0,-27.717791573305767,-51.0991188344016,0.121991724
90214,1577399907.54,0.2811435095810302,-0.4964172759265433,9.880140311934309,0.4673072874487897,-0.5694988217237513,9.76034263618283,0.2868078403379856,-0.5988423908512764,9.898826763916016,0.0481954435022865,-0.0882032440929878,-0.1444002477134144,-0.1304440382050304,0.178639481707317,0.0547083412728657,-0.1952008503239328,0.100856874047256,-0.0361000619283536,-28.1191172542735,-18.91649706196581,1.8786739880489869,-3.169870694209636,-0.274945757367632,-3.9587903832945903,26.84658699493815,31.30341150747297,34.27462784916285,1577399907.0,-27.717791573305767,-51.0991188344016,0.121991724
90215,1577399907.55,0.2847348120712645,-0.5251476958484183,9.878943211104229,0.3942841368140241,-0.5706959225538294,9.712458602979703,0.3023701511290012,-0.5988423908512764,9.911994873046874,-0.0128397127477134,0.0949022246570121,-0.0223299352134145,-0.0083737257050304,-0.0960187214176829,0.0394495522103658,-0.4393414753239328,-0.1890601181402439,0.0859702505716463,-28.29541266025641,-18.3029890491453,1.4277922309172282,-6.55971642540152,8.798264235764236,-2.5575899461115803,26.84658699493815,31.25548866325217,34.27462784916285,1577399907.0,-27.717791573305767,-51.0991188344016,0.121991724
90216,1577399907.56,0.2847348120712645,-0.513176687547637,9.886125816084698,0.4206203550757428,-0.5419655026319544,9.7675252411633,0.280822336187595,-0.6539090290348702,9.938331091308592,-0.1349100252477134,-0.1187208222179878,0.2523282679115854,-0.3745846632050305,-0.2180890339176829,0.0394495522103658,-0.3783063190739328,-0.0669898056402439,-0.1276527963033537,-28.64800347222222,-18.3029890491453,2.028967907092904,-3.2725932921245406,-0.7331886863136862,-3.737548209002536,26.559049929613323,31.30341150747297,34.17878216072124,1577399907.0,-27.717791573305767,-51.0991188344016,0.121991724
90217,1577399907.57,0.3086768286728271,-0.5155708892077933,9.895702622725324,0.4086493467749616,-0.5946379391553919,9.71724700630002,0.2784281345274387,-0.6084191974919014,10.007762939453125,-0.2874979158727134,0.0033494902820121,0.1912931116615854,-0.2525143507050305,0.148121903582317,0.0699671303353658,-0.3477887409489328,0.146633241234756,-0.0361000619283536,-28.47170806623932,-18.098486378205127,2.179261826136821,10.081344436813186,7.881778377872128,-3.8850429918639056,26.990355527600563,31.20756581903136,34.27462784916285,1577399907.0,-27.717791573305767,-51.0991188344016,0.121991724
90218,1577399907.58,0.3026913245224364,-0.5550752166003714,9.886125816084698,0.4230145567358991,-0.5898495358350794,9.78069335029416,0.2796252353575169,-0.6000394916813546,9.897629663085937,-0.1959451814977134,0.0338670684070121,-0.0528475133384145,-0.2372555616425304,0.148121903582317,0.0394495522103657,-0.3477887409489328,-0.1280249618902439,0.0859702505716463,-28.47170806623932,-18.507491720085472,1.5780861499611456,-3.169870694209636,7.790129792082917,-3.368811251849112,26.702818462275737,31.25548866325217,34.01105220594842,1577399907.0,-27.717791573305767,-51.0991188344016,0.121991724
90219,1577399907.59,0.3350130469345458,-0.541907107469512,9.823876572920636,0.4397739683569928,-0.5970321408155481,9.71485280463986,0.2496977146055637,-0.6371496174137765,9.923965881347655,0.1702657560022865,0.2474901152820121,0.0081876429115854,-0.0083737257050304,0.026051591082317,0.1310022865853658,-0.3172711628239328,-0.1280249618902439,-0.1276527963033537,-27.41393563034188,-18.91649706196581,2.4798496642246564,-1.629031725486053,-0.3665943431568428,0.6872952768385466,26.89450983915896,31.25548866325217,34.370473537604454,1577399907.0,-27.717791573305767,-51.0991188344016,0.121991724
90220,1577399907.6,0.3182536353134521,-0.5012056792468558,9.972317075850324,0.4421681700171491,-0.5395713009717982,9.824986081007053,0.3047643527891575,-0.574900374249714,9.943119494628906,0.0481954435022865,0.0033494902820121,-0.1749178258384145,-0.3135495069550305,0.239674637957317,0.0394495522103658,-0.4698590534489328,-0.0669898056402439,0.0554526724466463,-28.47170806623932,-18.507491720085472,2.7804375023124974,-2.450812508805297,-0.7331886863136862,0.6872952768385466,26.89450983915896,31.25548866325217,34.03501362805883,1577399907.0,-27.717791573305767,-51.0991188344016,0.121991724
90221,1577399907.61,0.3086768286728271,-0.5395129058093557,9.960346067549542,0.4397739683569928,-0.5754843258741419,9.81780347602658,0.291596243658298,-0.5964481891911203,10.005368737792969,0.3228536466272865,0.1254198027820121,0.0692227991615854,-0.0388913038300303,0.010792802019817,-0.0215856040396341,-0.3935651081364328,-0.0059546493902439,-0.0666176400533536,-26.708754006410253,-17.689481036324786,2.7804375023124974,-2.861702900464919,-0.3665943431568431,-1.5251264660819948,26.65489561805493,31.23152724114176,34.03501362805883,1577399907.0,-27.717791573305767,-51.0991188344016,0.121991724
90222,1577399907.62,0.2859319129013427,-0.5311331999988089,9.92323594181712,0.4732927915991803,-0.5946379391553919,9.791467257764864,0.2736397312071262,-0.5533525593083077,10.036493359375,-0.1806863924352134,0.0491258574695121,0.0539640100990854,-0.0388913038300304,0.239674637957317,0.1615198647103658,-0.2257184284489328,0.024562928734756,-0.0361000619283536,-28.47170806623932,-18.507491720085472,1.8786739880489869,-3.2725932921245406,7.698481206293707,0.6872952768385466,26.84658699493815,31.25548866325217,34.17878216072124,1577399907.0,-27.717791573305767,-51.0991188344016,0.121991724
90223,1577399907.63,0.3134652319931396,-0.5179650908679495,9.92922144596751,0.4397739683569928,-0.5539365109327357,9.784284652784391,0.2975817478086887,-0.6084191974919014,9.97903251953125,0.2007833341272865,0.0033494902820121,-0.1138826695884145,-0.3440670850800305,0.117604325457317,-0.0215856040396341,-0.1341656940739328,-0.0364722275152439,-0.0055824838033536,-28.47170806623932,-18.507491720085472,1.8786739880489869,-6.55971642540152,7.698481206293707,0.6872952768385466,27.038278371821367,31.25548866325217,34.22670500494204,1577399907.0,-27.717791573305767,-51.0991188344016,0.121991724
90224,1577399907.64,0.3182536353134521,-0.5059940825671683,9.886125816084698,0.3799189268530866,-0.5611191159132044,9.844139694288303,0.2856107395079075,-0.5916597858708077,9.931148486328125,-0.0433572908727134,-0.0271680878429878,0.0387052210365854,-0.0694088819550304,0.3312273723323171,0.3141077553353658,-0.3172711628239328,-0.2500952743902439,-0.1581703744283537,-27.590231036324784,-18.71199439102564,2.028967907092904,-3.067148096294731,1.2830802010489508,0.8347900596999165,26.990355527600563,31.20756581903136,34.22670500494204,1577399907.0,-27.717791573305767,-51.0991188344016,0.121991724
90225,1577399907.65,0.3110710303329833,-0.5347245024890432,9.926827244307354,0.4086493467749616,-0.5802727291944544,9.731612216260956,0.2927933444883762,-0.6108133991520577,9.955090502929687,-0.0586160799352133,0.0949022246570121,0.1149991663490854,0.3578372117949695,0.148121903582317,0.1920374428353658,-0.1036481159489328,-0.0669898056402439,-0.1276527963033537,-28.03096955128205,-19.018748397435896,1.9538209475709425,-3.2725932921245406,-1.099783029470529,0.6872952768385466,26.89450983915896,31.20756581903136,34.08293647227963,1577399907.0,-27.717791573305767,-51.0991188344016,0.121991724
90226,1577399907.66,0.289523215391577,-0.5490897124499807,9.917250437666729,0.4301971617163678,-0.5802727291944544,9.766328140333222,0.2760339328672825,-0.6060249958317452,9.950302099609374,-0.1043924471227134,-0.3018262909679878,-0.2054354039634145,0.0374026414824695,0.026051591082317,0.0394495522103658,-0.2409772175114328,-0.2195776962652439,-0.1276527963033536,-28.824298878205127,-18.098486378205127,3.0810253404003385,-2.2453673129754868,0.549891514735265,0.8347900596999165,26.798664150717343,31.27945008536257,34.27462784916285,1577399907.0,-27.717791573305767,-51.0991188344016,0.121991724
90227,1577399907.67,0.3158594336532958,-0.5538781157702933,9.895702622725324,0.4541391783179303,-0.5994263424757044,9.781890451124235,0.2377267063047825,-0.613207600812214,9.986215124511718,-0.1349100252477134,0.0338670684070121,0.0081876429115854,0.0526614305449695,0.026051591082317,0.0089319740853658,-0.2562360065739328,-0.1890601181402439,-0.1886879525533537,-28.824298878205127,-18.098486378205127,3.0810253404003385,-2.656257704635109,8.248372721028971,0.8347900596999165,26.84658699493815,31.20756581903136,34.17878216072124,1577399907.0,-27.717791573305767,-51.0991188344016,0.121991724
90228,1577399907.68,0.3086768286728271,-0.5179650908679495,9.969922874190166,0.4732927915991803,-0.5659075192335169,9.762736837842986,0.261668722906345,-0.632361214093464,9.983820922851562,-0.0128397127477134,0.0643846465320121,0.2523282679115854,-0.1304440382050304,0.056569169207317,0.0699671303353658,-0.4698590534489328,-0.1280249618902439,-0.0055824838033536,-27.9428218482906,-19.939010416666665,2.63014358326858,-2.656257704635109,8.248372721028971,0.8347900596999165,26.84658699493815,31.01587444214814,34.03501362805883,1577399907.0,-27.717791573305767,-51.0991188344016,0.121991724
90229,1577399907.69,0.2967058203720458,-0.5359216033191214,9.901688126875714,0.4349855650366803,-0.5635133175733607,9.765131039503142,0.2880049411680637,-0.6299670124333078,9.981426721191406,-0.0280985018102134,0.0491258574695121,0.0387052210365854,0.0221438524199695,-0.0044659870426829,-0.0521031821646341,-0.2257184284489328,-0.1280249618902439,-0.0361000619283536,-27.41393563034188,-19.12099973290598,3.381613178488177,-3.2725932921245406,7.698481206293707,-3.737548209002536,26.84658699493815,31.447180040135382,34.27462784916285,1577399907.0,-27.717791573305767,-51.0991188344016,0.121991724
90230,1577399907.7,0.2775522070907958,-0.484446267625762,9.93640405094798,0.460124682468321,-0.5802727291944544,9.783087551954315,0.2832165378477512,-0.6120104999821359,9.94671079711914,-0.1959451814977134,-0.2102735565929878,-0.3275057164634145,0.0221438524199695,0.254933427019817,0.0394495522103657,-0.2714947956364328,-0.0212134384527439,-0.2192055306783537,-27.23764022435897,-19.530005074786324,3.231319259444256,-5.018877456677936,0.4582429289460539,-3.368811251849112,26.89450983915896,31.375295773804176,34.27462784916285,1577399907.0,-27.717791573305767,-51.0991188344016,0.121991724
90231,1577399907.71,0.2871290137314208,-0.5299360991687307,9.969922874190166,0.4254087583960553,-0.5587249142530482,9.79864986274533,0.261668722906345,-0.6203902057926828,9.97903251953125,-0.1349100252477134,-0.1797559784679878,0.0387052210365854,-0.1609616163300304,0.239674637957317,-0.0521031821646341,-0.3783063190739328,-0.0364722275152439,0.1470054068216463,-27.23764022435897,-19.530005074786324,3.231319259444256,-2.2453673129754868,7.881778377872128,-3.2950638604184275,26.702818462275737,31.25548866325217,34.41839638182526,1577399907.0,-27.717791573305767,-51.0991188344016,0.121991724
90232,1577399907.72,0.270369602110327,-0.541907107469512,9.895702622725324,0.4254087583960553,-0.5563307125928919,9.77949624946408,0.2736397312071262,-0.6395438190739328,10.01015714111328,-0.1043924471227134,0.3695604277820121,-0.1138826695884145,0.1747317430449695,0.148121903582317,0.0394495522103658,-0.3477887409489328,-0.0364722275152439,-0.1581703744283537,-29.17688969017094,-16.871470352564103,0.9769104737854758,-3.2725932921245406,8.065075549450551,-3.4425586432797965,26.89450983915896,31.447180040135382,34.17878216072124,1577399907.0,-27.717791573305767,-51.0991188344016,0.121991724
90233,1577399907.73,0.3050855261825927,-0.5215563933581839,9.855001194502666,0.4780811949194928,-0.5371770993116419,9.71724700630002,0.2640629245665012,-0.565323567609089,9.952696301269532,0.2007833341272865,0.1101610137195121,-0.1291414586509145,-0.3135495069550305,0.209157059832317,0.1615198647103658,-0.2562360065739328,0.024562928734756,-0.1276527963033537,-27.14949252136752,-19.018748397435893,2.7052905427905385,-2.2453673129754868,8.614967064185812,0.8347900596999165,26.84658699493815,31.111720130589752,34.17878216072124,1577399907.0,-27.717791573305767,-51.0991188344016,0.121991724
90234,1577399907.74,0.3110710303329833,-0.5059940825671683,9.902885227705791,0.4194232542456647,-0.5659075192335169,9.736400619581268,0.2772310336973606,-0.6311641132633858,9.93952819213867,-0.4400858064977134,0.0338670684070121,0.3133634241615854,-0.1151852491425304,0.2244158488948171,0.0699671303353658,-0.2409772175114328,-0.1738013290777439,-0.1734291634908536,-26.88504941239316,-18.3029890491453,3.231319259444256,-3.2725932921245406,1.0997830294705304,-4.032537774725275,27.038278371821367,31.35133435169377,34.250666427052444,1577399907.0,-27.717791573305767,-51.0991188344016,0.121991724
90235,1577399907.75,0.3493782568954833,-0.5203592925281058,9.902885227705791,0.4373797666968366,-0.5850611325147669,9.712458602979703,0.261668722906345,-0.6299670124333078,9.962273107910155,0.0481954435022865,0.1559373809070121,0.0081876429115854,-0.1609616163300304,0.148121903582317,0.1615198647103658,-0.2867535846989328,-0.0364722275152439,-0.0361000619283536,-26.88504941239316,-18.3029890491453,3.231319259444256,9.875899240983376,7.698481206293707,0.6872952768385466,26.89450983915896,31.20756581903136,34.08293647227963,1577399907.0,-27.717791573305767,-51.0991188344016,0.121991724
90236,1577399907.76,0.3230420386337645,-0.5634549224109183,9.87176060612376,0.4565333799780866,-0.5946379391553919,9.7675252411633,0.3119469577696262,-0.6946104572575265,9.9215716796875,0.1397481778772865,-0.2407911347179878,-0.1138826695884145,-0.1914791944550304,0.056569169207317,-0.1741734946646341,-0.3783063190739328,-0.0669898056402439,0.0859702505716463,-27.41393563034188,-20.143513087606834,1.2774983118733108,9.875899240983376,9.16485857892108,0.6872952768385466,26.798664150717343,31.447180040135382,34.41839638182526,1577399907.0,-27.717791573305767,-51.0991188344016,0.121991724
90237,1577399907.77,0.3038884253525146,-0.5299360991687307,9.892111320235088,0.4397739683569928,-0.5970321408155481,9.79386145942502,0.2903991428282199,-0.6251786091129953,9.95987890625,0.0939718106897865,-0.0576856659679878,0.1912931116615854,-0.0694088819550304,0.117604325457317,0.0699671303353658,-0.4088238971989328,-0.0364722275152439,-0.0818764291158536,-27.237640224358973,-17.484978365384613,2.63014358326858,-1.629031725486053,8.431669892607394,0.6872952768385466,26.678857040165333,31.25548866325217,34.250666427052444,1577399907.0,-27.717791573305767,-51.0991188344016,0.121991724
90238,1577399907.78,0.3134652319931396,-0.5730317290515433,9.912462034346415,0.4541391783179303,-0.5539365109327357,9.71006440131955,0.2784281345274387,-0.5892655842106514,9.888052856445311,-0.0433572908727134,0.2474901152820121,-0.0833650914634145,-0.2525143507050305,0.239674637957317,0.1310022865853658,-0.2257184284489328,0.207668397484756,-0.1581703744283537,-27.590231036324784,-18.71199439102564,1.7283800690050692,-1.629031725486053,7.698481206293707,-4.032537774725275,27.18204690448378,31.39925719591458,34.27462784916285,1577399907.0,-27.717791573305767,-51.0991188344016,0.121991724
90239,1577399907.79,0.3182536353134521,-0.5275418975085745,9.89091421940501,0.4349855650366803,-0.5180234860303919,9.834562887647678,0.2927933444883762,-0.6012365925114327,9.861716638183593,0.0481954435022865,0.2474901152820121,0.2523282679115854,-0.0694088819550304,0.3312273723323171,0.0699671303353658,-0.3477887409489328,-0.0059546493902439,0.0859702505716463,-27.590231036324784,-18.71199439102564,1.7283800690050692,-3.067148096294731,8.248372721028971,-0.345168203191039,26.89450983915896,31.25548866325217,34.370473537604454,1577399907.0,-27.717791573305767,-51.0991188344016,0.121991724
90240,1577399907.8,0.327830441954077,-0.5203592925281058,9.883731614424542,0.4541391783179303,-0.5826669308546106,9.76034263618283,0.2640629245665012,-0.6203902057926828,9.935936889648437,-0.1654276033727134,-0.3018262909679878,0.1607755335365854,-0.0694088819550304,0.209157059832317,0.0089319740853658,-0.3172711628239328,0.055080506859756,-0.0055824838033536,-27.590231036324784,-18.71199439102564,1.7283800690050692,-3.2725932921245406,8.065075549450551,-2.852579511834319,26.84658699493815,31.447180040135382,34.22670500494204,1577399907.0,-27.717791573305767,-51.0991188344016,0.121991724
90241,1577399907.81,0.2775522070907958,-0.5443013091296682,9.858592496992902,0.4409710691870709,-0.6102002499464076,9.7292180146008,0.2640629245665012,-0.603630794171589,9.982623822021484,-0.0433572908727134,0.0338670684070121,-0.1138826695884145,0.1289553758574695,0.3770037395198171,0.0547083412728658,-0.3020123737614328,0.024562928734756,-0.1123940072408536,-27.590231036324784,-19.32550240384615,2.179261826136821,-3.06714809629473,5.3156179757742255,-1.672621248943364,26.91847126126936,31.35133435169377,34.46631922604607,1577399907.0,-27.717791573305767,-51.0991188344016,0.121991724
90242,1577399907.82,0.3086768286728271,-0.5562723174304496,9.953163462569073,0.4565333799780866,-0.5587249142530482,9.781890451124235,0.27124552954697,-0.6754568439762765,9.686939916992188,0.1702657560022865,0.1254198027820121,-0.0223299352134145,-0.1609616163300304,0.148121903582317,0.1004847084603658,-0.4393414753239328,-0.0669898056402439,-0.0971352181783536,-27.41393563034188,-17.280475694444444,3.682201016576015,-3.2725932921245406,2.1995660589410586,1.867253539729502,26.84658699493815,31.111720130589752,34.27462784916285,1577399907.0,-27.717791573305767,-51.0991188344016,0.121991724
90243,1577399907.83,0.289523215391577,-0.5395129058093557,9.797540354658915,0.4469565733374616,-0.6449161740186732,9.82019767768674,0.3047643527891575,-0.5916597858708077,9.859322436523437,0.4754415372522865,0.4611131621570121,-0.0528475133384145,0.1747317430449695,0.087086747332317,0.1615198647103658,-0.3172711628239328,-0.1280249618902439,-0.3717934213033537,-27.061344818376067,-18.91649706196581,1.8786739880489869,-3.2725932921245406,2.1995660589410586,1.867253539729502,26.798664150717343,31.20756581903136,34.27462784916285,1577399907.0,-27.717791573305767,-51.0991188344016,0.121991724
90244,1577399907.84,0.2560043921493896,-0.5610607207507621,9.816693967940166,0.4230145567358991,-0.6305509640577357,9.791467257764864,0.280822336187595,-0.6036307941715889,9.995791931152343,0.1397481778772865,0.1254198027820121,0.0081876429115854,-0.1304440382050304,0.178639481707317,-0.1436559165396341,-0.1646832721989328,0.116115663109756,0.2080405630716463,-28.1191172542735,-18.098486378205127,2.7804375023124974,-5.532490446252464,7.881778377872128,-1.2301369003592555,26.990355527600563,31.30341150747297,34.17878216072124,1577399907.0,-27.717791573305767,-51.0991188344016,0.121991724
90245,1577399907.85,0.2763551062607177,-0.5622578215808401,10.004638798262432,0.4266058592261335,-0.5623162167432826,9.84653389594846,0.2832165378477512,-0.6371496174137765,9.97783541870117,0.0024190763147865,-0.0119092987804878,0.2370694788490854,-0.0846676710175304,0.178639481707317,0.0852259193978658,0.0641985637385671,-0.1127661728277439,-0.0055824838033536,-27.590231036324784,-18.50749172008547,3.0810253404003385,-3.2725932921245406,0.0,0.9822848425612848,26.91847126126936,31.30341150747297,34.17878216072124,1577399907.0,-27.717791573305767,-51.0991188344016,0.121991724
90246,1577399907.86,0.289523215391577,-0.5634549224109183,9.881337412764385,0.4254087583960553,-0.5898495358350794,9.784284652784391,0.2544861179258762,-0.6371496174137765,9.890447058105469,0.0787130216272865,-0.1492384003429878,0.0997403772865854,-0.3135495069550305,0.117604325457317,-0.0826207602896341,-0.4088238971989328,0.085598084984756,-0.1886879525533537,-28.47170806623932,-16.871470352564103,0.6763226356976285,-2.450812508805297,1.0997830294705304,-4.032537774725275,26.990355527600563,31.447180040135382,34.27462784916285,1577399907.0,-27.717791573305767,-51.0991188344016,0.121991724
90247,1577399907.87,0.2991000220322021,-0.541907107469512,9.917250437666729,0.4493507749976178,-0.5994263424757044,9.80822666938596,0.2377267063047825,-0.6443322223942453,9.945513696289062,-0.1654276033727134,-0.2102735565929878,0.0692227991615854,0.0526614305449695,0.209157059832317,0.2835901772103658,-0.3477887409489328,0.024562928734756,-0.1886879525533537,-27.590231036324784,-19.120999732905982,2.930731421356415,-2.450812508805297,1.0997830294705304,-4.032537774725275,26.990355527600563,31.111720130589752,34.22670500494204,1577399907.0,-27.717791573305767,-51.0991188344016,0.121991724
90248,1577399907.88,0.2536101904892333,-0.5873969390124808,9.919644639326885,0.4230145567358991,-0.5754843258741419,9.784284652784391,0.280822336187595,-0.6443322223942453,9.926360083007811,0.1092305997522865,-0.1492384003429878,0.0692227991615854,-0.2219967725800304,0.209157059832317,-0.1741734946646341,-0.3477887409489328,-0.1280249618902439,-0.0971352181783536,-30.058366720085463,-17.484978365384613,2.329555745180739,-3.2725932921245406,8.431669892607392,0.6872952768385466,26.89450983915896,31.111720130589752,34.27462784916285,1577399907.0,-27.717791573305767,-51.0991188344016,0.121991724
90249,1577399907.89,0.3050855261825927,-0.5263447966784964,9.886125816084698,0.4325913633765241,-0.5778785275342981,9.789073056104703,0.2963846469786106,-0.6191931049626046,9.962273107910155,0.1092305997522865,0.0796434355945121,-0.0833650914634145,0.2357668992949695,0.2701922160823171,-0.1589147056021341,-0.2409772175114328,-0.0212134384527439,-0.0513588509908536,-29.26503739316239,-17.996235042735044,2.554996623746618,-3.06714809629473,8.431669892607392,-1.377631683220625,26.75074130649654,31.32737292958337,34.058975050169224,1577399907.0,-27.717791573305767,-51.0991188344016,0.121991724
90250,1577399907.9,0.2583985938095458,-0.5562723174304496,9.91006783268626,0.4038609434546491,-0.6161857540967982,9.738794821241424,0.2592745212461887,-0.6563032306950265,10.012551342773437,0.1702657560022865,0.1864549590320121,-0.0528475133384145,0.0221438524199695,0.117604325457317,0.1004847084603658,-0.4088238971989328,0.177150819359756,0.1164878286966463,-29.353185096153844,-17.07597302350427,2.329555745180739,-1.2181413338264289,8.431669892607392,-4.032537774725275,27.038278371821367,31.447180040135382,34.17878216072124,1577399907.0,-27.717791573305767,-51.0991188344016,0.121991724
90251,1577399907.91,0.2655811987900145,-0.5538781157702933,9.93640405094798,0.4397739683569928,-0.5587249142530482,9.726823812940642,0.2927933444883762,-0.651514827374714,9.938331091308592,-0.0738748689977134,-0.1187208222179878,0.0081876429115854,-0.1304440382050304,0.3617449504573171,-0.0215856040396341,-0.1341656940739328,-0.1585425400152439,-0.2192055306783537,-27.9428218482906,-18.3029890491453,2.329555745180739,-1.2181413338264289,8.431669892607392,-4.032537774725275,26.89450983915896,31.39925719591458,34.17878216072124,1577399907.0,-27.717791573305767,-51.0991188344016,0.121991724
90252,1577399907.92,0.289523215391577,-0.522753494188262,9.924433042647198,0.4301971617163678,-0.5706959225538294,9.71485280463986,0.23293830298447,-0.6060249958317452,9.897629663085937,0.0176778653772865,-0.0271680878429878,0.0387052210365854,-0.0999264600800304,0.3312273723323171,-0.0215856040396341,-0.1952008503239328,-0.0059546493902439,-0.1276527963033537,-28.29541266025641,-18.3029890491453,1.127204392829393,-1.2181413338264289,8.431669892607392,1.2772744082840235,26.84658699493815,31.25548866325217,34.17878216072124,1577399907.0,-27.717791573305767,-51.0991188344016,0.121991724
90253,1577399907.93,0.270369602110327,-0.5179650908679495,9.918447538496808,0.4194232542456647,-0.5754843258741419,9.795058560255097,0.2592745212461887,-0.6024336933415109,9.989806427001952,-0.0891336580602134,0.2322313262195121,0.0234464319740854,-0.1609616163300304,0.239674637957317,-0.0215856040396341,-0.1341656940739328,0.1008568740472559,0.0096763052591463,-27.854674145299143,-18.814245726495727,1.9538209475709447,-2.245367312975486,8.614967064185814,-0.9351473346365168,26.822625572827747,31.35133435169377,34.15482073861084,1577399907.0,-27.717791573305767,-51.0991188344016,0.121991724
90254,1577399907.94,0.2775522070907958,-0.5490897124499807,10.022595310713603,0.4421681700171491,-0.5611191159132044,9.72203540962033,0.2760339328672825,-0.6491206257145578,9.995791931152343,0.2923360685022865,0.0338670684070121,0.2828458460365854,-0.0083737257050304,0.4532976848323171,0.1004847084603658,-0.3477887409489328,0.116115663109756,0.0249350943216463,-28.64800347222222,-18.71199439102564,3.231319259444256,-1.0126961379966188,8.614967064185812,1.4247691911453937,26.990355527600563,31.447180040135382,34.27462784916285,1577399907.0,-27.717791573305767,-51.0991188344016,0.121991724
90255,1577399907.95,0.3206478369736083,-0.5969737456531058,9.838241782881571,0.4493507749976178,-0.5730901242139856,9.784284652784391,0.2664571262266575,-0.6156018024723703,9.909600671386718,0.3838888028772865,0.0643846465320121,-0.1749178258384145,-0.1609616163300304,0.026051591082317,-0.0215856040396341,-0.1646832721989328,0.085598084984756,-0.0666176400533536,-26.88504941239316,-17.484978365384613,0.8266165547415459,-2.656257704635109,8.248372721028971,1.4247691911453937,26.798664150717343,31.447180040135382,34.03501362805883,1577399907.0,-27.717791573305767,-51.0991188344016,0.121991724
90256,1577399907.96,0.3326188452743895,-0.5562723174304496,9.919644639326885,0.4050580442847272,-0.6030176449659388,9.75555423286252,0.2245585971739231,-0.6060249958317453,9.9215716796875,0.0176778653772865,0.0338670684070121,-0.0223299352134145,-0.0388913038300304,0.254933427019817,0.0089319740853658,-0.1036481159489328,-0.0975073837652439,-0.1123940072408536,-25.827276976495725,-18.3029890491453,2.329555745180739,-3.169870694209636,3.7575920173576423,1.05603223399197,26.89450983915896,31.25548866325217,34.202743582831644,1577399907.0,-27.717791573305767,-51.0991188344016,0.121991724
90257,1577399907.97,0.270369602110327,-0.5251476958484183,9.847818589522198,0.4206203550757428,-0.6401277706983607,9.762736837842986,0.23293830298447,-0.641938020734089,9.97903251953125,0.1855245450647865,0.0033494902820121,-0.1291414586509145,0.1442141649199695,-0.0655011432926829,-0.1741734946646341,-0.4088238971989328,-0.1890601181402439,0.0249350943216463,-25.827276976495725,-18.3029890491453,2.329555745180739,-1.4235865296562409,8.614967064185812,-3.2950638604184275,26.89450983915896,31.20756581903136,34.27462784916285,1577399907.0,-27.717791573305767,-51.0991188344016,0.121991724
90258,1577399907.98,0.3326188452743895,-0.5610607207507621,9.838241782881571,0.4613217832983991,-0.5635133175733607,9.827380282667209,0.2353325046446262,-0.5413815510075265,9.991003527832031,0.0787130216272865,0.2780076934070121,-0.2664705602134145,-0.3135495069550305,0.178639481707317,-0.1436559165396341,-0.2257184284489328,-0.3111304306402439,0.0249350943216463,-28.47170806623932,-20.143513087606834,2.179261826136821,-4.916154858763031,9.898047265234768,-2.852579511834319,26.89450983915896,31.39925719591458,34.17878216072124,1577399907.0,-27.717791573305767,-51.0991188344016,0.121991724
90259,1577399907.99,0.289523215391577,-0.532330300828887,9.996259092451885,0.4278029600562116,-0.5539365109327357,9.745977426221891,0.2688513278868137,-0.6275728107731515,9.993397729492187,0.0176778653772865,-0.1492384003429878,0.0692227991615854,0.1442141649199695,0.026051591082317,-0.1131383384146341,-0.4698590534489328,-0.0669898056402439,-0.0361000619283536,-28.47170806623932,-18.098486378205127,3.38161317848818,-4.916154858763031,9.898047265234768,-2.852579511834319,27.038278371821367,31.39925719591458,34.08293647227963,1577399907.0,-27.717791573305767,-51.0991188344016,0.121991724
90260,1577399908.0,0.270369602110327,-0.5431042082995902,10.040551823164776,0.4038609434546491,-0.5659075192335169,9.783087551954315,0.2760339328672825,-0.5952510883610421,10.012551342773437,-0.1806863924352134,-0.2407911347179878,-0.0223299352134145,-0.0846676710175304,0.010792802019817,-0.0063268149771341,-0.2104596393864328,-0.1280249618902439,-0.0971352181783536,-27.9428218482906,-18.71199439102564,1.127204392829393,-1.4235865296562409,1.0997830294705295,-1.0826421174978862,26.990355527600563,31.135681552700152,34.130859316500434,1577399908.0,-27.7177891462218,-51.099119860612,0.0115761785
90261,1577399908.01,0.2943116187118895,-0.5490897124499807,9.907673631026103,0.3847073301733991,-0.5730901242139856,9.590354318311736,0.3047643527891575,-0.632361214093464,9.883264453125,-0.0128397127477134,0.0949022246570121,0.0997403772865854,-0.1914791944550304,-0.0960187214176829,-0.0826207602896341,-0.0426129596989328,-0.2195776962652439,-0.0971352181783536,-27.9428218482906,-18.71199439102564,1.127204392829393,-0.396360550507185,0.7331886863136862,0.6872952768385466,26.990355527600563,31.30341150747297,34.08293647227963,1577399908.0,-27.7177891462218,-51.099119860612,0.0115761785
90262,1577399908.02,0.2871290137314208,-0.541907107469512,9.89809682438548,0.4206203550757428,-0.5826669308546106,9.71006440131955,0.242515109625095,-0.6275728107731515,9.878476049804688,-0.0738748689977134,-0.0882032440929878,0.0692227991615854,-0.0694088819550304,0.178639481707317,0.0394495522103658,-0.4393414753239328,-0.0059546493902439,-0.1886879525533537,-28.824298878205127,-18.91649706196581,2.4798496642246564,-1.629031725486053,8.798264235764236,-3.4425586432797965,26.798664150717343,31.30341150747297,34.27462784916285,1577399908.0,-27.7177891462218,-51.099119860612,0.0115761785
90263,1577399908.03,0.2775522070907958,-0.5586665190906058,9.83345337956126,0.3871015318335553,-0.5994263424757044,9.731612216260956,0.2544861179258762,-0.5772945759098702,10.01733974609375,0.0787130216272865,0.1559373809070121,0.0997403772865854,-0.0388913038300304,-0.0960187214176829,-0.0826207602896341,-0.1036481159489328,-0.0364722275152439,-0.2497231088033537,-27.061344818376067,-18.91649706196581,2.7804375023124974,-2.450812508805297,8.065075549450551,1.867253539729502,26.990355527600563,31.111720130589752,33.939167939617214,1577399908.0,-27.7177891462218,-51.099119860612,0.0115761785
90264,1577399908.04,0.2572014929794677,-0.5263447966784964,9.93640405094798,0.4230145567358991,-0.5252060910108607,9.719641207960176,0.2281498996641575,-0.5988423908512764,9.907206469726562,-0.0128397127477134,-0.1492384003429878,0.1149991663490854,-0.0083737257050304,0.056569169207317,0.0699671303353658,-0.0120953815739328,-0.2806128525152439,-0.1276527963033537,-28.1191172542735,-18.91649706196581,1.8786739880489869,-2.450812508805297,8.065075549450551,1.867253539729502,26.94243268337976,31.25548866325217,34.03501362805883,1577399908.0,-27.7177891462218,-51.099119860612,0.0115761785
90265,1577399908.05,0.289523215391577,-0.541907107469512,9.965134470869854,0.4074522459448835,-0.5599220150831263,9.769919442823456,0.2688513278868137,-0.5952510883610421,10.00417163696289,-0.1043924471227134,0.2169725371570121,0.2523282679115854,-0.0999264600800304,0.209157059832317,-0.0063268149771341,-0.1189069050114328,-0.1280249618902439,-0.0055824838033536,-28.1191172542735,-18.91649706196581,1.8786739880489869,-1.115418735911524,7.790129792082917,1.05603223399197,26.559049929613323,31.27945008536257,34.10689789439003,1577399908.0,-27.7177891462218,-51.099119860612,0.0115761785
90266,1577399908.06,0.2679754004501708,-0.5706375273913871,9.857395396162824,0.4134377500952741,-0.5563307125928919,9.815409274366427,0.29039914282822,-0.6371496174137765,9.93354268798828,0.2007833341272865,0.1559373809070121,-0.0528475133384145,-0.0999264600800304,0.148121903582317,0.1310022865853658,-0.2257184284489328,-0.1585425400152439,-0.0971352181783536,-27.9428218482906,-17.893983707264955,1.127204392829393,-3.2725932921245406,0.3665943431568428,-3.147569077557058,26.89450983915896,31.20756581903136,34.17878216072124,1577399908.0,-27.7177891462218,-51.099119860612,0.0115761785
90267,1577399908.07,0.2751580054306395,-0.541907107469512,9.938798252608136,0.4182261534155866,-0.5922437374952356,9.7292180146008,0.3119469577696262,-0.6251786091129953,9.935936889648437,0.0787130216272865,-0.3018262909679878,-0.0833650914634145,-0.2219967725800304,0.3007097942073171,0.0394495522103658,-0.2867535846989328,-0.2195776962652439,-0.1581703744283537,-29.353185096153844,-20.34801575854701,2.63014358326858,-3.067148096294731,7.881778377872128,-3.000074294695689,26.89450983915896,31.39925719591458,34.17878216072124,1577399908.0,-27.7177891462218,-51.099119860612,0.0115761785
90268,1577399908.08,0.327830441954077,-0.5083882842273245,9.91126493351634,0.4278029600562116,-0.5443597042921107,9.814212173536347,0.2951875461485325,-0.5952510883610421,9.967061511230469,0.1244893888147865,-0.0271680878429878,0.0997403772865854,-0.0236325147675304,0.224415848894817,-0.0368443931021341,-0.3783063190739328,3.885036561547256,-0.2344643197408537,-28.648003472222214,-18.916497061965813,2.028967907092904,-2.348089910890392,7.790129792082917,-3.2213164689877427,26.559049929613323,31.27945008536257,34.250666427052444,1577399908.0,-27.7177891462218,-51.099119860612,0.0115761785
90269,1577399908.09,0.3254362402939208,-0.541907107469512,9.96752867253001,0.4948406065405866,-0.5467539059522669,9.745977426221891,0.3167353610899387,-0.6443322223942453,9.935936889648437,0.0481954435022865,0.0338670684070121,-0.1138826695884145,0.3273196336699695,0.3312273723323171,0.0394495522103658,-0.2257184284489328,-0.0975073837652439,-0.2802406869283537,-29.70577590811965,-19.120999732905982,2.028967907092904,-3.2725932921245406,7.698481206293707,0.6872952768385466,26.89450983915896,31.30341150747297,34.17878216072124,1577399908.0,-27.7177891462218,-51.099119860612,0.0115761785
90270,1577399908.1,0.3134652319931396,-0.4964172759265433,9.840635984541729,0.4828695982398053,-0.5467539059522669,9.82019767768674,0.2880049411680637,-0.5677177692692452,9.955090502929687,-0.0738748689977134,-0.0882032440929878,0.0081876429115854,-0.0694088819550304,-0.0044659870426829,0.0699671303353658,-0.3477887409489328,-0.2500952743902439,0.0249350943216463,-28.64800347222222,-19.120999732905982,2.930731421356415,-3.067148096294731,8.248372721028971,0.8347900596999165,26.798664150717343,31.447180040135382,34.27462784916285,1577399908.0,-27.7177891462218,-51.099119860612,0.0115761785
90271,1577399908.11,0.3182536353134521,-0.5179650908679495,9.893308421065166,0.4373797666968366,-0.5611191159132044,9.774707846143768,0.2832165378477512,-0.6299670124333078,10.041281762695313,0.4449239591272865,0.0643846465320121,-0.0528475133384145,0.2052493211699695,0.117604325457317,0.2530725990853658,-0.1036481159489328,-0.1585425400152439,-0.0361000619283536,-27.590231036324784,-18.71199439102564,2.930731421356415,-1.629031725486053,7.698481206293707,1.2772744082840235,26.798664150717343,31.30341150747297,34.27462784916285,1577399908.0,-27.7177891462218,-51.099119860612,0.0115761785
90272,1577399908.12,0.327830441954077,-0.522753494188262,9.92323594181712,0.4421681700171491,-0.5623162167432826,9.7292180146008,0.2856107395079075,-0.622784407452839,9.969455712890625,-0.0128397127477134,0.0643846465320121,0.0692227991615854,-0.2067379835175304,0.148121903582317,0.0241907631478658,-0.3783063190739328,-0.1432837509527439,-0.0971352181783536,-28.03096955128205,-17.996235042735044,2.1041148666148626,-1.629031725486053,7.698481206293707,0.9822848425612852,26.894509839158957,31.32737292958337,34.17878216072124,1577399908.0,-27.7177891462218,-51.099119860612,0.0115761785
90273,1577399908.13,0.3661376685165771,-0.5275418975085745,9.938798252608136,0.4924464048804303,-0.5539365109327357,9.743583224561736,0.3071585544493137,-0.6108133991520577,9.97903251953125,0.0787130216272865,-0.0271680878429878,-0.0833650914634145,-0.2219967725800304,0.2701922160823171,-0.0215856040396341,-0.4393414753239328,0.146633241234756,-0.0666176400533536,-29.353185096153844,-17.893983707264955,2.930731421356415,-1.629031725486053,7.698481206293707,0.6872952768385466,26.89450983915896,31.20756581903136,34.17878216072124,1577399908.0,-27.7177891462218,-51.099119860612,0.0115761785
90274,1577399908.14,0.2943116187118895,-0.5538781157702933,9.924433042647198,0.4589275816382429,-0.5874553341749231,9.79864986274533,0.3239179660704074,-0.6012365925114327,9.89523546142578,-0.0128397127477134,0.0338670684070121,-0.1444002477134145,-0.1304440382050304,0.026051591082317,0.0394495522103658,-0.1341656940739328,-7.665866758765244,0.0554526724466463,-29.353185096153844,-17.893983707264955,2.930731421356415,-3.2725932921245406,7.698481206293707,-3.4425586432797965,26.798664150717343,31.447180040135382,34.08293647227963,1577399908.0,-27.7177891462218,-51.099119860612,0.0115761785
90275,1577399908.15,0.3589550635361083,-0.532330300828887,9.922038840987042,0.4565333799780866,-0.5994263424757044,9.71485280463986,0.3167353610899387,-0.6467264240544015,9.957484704589843,0.1092305997522865,-0.0271680878429878,0.0081876429115854,-0.1609616163300304,-0.0349835651676829,0.1615198647103658,-0.4088238971989328,-0.0975073837652439,-0.0971352181783536,-27.76652644230769,-20.143513087606834,2.7804375023124974,-3.067148096294731,7.881778377872128,-3.8850429918639056,26.798664150717343,31.111720130589752,34.17878216072124,1577399908.0,-27.7177891462218,-51.099119860612,0.0115761785
90276,1577399908.16,0.3314217444443114,-0.522753494188262,9.905279429365947,0.4206203550757428,-0.5240089901807825,9.739991922071502,0.3011730502989231,-0.6443322223942453,9.943119494628906,0.0176778653772865,-0.0729444550304878,-0.0986238805259145,-0.1609616163300304,0.117604325457317,-0.052103182164634,-0.3477887409489328,0.009304139672256,-0.0055824838033536,-28.38356036324786,-18.814245726495727,2.554996623746621,-2.7589803025500137,8.15672413523976,0.7610426682692315,26.72677988438614,31.25548866325217,34.370473537604454,1577399908.0,-27.7177891462218,-51.099119860612,0.0115761785
90277,1577399908.17,0.3685318701767333,-0.5778201323718558,9.905279429365947,0.4182261534155866,-0.5778785275342981,9.743583224561736,0.3071585544493137,-0.632361214093464,9.888052856445311,0.0481954435022865,0.2780076934070121,0.0997403772865854,-0.0999264600800304,0.3007097942073171,-0.1131383384146341,-0.3477887409489328,-0.0364722275152439,-0.0055824838033536,-27.41393563034188,-18.507491720085472,2.179261826136821,-2.861702900464919,0.0,0.6872952768385466,26.798664150717343,31.30341150747297,34.27462784916285,1577399908.0,-27.7177891462218,-51.099119860612,0.0115761785
90278,1577399908.18,0.3445898535751708,-0.5586665190906058,9.938798252608136,0.4708985899390241,-0.5443597042921107,9.817803476026585,0.2760339328672825,-0.5964481891911202,9.90241806640625,-0.0128397127477134,-0.0271680878429878,-0.0833650914634145,-0.0999264600800304,0.087086747332317,0.1615198647103658,-0.4088238971989328,-0.0364722275152439,0.0249350943216463,-27.41393563034188,-18.507491720085472,2.179261826136821,9.875899240983376,-1.832971715784216,-4.032537774725275,27.038278371821367,31.447180040135382,34.27462784916285,1577399908.0,-27.7177891462218,-51.099119860612,0.0115761785
90279,1577399908.19,0.2751580054306395,-0.532330300828887,9.950769260908915,0.4409710691870709,-0.5599220150831263,9.784284652784397,0.3083556552793918,-0.6251786091129953,9.970652813720704,-0.3180154939977134,0.2780076934070121,-0.0528475133384145,-0.2372555616425304,0.346486161394817,-0.0521031821646341,-0.3783063190739328,0.055080506859756,0.0096763052591463,-28.29541266025641,-17.07597302350427,2.930731421356415,-2.656257704635108,-3.849240603146853,0.6872952768385466,26.89450983915896,31.15964297481056,34.22670500494205,1577399908.0,-27.7177891462218,-51.099119860612,0.0115761785
90280,1577399908.2,0.3050855261825927,-0.5658491240710746,9.91006783268626,0.4493507749976178,-0.5587249142530482,9.829774484327364,0.2760339328672825,-0.6251786091129953,9.9981861328125,-0.1959451814977134,0.0338670684070121,0.1912931116615854,-0.2219967725800304,-0.1265362995426829,-0.0521031821646341,-0.3783063190739328,0.085598084984756,-0.0971352181783536,-27.67837873931624,-16.769219017094017,1.50293919043919,-1.2181413338264289,-4.032537774725275,-2.852579511834319,26.870548417048557,31.30341150747297,34.370473537604454,1577399908.0,-27.7177891462218,-51.099119860612,0.0115761785
90281,1577399908.21,0.3182536353134521,-0.522753494188262,9.869366404463603,0.4637159849585553,-0.5826669308546106,9.693304989698456,0.3263121677305637,-0.613207600812214,9.976638317871092,-0.0128397127477134,0.3390428496570121,-0.2054354039634145,-0.0694088819550304,0.209157059832317,-0.0521031821646341,-0.1646832721989328,-0.1280249618902439,-0.0666176400533536,-28.64800347222222,-15.848956997863246,1.7283800690050692,9.875899240983376,-2.5661604020979016,4.81714919695689,26.559049929613323,31.30341150747297,34.27462784916285,1577399908.0,-27.7177891462218,-51.099119860612,0.0115761785
90282,1577399908.22,0.3302246436142333,-0.5610607207507621,9.895702622725324,0.4996290098608991,-0.6090031491163294,9.726823812940642,0.30955275610947,-0.6251786091129953,9.888052856445311,-0.1959451814977134,0.1559373809070121,0.1302579554115854,-0.1914791944550304,0.148121903582317,0.0394495522103658,-0.1952008503239328,-0.0364722275152439,-0.0055824838033536,-28.64800347222222,-15.848956997863246,1.7283800690050692,9.875899240983376,-3.299349088411588,4.227170065511412,26.84658699493815,31.20756581903136,34.17878216072124,1577399908.0,-27.7177891462218,-51.099119860612,0.0115761785
90283,1577399908.23,0.3481811560654052,-0.5562723174304496,9.894505521895244,0.4996290098608991,-0.5491481076124232,9.731612216260956,0.3334947727110324,-0.594053987530964,10.007762939453125,0.0939718106897865,0.0796434355945121,0.2218106897865854,-0.0388913038300304,0.3617449504573171,0.1004847084603658,-0.1952008503239328,0.085598084984756,0.0554526724466463,-28.64800347222222,-15.644454326923077,1.2774983118733076,9.875899240983376,-1.832971715784216,-4.032537774725275,26.84658699493815,31.30341150747297,34.370473537604454,1577399908.0,-27.7177891462218,-51.099119860612,0.0115761785
90284,1577399908.24,0.3230420386337645,-0.5610607207507621,9.98668228581126,0.5223739256323835,-0.594637939155392,9.713655703809785,0.299975949468845,-0.6718655414860422,10.000580334472655,-0.2569803377477134,0.1864549590320121,0.0387052210365854,-0.2372555616425304,0.4075213176448171,0.0241907631478658,-0.1952008503239328,-0.1432837509527439,-0.1123940072408536,-29.17688969017094,-15.644454326923077,1.5780861499611456,11.10857041596224,-2.932754745254745,-3.885042991863905,26.89450983915896,31.23152724114176,34.058975050169224,1577399908.0,-27.7177891462218,-51.099119860612,0.0115761785
90285,1577399908.25,0.3589550635361083,-0.599367947313262,9.850212791182354,0.4493507749976178,-0.5874553341749231,9.796255661085176,0.2927933444883762,-0.641938020734089,10.014945544433592,0.0481954435022865,0.6442186309070121,0.1607755335365854,0.2052493211699695,0.239674637957317,0.1004847084603658,-0.1036481159489328,0.146633241234756,-0.2497231088033537,-29.353185096153844,-16.66696768162393,2.329555745180739,11.519460807621863,-3.299349088411588,-3.737548209002536,26.65489561805493,31.20756581903136,34.370473537604454,1577399908.0,-27.7177891462218,-51.099119860612,0.0115761785
90286,1577399908.26,0.3733202734970458,-0.5395129058093557,9.740079514815168,0.4301971617163678,-0.6042147457960169,9.82019767768674,0.2951875461485325,-0.651514827374714,9.947907897949218,0.7195821622522866,-0.1492384003429878,0.0387052210365854,-0.1609616163300304,0.3617449504573171,0.0699671303353658,0.0489397746760671,-0.0059546493902439,-0.0361000619283536,-29.353185096153844,-16.66696768162393,2.329555745180739,10.081344436813186,-3.849240603146853,-2.4100951632502112,26.990355527600563,31.111720130589752,34.22670500494204,1577399908.0,-27.7177891462218,-51.099119860612,0.0115761785
90287,1577399908.27,0.2548072913193114,-0.6221128630847463,9.912462034346415,0.3727363218726178,-0.5994263424757044,9.796255661085176,0.2927933444883762,-0.6634858356754952,10.01733974609375,0.0634542325647865,0.1254198027820121,0.0387052210365854,-0.0694088819550304,0.3007097942073171,0.1310022865853658,-0.2562360065739328,0.207668397484756,0.0859702505716463,-29.000594284188036,-16.053459668803416,1.728380069005066,9.875899240983376,-3.299349088411588,-3.4425586432797965,26.84658699493815,31.111720130589752,34.08293647227963,1577399908.0,-27.7177891462218,-51.099119860612,0.0115761785
90288,1577399908.28,0.3038884253525146,-0.541907107469512,9.71374329655345,0.3823131285132428,-0.5455568051221887,9.719641207960176,0.2652600253965794,-0.680245247296589,9.853336932373049,0.6280294278772866,0.1864549590320121,0.0997403772865854,-0.0236325147675304,0.087086747332317,-0.1436559165396341,-0.2714947956364328,0.009304139672256,0.0096763052591463,-29.52948050213675,-15.235448985042735,1.2774983118733108,9.875899240983376,-3.665943431568431,-2.85257951183432,26.84658699493815,31.23152724114176,34.01105220594842,1577399908.0,-27.7177891462218,-51.099119860612,0.0115761785
90289,1577399908.29,0.184178342344702,-0.4724752593249808,9.843030186201885,0.4230145567358991,-0.6018205441358606,9.791467257764864,0.2185730930235325,-0.6060249958317452,9.943119494628906,-0.1959451814977134,-0.3933790253429878,-0.0223299352134145,-0.2830319288300305,0.3617449504573171,-0.0521031821646341,-0.3172711628239328,0.116115663109756,-0.1276527963033537,-28.824298878205127,-14.826443643162394,0.0751469595219524,9.875899240983376,-3.299349088411588,-4.032537774725275,26.84658699493815,31.25548866325217,34.22670500494204,1577399908.0,-27.7177891462218,-51.099119860612,0.0115761785
90290,1577399908.3,0.2176971655868895,-0.5826085356921683,10.022595310713603,0.4325913633765241,-0.5659075192335169,9.815409274366427,0.25209191626572,-0.5892655842106514,9.950302099609374,-0.3790506502477134,0.1864549590320121,-0.0223299352134145,-0.0388913038300304,0.117604325457317,-0.1436559165396341,-0.3477887409489328,0.177150819359756,0.1164878286966463,-28.824298878205127,-14.826443643162394,0.0751469595219524,11.724906003451672,-3.849240603146853,-3.8850429918639056,26.89450983915896,31.111720130589752,34.17878216072124,1577399908.0,-27.7177891462218,-51.099119860612,0.0115761785
90291,1577399908.31,0.232062375547827,-0.4988114775866995,9.905279429365947,0.3511885069312116,-0.5587249142530482,9.707670199659391,0.2736397312071262,-0.6179960041325265,10.000580334472655,-0.1501688143102134,-0.0882032440929878,0.0539640100990854,-0.1914791944550304,0.7584734660823171,0.0699671303353658,-0.3477887409489328,0.116115663109756,-0.1581703744283537,-29.000594284188036,-15.644454326923077,0.6763226356976316,10.492234828472808,-39.04229754620379,-3.2950638604184275,26.870548417048557,31.25548866325217,34.27462784916285,1577399908.0,-27.7177891462218,-51.099119860612,0.0115761785
90292,1577399908.32,0.2392449805282958,-0.513176687547637,9.768809934737044,0.3380203978003522,-0.5623162167432826,9.724429611280486,0.2413180087950168,-0.6371496174137765,9.951499200439452,0.2313009122522865,0.7357713652820121,0.1607755335365854,-0.1457028272675304,0.178639481707317,0.0547083412728657,-0.0578717487614328,0.055080506859756,-0.0513588509908536,-29.353185096153844,-14.21293563034188,0.526028716653711,9.97862183889828,-22.453903518356643,-3.9587903832945903,26.84658699493815,31.20756581903136,34.130859316500434,1577399908.0,-27.7177891462218,-51.099119860612,0.0115761785
90293,1577399908.33,0.2583985938095458,-0.4892346709460745,9.912462034346415,0.3966783384741804,-0.5419655026319544,9.79864986274533,0.25209191626572,-0.5964481891911202,9.926360083007811,0.2313009122522865,-0.1492384003429878,0.0081876429115854,-0.0388913038300304,-0.0349835651676829,-0.2046910727896341,-0.3477887409489328,-0.2806128525152439,-0.0361000619283536,-29.17688969017094,-16.462465010683758,0.6763226356976285,10.081344436813186,-40.87526926198801,-3.8850429918639056,27.18204690448378,31.25548866325217,34.03501362805883,1577399908.0,-27.7177891462218,-51.099119860612,0.0115761785
90294,1577399908.34,0.2176971655868895,-0.5514839141101371,9.960346067549542,0.4134377500952741,-0.6066089474561731,9.848928097608615,0.2496977146055637,-0.6299670124333078,10.036493359375,-0.0738748689977134,0.0643846465320121,-0.0833650914634145,0.3273196336699695,0.148121903582317,-0.1741734946646341,-0.2562360065739328,-0.0364722275152439,0.0249350943216463,-30.93984375,-15.644454326923077,0.0751469595219524,9.875899240983376,-39.958783404095904,7.767044854184278,26.89450983915896,31.447180040135382,34.17878216072124,1577399908.0,-27.7177891462218,-51.099119860612,0.0115761785
90295,1577399908.35,0.2631869971298583,-0.484446267625762,9.895702622725324,0.364356616062071,-0.5694988217237513,9.833365786817597,0.2664571262266575,-0.6287699116032296,10.101136804199218,0.0939718106897865,0.1559373809070121,-0.2817293492759145,-0.2219967725800304,0.254933427019817,-0.0063268149771341,-0.2104596393864328,0.009304139672256,-0.0361000619283536,-30.41095753205128,-16.46246501068376,0.0751469595219524,10.69768002430262,-41.42516077672328,7.472055288461539,26.870548417048557,31.23152724114176,34.22670500494205,1577399908.0,-27.7177891462218,-51.099119860612,0.0115761785
90296,1577399908.36,0.1865725440048583,-0.5059940825671683,9.96752867253001,0.3607653135718366,-0.6209741574171107,9.77949624946408,0.2401209079649387,-0.7137640705387766,9.943119494628906,0.1397481778772865,-0.1492384003429878,-0.0528475133384145,-0.1609616163300304,0.5448504192073171,0.0699671303353658,-0.1341656940739328,-0.1585425400152439,-0.3412758431783537,-29.52948050213675,-16.871470352564103,0.6763226356976285,10.69768002430262,-41.42516077672328,7.472055288461539,26.990355527600563,31.25548866325217,34.08293647227963,1577399908.0,-27.7177891462218,-51.099119860612,0.0115761785
90297,1577399908.37,0.2464275855087645,-0.5347245024890432,9.883731614424542,0.3703421202124616,-0.5994263424757044,9.74118902290158,0.1826600681211887,-0.584477180890339,10.36210478515625,-0.1349100252477134,0.1559373809070121,0.0387052210365854,-0.1609616163300304,0.148121903582317,-0.1741734946646341,-0.0731305378239328,0.116115663109756,-0.1886879525533537,-29.00059428418804,-15.030946314102565,0.8266165547415459,11.519460807621863,-41.79175511988012,5.702117894125108,27.038278371821367,31.30341150747297,34.370473537604454,1577399908.0,-27.7177891462218,-51.099119860612,0.0115761785
90298,1577399908.38,0.2548072913193114,-0.5502868132800589,9.83943888371165,0.3033044737280865,-0.6066089474561731,9.784284652784391,0.4148976291563449,-0.3091439899723702,9.87608184814453,-0.0586160799352134,-0.1187208222179878,-0.0223299352134145,-0.2830319288300305,-0.0960187214176829,0.1004847084603658,0.3846331340510671,-0.3416480087652439,0.2080405630716463,-30.058366720085463,-14.62194097222222,0.2254408785658761,11.10857041596224,-42.15834946303696,7.767044854184278,26.72677988438614,31.25548866325217,34.370473537604454,1577399908.0,-27.7177891462218,-51.099119860612,0.0115761785
90299,1577399908.39,0.2200913672470458,-0.5730317290515433,9.917250437666729,0.3392174986304304,-0.5694988217237513,9.726823812940642,0.1934339755918923,-0.6144047016422921,9.725247143554688,-0.1043924471227134,-0.2102735565929878,-0.2054354039634145,-0.0388913038300304,0.163380692644817,-0.1741734946646341,-0.2867535846989328,-0.1738013290777439,-0.1276527963033536,-29.52948050213675,-15.235448985042735,0.3757347976097936,10.081344436813186,-42.15834946303696,8.062034419907016,26.84658699493815,31.30341150747297,34.17878216072124,1577399908.0,-27.7177891462218,-51.099119860612,0.0115761785
90300,1577399908.4,0.2631869971298583,-0.474869460985137,9.965134470869854,0.3224580870093366,-0.5539365109327357,9.865687509229708,0.2688513278868137,-0.4049120563786202,9.686939916992188,0.0481954435022865,-0.0576856659679878,-0.0528475133384145,-0.1914791944550304,-0.0044659870426829,0.0699671303353658,-0.4698590534489328,-0.5857886337652439,0.0554526724466463,-29.17688969017094,-16.053459668803416,0.0751469595219524,9.875899240983376,-42.15834946303696,7.767044854184278,26.84658699493815,31.30341150747297,34.27462784916285,1577399908.0,-27.7177891462218,-51.099119860612,0.0115761785
90301,1577399908.41,0.2727638037704833,-0.541907107469512,10.106392368819073,0.3631595152319928,-0.5922437374952356,9.85850490424924,0.2951875461485325,-0.7592539020817453,9.981426721191406,-0.5926736971227134,-0.3323438690929878,0.1607755335365854,-0.0999264600800304,-0.0655011432926829,-0.0521031821646341,-0.1036481159489328,-0.4942358993902439,-0.0666176400533536,-28.64800347222222,-16.66696768162393,0.2254408785658761,9.875899240983376,-42.15834946303696,8.062034419907015,26.798664150717343,31.30341150747297,34.22670500494204,1577399908.0,-27.7177891462218,-51.099119860612,0.0115761785
90302,1577399908.42,0.2991000220322021,-0.5550752166003713,9.926827244307354,0.4637159849585553,-0.6185799557569545,9.698093393018768,0.3382831760313449,-1.0082508747379952,10.024522351074218,0.1397481778772865,-0.0424268769054878,0.0844815882240854,-0.1914791944550304,-0.0655011432926829,0.0089319740853658,-1.0191754596989329,-0.2195776962652439,-0.0971352181783536,-29.17688969017094,-15.235448985042735,0.6763226356976285,10.69768002430262,-42.15834946303696,5.407128328402368,26.89450983915896,31.20756581903136,34.27462784916285,1577399908.0,-27.7177891462218,-51.099119860612,0.0115761785
90303,1577399908.43,0.3134652319931396,-0.5395129058093557,10.04414312565501,0.5235710264624616,-0.508446679389767,9.997368600538303,0.2736397312071262,-0.6790481464665109,10.005368737792969,0.1702657560022865,-0.1492384003429878,0.1302579554115854,-0.2219967725800304,0.3617449504573171,-0.0215856040396341,-0.0731305378239328,-0.0975073837652439,0.0554526724466463,-29.17688969017094,-15.235448985042735,0.6763226356976285,11.10857041596224,-42.15834946303696,5.997107459847844,26.798664150717343,31.25548866325217,34.29858927127325,1577399908.0,-27.7177891462218,-51.099119860612,0.0115761785
90304,1577399908.44,0.3062826270126708,-0.4485332427234182,9.831059177901103,0.4732927915991803,-0.5180234860303919,9.810620871046115,0.2664571262266575,-0.5701119709294015,10.005368737792969,0.1702657560022865,-0.0576856659679878,-0.1444002477134145,0.0221438524199695,0.178639481707317,-0.2046910727896341,-0.0731305378239328,-0.4332007431402439,-0.0971352181783536,-29.00059428418804,-14.62194097222222,1.4277922309172282,11.519460807621863,-42.15834946303696,5.407128328402368,26.798664150717343,31.20756581903136,34.41839638182526,1577399908.0,-27.7177891462218,-51.099119860612,0.0115761785
90305,1577399908.45,0.327830441954077,-0.5682433257312308,9.943586655928447,0.3679479185523053,-0.5371770993116419,9.662180368116424,0.2209672946836887,-0.8095321369450265,9.787496386718749,0.0176778653772865,-0.2407911347179878,0.0997403772865854,0.0221438524199695,-0.2180890339176829,0.0394495522103658,-0.3477887409489328,0.116115663109756,-0.0055824838033536,-28.29541266025641,-15.848956997863246,0.2254408785658761,11.519460807621863,-42.15834946303696,5.407128328402368,27.08620121604217,31.25548866325217,34.17878216072124,1577399908.0,-27.7177891462218,-51.099119860612,0.0115761785
90306,1577399908.46,0.2883261145614989,-0.5311331999988089,9.726911405684309,0.3847073301733991,-0.6042147457960169,9.67893977973752,0.27124552954697,-0.5006801227848702,9.787496386718749,0.1855245450647865,0.3390428496570121,0.0692227991615854,-0.1304440382050304,0.087086747332317,-0.0826207602896341,-0.2867535846989328,-0.2195776962652439,-0.0666176400533536,-28.824298878205127,-14.41743830128205,0.3757347976097936,10.69768002430262,-45.09110420829171,5.407128328402368,26.84658699493815,31.39925719591458,34.22670500494204,1577399908.0,-27.7177891462218,-51.099119860612,0.0115761785
90307,1577399908.47,0.270369602110327,-0.532330300828887,9.895702622725324,0.3775247251929303,-0.5527394101026575,9.695699191358612,0.2532890170957981,-0.641938020734089,9.941922393798828,0.0176778653772865,-0.4544141815929878,0.0081876429115854,-0.2067379835175304,-0.1875714557926829,0.0089319740853658,-0.3020123737614328,-0.1280249618902439,0.0554526724466463,-28.824298878205127,-14.41743830128205,0.3757347976097936,2.068981799450549,-41.24186360514486,6.587086591293323,27.18204690448378,31.23152724114176,34.22670500494204,1577399908.0,-27.7177891462218,-51.099119860612,0.0115761785
90308,1577399908.48,0.2919174170517333,-0.503599880907012,10.022595310713603,0.5068116148413678,-0.5467539059522669,9.813015072706271,0.2401209079649387,-0.6491206257145578,9.995791931152343,-0.0128397127477134,-0.1797559784679878,0.0081876429115854,-0.0999264600800304,0.148121903582317,-0.0215856040396341,-0.1646832721989328,-0.5247534775152439,-0.0055824838033536,-29.00059428418804,-16.66696768162393,1.127204392829393,-6.148826033741899,-37.392623001998,7.767044854184278,26.89450983915896,31.25548866325217,34.27462784916285,1577399908.0,-27.7177891462218,-51.099119860612,0.0115761785
90309,1577399908.49,0.3541666602157958,-0.5658491240710746,9.881337412764385,0.4469565733374616,-0.5276002926710169,9.863293307569553,0.3334947727110324,-0.5509583576481515,9.928754284667969,-0.0433572908727134,-0.0271680878429878,0.0081876429115854,0.1136965867949695,0.209157059832317,0.0394495522103658,-0.5614117878239329,-0.4026831650152439,-0.2497231088033537,-30.058366720085463,-15.848956997863246,0.2254408785658761,-6.354271229571711,-43.07483532092907,9.094497899936602,26.798664150717343,31.111720130589752,34.27462784916285,1577399908.0,-27.7177891462218,-51.099119860612,0.0115761785
90310,1577399908.5,0.3386043494247802,-0.5167679900378714,10.01900400822337,0.5630753538550397,-0.5647104184034388,9.785481753614471,0.3179324619200168,-0.5976452900211984,9.956287603759764,-0.1349100252477134,-0.0119092987804878,0.1455167444740854,-0.1762204053925304,-0.0349835651676829,0.0547083412728658,-0.3020123737614328,-0.3569067978277439,0.0401938833841463,-29.793923611111104,-15.133197649572647,0.3005878380878317,10.184067034728091,-44.2662669361888,7.840792245614962,26.990355527600563,31.47114146224579,34.130859316500434,1577399908.0,-27.7177891462218,-51.099119860612,0.0115761785
90311,1577399908.51,0.4020506934189208,-0.5466955107898245,9.900491026045636,0.5187826231421491,-0.5587249142530482,9.657391964796112,0.4340512424375949,-0.6467264240544015,10.038887561035155,-0.1959451814977134,-0.0882032440929878,0.1607755335365854,-0.0083737257050304,0.209157059832317,0.1615198647103658,-0.3477887409489328,-0.0669898056402439,0.0859702505716463,-29.52948050213675,-14.826443643162394,0.0751469595219524,10.286789632642996,-43.25813249250749,8.357023985629755,26.798664150717343,31.39925719591458,34.22670500494204,1577399908.0,-27.7177891462218,-51.099119860612,0.0115761785
90312,1577399908.52,0.3493782568954833,-0.465292654344512,9.945980857588603,0.5786376646460554,-0.5036582760694545,9.74837162788205,0.30955275610947,-0.6658800373356515,9.8449572265625,0.1397481778772865,0.0033494902820121,-0.0223299352134145,-0.1914791944550304,0.3617449504573171,0.0394495522103658,-0.2867535846989328,-0.1890601181402439,-0.0666176400533536,-29.52948050213675,-15.235448985042735,-0.5260287166537173,11.519460807621863,-43.99132117882117,8.357023985629755,26.84658699493815,31.447180040135382,34.17878216072124,1577399908.0,-27.7177891462218,-51.099119860612,0.0115761785
90313,1577399908.53,0.4212043067001708,-0.5275418975085745,9.907673631026103,0.5427246397437115,-0.5946379391553919,9.695699191358612,0.4148976291563449,-0.6586974323551827,10.000580334472655,-0.1654276033727134,0.3390428496570121,0.1302579554115854,-0.2830319288300305,0.5143328410823171,-0.2352086509146341,-0.3172711628239328,-0.0669898056402439,-0.1581703744283537,-28.64800347222222,-15.439951655982904,0.8266165547415459,11.724906003451672,-44.54121269355643,8.062034419907015,26.89450983915896,31.30341150747297,34.08293647227963,1577399908.0,-27.7177891462218,-51.099119860612,0.0115761785
90314,1577399908.54,0.3493782568954833,-0.5371187041491995,9.844227287031964,0.4876580015601178,-0.5826669308546106,9.705275997999236,0.3191295627500949,-0.6096162983219796,9.906009368896484,-0.1806863924352134,0.0796434355945121,0.0234464319740854,-0.1457028272675304,0.315968583269817,0.1310022865853658,-0.3325299518864328,-0.0822485947027439,-0.1276527963033536,-28.64800347222222,-15.439951655982906,0.9769104737854758,11.622183405536768,-44.63286127934565,6.660833982724007,27.014316949710967,31.25548866325217,34.32255069338365,1577399908.0,-27.7177891462218,-51.099119860612,0.0115761785
90315,1577399908.55,0.3517724585556395,-0.541907107469512,9.922038840987042,0.4469565733374616,-0.5778785275342981,9.6526035614758,0.2975817478086887,-0.6826394489567452,9.983820922851562,-0.1043924471227134,0.4916307402820121,0.0387052210365854,0.1747317430449695,0.209157059832317,0.1920374428353658,-0.2867535846989328,-0.2195776962652439,-0.1581703744283537,-28.824298878205127,-15.235448985042735,0.9769104737854758,10.492234828472808,-44.54121269355643,5.554623111263735,26.89450983915896,31.20756581903136,34.17878216072124,1577399908.0,-27.7177891462218,-51.099119860612,0.0115761785
90316,1577399908.56,0.3709260718368896,-0.5514839141101371,9.869366404463603,0.4852637998999616,-0.5946379391553919,9.765131039503142,0.2880049411680637,-0.7137640705387766,9.964667309570313,-0.1349100252477134,0.1864549590320121,-0.0833650914634145,-0.3745846632050305,-0.2180890339176829,0.0394495522103658,-0.2867535846989328,-0.1585425400152439,-0.2192055306783537,-30.058366720085463,-15.030946314102565,1.7283800690050692,9.875899240983376,-45.09110420829171,8.062034419907015,26.84658699493815,31.447180040135382,34.370473537604454,1577399908.0,-27.7177891462218,-51.099119860612,0.0115761785
90317,1577399908.57,0.3302246436142333,-0.5526810149402152,9.913659135176497,0.4708985899390241,-0.5850611325147669,9.76034263618283,0.29039914282822,-0.6012365925114327,9.9981861328125,-0.1501688143102134,-0.0119092987804878,0.0844815882240854,-0.1609616163300304,0.056569169207317,0.0394495522103658,-0.4698590534489328,-0.1890601181402439,-0.3107582650533537,-29.26503739316239,-14.315186965811964,0.300587838087838,10.69768002430262,-44.35791552197802,8.357023985629755,26.870548417048557,31.25548866325217,34.08293647227963,1577399908.0,-27.7177891462218,-51.099119860612,0.0115761785
90318,1577399908.58,0.327830441954077,-0.599367947313262,9.945980857588603,0.4840666990698835,-0.5754843258741419,9.78069335029416,0.280822336187595,-0.6395438190739328,9.97304701538086,-0.4095682283727134,0.1559373809070121,-0.0528475133384145,-0.2067379835175304,0.178639481707317,-0.1436559165396341,-0.3172711628239328,-0.1585425400152439,-0.0971352181783536,-28.47170806623932,-14.826443643162394,0.3757347976097936,10.081344436813186,-45.09110420829171,6.882076157016062,26.84658699493815,31.32737292958337,34.22670500494204,1577399908.0,-27.7177891462218,-51.099119860612,0.0115761785
90319,1577399908.59,0.3517724585556395,-0.5443013091296682,9.902885227705791,0.4589275816382429,-0.6090031491163294,9.810620871046115,0.3813788059141574,-0.6850336506169015,9.97184991455078,0.1702657560022865,0.1864549590320121,-0.0833650914634145,-0.4661373975800305,0.2701922160823171,-0.1131383384146341,-0.3783063190739328,0.116115663109756,-0.0055824838033536,-28.47170806623932,-14.826443643162394,0.3757347976097936,10.286789632642996,-45.09110420829171,6.587086591293322,26.798664150717343,31.39925719591458,34.17878216072124,1577399908.0,-27.7177891462218,-51.099119860612,0.0115761785
90320,1577399908.6,0.3350130469345458,-0.5251476958484183,9.924433042647198,0.5331478331030866,-0.623368359077267,9.724429611280486,0.2880049411680637,-0.6730626423161202,9.981426721191406,-0.0738748689977134,0.1254198027820121,0.1607755335365854,-0.2219967725800304,0.087086747332317,0.1310022865853658,-0.3783063190739328,-0.0364722275152439,-0.0971352181783536,-29.17688969017094,-14.008432959401707,0.3757347976097936,10.286789632642996,-45.09110420829171,6.587086591293322,27.229969748704587,31.01587444214814,34.17878216072124,1577399908.0,-27.7177891462218,-51.099119860612,0.0115761785
90321,1577399908.61,0.3230420386337645,-0.5945795439929494,9.819088169600322,0.4421681700171491,-0.5946379391553919,9.774707846143768,0.3287063693907199,-0.6754568439762765,9.94072529296875,-0.1196512361852134,0.110161013719512,-0.0833650914634145,-0.2830319288300305,-0.0960187214176829,-0.1436559165396341,-0.1341656940739328,0.207668397484756,-0.0971352181783536,-29.000594284188036,-14.212935630341878,0.0751469595219556,13.163022374260352,-48.02385895354645,6.292097025570584,26.870548417048557,31.25548866325217,34.27462784916285,1577399908.0,-27.7177891462218,-51.099119860612,0.0115761785
90322,1577399908.62,0.2919174170517333,-0.5826085356921683,9.912462034346415,0.4481536741675397,-0.6066089474561732,9.810620871046114,0.2880049411680637,-0.6203902057926828,9.916783276367187,-0.1959451814977134,-0.1492384003429878,0.0692227991615854,-0.0999264600800304,0.239674637957317,0.1004847084603658,-0.2257184284489328,-0.0669898056402439,0.0249350943216463,-29.00059428418804,-15.848956997863246,-0.0751469595219649,10.69768002430262,-46.37418440934066,6.144602242709214,26.84658699493815,31.135681552700152,34.250666427052444,1577399908.0,-27.7177891462218,-51.099119860612,0.0115761785
90323,1577399908.63,0.2655811987900145,-0.5826085356921683,9.914856236006573,0.4565333799780866,-0.5874553341749231,9.753160031202365,0.2975817478086887,-0.6371496174137765,9.974244116210937,-0.0433572908727134,0.0643846465320121,0.2523282679115854,-0.0388913038300304,0.2701922160823171,-0.1436559165396341,-0.0731305378239328,-0.0975073837652439,-0.0361000619283536,-29.00059428418804,-15.848956997863246,-0.0751469595219649,10.081344436813186,-44.907807036713294,5.8496126769864745,26.798664150717343,31.447180040135382,34.22670500494204,1577399908.0,-27.7177891462218,-51.099119860612,0.0115761785
90324,1577399908.64,0.2679754004501708,-0.5945795439929495,9.881337412764385,0.3942841368140241,-0.6113973507764856,9.810620871046115,0.2951875461485325,-0.6443322223942453,9.995791931152343,0.0176778653772865,0.4611131621570121,-0.2664705602134145,0.0221438524199695,0.117604325457317,-0.0826207602896341,-0.1646832721989328,0.055080506859756,0.1470054068216463,-28.824298878205127,-14.826443643162394,0.0751469595219524,11.519460807621863,-45.09110420829171,6.587086591293322,26.798664150717343,31.20756581903136,34.17878216072124,1577399908.0,-27.7177891462218,-51.099119860612,0.0115761785
90325,1577399908.65,0.2667782996200927,-0.5838056365222464,9.92323594181712,0.4373797666968366,-0.5982292416456263,9.83935129096799,0.23293830298447,-0.632361214093464,9.976638317871092,0.0329366544397865,0.2627489043445121,0.0844815882240854,0.0679202196074695,0.224415848894817,0.0394495522103658,-0.1341656940739328,0.024562928734756,-0.0818764291158536,-29.000594284188036,-15.235448985042732,-0.2254408785658824,9.97862183889828,-44.26626693618881,5.77586528555579,26.91847126126936,31.351334351693776,34.250666427052444,1577399908.0,-27.7177891462218,-51.099119860612,0.0115761785
90326,1577399908.66,0.2464275855087645,-0.5706375273913871,9.914856236006573,0.4110435484351178,-0.5922437374952356,9.731612216260956,0.2760339328672825,-0.6084191974919014,9.97184991455078,-0.0738748689977134,0.1254198027820121,-0.1138826695884145,-0.3135495069550305,0.209157059832317,-0.0215856040396341,-0.0731305378239328,-0.1280249618902439,0.1775229849466463,-29.00059428418804,-14.21293563034188,0.526028716653711,11.519460807621863,-45.09110420829171,5.702117894125108,26.84658699493815,31.30341150747297,34.17878216072124,1577399908.0,-27.7177891462218,-51.099119860612,0.0115761785
90327,1577399908.67,0.2392449805282958,-0.5730317290515433,9.950769260908915,0.4397739683569928,-0.5826669308546106,9.786678854444547,0.2736397312071262,-0.6084191974919014,9.9981861328125,-0.0128397127477134,0.2780076934070121,-0.0528475133384145,0.1136965867949695,0.178639481707317,0.0394495522103658,-0.1646832721989328,-0.2500952743902439,0.1164878286966463,-29.00059428418804,-14.21293563034188,0.526028716653711,11.519460807621863,-44.35791552197802,6.587086591293322,26.89450983915896,31.447180040135382,34.46631922604607,1577399908.0,-27.7177891462218,-51.099119860612,0.0115761785
90328,1577399908.68,0.2536101904892333,-0.5466955107898245,9.91006783268626,0.4589275816382429,-0.6281567623975794,9.719641207960176,0.242515109625095,-0.6347554157536203,9.904812268066406,-0.0128397127477134,-0.1187208222179878,0.0997403772865854,0.1136965867949695,0.148121903582317,0.0089319740853658,-0.1036481159489328,-0.0059546493902439,-0.0971352181783536,-29.00059428418804,-14.21293563034188,0.526028716653711,11.519460807621863,-43.62472683566433,5.407128328402368,26.89450983915896,31.25548866325217,34.03501362805883,1577399908.0,-27.7177891462218,-51.099119860612,0.0115761785
90329,1577399908.69,0.2847348120712645,-0.5454984099597464,9.90408232853587,0.4182261534155866,-0.5790756283643763,9.71485280463986,0.2353325046446262,-0.6455293232243234,9.926360083007811,0.0634542325647865,0.0796434355945121,0.1302579554115854,0.0068850633574695,0.3770037395198171,-0.0368443931021341,-0.1799420612614328,0.009304139672256,0.1317466177591463,-29.52948050213675,-14.21293563034188,0.6763226356976285,11.622183405536768,-49.031993397227765,6.365844417001267,26.84658699493815,31.25548866325217,34.10689789439003,1577399908.0,-27.7177891462218,-51.099119860612,0.0115761785
90330,1577399908.7,0.279946408750952,-0.5395129058093557,9.905279429365947,0.3871015318335553,-0.6042147457960169,9.738794821241424,0.2257556980040012,-0.5964481891911202,9.923965881347655,0.1397481778772865,0.1254198027820121,0.2218106897865854,0.0526614305449695,0.087086747332317,-0.0521031821646341,-0.3783063190739328,0.085598084984756,0.1164878286966463,-29.353185096153844,-17.07597302350427,0.526028716653711,10.286789632642996,-49.49023632617382,5.407128328402368,26.798664150717343,31.20756581903136,34.03501362805883,1577399908.0,-27.7177891462218,-51.099119860612,0.0115761785
90331,1577399908.71,0.2464275855087645,-0.5730317290515433,9.91006783268626,0.4062551451148053,-0.5922437374952356,9.822591879346897,0.23293830298447,-0.5772945759098702,10.01733974609375,-0.0433572908727134,0.1559373809070121,-0.0528475133384145,-0.0083737257050304,0.056569169207317,0.0394495522103658,-0.1952008503239328,0.085598084984756,0.0554526724466463,-29.353185096153844,-15.439951655982904,0.2254408785658761,10.286789632642996,-49.49023632617382,5.407128328402368,26.84658699493815,31.30341150747297,34.27462784916285,1577399908.0,-27.7177891462218,-51.099119860612,0.0115761785
90332,1577399908.72,0.2572014929794677,-0.5155708892077933,9.956754765059308,0.3918899351538678,-0.5850611325147669,9.765131039503142,0.261668722906345,-0.622784407452839,9.9981861328125,0.0939718106897865,0.0491258574695121,-0.0833650914634145,-0.0388913038300304,0.239674637957317,-0.2962438071646341,-0.2562360065739328,0.177150819359756,-0.1276527963033537,-29.088741987179485,-15.133197649572647,0.4508817571317523,10.492234828472808,-49.3069391545954,5.554623111263735,26.870548417048557,31.447180040135382,34.27462784916285,1577399908.0,-27.7177891462218,-51.099119860612,0.0115761785
90333,1577399908.73,0.270369602110327,-0.5251476958484183,9.869366404463603,0.3882986326636334,-0.5635133175733607,9.757948434522676,0.2736397312071262,-0.613207600812214,9.974244116210937,-0.0433572908727134,0.3085252715320121,-0.0223299352134145,-0.1914791944550304,0.239674637957317,0.1920374428353657,-0.0731305378239328,-3.896945860327744,0.0707114615091463,-28.47170806623932,-14.826443643162394,0.3757347976097936,10.081344436813186,-49.3069391545954,6.144602242709213,26.559049929613323,31.399257195914583,34.17878216072124,1577399908.0,-27.7177891462218,-51.099119860612,0.0115761785
90334,1577399908.74,0.2775522070907958,-0.4820520659656058,9.912462034346415,0.4325913633765241,-0.5491481076124232,9.774707846143768,0.2592745212461887,-0.6179960041325265,9.890447058105469,-0.0433572908727134,0.0033494902820121,-0.2969881383384145,-0.1914791944550304,0.148121903582317,0.1004847084603658,-0.1036481159489328,0.024562928734756,-0.2497231088033537,-29.88207131410256,-14.826443643162394,0.0751469595219524,11.519460807621863,-45.09110420829171,5.702117894125108,26.89450983915896,31.20756581903136,34.370473537604454,1577399908.0,-27.7177891462218,-51.099119860612,0.0115761785
90335,1577399908.75,0.3014942236923583,-0.5275418975085745,9.922038840987042,0.3894957334937116,-0.5730901242139856,9.774707846143768,0.25209191626572,-0.5916597858708077,9.919177478027343,0.1397481778772865,0.2780076934070121,-0.1138826695884145,0.0221438524199695,0.056569169207317,-0.0521031821646341,-0.0120953815739328,-0.2195776962652439,0.2080405630716463,-28.29541266025641,-15.848956997863246,1.127204392829393,9.875899240983376,-46.557481580919074,5.997107459847844,26.84658699493815,31.25548866325217,34.03501362805883,1577399908.0,-27.7177891462218,-51.099119860612,0.0115761785
90336,1577399908.76,0.2727638037704833,-0.4988114775866995,9.849015690352276,0.3942841368140241,-0.5611191159132044,9.745977426221891,0.242515109625095,-0.613207600812214,9.873687646484374,0.0329366544397865,0.0033494902820121,-0.1138826695884145,-0.0694088819550304,-0.0044659870426829,-0.0521031821646341,-0.5003766315739329,0.177150819359756,0.0554526724466463,-28.824298878205127,-15.030946314102565,0.2254408785658792,10.69768002430262,-45.82429289460539,5.407128328402368,26.89450983915896,31.20756581903136,34.08293647227963,1577399908.0,-27.7177891462218,-51.099119860612,0.0115761785
90337,1577399908.77,0.2823406104111083,-0.484446267625762,9.91006783268626,0.3799189268530866,-0.5527394101026575,9.75435713203244,0.261668722906345,-0.6120104999821359,9.94671079711914,-0.0738748689977134,-0.1492384003429878,-0.0528475133384145,-0.2067379835175304,0.193898270769817,-0.1131383384146341,-0.1799420612614328,-0.1585425400152439,0.1012290396341463,-29.00059428418804,-13.803930288461538,-0.0751469595219649,13.9848031575796,-46.557481580919074,5.997107459847844,26.89450983915896,31.327372929583376,34.298589271273244,1577399908.0,-27.7177891462218,-51.099119860612,0.0115761785
90338,1577399908.78,0.2583985938095458,-0.4772636626452933,9.917250437666729,0.3751305235327741,-0.5467539059522669,9.824986081007053,0.2449093112852512,-0.5916597858708077,9.93354268798828,-0.0128397127477134,0.1559373809070121,-0.1749178258384145,-0.4051022413300305,-0.0349835651676829,-0.1436559165396341,-0.3783063190739328,0.116115663109756,0.0859702505716463,-29.17688969017094,-15.644454326923077,0.0751469595219524,13.573912765919976,-48.02385895354645,2.1622431054522404,26.89450983915896,31.20756581903136,34.22670500494204,1577399908.0,-27.7177891462218,-51.099119860612,0.0115761785
90339,1577399908.79,0.2488217871689208,-0.5299360991687307,9.984288084151103,0.4014667417944929,-0.5036582760694545,9.80822666938596,0.2473035129454075,-0.5916597858708077,10.000580334472655,0.0787130216272865,0.0949022246570121,-0.3580232945884145,-0.1304440382050304,0.148121903582317,0.2225550209603658,-0.2562360065739328,-0.1280249618902439,-0.0055824838033536,-30.76354834401709,-14.62194097222222,0.526028716653711,13.163022374260352,-45.09110420829171,0.9822848425612848,26.89450983915896,31.01587444214814,34.17878216072124,1577399908.0,-27.7177891462218,-51.099119860612,0.0115761785
90340,1577399908.8,0.2548072913193114,-0.4892346709460745,9.959148966719464,0.4086493467749616,-0.5299944943311732,9.790270156934785,0.2664571262266575,-0.585674281720417,9.97184991455078,-0.0433572908727133,0.0491258574695121,0.1607755335365854,-0.1304440382050304,-0.0197247761051828,-0.0063268149771341,-0.3477887409489328,-0.1432837509527439,-0.1123940072408536,-29.793923611111108,-15.337700320512818,-0.4508817571317617,10.389512230557903,-45.54934713723776,6.660833982724007,27.03827837182137,31.35133435169377,34.32255069338365,1577399908.0,-27.7177891462218,-51.099119860612,0.0115761785
90341,1577399908.81,0.2991000220322021,-0.5179650908679495,9.945980857588603,0.3775247251929303,-0.508446679389767,9.762736837842986,0.2688513278868137,-0.584477180890339,9.962273107910155,-0.0433572908727134,0.3695604277820121,-0.0528475133384145,-0.2525143507050305,-0.0960187214176829,0.0089319740853658,-0.1646832721989328,-0.1280249618902439,-0.3412758431783537,-30.41095753205128,-13.394924946581195,-0.0751469595219649,10.69768002430262,-48.75704763986013,5.407128328402368,26.990355527600563,31.20756581903136,34.03501362805883,1577399908.0,-27.7177891462218,-51.099119860612,0.0115761785
90342,1577399908.82,0.3062826270126708,-0.5275418975085745,9.869366404463603,0.4182261534155866,-0.5347828976514857,9.743583224561736,0.3215237644102512,-0.5677177692692452,9.950302099609374,0.0787130216272865,0.2474901152820121,-0.0528475133384145,-0.0999264600800304,-0.0960187214176829,-0.1436559165396341,-0.3783063190739328,-0.2195776962652439,-0.0971352181783536,-28.824298878205127,-15.235448985042735,0.3757347976097936,10.90312522013243,-49.67353349775224,6.7345813741546925,26.798664150717343,31.39925719591458,34.27462784916285,1577399908.0,-27.7177891462218,-51.099119860612,0.0115761785
90343,1577399908.83,0.346984055235327,-0.532330300828887,9.85978959782298,0.4349855650366803,-0.5754843258741419,9.7292180146008,0.2496977146055637,-0.5916597858708077,9.938331091308592,-0.0128397127477134,-0.1187208222179878,0.1912931116615854,-0.0083737257050304,-0.0349835651676829,-0.1131383384146341,-0.3783063190739328,-0.1890601181402439,0.0554526724466463,-28.1191172542735,-16.053459668803416,0.6763226356976285,10.081344436813186,-46.37418440934065,2.0147483225908704,26.798664150717343,31.30341150747297,34.22670500494204,1577399908.0,-27.7177891462218,-51.099119860612,0.0115761785
90344,1577399908.84,0.3134652319931396,-0.5095853850574027,9.913659135176497,0.4421681700171491,-0.5228118893507044,9.778299148634003,0.3143411594297824,-0.5772945759098702,9.949104998779296,-0.0280985018102134,-0.1644971894054878,0.2065519007240854,-0.1304440382050304,-0.0044659870426829,0.1157434975228658,-0.2714947956364328,-0.0975073837652439,-0.0666176400533536,-28.1191172542735,-16.053459668803416,0.6763226356976285,9.97862183889828,-46.28253582355144,1.941000931160186,26.91847126126936,31.13568155270016,34.298589271273244,1577399908.0,-27.7177891462218,-51.099119860612,0.0115761785
90345,1577399908.85,0.2991000220322021,-0.5155708892077933,9.91006783268626,0.4493507749976178,-0.5970321408155481,9.76034263618283,0.27124552954697,-0.5796887775700265,9.964667309570313,-0.0128397127477134,0.0338670684070121,-0.0528475133384145,0.0831790086699695,-0.1875714557926829,0.2530725990853658,-0.4088238971989328,0.024562928734756,-0.1886879525533537,-29.353185096153844,-15.030946314102565,0.526028716653711,9.875899240983376,-46.19088723776223,1.867253539729502,26.89450983915896,31.30341150747297,34.27462784916285,1577399908.0,-27.7177891462218,-51.099119860612,0.0115761785
90346,1577399908.86,0.3062826270126708,-0.5275418975085745,9.78317514469798,0.4134377500952741,-0.5419655026319544,9.789073056104703,0.3263121677305637,-0.632361214093464,10.04846436767578,-0.2569803377477134,0.0338670684070121,-0.0528475133384145,-0.0083737257050304,0.3007097942073171,0.0699671303353658,-0.3172711628239328,0.146633241234756,-0.1276527963033537,-29.70577590811965,-15.439951655982904,-0.3757347976097998,10.69768002430262,-48.02385895354645,6.292097025570584,26.990355527600563,31.111720130589752,34.27462784916285,1577399908.0,-27.7177891462218,-51.099119860612,0.0115761785
90347,1577399908.87,0.3098739295029052,-0.5335274016589652,9.92922144596751,0.4397739683569928,-0.5371770993116419,9.801044064405486,0.2927933444883762,-0.565323567609089,9.952696301269532,-0.0891336580602134,0.2322313262195121,0.0997403772865854,0.2052493211699695,0.2701922160823171,0.1310022865853658,-0.2257184284489328,-7.696384336890244,-0.0055824838033536,-30.058366720085463,-15.030946314102565,-0.3757347976097998,9.875899240983376,-48.02385895354645,5.407128328402368,27.03827837182137,31.063797286368946,34.17878216072124,1577399908.0,-27.7177891462218,-51.099119860612,0.0115761785
90348,1577399908.88,0.3254362402939208,-0.5730317290515433,9.89091421940501,0.4469565733374616,-0.5563307125928919,9.816606375196503,0.3011730502989231,-0.6598945331852609,9.95389340209961,0.2923360685022865,0.0033494902820121,0.0081876429115854,0.0679202196074695,0.148121903582317,-0.0826207602896341,-0.3172711628239328,-0.0517310165777439,-0.1581703744283537,-30.058366720085463,-15.030946314102565,-0.3757347976097998,10.69768002430262,-44.724509865134856,5.702117894125106,26.990355527600563,31.375295773804176,34.130859316500434,1577399908.0,-27.7177891462218,-51.099119860612,0.0115761785
90349,1577399908.89,0.3326188452743895,-0.5443013091296682,9.902885227705791,0.4301971617163678,-0.5826669308546106,9.695699191358612,0.2856107395079075,-0.6563032306950265,9.90241806640625,-0.0128397127477134,0.2474901152820121,-0.1138826695884145,-0.1304440382050304,-0.1875714557926829,-0.0521031821646341,-0.2562360065739328,-0.1585425400152439,-0.1581703744283537,-30.23466212606837,-14.41743830128205,-0.2254408785658824,10.286789632642996,-45.09110420829171,1.2772744082840235,26.990355527600563,31.39925719591458,34.370473537604454,1577399908.0,-27.7177891462218,-51.099119860612,0.0115761785
90350,1577399908.9,0.2871290137314208,-0.5299360991687307,9.811905564619854,0.4661101866187116,-0.5730901242139856,9.6909107880383,0.3071585544493137,-0.6395438190739328,9.931148486328125,-0.1043924471227134,-0.0576856659679878,-0.0223299352134145,-0.3135495069550305,0.087086747332317,-0.0826207602896341,-0.2867535846989328,-0.3721655868902439,-0.0361000619283536,-29.353185096153844,-15.439951655982904,0.526028716653711,9.875899240983376,-45.09110420829171,1.2772744082840235,26.798664150717343,31.30341150747297,34.17878216072124,1577399908.0,-27.7177891462218,-51.099119860612,0.0115761785
90351,1577399908.91,0.3098739295029052,-0.5347245024890432,9.87176060612376,0.4972348082007428,-0.5587249142530482,9.74837162788205,0.2568803195860325,-0.632361214093464,9.919177478027343,0.0481954435022865,0.0643846465320121,0.0387052210365854,-0.0388913038300304,0.2701922160823171,0.0089319740853658,-0.2257184284489328,-0.0364722275152439,0.1775229849466463,-30.14651442307692,-14.315186965811964,0.9017635142635108,10.492234828472808,-47.84056178196803,1.4247691911453937,26.91847126126936,31.30341150747297,34.17878216072124,1577399908.0,-27.7177891462218,-51.099119860612,0.0115761785
90352,1577399908.92,0.2871290137314208,-0.5730317290515433,9.869366404463603,0.4565333799780866,-0.5910466366651576,9.78667885444455,0.3047643527891575,-0.6239815082829171,9.931148486328125,0.0481954435022865,0.1864549590320121,0.1912931116615854,-0.1609616163300304,0.224415848894817,0.0241907631478658,-0.3020123737614328,-0.1432837509527439,-0.1886879525533536,-29.52948050213675,-14.008432959401707,0.9769104737854758,11.314015611792057,-46.19088723776224,0.8347900596999165,26.84658699493815,31.23152724114176,34.32255069338365,1577399908.0,-27.7177891462218,-51.099119860612,0.0115761785
90353,1577399908.93,0.2943116187118895,-0.5562723174304496,9.912462034346415,0.4014667417944929,-0.5683017208936731,9.719641207960176,0.2688513278868137,-0.6347554157536203,9.935936889648437,-0.2264627596227134,0.1254198027820121,-0.0833650914634145,-0.0999264600800304,0.209157059832317,0.0089319740853658,-0.3477887409489328,-0.0669898056402439,-0.1276527963033537,-29.70577590811965,-15.030946314102565,0.526028716653711,11.519460807621863,-48.02385895354645,0.6872952768385466,26.65489561805493,31.30341150747297,33.939167939617214,1577399908.0,-27.7177891462218,-51.099119860612,0.0115761785
90354,1577399908.94,0.3014942236923583,-0.5610607207507621,9.900491026045636,0.4517449766577741,-0.623368359077267,9.734006417921112,0.2951875461485325,-0.6539090290348702,9.986215124511718,-0.1654276033727134,0.0338670684070121,0.0997403772865854,-0.3745846632050305,0.148121903582317,0.1920374428353658,-0.3783063190739328,-0.1890601181402439,-0.1886879525533537,-28.64800347222222,-16.25796233974359,1.127204392829393,9.875899240983376,-48.75704763986013,5.407128328402368,26.89450983915896,31.447180040135382,34.27462784916285,1577399908.0,-27.7177891462218,-51.099119860612,0.0115761785
90355,1577399908.95,0.3170565344833739,-0.5622578215808401,9.887322916914776,0.4649130857886335,-0.6209741574171107,9.718444107130097,0.3011730502989231,-0.6575003315251047,9.95987890625,0.0634542325647865,-0.0729444550304878,0.0692227991615854,-0.1151852491425304,0.285451005144817,0.0089319740853658,-0.1952008503239328,-0.2348364853277439,0.1622641958841463,-29.00059428418804,-14.21293563034188,-0.9769104737854788,10.69768002430262,-48.02385895354645,5.702117894125106,26.990355527600563,31.135681552700152,34.27462784916285,1577399908.0,-27.7177891462218,-51.099119860612,0.0115761785
90356,1577399908.96,0.3254362402939208,-0.5586665190906058,9.926827244307354,0.4254087583960553,-0.5706959225538294,9.76034263618283,0.2664571262266575,-0.6563032306950265,10.000580334472655,-0.1654276033727134,0.0949022246570121,0.1912931116615854,-0.3745846632050305,0.2701922160823171,0.1004847084603658,-0.2562360065739328,0.024562928734756,-0.0666176400533536,-29.00059428418804,-15.030946314102565,-0.3757347976097998,11.519460807621863,-47.29067026723276,5.997107459847844,26.89450983915896,31.20756581903136,34.41839638182526,1577399908.0,-27.7177891462218,-51.099119860612,0.0115761785
90357,1577399908.97,0.3254362402939208,-0.5538781157702933,9.893308421065166,0.4589275816382429,-0.6113973507764856,9.765131039503142,0.2975817478086887,-0.6347554157536203,9.923965881347655,0.0787130216272865,-0.0882032440929878,-0.0223299352134145,-0.0694088819550304,-0.0349835651676829,0.0699671303353658,-0.1952008503239328,0.024562928734756,-0.1581703744283537,-29.88207131410256,-15.235448985042735,0.6763226356976285,12.341241590941108,-44.724509865134856,5.407128328402368,26.89450983915896,31.20756581903136,34.27462784916285,1577399908.0,-27.7177891462218,-51.099119860612,0.0115761785
90358,1577399908.98,0.3254362402939208,-0.5778201323718558,9.881337412764385,0.4517449766577741,-0.6161857540967982,9.738794821241424,0.280822336187595,-0.6491206257145578,9.938331091308592,-0.1349100252477134,-0.0271680878429878,-0.1444002477134145,-0.1304440382050304,0.178639481707317,0.0394495522103658,-0.2867535846989328,-0.2500952743902439,-0.1276527963033537,-29.52948050213675,-14.008432959401707,0.9769104737854758,11.519460807621863,-44.724509865134856,0.6872952768385466,26.89450983915896,31.20756581903136,34.27462784916285,1577399908.0,-27.7177891462218,-51.099119860612,0.0115761785
90359,1577399908.99,0.2955087195419676,-0.5490897124499807,9.92323594181712,0.4481536741675397,-0.6066089474561731,9.777102047803924,0.2844136386778294,-0.6263757099430733,9.989806427001952,-0.0738748689977134,-0.0119092987804878,0.0387052210365854,0.0679202196074695,0.117604325457317,0.0699671303353658,-0.1189069050114328,-0.0059546493902439,-0.0513588509908536,-28.736151175213674,-15.133197649572647,-0.4508817571317586,11.005847818047336,-46.46583299512987,5.480875719833051,26.822625572827747,31.23152724114176,34.250666427052444,1577399908.0,-27.7177891462218,-51.099119860612,0.0115761785
90360,1577399909.0,0.3086768286728271,-0.522753494188262,9.89091421940501,0.4254087583960553,-0.6066089474561731,9.738794821241424,0.2951875461485325,-0.641938020734089,9.974244116210937,0.0481954435022865,0.0338670684070121,-0.2359529820884145,-0.0388913038300304,0.178639481707317,0.0089319740853658,-0.1646832721989328,-0.0059546493902439,0.0249350943216463,-28.29541266025641,-14.62194097222222,-0.6763226356976347,11.519460807621863,-46.557481580919074,5.407128328402368,27.038278371821367,31.20756581903136,34.17878216072124,1577399908.0,-27.7177891462218,-51.099119860612,0.0115761785
90361,1577399909.01,0.2847348120712645,-0.5682433257312308,9.89091421940501,0.4110435484351178,-0.5635133175733607,9.777102047803924,0.3143411594297824,-0.651514827374714,10.034099157714843,0.2313009122522865,0.0643846465320121,0.1302579554115854,-0.2219967725800304,0.148121903582317,-0.0826207602896341,-0.3477887409489328,-0.0975073837652439,-0.1581703744283537,-29.70577590811965,-15.848956997863246,0.8266165547415459,10.69768002430262,-43.62472683566433,5.997107459847844,26.65489561805493,31.25548866325217,34.370473537604454,1577399908.0,-27.7177891462218,-51.099119860612,0.0115761785
90362,1577399909.02,0.2919174170517333,-0.5634549224109183,9.931615647627666,0.5068116148413678,-0.6305509640577357,9.786678854444547,0.2832165378477512,-0.6299670124333078,9.993397729492187,0.0024190763147865,0.2627489043445121,-0.1138826695884145,-0.0694088819550304,-0.1875714557926829,0.2225550209603658,-0.3172711628239328,-0.0364722275152439,-0.1886879525533537,-30.058366720085463,-16.25796233974359,0.3757347976097936,9.875899240983376,-45.09110420829171,5.997107459847844,26.798664150717347,31.20756581903136,34.08293647227963,1577399908.0,-27.7177891462218,-51.099119860612,0.0115761785
90363,1577399909.03,0.2871290137314208,-0.5658491240710746,9.89809682438548,0.4301971617163678,-0.613791552436642,9.79984696357541,0.2748368320372044,-0.6287699116032296,9.957484704589843,-0.0128397127477134,0.1559373809070121,-0.2359529820884145,-0.2372555616425304,0.163380692644817,-0.0978795493521341,-0.1189069050114328,0.085598084984756,-0.0055824838033536,-29.70577590811965,-14.62194097222222,-0.0751469595219649,10.286789632642996,-48.02385895354645,6.1446022427092135,26.89450983915896,31.25548866325217,34.22670500494205,1577399908.0,-27.7177891462218,-51.099119860612,0.0115761785
90364,1577399909.04,0.3134652319931396,-0.5969737456531058,9.895702622725324,0.4708985899390241,-0.6113973507764856,9.832168685987522,0.2664571262266575,-0.651514827374714,9.97184991455078,-0.0738748689977134,0.0949022246570121,0.2218106897865854,-0.0388913038300304,-0.0349835651676829,0.0699671303353658,-0.1952008503239328,0.055080506859756,-0.2497231088033537,-29.70577590811965,-14.62194097222222,-0.0751469595219649,10.69768002430262,-44.35791552197802,5.407128328402368,26.990355527600563,31.447180040135382,34.08293647227963,1577399908.0,-27.7177891462218,-51.099119860612,0.0115761785
90365,1577399909.05,0.289523215391577,-0.5586665190906058,9.965134470869854,0.4158319517554303,-0.6018205441358606,9.769919442823456,0.2592745212461887,-0.5964481891911202,9.950302099609374,0.1092305997522865,-0.0576856659679878,-0.0223299352134145,-0.3440670850800305,0.117604325457317,0.1615198647103658,-0.0731305378239328,0.085598084984756,-0.1581703744283537,-29.70577590811965,-14.62194097222222,-0.0751469595219649,9.875899240983376,-44.35791552197802,0.3923057111158077,26.89450983915896,31.447180040135382,34.17878216072124,1577399908.0,-27.7177891462218,-51.099119860612,0.0115761785
90366,1577399909.06,0.3218449378036864,-0.5431042082995902,9.955557664229229,0.3990725401343366,-0.5994263424757044,9.789073056104703,0.3239179660704074,-0.6275728107731515,9.916783276367187,0.1244893888147865,0.0491258574695121,-0.1291414586509145,-0.3440670850800305,0.056569169207317,-0.1131383384146341,-0.2257184284489328,-0.0669898056402439,-0.0055824838033536,-30.23466212606837,-14.826443643162392,-0.0751469595219618,9.875899240983376,-45.09110420829171,5.702117894125108,26.94243268337976,31.30341150747297,34.17878216072124,1577399908.0,-27.7177891462218,-51.099119860612,0.0115761785
90367,1577399909.07,0.2775522070907958,-0.5778201323718558,9.864578001143292,0.4325913633765241,-0.6281567623975794,9.785481753614471,0.2676542270567356,-0.5940539875309641,9.970652813720704,-0.1959451814977134,-0.0271680878429878,0.1607755335365854,-0.1609616163300304,0.178639481707317,-0.0521031821646341,-0.1189069050114328,-0.0669898056402439,-0.0666176400533536,-30.41095753205128,-13.803930288461538,-0.6763226356976347,9.875899240983376,-45.09110420829171,5.407128328402368,26.84658699493815,31.39925719591458,34.27462784916285,1577399908.0,-27.7177891462218,-51.099119860612,0.0115761785
90368,1577399909.08,0.2919174170517333,-0.5251476958484183,9.934009849287824,0.4206203550757428,-0.5826669308546106,9.79864986274533,0.2927933444883762,-0.632361214093464,9.955090502929687,0.0176778653772865,0.0033494902820121,0.0387052210365854,0.0221438524199695,0.3312273723323171,-0.1741734946646341,-0.4088238971989328,0.024562928734756,-0.2497231088033537,-30.41095753205128,-13.803930288461538,-0.6763226356976347,9.875899240983376,-45.09110420829171,0.3923057111158077,26.89450983915896,31.111720130589752,34.27462784916285,1577399908.0,-27.7177891462218,-51.099119860612,0.0115761785
90369,1577399909.09,0.270369602110327,-0.5179650908679495,9.922038840987042,0.4349855650366803,-0.6042147457960169,9.738794821241424,0.2832165378477512,-0.6084191974919014,9.969455712890625,0.0787130216272865,0.0643846465320121,-0.0223299352134145,-0.0083737257050304,0.209157059832317,-0.0521031821646341,-0.2257184284489328,0.024562928734756,-0.0971352181783536,-30.41095753205128,-13.803930288461538,-0.6763226356976347,10.69768002430262,-49.49023632617382,-0.1976734203296699,26.798664150717343,31.063797286368946,34.17878216072124,1577399908.0,-27.7177891462218,-51.099119860612,0.0115761785
90370,1577399909.1,0.2919174170517333,-0.5275418975085745,9.907673631026103,0.4158319517554303,-0.5754843258741419,9.791467257764864,0.280822336187595,-0.6359525165836983,9.97184991455078,-0.0433572908727134,-0.1339796112804878,0.1149991663490854,0.0526614305449694,0.071827958269817,-0.0673619712271341,-0.1189069050114328,0.131374452172256,-0.0513588509908536,-29.441332799145297,-14.724192307692308,-0.7514695952195997,11.519460807621863,-46.557481580919074,5.702117894125108,26.822625572827747,31.30341150747297,34.250666427052444,1577399908.0,-27.7177891462218,-51.099119860612,0.0115761785
90371,1577399909.11,0.327830441954077,-0.5562723174304496,9.881337412764385,0.4254087583960553,-0.5802727291944544,9.719641207960176,0.27124552954697,-0.6012365925114327,9.919177478027343,0.0481954435022865,0.0949022246570121,-0.0833650914634145,-0.1609616163300304,0.3312273723323171,-0.0826207602896341,-0.2867535846989328,0.055080506859756,-0.1886879525533537,-29.88207131410256,-14.826443643162394,0.6763226356976285,11.930351199281484,-46.557481580919074,5.997107459847844,26.89450983915896,31.111720130589752,34.17878216072124,1577399908.0,-27.7177891462218,-51.099119860612,0.0115761785
90372,1577399909.12,0.2847348120712645,-0.503599880907012,9.893308421065166,0.4637159849585553,-0.5276002926710169,9.745977426221891,0.2544861179258762,-0.5988423908512764,9.945513696289062,0.1702657560022865,0.0949022246570121,-0.1749178258384145,-0.0388913038300304,0.117604325457317,0.1615198647103658,-0.1952008503239328,-0.0975073837652439,0.1775229849466463,-29.88207131410256,-15.644454326923077,0.0751469595219524,9.875899240983376,-49.85683066933067,-0.4926629860524088,26.990355527600563,31.20756581903136,34.08293647227963,1577399908.0,-27.7177891462218,-51.099119860612,0.0115761785
90373,1577399909.13,0.2751580054306395,-0.532330300828887,9.907673631026103,0.3966783384741804,-0.5515423092725794,9.6909107880383,0.2927933444883762,-0.5988423908512764,9.90241806640625,0.1092305997522865,0.1559373809070121,0.1607755335365854,-0.1914791944550304,0.117604325457317,0.1004847084603658,-0.1341656940739328,-0.1585425400152439,0.2385581411966463,-29.88207131410256,-15.644454326923077,0.0751469595219524,10.286789632642996,-45.09110420829171,5.702117894125108,26.84658699493815,31.20756581903136,34.17878216072124,1577399908.0,-27.7177891462218,-51.099119860612,0.0115761785
90374,1577399909.14,0.2979029212021239,-0.541907107469512,9.874154807783915,0.4086493467749616,-0.5850611325147669,9.769919442823456,0.2892020419981418,-0.6215873066227608,9.916783276367187,0.0481954435022865,-0.0576856659679878,0.0387052210365854,0.1442141649199695,0.148121903582317,0.1004847084603658,-0.0883893268864328,-0.0975073837652439,0.0096763052591463,-29.52948050213675,-15.235448985042732,0.526028716653711,10.286789632642996,-45.09110420829171,5.702117894125108,26.84658699493815,31.15964297481056,34.15482073861084,1577399908.0,-27.7177891462218,-51.099119860612,0.0115761785
