,timestamp,acc_x_dashboard,acc_y_dashboard,acc_z_dashboard,acc_x_above_suspension,acc_y_above_suspension,acc_z_above_suspension,acc_x_below_suspension,acc_y_below_suspension,acc_z_below_suspension,gyro_x_dashboard,gyro_y_dashboard,gyro_z_dashboard,gyro_x_above_suspension,gyro_y_above_suspension,gyro_z_above_suspension,gyro_x_below_suspension,gyro_y_below_suspension,gyro_z_below_suspension,mag_x_dashboard,mag_y_dashboard,mag_z_dashboard,mag_x_above_suspension,mag_y_above_suspension,mag_z_above_suspension,temp_dashboard,temp_above_suspension,temp_below_suspension,timestamp_gps,latitude,longitude,speed
75209,1577397809.82,0.1254328089272103,-1.565895478485851,10.126246724049636,-0.3840065882240853,-0.9844256484613184,8.878342102646247,0.3629843297446646,-1.488667876155202,10.621262516077552,0.3909599490282013,-3.199135384908536,0.3556042182736281,0.4521811880716463,-2.4875547827743905,-0.28228759765625,-0.7380043588033537,-6.020894864710366,0.9814006526295732,3.3137006865305447,-8.764400183150185,-0.619962416056166,1.9331414617128904,-3.21384768009768,-16.823874985691393,28.068619522568667,34.27462784916285,37.0062299697487,1577397808.999,-27.69548247221369,-51.1273107999936,11.929297
75210,1577397809.83,-0.0086424840415396,-1.9334054333198356,10.10469890910823,0.8202768468345084,-2.349120594750381,9.874329993271248,-0.2511283960854134,-2.3242442555497327,10.314804703577552,-2.6760566525342986,-5.365883431783536,0.6760387885861281,0.1164878286966463,-4.135504001524391,0.48065185546875,-0.3717934213033538,-5.044332364710366,1.683304949504573,1.6095117620291235,-8.764400183150183,-0.7749530200702122,1.9331414617128904,-3.21384768009768,-16.823874985691393,28.044658100458264,34.32255069338365,37.0062299697487,1577397808.999,-27.69548247221369,-51.1273107999936,11.929297
75211,1577397809.84,-0.4826944127524771,-1.7155330822456167,10.356090083424636,-0.4725920496498665,-0.9963966567620997,10.532735449814217,0.4779060094321646,-0.8278682179520769,8.69393017965177,-1.0891425900342986,-2.5887838224085367,0.4318981635861281,-0.1886879525533537,-4.501714939024391,-0.28228759765625,-1.0736977181783538,-5.441060880335366,-0.0867145817454267,1.6095117620291235,-8.034033501221002,-1.084934228098292,8.699136577708005,-3.21384768009768,-6.70409405048077,27.90088956779585,34.370473537604454,37.24584419085272,1577397808.999,-27.69548247221369,-51.1273107999936,11.929297
75212,1577397809.85,0.4414674280678353,-1.411469471405773,10.1501887406512,1.1171578526938837,-2.023509168969131,9.524776550888436,-1.1788815393959602,-2.4822615651200457,9.776109330042395,1.0165703005907014,-5.030190072408536,0.4624157417111281,-0.2192055306783537,1.2661073266006098,0.23651123046875,-1.5009438119283538,0.3267613852896341,0.2794963557545732,1.6095117620291235,-8.034033501221002,-1.084934228098292,12.726514622943194,-3.0446978021978017,-59.124559294871794,28.044658100458264,34.17878216072124,36.910384281307095,1577397808.999,-27.69548247221369,-51.1273107999936,11.929297
75213,1577397809.86,-0.0984250462973995,-1.6161737133491323,10.930698481862136,-0.6737049891029916,-1.6763499282464749,8.686805969833745,-0.9155193567787728,-2.5588760182450456,10.008346891077553,0.0552665896532013,-4.419838509908536,0.279310272961128,0.5742515005716463,-3.7082579077743913,-0.03814697265625,1.8254722036966464,-2.7555140053353657,0.6762248713795732,2.1775747368629306,-8.216625171703297,-1.5499060401404146,12.726514622943194,-3.0446978021978017,-59.124559294871794,27.996735256237457,34.27462784916285,37.0062299697487,1577397808.999,-27.69548247221369,-51.1273107999936,11.929297
75214,1577397809.87,0.5396296961342415,-1.5982172008979605,10.29623504192073,0.0816656346763052,-1.556639845238662,10.0574864202732,0.3330568089927115,-1.0517260731766862,11.086934738977943,-2.1877754025342986,-2.8024068692835367,0.8591442573361281,2.084871617759146,-3.555670017149391,0.89263916015625,0.1012290396341462,-3.1217249428353657,0.4931194026295732,3.503055011475147,-9.494766865079368,-0.464971812042126,2.980259753474039,-1.9452235958485955,-58.82096586681547,28.044658100458264,34.32255069338365,37.12603708030071,1577397808.999,-27.69548247221369,-51.1273107999936,11.929297
75215,1577397809.88,-0.3103118932212271,-2.5175906383979605,10.82535360881526,-0.2044414637123665,-2.013932362328506,8.521606055282964,0.0876511388266959,-1.4958504811356703,11.226995536097084,-1.6079414181592986,-3.9315572599085367,0.5844860542111281,1.6423667349466462,-1.6330625952743902,-0.12969970703125,2.435823766196646,-3.0606897865853657,2.2631389338795733,2.745637711696738,-8.764400183150183,-1.3949154361263716,2.4164268271411125,-3.0446978021978017,-62.36288919413919,28.044658100458264,34.370473537604454,37.05415281396951,1577397808.999,-27.69548247221369,-51.1273107999936,11.929297
75216,1577397809.89,0.2523254969154915,-1.902280811737804,9.295458747975417,0.7053551671470084,-2.339543788109756,9.141704285263437,-0.3911891932045541,-3.5740175221512955,11.109679654749428,3.0612480349657014,-0.5135885099085366,0.4624157417111281,-0.3717934213033537,-2.0297911108993905,1.33514404296875,-0.4023109994283537,-1.077047208460366,0.5541545588795732,3.3137006865305447,-8.94699185363248,-2.169868456196577,1.772046339903483,-0.6765995115995113,-66.81559280563187,27.94881241201665,34.370473537604454,37.10207565819032,1577397808.999,-27.69548247221369,-51.1273107999936,11.929297
75217,1577397809.9,0.2822530176674442,-1.7334895946967883,10.3417248734637,0.3725611363852896,-1.573399256859756,9.293736090683357,0.4683292027915396,-1.4551490529130144,10.390222055872474,0.0094902224657013,-4.358803353658536,0.7370739448361281,2.069612828696646,-2.838506931211891,0.28228759765625,0.4979575552591462,0.4030553306021341,-0.1324909489329268,3.3137006865305447,-8.58180851266789,-1.8598872481684945,0.4832853654282227,-1.1840491452991453,-38.27781056833791,27.94881241201665,34.250666427052444,37.19792134663192,1577397808.999,-27.69548247221369,-51.1273107999936,11.929297
75218,1577397809.91,1.1166322962318975,-2.033961903046398,9.544455720631667,2.089203726717321,-2.8207783218011624,9.057907227157964,-1.0879018763100228,-2.3218500538895768,9.771320926722083,0.4367363162157013,-1.1239400724085369,0.8896618354611281,-0.8905922494283537,-0.7175352515243902,1.09100341796875,4.816194859946647,5.026468416539634,0.8288127620045732,3.692409336419757,-7.486258489774114,-2.169868456196577,0.4832853654282225,-3.382997557997557,-17.026270604395606,27.94881241201665,34.370473537604454,37.05415281396951,1577397808.999,-27.69548247221369,-51.1273107999936,11.929297
75219,1577397809.92,0.7048296106850228,-1.919040223358898,10.600298652760571,-0.5444180994545541,-1.185538587914443,8.540759668564215,0.0349787023032584,-1.720905437190358,10.829558060511149,-0.0820625119092987,-3.5958639005335367,0.6150036323361281,1.7034018911966462,-6.424322360899391,0.23651123046875,7.623812047446647,2.2493688071646343,1.042435808879573,2.93499203664134,-7.851441830738707,-1.8598872481684976,6.927090237804523,-3.0446978021978017,-9.740028331043955,28.092580944679067,34.41839638182526,37.10207565819032,1577397808.999,-27.69548247221369,-51.1273107999936,11.929297
75220,1577397809.93,0.908336751798304,-1.631736024140148,9.518119502369949,0.3629843297446646,-1.3770747207269434,9.503228735947028,0.0230076940024771,-2.716893327815358,12.012293680628334,2.8171074099657014,0.5240091463414634,0.6455212104611281,0.7878745474466463,0.1674745141006097,1.39617919921875,-3.454068811928354,2.4324742759146343,-0.4529255192454268,2.745637711696738,-9.129583524114777,-0.7749530200702122,6.927090237804523,-3.0446978021978017,-9.740028331043955,28.044658100458264,34.370473537604454,37.0062299697487,1577397808.999,-27.69548247221369,-51.1273107999936,11.929297
75221,1577397809.94,0.4127370081459603,-1.5826548901069448,11.028860749928542,0.9854767613852896,-1.5111500136956937,10.569845575546635,-0.1002936914955697,-1.4946533803055924,10.288468485315834,-0.2956855587842987,-1.9631734708460369,1.088026093273628,1.7186606802591462,-2.548589939024391,0.78582763671875,3.427645055259146,2.4477330649771343,0.2947551448170732,2.93499203664134,-9.312175194597073,-0.7749530200702122,6.927090237804523,2.0297985347985352,-11.76398451808608,28.092580944679064,34.32255069338365,37.05415281396951,1577397808.999,-27.69548247221369,-51.1273107999936,11.929297
75222,1577397809.95,0.381612386563929,-1.6101882091987416,10.439887141530106,1.526566336580602,-2.1551902602777244,9.191982520126716,-1.051988851407679,-2.381705095393483,9.515141349085363,2.1152031130907014,1.5616068025914631,0.8896618354611281,1.3371909536966462,-0.7785704077743902,1.60980224609375,3.320833531821646,4.507669588414634,0.3710490901295732,2.93499203664134,-8.216625171703297,0.0,-2.738617070759928,-1.6914987789987788,-16.62147936698718,27.90088956779585,34.562164914487674,37.820918321502376,1577397808.999,-27.69548247221369,-51.1273107999936,11.929297
75223,1577397809.96,0.5875137293373666,-2.3859095470893665,9.077586396901198,0.7819696202720083,-2.119277235375381,9.927002429794683,-1.0735366663490853,-2.7911135792802018,12.12242695699552,-0.7534492306592987,0.9817728182164634,1.316907929211128,0.9404624380716464,0.0454042016006097,1.39617919921875,5.487581578696647,2.4935094321646343,0.3405315120045732,2.366929061807533,-8.764400183150183,-0.464971812042126,1.772046339903483,-3.382997557997557,-17.026270604395606,28.044658100458264,34.370473537604454,37.05415281396951,1577397808.999,-27.69548247221369,-51.1273107999936,11.929297
75224,1577397809.97,0.4498471338783821,-1.2378898510444447,10.071180085866043,0.1499003819907584,-0.7473996841058497,9.448162097763436,0.2839756749595084,-1.2468535084794206,10.582955289515052,2.6340019412157014,-1.0629049161585369,0.6760387885861281,1.3677085318216462,-0.7175352515243902,1.06048583984375,6.189485875571647,-2.0841272865853657,0.1574260432545732,3.881763661364359,-7.668850160256411,-0.464971812042126,7.249280481423338,-2.706398046398046,-17.026270604395606,28.092580944679067,34.562164914487674,37.10207565819032,1577397808.999,-27.69548247221369,-51.1273107999936,11.929297
75225,1577397809.98,-0.0445555089438834,-1.672437452362804,10.33454226848323,0.8322478551352896,-1.7984542129144434,9.923411127304451,-0.056000960782679,-1.6287286732743425,10.01552949605802,0.6503593630907013,0.2493509432164634,1.133802460461128,0.4064048208841463,0.4421327172256097,1.35040283203125,1.2456382193216462,-2.4808558022103657,1.317094012004573,3.881763661364359,-8.764400183150183,-0.464971812042126,6.927090237804523,1.0148992673992674,-39.08739304315476,28.14050378889987,34.27462784916285,37.0062299697487,1577397808.999,-27.69548247221369,-51.1273107999936,11.929297
75226,1577397809.99,-0.2193322301352896,-1.940588038300304,9.18532547160823,-0.1972588587318978,-1.6667731216058497,9.36915344297828,0.4994538243735709,-1.888499553401296,10.535071256311928,0.7724296755907013,1.7447122713414631,0.920179413586128,1.2151206411966462,-2.6706602515243905,1.30462646484375,-3.942350061928354,-4.037252286585366,2.5988322932545733,1.798866086973726,-8.216625171703297,-1.2399248321123315,7.893660968660968,2.0297985347985352,-10.14481956845238,28.284272321562284,34.370473537604454,37.0062299697487,1577397808.999,-27.69548247221369,-51.1273107999936,11.929297
75227,1577397810.0,-0.0972279454673209,-2.206344422577648,10.267504621998857,0.7245087804282584,-3.04583327785585,10.66441654112281,-0.7072238123451791,-4.407199699885671,9.881454203089271,-0.6008613400342987,-1.6732564786585369,1.347425507336128,3.107210484946646,-2.2739317358993905,1.15203857421875,-0.2497231088033537,0.9371129477896342,0.8898479182545732,2.745637711696738,-7.303666819291821,-0.7749530200702122,13.370895110180822,-2.0297985347985343,-61.553306719322336,28.092580944679067,34.46631922604607,37.05415281396951,1577397809.999,-27.69537521238232,-51.127338435350445,12.229432
75228,1577397810.01,0.027270540860804,-1.776585224579601,11.3484866715594,-0.8149628870522103,-1.3962283340081934,10.846375867294684,1.4044620519126334,-1.3474099782059832,10.09932655416349,2.6340019412157014,-3.4585347989710367,0.8133678901486281,1.1846030630716462,-0.6565000952743902,0.51116943359375,2.039095250571646,-2.0536097084603657,1.286576433879573,4.260472311253564,-10.95550022893773,-0.464971812042126,7.08818535961393,-3.21384768009768,-60.9461198632097,27.94881241201665,34.370473537604454,37.10207565819032,1577397809.999,-27.69537521238232,-51.127338435350445,12.229432
75229,1577397810.02,0.2642965052162728,-2.0579039196479605,11.014495539967603,0.9842796605552114,-2.254549629174209,11.043897504257576,-0.1002936914955697,-1.5700707326005143,11.52267944112638,0.0400078005907013,-0.4830709317835365,1.835706757336128,1.2303794302591462,0.3658387719131097,1.54876708984375,0.7726157583841462,-4.540792325647866,0.2337199885670732,4.260472311253564,-10.95550022893773,-0.464971812042126,3.382997557997558,-2.0297985347985343,-60.33893300709707,28.092580944679067,34.34651211549405,36.910384281307095,1577397809.999,-27.69537521238232,-51.127338435350445,12.229432
75230,1577397810.03,0.0607893641029906,-2.1847966076362417,10.688884114186354,0.4036857579673208,-1.7122629531488185,9.251837561630625,0.7029609654868522,0.3859920237471418,8.258185477503334,2.4203788943407014,2.202475943216464,1.103284882336128,1.6118491568216462,0.3505799828506097,1.54876708984375,0.1470054068216463,-4.983297208460366,2.9040080745045733,3.1243463615859426,-8.399216842185593,-1.7048966441544575,-0.6443804872376302,-3.21384768009768,-55.68383377690018,28.14050378889987,34.41839638182526,37.19792134663192,1577397809.999,-27.69537521238232,-51.127338435350445,12.229432
75231,1577397810.04,0.5755427210365853,-1.6484954357612416,10.030478657643386,1.8641487706626332,-2.7776826919183497,9.85996478331031,-0.5324470911537728,-4.802242973811452,7.774556742151771,2.7255546755907014,0.7376321932164634,1.225355194836128,2.405306188071646,-0.9006407202743902,1.15203857421875,1.5508140005716462,1.883157869664634,2.3241740901295733,3.692409336419757,-6.755891807844934,-1.2399248321123315,-0.6443804872376302,-3.21384768009768,-55.68383377690018,27.852966723575044,34.370473537604454,37.24584419085272,1577397809.999,-27.69537521238232,-51.127338435350445,12.229432
75232,1577397810.05,0.3373196558510379,-1.4066810680854605,9.74197735759456,0.2121496251548209,-0.9736517409906154,9.58582869322242,0.1977844151938834,-2.1805921559403574,9.69111517110685,1.0776054568407014,-2.3446431974085367,1.072767304211128,0.8336509146341462,1.0677430687881095,0.98419189453125,1.4287436880716464,-0.9397181068978658,-0.4681843083079268,2.745637711696738,-8.58180851266789,-1.084934228098292,2.0942365835222976,-2.3680982905982906,-61.75570233802655,27.996735256237457,34.32255069338365,37.03019139185911,1577397809.999,-27.69537521238232,-51.127338435350445,12.229432
75233,1577397810.06,0.5827253260170541,-2.2302864391792103,9.5755803422137,1.6247286046470084,-2.4760132827386623,9.88630100157203,-0.0105111292397093,-2.963496098811452,11.12165066305021,0.5893242068407013,1.0733255525914631,1.652601288586128,1.5508140005716462,-0.9616758765243902,1.51824951171875,0.2690757193216463,-1.077047208460366,-0.0561970036204267,2.745637711696738,-9.129583524114777,-1.7048966441544575,-0.8054756090470375,3.382997557997557,-62.36288919413919,28.092580944679067,34.370473537604454,37.24584419085272,1577397809.999,-27.69537521238232,-51.127338435350445,12.229432
75234,1577397810.07,-0.2241206334556021,-1.459353504608898,11.069562178151198,-0.0009343225990853,-0.673179432641006,11.456897290634528,0.9447753331626334,0.0699574046065168,10.020317899378334,1.2607109255907014,-2.4361959317835367,1.072767304211128,0.6963218130716463,-2.3960020483993905,1.12152099609375,3.351351109946646,-5.196920255335366,2.6598674495045733,1.0414487871953166,-8.58180851266789,-0.3099812080280861,8.215851212279782,2.0297985347985352,-8.525654618818681,28.044658100458264,34.08293647227963,36.86246143708629,1577397809.999,-27.69537521238232,-51.127338435350445,12.229432
75235,1577397810.08,-0.2336974400962271,-1.4449882946479604,11.127023017994947,1.1482824742759146,-1.8511266494378809,10.41541956846656,0.4443871861899771,-0.8182914113114519,9.766532523401771,-0.2041328244092987,-3.1686178067835367,1.103284882336128,0.6047690786966463,0.4421327172256097,1.73187255859375,4.449983922446647,0.4488316977896341,4.033158465129573,3.881763661364359,-9.494766865079368,-1.7048966441544575,9.504612186755043,0.6765995115995117,-15.00231441735348,27.852966723575044,34.370473537604454,37.05415281396951,1577397809.999,-27.69537521238232,-51.127338435350445,12.229432
75236,1577397810.09,-0.1714481969321646,-1.1576840954292105,9.85570193645198,0.1235641637290401,-0.8012692214593659,9.256625964950937,-0.1625429346596317,-3.727246428401296,10.317198905237708,0.9555351443407014,-2.1005025724085367,1.316907929211128,0.3606284536966463,-1.0074522437118902,1.01470947265625,2.206941930259146,3.882059236852133,0.6457072932545732,2.5562833867521357,-9.129583524114777,-0.464971812042126,3.382997557997558,-1.6914987789987783,-40.90895361149268,27.996735256237457,34.442357803935664,37.0062299697487,1577397809.999,-27.69537521238232,-51.127338435350445,12.229432
75237,1577397810.1,0.7479252405678353,-1.813695350312023,9.33855437785823,1.660641629549352,-2.3730626113519437,9.577448987411872,-0.1876820520912728,-2.4463485402177017,10.657175540979896,2.1152031130907014,-0.7882467130335366,1.713636444836128,2.008577672446646,0.5642030297256098,0.93841552734375,2.985140172446646,5.209573885289634,-2.7417438786204267,2.93499203664134,-8.94699185363248,0.0,-0.1610951218094077,-3.382997557997557,-65.19642785599817,28.044658100458264,34.562164914487674,37.0062299697487,1577397809.999,-27.69537521238232,-51.127338435350445,12.229432
75238,1577397810.11,0.2307776819740853,-2.026779298065929,9.688107820241042,0.7245087804282584,-1.448900770531631,7.992487488388433,0.2145438268149771,-0.0473584767411384,8.792092447718177,0.1925956912157013,-1.9173971036585369,1.347425507336128,1.7034018911966462,-2.7622129858993905,1.21307373046875,6.006380406821647,3.5616246665396343,0.2489787776295732,3.881763661364359,-8.034033501221002,-1.084934228098292,1.9331414617128904,-3.21384768009768,-15.204710036057692,28.092580944679067,34.27462784916285,36.86246143708629,1577397809.999,-27.69537521238232,-51.127338435350445,12.229432
75239,1577397810.12,0.7826411646401009,-1.8268634594428823,9.175748664967603,1.6941604527915397,-1.9636541274652248,7.760249927353278,-0.4055544031654916,0.2112153025557355,9.299663199671302,1.4132988162157012,0.6308206697789634,1.210096405773628,-0.7685219369283537,0.7778260766006098,2.25067138671875,5.151888219321647,5.392679354039634,1.256058855754573,3.976440823836661,-8.490512677426741,-1.0074389260912686,7.08818535961393,-0.5074496336996336,-11.156797661973444,28.044658100458264,34.370473537604454,37.0062299697487,1577397809.999,-27.69537521238232,-51.127338435350445,12.229432
75240,1577397810.13,0.3696413782631478,-1.4952665295112415,8.871685054127761,0.8502043675864615,-1.6655760207757715,8.502452442001717,0.5700827733481802,-3.078417778498952,9.67076445699552,0.2536308474657013,-1.3985982755335369,0.8896618354611281,0.5132163443216463,-0.2902891577743902,1.21307373046875,-0.1429115853658538,2.8292027915396343,1.378129168254573,3.692409336419757,-8.58180851266789,0.6199624160561659,6.363257311471597,0.2537248168498168,-13.281951658367674,28.23634947734148,34.22670500494205,37.0062299697487,1577397809.999,-27.69537521238232,-51.127338435350445,12.229432
75241,1577397810.14,-0.2025728185141959,-1.3707680431831166,10.365666890065262,0.5952218907798209,-1.6835325332269433,10.827222254013437,-0.6234267542397103,-1.9842676198075453,10.317198905237708,-0.6924140744092987,0.8597025057164634,1.469495819836128,-1.1347328744283538,0.1064393578506097,1.88446044921875,0.3606284536966463,-3.4574183022103657,0.7067424495045732,3.692409336419757,-8.58180851266789,0.6199624160561659,3.060807314378742,0.6765995115995117,-9.740028331043955,28.044658100458264,34.17878216072124,36.86246143708629,1577397809.999,-27.69537521238232,-51.127338435350445,12.229432
75242,1577397810.15,-0.4707234044516959,-2.105787952851085,10.69846092082698,-0.6904644007240853,-1.515938417016006,9.326057813095463,-0.7072238123451791,-1.481485271174733,9.381066056116614,-2.6150214962842986,0.0967630525914634,1.866224335461128,1.5813315786966462,-1.0227110327743902,0.96893310546875,-0.3717934213033537,-1.809469083460366,1.164506121379573,4.828535286087371,-10.04254187652625,-0.929943624084252,12.726514622943194,3.7212973137973138,-17.026270604395606,28.044658100458264,34.370473537604454,36.81453859286549,1577397809.999,-27.69537521238232,-51.127338435350445,12.229432
75243,1577397810.16,0.2487341944252571,-1.4832955212104604,10.435098738209792,0.0924395421470083,-2.24138152004335,8.28218588926734,0.7604218053306021,1.575910248844798,8.059466739710365,1.8100273318407012,-0.0558248380335368,1.240613983898628,-0.5548988900533537,-0.7785704077743902,2.12860107421875,-3.484586390053354,2.7681676352896343,2.2631389338795733,3.881763661364359,-9.31217519459707,-0.7749530200702057,12.726514622943194,3.7212973137973138,-17.026270604395606,28.116542366789467,34.46631922604607,37.10207565819032,1577397809.999,-27.69537521238232,-51.127338435350445,12.229432
75244,1577397810.17,0.1589516321693978,-0.9853015758979604,10.040055464284013,0.1187757604087271,-1.0981502273187402,9.652866339706794,0.0397671056235709,-3.0724322743485617,10.226219242151773,-1.7910468869092986,-2.4667135099085367,0.950696991711128,-0.3870522103658536,-1.6178038062118905,1.18255615234375,0.0554526724466463,3.8973180259146334,0.8288127620045731,2.745637711696738,-8.399216842185593,-0.1549906040140398,7.088185359613931,-3.21384768009768,-34.43229381295787,27.94881241201665,34.41839638182526,36.95830712552791,1577397809.999,-27.69537521238232,-51.127338435350445,12.229432
75245,1577397810.18,0.774261458829554,-1.4904781261909292,9.75993387004573,2.2208848180259144,-2.3251785781488183,8.832852271103278,0.4036857579673208,-1.3474099782059832,9.75456151510099,-0.4787910275342987,2.690757193216464,1.438978241711128,-1.7756020150533538,4.4094178734756095,1.97601318359375,-3.026822718178354,4.110941072789634,-0.1477497379954268,2.745637711696738,-8.399216842185593,-0.1549906040140398,1.9331414617128904,-3.21384768009768,-55.68383377690018,27.90088956779585,34.370473537604454,37.772995477281576,1577397809.999,-27.69537521238232,-51.127338435350445,12.229432
75246,1577397810.19,0.1469806238686156,-1.938193836640148,9.546849922291823,1.1961665074790395,-2.2701119399652248,9.201559326767342,-0.8484817102943978,-4.179750542170827,10.38663075338224,-2.5845039181592986,3.270591177591464,2.140882538586128,-0.2802406869283537,-2.4265196265243905,0.57220458984375,1.0930503286966462,4.873880525914634,0.7067424495045732,2.745637711696738,-8.399216842185593,-0.1549906040140398,1.772046339903483,-0.3382997557997558,-55.8862293956044,28.044658100458264,34.41839638182526,37.0062299697487,1577397809.999,-27.69537521238232,-51.127338435350445,12.229432
75247,1577397810.2,0.0164966333901009,-1.7263069897163197,9.090754506032058,-0.2355660852943978,-0.8814749770745997,9.75701411192359,1.181801297518102,-0.6052074635575456,8.310857914026771,-0.1278388790967987,0.0662454744664631,1.240613983898628,-2.630094202553354,-0.4733946265243902,1.48773193359375,-1.8061195931783536,2.4019566977896343,0.9814006526295732,3.1243463615859426,-9.494766865079368,-0.6199624160561691,-3.382997557997558,-1.6914987789987788,-15.407105654761905,28.02069667834786,34.03501362805883,37.10207565819032,1577397809.999,-27.69537521238232,-51.127338435350445,12.229432
75248,1577397810.21,0.1206444056068968,-1.363585438202648,10.061603279225418,0.9399869298423208,-1.9133758926019435,8.975307269882576,0.5820537816489615,-3.032927946955983,8.807654758509193,-3.1643379025342986,-4.328285775533536,1.072767304211128,-0.8448158822408538,0.1369569359756093,1.01470947265625,1.3982261099466462,1.9747106040396345,1.515458269817073,2.556283386752136,-9.67735853556166,-0.3099812080280861,1.28876097447526,-2.706398046398046,-5.287324719551282,27.90088956779585,34.39443495971486,37.0062299697487,1577397809.999,-27.69537521238232,-51.127338435350445,12.229432
75249,1577397810.22,0.1661342371498665,-1.4545651012885854,9.40798622600276,0.3581959264243521,-1.5326978286370996,10.077837134384527,0.5545204625571646,-0.7081581349442644,10.688300162561926,-0.5093086056592987,2.477134146341464,0.981214569836128,-2.080777796303354,-1.7856504858993902,1.18255615234375,-5.925992640053353,0.9371129477896342,0.0658733088795732,3.1243463615859426,-8.034033501221002,0.1549906040140463,0.4832853654282225,-0.3382997557997558,-8.120863381410256,27.90088956779585,34.370473537604454,37.0062299697487,1577397809.999,-27.69537521238232,-51.127338435350445,12.229432
75250,1577397810.23,0.6090615442787728,-2.378726942108898,9.949075801198074,0.7987290318931021,-2.765711683617569,9.347605628036872,-1.1333917078529916,-1.6993576222489517,8.665199759729896,-3.5610664181592986,1.897300161966464,1.561048554211128,-1.2568031869283538,-1.0837461890243902,0.99945068359375,-0.4023109994283537,3.1648961509146343,0.9814006526295732,3.1243463615859426,-8.034033501221002,0.1549906040140463,8.215851212279782,2.0297985347985352,-8.930445856227106,28.044658100458264,34.27462784916285,37.05415281396951,1577397809.999,-27.69537521238232,-51.127338435350445,12.229432
75251,1577397810.24,0.3923862940346317,-0.980513172577648,10.911544868580886,0.7508449986899771,-1.084982118187881,9.474498316025151,0.184616306063024,-2.118342912776296,8.593373709925208,-0.4177558712842986,-2.2225728849085367,0.5844860542111281,-2.385953577553354,-0.2902891577743903,1.12152099609375,-3.759244593178354,6.033548494664634,0.5694133479420732,3.7870864988920543,-8.490512677426741,-0.232485906021063,8.215851212279784,-0.5074496336996336,-38.48020618704212,27.92485098990625,34.34651211549405,37.0062299697487,1577397809.999,-27.69537521238232,-51.127338435350445,12.229432
75252,1577397810.25,0.8341165003334603,-1.9453764416206167,9.221238496510574,1.0884274327720085,-2.186314881859756,7.532800769638434,-0.1637400354897103,-3.3250205494950453,9.893425211390053,-4.842804699409299,-1.0018697599085369,0.7981091010861281,-2.324918421303354,2.425775295350609,-0.09918212890625,4.785677281821647,0.9981481040396342,-0.5139606754954268,3.881763661364359,-8.034033501221002,-0.1549906040140398,-0.1610951218094077,-18.26818681318681,-15.81189689217033,27.90088956779585,34.370473537604454,37.05415281396951,1577397809.999,-27.69537521238232,-51.127338435350445,12.229432
75253,1577397810.26,0.6282151575600228,-2.227892237519054,8.26595203410823,0.8825260899985709,-1.793665809594131,7.762644129013434,0.2384858434165396,0.6900556345869855,10.082567142542397,-2.2182929806592986,3.362143911966464,0.8591442573361281,-2.935269983803354,-0.0156309546493902,1.76239013671875,-7.909635218178353,0.3572789634146341,-0.7886188786204268,3.881763661364359,-8.764400183150183,-1.3949154361263716,-0.1610951218094077,-18.26818681318681,-15.81189689217033,28.044658100458264,34.46631922604607,37.10207565819032,1577397809.999,-27.69537521238232,-51.127338435350445,12.229432
75254,1577397810.27,0.2223979761635384,-1.948967744110851,9.70367013103206,0.7939406285727896,-2.418552442894912,10.065866126083748,-1.2387365808998665,-4.170173735530201,9.761744120081458,-1.8825996212842984,1.4853128572789636,0.7523327338986281,-2.263883265053354,-0.1987364233993902,1.48773193359375,-3.362516077553354,-0.0394495522103658,0.4931194026295732,2.934992036641344,-8.764400183150183,-0.9299436240842488,-0.1610951218094077,-18.26818681318681,-15.81189689217033,28.04465810045826,34.27462784916285,37.0062299697487,1577397809.999,-27.69537521238232,-51.127338435350445,12.229432
75255,1577397810.28,-0.0708917272056021,-1.1696551037299916,10.312994453541824,-0.0141024317299447,-2.079772907982803,8.579066895126715,0.7496478978598995,-0.9415927968094988,8.406625980433022,-1.2112129025342986,-0.0863424161585365,0.035169647961128,-2.035001429115854,-1.6483213843368905,1.15203857421875,0.8031333365091462,-3.2132776772103657,2.4920207698170733,3.1243463615859426,-7.303666819291821,-0.1549906040140398,2.4164268271411125,-16.23838827838828,-9.942423949748168,28.092580944679067,34.250666427052444,36.9822685476383,1577397809.999,-27.69537521238232,-51.127338435350445,12.229432
75256,1577397810.29,-0.3031292882407584,-1.9046750133979604,10.248351008717606,-0.860452718595179,-1.774512196312881,10.602167297958747,-0.6880701990639291,-4.921953056819265,11.61246200338224,-5.025910168159299,0.7986673494664634,0.6455212104611281,-1.0736977181783538,-0.7785704077743902,0.60272216796875,-1.9892250619283536,-3.3353479897103657,1.713822527629573,3.881763661364359,-8.764400183150183,-0.1549906040140398,7.249280481423338,-3.382997557997557,-10.14481956845238,28.044658100458264,34.22670500494204,37.19792134663192,1577397809.999,-27.69537521238232,-51.127338435350445,12.229432
75257,1577397810.3,0.247537093595179,-2.160854591034679,9.980200422780104,-0.6856759974037728,-1.7194455581292871,9.045936218857184,0.2073612218345084,-0.2149525929520759,11.215024527796302,-1.8215644650342984,0.6460794588414634,0.3708630073361281,-0.8295570931783537,0.5336854516006098,0.45013427734375,-12.517789515053352,-5.166402677210366,-0.7275837223704268,2.745637711696738,-9.494766865079368,-1.084934228098292,7.249280481423338,-3.382997557997557,-10.14481956845238,27.94881241201665,34.22670500494204,37.0062299697487,1577397809.999,-27.69537521238232,-51.127338435350445,12.229432
75258,1577397810.31,0.1170531031166634,-2.414639967011241,11.203637471119947,2.1634239781821645,-3.5629808364496,10.190364612411871,-0.6689165857826791,-2.609154253108327,10.898989908655675,-3.2253730587842986,0.6460794588414634,0.7675915229611281,-1.7145668588033538,1.1745545922256098,1.24359130859375,-2.874234827553354,-6.631246427210366,1.805375262004573,2.8403148741690387,-7.942737665979855,-0.852448322077229,8.860231699517414,-3.0446978021978017,-61.95809795673076,28.02069667834786,34.27462784916285,37.0062299697487,1577397809.999,-27.69537521238232,-51.127338435350445,12.229432
75259,1577397810.32,0.4797746546303353,-1.3994984631049916,10.844507222096512,0.1103960545981802,-1.1388516555413966,10.560268768906012,0.3833350438559932,0.2303689158369855,11.110876755579506,1.7184745974657014,2.110923208841464,0.2182751167111281,-2.630094202553354,0.8388612328506098,0.78582763671875,-3.5456215463033534,-9.683004239710366,2.2173625666920733,2.1775747368629306,-6.755891807844934,0.0,4.993948776091632,-2.706398046398045,-63.57726290636447,28.044658100458264,34.370473537604454,36.93434570341749,1577397809.999,-27.69537521238232,-51.127338435350445,12.229432
75260,1577397810.33,0.4127370081459603,-1.643707032440929,10.535655207936356,1.5983923863852896,-2.9117579848871,10.882288892197028,-0.1924704554115853,-3.6314783619950455,9.92694403463224,-1.7300117306592986,1.7447122713414631,0.6150036323361281,-0.2802406869283537,1.7543885766006098,0.26702880859375,-3.972867640053354,-3.1217249428353657,2.1715861995045733,1.798866086973726,-7.486258489774114,-0.929943624084252,0.6443804872376299,-0.5074496336996336,-62.16049357543498,28.044658100458264,34.46631922604607,37.0062299697487,1577397809.999,-27.69537521238232,-51.127338435350445,12.229432
75261,1577397810.34,-0.2169380284751334,-2.6157529064643668,8.938722700612136,-0.3792181849037728,-1.7984542129144434,9.64927503721656,1.9144270055259145,-2.3984645070145767,9.558236978968177,-1.2112129025342986,4.369223990091464,0.6760387885861281,-1.8366371713033536,0.4421327172256097,0.60272216796875,-8.672574671303353,-2.3282679115853657,0.2489787776295732,3.503055011475147,-8.399216842185593,0.1549906040140463,-0.3221902436188151,-0.5074496336996336,-61.75570233802655,27.94881241201665,34.17878216072124,37.05415281396951,1577397809.999,-27.69537521238232,-51.127338435350445,12.229432
75262,1577397810.35,-0.0673004247153677,-1.938193836640148,9.16617185832698,1.5792387731040396,-2.049845387230849,10.065866126083748,0.6047986974204459,-2.738441142756764,9.25656756978849,-0.8755195431592986,0.4324564119664635,0.431898163586128,-2.416471155678354,0.5947206078506098,1.48773193359375,-1.4093910775533538,1.944193025914634,0.0963908870045732,3.597732173947452,-8.490512677426741,0.0774953020070231,-0.3221902436188151,-0.5074496336996336,-61.75570233802655,27.996735256237457,34.46631922604607,36.81453859286549,1577397809.999,-27.69537521238232,-51.127338435350445,12.229432
75263,1577397810.36,-0.2696104649985709,-1.430623084687023,9.290670344655105,-0.5492065027748666,-1.62846589504335,9.11297386534156,0.8537956700766959,-1.7424532521317635,10.065807730921302,0.9250175662157012,-2.3751607755335367,-0.0869006645388719,-0.6159340463033538,-2.090826267149391,0.74005126953125,-0.7532631478658534,-0.1157434975228658,0.1421672541920732,2.1775747368629306,-8.216625171703297,-1.8598872481684976,-1.9331414617128904,-2.706398046398045,-8.120863381410256,28.092580944679067,34.32255069338365,36.86246143708629,1577397809.999,-27.69537521238232,-51.127338435350445,12.229432
75264,1577397810.37,-0.1379293736899771,-0.9733305675971792,11.419115620534011,0.6215581090415396,-2.368274208031631,11.330004602646246,-1.1357859095131475,-2.4439543385575457,10.64281033101896,-0.3567207150342987,-0.4220357755335365,0.8286266792111281,-1.2568031869283538,-0.8701231421493902,0.29754638671875,-1.5314613900533538,2.0052281821646343,0.3405315120045732,2.745637711696738,-7.303666819291821,-1.084934228098292,0.6443804872376299,0.8457493894993894,-10.347215187156593,28.044658100458264,34.41839638182526,37.10207565819032,1577397809.999,-27.69537521238232,-51.127338435350445,12.229432
75265,1577397810.38,-0.5233958409751334,-2.589416688202648,11.282646125905105,-0.7982034754311166,-1.3100370742425684,10.829616455673593,1.9455516271079456,0.1346008494307355,8.839976480921303,-4.598664074409299,-1.7648092130335369,0.920179413586128,-0.0055824838033536,0.7473084984756098,0.26702880859375,2.771517125571646,-1.626363614710366,2.2021037776295733,2.745637711696738,-7.668850160256411,-1.7048966441544575,0.6443804872376299,0.8457493894993894,-10.347215187156593,27.94881241201665,34.370473537604454,36.43115583909905,1577397809.999,-27.69537521238232,-51.127338435350445,12.229432
75266,1577397810.39,0.1338125147377572,-1.8651706860053825,10.965414405934402,1.199757809969274,-2.4293263503656157,10.029953101181404,-1.0591714563881478,-3.91638835955364,12.082922629602942,-2.4929511837842986,0.7223734041539632,1.057508515148628,-1.0736977181783538,0.1369569359756096,0.64849853515625,1.3066733755716462,-1.5653284584603655,0.5846721370045732,2.745637711696738,-7.668850160256411,-1.7048966441544575,0.9665707308564444,-0.1691498778998777,-13.585545086423991,27.996735256237457,34.32255069338365,37.05415281396951,1577397809.999,-27.69537521238232,-51.127338435350445,12.229432
75267,1577397810.4,-0.2073612218345084,-2.103393751190929,9.793452693287918,-0.3289399500404916,-0.1727912856683497,10.238248645614997,2.1251167516196645,2.5479561228682357,9.19910672994474,0.0094902224657013,-0.2389303067835365,0.4624157417111281,-1.6535317025533538,-0.5649473608993902,1.91497802734375,-4.644254358803353,-3.8541468178353657,-1.032759503620427,3.503055011475147,-10.225133547008548,-0.464971812042126,-2.738617070759928,-2.3680982905982906,-17.026270604395606,27.94881241201665,34.370473537604454,36.910384281307095,1577397809.999,-27.69537521238232,-51.127338435350445,12.229432
75268,1577397810.41,0.5803311243568978,-1.7586287121284292,9.142229841725417,1.7995053258384146,-3.2230042007074124,10.264584863876715,-1.2842264124428353,-3.272348112971608,10.120874369104897,3.915740222465701,1.6836771150914631,0.981214569836128,0.1775229849466463,3.585443264100609,0.26702880859375,0.6352866568216463,1.120218416539634,1.561234637004573,4.639180961142769,-8.399216842185593,-1.3949154361263716,7.249280481423338,-3.382997557997557,-17.026270604395606,28.044658100458264,34.27462784916285,37.0062299697487,1577397809.999,-27.69537521238232,-51.127338435350445,12.229432
75269,1577397810.42,-0.4946654210532584,-2.8503846691596797,9.877249751393386,-0.1302212122475218,-2.8016247085199124,8.054736731552497,1.1075810460532582,-1.5221866993973894,9.330787821253333,-2.6760566525342986,-1.5817037442835369,1.286390351086128,1.3677085318216462,-4.471197360899391,0.02288818359375,5.945345250571647,-5.410543302210366,0.9508830745045732,3.3137006865305447,-9.67735853556166,-1.5499060401404114,7.73256584685156,-0.5074496336996336,-16.823874985691393,27.94881241201665,34.27462784916285,36.81453859286549,1577397809.999,-27.69537521238232,-51.127338435350445,12.229432
75270,1577397810.43,0.3935833948647103,-2.270987867401866,9.826971516530104,1.217714322420446,-2.254549629174209,9.57864608824195,-1.0783250696693978,-2.192563164241139,9.841949875696692,-0.0362861447217987,-1.6732564786585369,0.6150036323361281,0.1470054068216462,-0.6259825171493902,1.33514404296875,1.1388266958841462,-3.9914759193978657,2.3699504573170733,3.1243463615859426,-7.668850160256411,-0.7749530200702122,4.752306093377522,-1.7760737179487176,-16.72267717633929,27.972773834127057,34.32255069338365,36.93434570341749,1577397809.999,-27.69537521238232,-51.127338435350445,12.229432
75271,1577397810.44,-0.6790189488852896,-1.6461012341010854,11.603469148366042,-0.7910208704506478,-1.094558924828506,10.832010657333749,0.6431059239829459,-1.8118851002762957,10.312410501917396,-2.3098457150342986,-1.0629049161585369,1.011732147961128,0.8794272818216463,-0.6565000952743902,1.18255615234375,-1.3483559213033538,-5.746236661585366,0.3710490901295732,2.93499203664134,-8.216625171703297,-0.6199624160561659,7.571470725042153,1.3531990231990234,-7.716072144001831,28.092580944679067,34.27462784916285,37.10207565819032,1577397809.999,-27.69537521238232,-51.127338435350445,12.229432
75272,1577397810.45,0.1733168421303353,-1.5575157726753042,10.655365290944168,1.335030203768102,-1.5590340468988184,11.416195862411872,-0.9729801966225228,-0.3681814992020769,11.24136074605802,2.3288261599657014,0.3409036775914634,0.8286266792111281,-1.0736977181783538,3.310785060975609,1.36566162109375,1.5813315786966462,-5.746236661585366,1.469681902629573,2.745637711696738,-9.494766865079368,-1.3949154361263716,12.24322925751497,5.243646214896215,-60.54132862580128,27.90088956779585,34.27462784916285,37.0062299697487,1577397809.999,-27.69537521238232,-51.127338435350445,12.229432
75273,1577397810.46,-0.3893205480063834,-2.491254420136241,11.428692427174637,-0.5779369226967416,-2.519108912621475,10.85595267393531,-0.477380452970179,-2.666615092952077,11.578943180140053,0.0857841677782014,-0.7119527677210364,1.042249726086128,2.466341344321646,-0.6259825171493902,0.35858154296875,4.602571813071647,-5.563131192835366,1.347611590129573,4.260472311253564,-9.129583524114777,-0.929943624084252,7.571470725042153,-3.382997557997557,-57.91018558264652,27.996735256237457,34.370473537604454,37.24584419085272,1577397809.999,-27.69537521238232,-51.127338435350445,12.229432
75274,1577397810.47,1.0831134729897105,-1.5527273693549917,9.010548750416824,0.5138190343345084,-1.9696396316156155,9.298524494003669,-0.199653060392054,-2.57563542986614,9.851526682337315,3.1833183474657014,0.3714212557164634,1.194837616711128,1.0320151724466462,0.3353211937881094,1.48773193359375,0.8489097036966462,8.200296541539634,2.0952922541920733,4.260472311253564,-9.129583524114777,-1.084934228098292,4.993948776091633,-3.382997557997557,-59.124559294871794,28.044658100458264,34.250666427052444,36.958307125527895,1577397809.999,-27.69537521238232,-51.127338435350445,12.229432
75275,1577397810.48,-0.0828627355063834,-1.9932604748237417,10.348907478444168,-0.7910208704506478,-1.238211024437881,7.867989002060309,0.7795754186118521,-3.530921892268483,12.11045594869474,-0.3567207150342987,-4.236733041158536,0.950696991711128,2.405306188071646,-1.4499571265243902,0.87738037109375,-8.794644983803353,5.087503572789634,-1.765181378620427,2.93499203664134,-8.94699185363248,0.0,-1.6109512180940753,-3.21384768009768,-62.16049357543498,27.90088956779585,34.17878216072124,37.10207565819032,1577397809.999,-27.69537521238232,-51.127338435350445,12.229432
75276,1577397810.49,1.1405743128334602,-1.2319043468940545,8.984212532155105,1.1195520543540396,-1.8104252212152243,8.873553699325935,0.5712798741782584,0.4578180735518293,9.342758829554114,4.709197253715701,1.988852896341464,1.042249726086128,0.5132163443216463,0.2590272484756097,2.43377685546875,2.039095250571646,1.883157869664634,-1.368452862995427,3.3137006865305447,-8.58180851266789,-0.3099812080280861,-1.6109512180940753,-3.21384768009768,-62.16049357543498,28.092580944679067,34.17878216072124,37.19792134663192,1577397809.999,-27.69537521238232,-51.127338435350445,12.229432
75277,1577397810.5,0.0476212549721322,-2.18599370846632,9.2798964371844,1.1171578526938837,-2.028297572289443,9.92460822813453,0.3869263463462271,-2.372128288752858,10.688300162561926,-0.2651679806592987,1.1343607088414631,1.240613983898628,3.626009313071646,-2.7011778296493905,0.87738037109375,3.992220250571646,-0.3446253334603658,0.7677776057545732,2.0828975743906293,-8.673104347909035,-1.1624295301053118,1.772046339903483,-3.382997557997557,-62.36288919413919,28.02069667834786,34.562164914487674,36.86246143708629,1577397809.999,-27.69537521238232,-51.127338435350445,12.229432
75278,1577397810.51,0.5108992762123665,-1.7011678722846792,8.902809675709793,1.477485202547399,-2.3443321914300683,9.166843402695076,0.5425494542563833,-0.7009755299637956,9.561828281458412,1.7184745974657014,-1.3985982755335369,0.7981091010861281,-0.2802406869283537,1.2355897484756098,1.25885009765625,-0.4786049447408536,0.7082311118521342,2.2478801448170733,3.503055011475147,-8.034033501221002,-0.7749530200702122,0.4832853654282227,-3.2138476800976794,-39.6945798992674,28.14050378889987,34.41839638182526,37.19792134663192,1577397809.999,-27.69537521238232,-51.127338435350445,12.229432
75279,1577397810.52,-1.0573028111899772,-1.825666358612804,10.839718818776198,-2.205994051602992,-1.104135731469131,10.633291919540778,-1.8085565760170537,-4.562822807795826,9.826387564905676,-1.8520820431592984,-5.335365853658536,1.164320038586128,2.740999547446646,-5.936041110899391,0.41961669921875,-5.834439905678353,-0.1310022865853658,0.7067424495045732,3.692409336419757,-6.755891807844934,0.0,6.927090237804523,0.6765995115995117,-10.549610805860803,27.94881241201665,34.17878216072124,37.0062299697487,1577397809.999,-27.69537521238232,-51.127338435350445,12.229432
75280,1577397810.53,-0.8633724767173209,-1.4904781261909292,11.7973994828387,-0.7527136438881478,-1.6595905166253808,12.548653247665776,-0.5300528894936165,-0.8518102345536394,10.79603923726896,-0.2651679806592987,-0.7272115567835366,1.316907929211128,1.6728843130716462,-1.6025450171493902,1.67083740234375,0.4826987661966463,-4.372945645960366,-1.154829816120427,2.366929061807533,-9.494766865079368,-0.7749530200702122,7.571470725042153,2.3680982905982906,-9.740028331043955,28.044658100458264,34.370473537604454,37.19792134663192,1577397809.999,-27.69537521238232,-51.127338435350445,12.229432
75281,1577397810.54,-0.0146279881919302,-1.682014259003429,11.6824778031512,0.8250652501548209,-2.057027992211318,10.180787805771248,-0.0536067591225218,-1.342621574885671,11.835122757776771,-0.9823310665967986,-2.512489877096036,1.484754608898628,2.588411656821646,-0.5039122046493902,1.64031982421875,4.724642125571647,-4.556051114710366,1.622269793254573,1.5148345995568226,-9.038287688873629,-0.3874765100351061,6.927090237804523,-2.0297985347985343,-15.407105654761905,28.044658100458264,34.27462784916285,37.0062299697487,1577397809.999,-27.69537521238232,-51.127338435350445,12.229432
75282,1577397810.55,-0.0134308873618521,-2.043538709687023,9.781481684987137,0.3486191197837276,-2.302433662377334,9.748634406113045,0.0289931981528677,-1.9866618214677016,9.0590459328256,2.2983085818407014,3.6978372713414633,1.713636444836128,2.756258336509146,-3.372564548399391,1.53350830078125,-0.4175697884908524,-0.954976895960366,1.149247332317073,2.366929061807533,-9.859950206043957,-0.464971812042126,7.088185359613931,-0.1691498778998777,-40.50416237408425,28.092580944679067,34.370473537604454,37.10207565819032,1577397809.999,-27.69537521238232,-51.127338435350445,12.229432
75283,1577397810.56,1.0687482630287728,-2.2231038341987417,8.814224214284012,0.2743988683188834,-1.4129877456292872,8.732295801376715,0.7508449986899771,-3.935541972834889,7.714701700647865,0.7724296755907013,-8.814369759908537,0.2487926948361281,1.8254722036966464,0.7473084984756098,0.20599365234375,6.158968297446647,-5.532613614710366,1.133988543254573,2.366929061807533,-9.859950206043957,-0.464971812042126,-2.255331705331705,-16.069238400488402,-16.419083748282965,28.092580944679067,34.17878216072124,37.10207565819032,1577397809.999,-27.69537521238232,-51.127338435350445,12.229432
75284,1577397810.57,0.0823371790443968,-1.806512745331554,9.25475731975276,1.430798270174352,-3.060198487816787,8.394713367294683,0.4467813878501334,-1.895682158381764,9.419373282679114,6.326628894340701,-1.5511861661585369,0.920179413586128,0.8489097036966463,-1.0532286108993902,1.76239013671875,-6.109098108803353,-4.433980802210366,-0.3003376286204268,1.9882204119183284,-9.494766865079368,-0.1549906040140398,7.249280481423338,-3.382997557997557,-17.026270604395606,28.044658100458264,34.46631922604607,37.0062299697487,1577397809.999,-27.69537521238232,-51.127338435350445,12.229432
75285,1577397810.58,0.7730643579994759,-2.463721101044445,9.707261433522293,0.7257058812583365,-1.4931935012445214,9.36915344297828,0.1546887853110709,-2.0201806447098893,10.406981467493567,2.0083915896532014,-2.268349252096036,0.996473358898628,0.4216636099466463,-0.7175352515243903,0.92315673828125,-2.8437172494283534,0.9065953696646344,1.347611590129573,2.4616062242798344,-8.307921006944445,-0.697457718063189,5.0744963369963365,2.452673229548229,-16.72267717633929,28.068619522568667,34.370473537604454,37.03019139185911,1577397809.999,-27.69537521238232,-51.127338435350445,12.229432
75286,1577397810.59,0.0775487757240843,-1.883127198456554,11.282646125905105,3.1618060704673203,-3.1966679824456934,10.934961328720464,0.3174944982016959,-1.251641911799733,11.387407047327551,1.6269218630907014,-1.4901510099085369,0.7065563667111281,-0.6159340463033537,1.1135194359756098,1.88446044921875,1.6118491568216462,-0.6803186928353658,0.7372600276295732,2.556283386752136,-8.216625171703297,-0.6199624160561659,2.738617070759928,2.0297985347985352,-17.026270604395606,28.092580944679067,34.17878216072124,37.24584419085272,1577397809.999,-27.69537521238232,-51.127338435350445,12.229432
75287,1577397810.6,0.3840065882240853,-2.486466016815929,11.256309907643386,-0.3935833948647103,-1.4728427871331935,12.438519971298591,-0.0272705408608031,-1.6418967824052018,11.54781855855802,-1.0586250119092986,1.3174661775914631,1.377943085461128,0.8489097036966463,-1.8466856421493905,0.87738037109375,7.227083531821647,-3.4269007240853657,1.988480730754573,2.556283386752136,-8.216625171703297,-0.6199624160561659,2.738617070759928,2.0297985347985352,-17.026270604395606,27.90088956779585,34.27462784916285,37.0062299697487,1577397809.999,-27.69537521238232,-51.127338435350445,12.229432
75288,1577397810.61,0.0224821375404915,-1.7179272839057729,11.255112806813308,-0.304997933438929,-1.7218397597894437,10.111355957626715,0.5138190343345084,-2.206928374202077,11.150381082972084,2.4051201052782014,0.8291849275914634,1.133802460461128,2.435823766196646,0.0759217797256097,0.72479248046875,0.2385581411966463,0.1436559165396341,1.103470965129573,2.650960549224437,-9.403471029838215,-0.8524483220772289,2.4164268271411125,-3.382997557997557,-17.026270604395606,28.092580944679067,34.370473537604454,37.0062299697487,1577397809.999,-27.69537521238232,-51.127338435350445,12.229432
75289,1577397810.62,0.2810559168373666,-2.869538282440929,10.554808821217604,0.8478101659263058,-2.124065638695693,10.54231225645484,-0.3492906641518197,-2.831815007502858,10.547042264612708,0.5282890505907013,-3.1075826505335367,0.7370739448361281,1.4440024771341462,1.1745545922256098,1.12152099609375,1.0930503286966462,-1.5805872475228655,0.0048381526295732,3.881763661364359,-7.668850160256411,-0.1549906040140398,7.08818535961393,-1.522348901098901,-60.9461198632097,28.092580944679067,34.41839638182526,37.48545841195675,1577397809.999,-27.69537521238232,-51.127338435350445,12.229432
75290,1577397810.63,0.7072238123451791,-1.679620057343273,10.952246296803542,2.091597928377477,-2.128854042016006,10.539918054794684,0.4180509679282584,-1.0577115773270769,8.696324381311927,3.854705066215701,0.5240091463414634,0.8896618354611281,1.2151206411966462,1.2966249047256098,0.87738037109375,3.107210484946646,-3.8236292397103657,0.9203654963795732,2.1775747368629306,-6.755891807844934,-0.6199624160561659,2.0942365835222976,-1.6914987789987788,-66.41080156822345,27.94881241201665,34.46631922604607,37.05415281396951,1577397809.999,-27.69537521238232,-51.127338435350445,12.229432
75291,1577397810.64,0.4725920496498665,-2.0004430798042105,10.344119075123857,1.4523460851157584,-2.7082508437738184,9.002840588974372,0.2360916417563834,-5.1206717946122335,9.958068656214271,-0.4787910275342987,-0.2999654630335365,0.7675915229611281,4.266878453696647,-0.6870176733993902,0.84686279296875,6.677767125571647,-5.593648770960366,2.3852092463795733,2.1775747368629306,-6.755891807844934,-0.6199624160561659,2.4164268271411125,-1.0148992673992672,-62.76768043154762,27.94881241201665,34.08293647227963,37.05415281396951,1577397809.999,-27.69537521238232,-51.127338435350445,12.229432
75292,1577397810.65,0.1026878931557254,-2.035159003876476,8.900415474049636,0.7508449986899771,-2.2533525283441307,9.328452014755625,1.335030203768102,0.6493542063643293,10.070596134241615,2.069426745903201,0.9665140291539636,1.118543671398628,1.3982261099466462,-2.7316954077743905,1.30462646484375,-7.696012171303353,-6.112447599085366,1.225541277629573,3.2190235240582474,-7.942737665979854,-0.697457718063189,-3.2219024361881505,-0.5074496336996336,-62.16049357543498,28.068619522568667,34.22670500494204,37.0062299697487,1577397809.999,-27.69537521238232,-51.127338435350445,12.229432
75293,1577397810.66,-0.5210016393149771,-2.2614110607612417,10.662547895924636,0.3917147496665396,-2.1252627395257715,11.086993134140387,0.2839756749595084,-3.6721797902177022,9.976025168665442,0.1010429568407013,-2.6193014005335367,1.042249726086128,2.542635289634146,-1.3278868140243905,0.45013427734375,0.5895102896341464,-6.402364591272866,0.5846721370045732,2.556283386752136,-8.94699185363248,-1.2399248321123315,1.772046339903483,-0.6765995115995113,-11.359193280677657,28.044658100458264,34.32255069338365,37.31772845718393,1577397809.999,-27.69537521238232,-51.127338435350445,12.229432
75294,1577397810.67,0.1852878504311165,-1.871156190155773,10.377637898366045,1.402067850252477,-2.387427821312881,10.295709485458747,0.3869263463462271,-0.1934047780106697,9.565419583948646,4.526091784965701,-0.9713521817835366,0.950696991711128,0.0859702505716463,-0.0156309546493902,1.42669677734375,4.114290563071647,-0.7108362709603658,1.805375262004573,3.3137006865305447,-7.851441830738707,-0.6199624160561659,-0.8054756090470375,-0.6765995115995113,-17.026270604395606,28.044658100458264,34.46631922604607,37.0062299697487,1577397809.999,-27.69537521238232,-51.127338435350445,12.229432
75295,1577397810.68,0.5420238977943977,-2.273382069062023,12.127799311940262,1.315876590486852,-2.018720765648818,11.631674011825934,-0.9490381800209604,-3.696121806819264,9.112915470179114,0.3451835818407013,-4.847084603658536,1.072767304211128,2.863069859946646,-1.7246153296493902,-0.12969970703125,10.614534703696648,6.735452791539634,2.2326213557545733,3.3137006865305447,-7.851441830738707,-0.6199624160561659,6.927090237804523,3.044697802197802,-10.549610805860803,28.044658100458264,34.370473537604454,37.0062299697487,1577397809.999,-27.69537521238232,-51.127338435350445,12.229432
75296,1577397810.69,1.1657134302651009,-1.9800923656928824,10.237577101246902,1.9240038121665397,-1.2022979995355372,8.522803156113044,-0.5384325953041634,-1.7304822438309826,10.696679868372474,3.8089286990282014,-0.5135885099085368,0.6455212104611281,0.0096763052591463,3.6769959984756095,0.95367431640625,7.089754430259147,6.384500643102134,0.1574260432545731,2.556283386752136,-9.129583524114777,-0.3099812080280829,7.813113407756264,-1.9452235958485955,-39.593382089915295,28.14050378889987,34.32255069338365,37.0062299697487,1577397809.999,-27.69537521238232,-51.127338435350445,12.229432
75297,1577397810.7,1.1166322962318975,-1.1193768688667105,10.652971089284012,0.8633724767173209,-0.701909852562881,8.655681348251715,1.296722977205602,-2.4990209767411398,10.439303189905678,0.9555351443407012,-1.2460103849085369,0.4929333198361281,2.130647984946646,-0.6565000952743902,0.57220458984375,-6.139615686928353,7.559427400914634,-2.9248493473704267,3.503055011475147,-8.034033501221002,-0.464971812042126,7.08818535961393,-3.21384768009768,-64.58924099988553,27.75712103513344,34.562164914487674,37.19792134663192,1577397809.999,-27.69537521238232,-51.127338435350445,12.229432
75298,1577397810.71,1.1070554895912728,-1.4449882946479604,8.94351110393245,2.489035403963414,-1.4177761489495997,8.540759668564215,1.0692738194907585,-0.0018686451981697,8.480846231897864,4.129363269340701,5.559409536966464,0.5234508979611281,-0.3412758431783537,4.5009706078506095,1.33514404296875,5.182405797446647,7.406839510289634,-2.6807087223704267,3.3137006865305447,-8.216625171703297,-0.6199624160561659,7.08818535961393,-3.21384768009768,-64.58924099988553,28.092580944679067,34.562164914487674,37.0062299697487,1577397809.999,-27.69537521238232,-51.127338435350445,12.229432
75299,1577397810.72,0.1565574305092415,-2.6899731579292103,8.49579539348323,0.4372045812095084,-2.3754568130121,7.985304883407965,-0.0344531458412718,-2.870122234065358,10.592532096155676,-1.6689765744092986,3.453696646341464,0.950696991711128,2.618929234946646,-1.9687559546493905,0.48065185546875,7.623812047446647,8.200296541539634,0.2794963557545732,3.3137006865305447,-8.216625171703297,-0.6199624160561659,7.08818535961393,-3.21384768009768,-64.58924099988553,28.38011801000389,34.27462784916285,37.10207565819032,1577397809.999,-27.69537521238232,-51.127338435350445,12.229432
75300,1577397810.73,0.4570297388588509,-2.5762485790717884,8.817815516774246,-0.2930269251381478,-1.9061932876214749,8.490481433700934,0.4132625646079459,-1.4455722462723892,9.060243033655675,2.0694267459032014,-2.283608041158536,0.1267223823361281,1.8865073599466464,0.6862733422256098,1.18255615234375,-4.979947718178353,6.033548494664634,0.4626018245045732,3.219023524058244,-8.307921006944445,-0.852448322077229,6.927090237804523,-0.6765995115995113,-62.76768043154762,28.068619522568667,34.41839638182526,37.0062299697487,1577397809.999,-27.69537521238232,-51.127338435350445,12.229432
75301,1577397810.74,-0.0110366857016959,-0.9158697277534292,11.02407234660823,0.9603376439536488,-2.5550219375238186,8.389924963974373,0.5832508824790397,-3.4124089100907486,9.303254502161536,3.2748710818407014,-1.2460103849085369,-0.2700061332888719,1.7186606802591462,-1.4346983374618911,1.13677978515625,1.7034018911966462,6.048807283727134,-0.2545612614329268,3.3137006865305447,-8.216625171703297,-0.3099812080280861,7.571470725042153,2.0297985347985352,-13.180753849015568,28.044658100458264,34.370473537604454,36.958307125527895,1577397809.999,-27.69537521238232,-51.127338435350445,12.229432
75302,1577397810.75,0.3121805384193978,-1.181626112030773,10.1501887406512,0.1499003819907584,-1.2046922011956935,10.647657129501717,0.1642655919516959,-0.8470218312333269,9.462468912561928,0.6198417849657013,5.498374380716464,0.920179413586128,-0.2192055306783537,0.2590272484756097,0.87738037109375,3.564974156821646,5.301126619664634,-1.734663800495427,1.798866086973726,-7.121075148809526,-0.6199624160561659,7.249280481423338,2.0297985347985352,-9.33523709363553,28.044658100458264,34.27462784916285,37.10207565819032,1577397809.999,-27.69537521238232,-51.127338435350445,12.229432
75303,1577397810.76,1.1333917078529916,-2.486466016815929,8.830983625905105,0.9735057530845084,-2.9069695815667878,9.302115796493904,-0.190076253751429,-0.7536479664872331,13.609226187952553,1.7489921755907014,2.934897818216464,0.5844860542111281,2.039095250571646,3.554925685975609,-0.49591064453125,12.842317906821648,1.272806307164634,0.0963908870045732,1.798866086973726,-7.121075148809526,-0.6199624160561659,12.082134135705564,-2.3680982905982906,-17.026270604395606,28.092580944679067,34.41839638182526,37.10207565819032,1577397809.999,-27.69537521238232,-51.127338435350445,12.229432
75304,1577397810.77,0.3014066309486947,-2.1381096752631947,10.88999705363948,1.2536273473227897,-2.2892655532464747,9.596602600693124,0.0900453404868521,-1.6766127064774674,10.104114957483802,0.5893242068407013,-1.2002340177210369,0.0504284370236279,0.2385581411966463,-0.0308897437118902,0.66375732421875,3.488680211509146,3.7905065024771343,1.576493426067073,1.7041889245014248,-8.125329336462151,-0.852448322077229,5.557781702424559,-2.1143734737484734,-61.04731767256182,27.972773834127057,34.22670500494205,37.05415281396951,1577397809.999,-27.69537521238232,-51.127338435350445,12.229432
75305,1577397810.78,0.7287716272865853,-2.053115516327648,9.838942524830886,0.0110366857016959,-0.8647155654535059,8.018823706650153,-1.0184700281654917,-4.850127007014577,9.859906388147865,-0.8144843869092987,0.8902200838414634,0.4013805854611281,0.5742515005716463,-0.2292540015243902,-0.12969970703125,-2.813199671303354,6.765970369664634,-0.1782673161204268,1.9882204119183284,-8.399216842185593,-0.1549906040140398,-0.1610951218094077,-3.0446978021978017,-55.076646920787546,28.044658100458264,34.27462784916285,37.0062299697487,1577397809.999,-27.69537521238232,-51.127338435350445,12.229432
75306,1577397810.79,1.128603304532679,-1.1576840954292105,9.221238496510574,1.200954910799352,-1.2406052260980371,8.41626118223609,0.4635407994712271,-3.600353740413014,9.251779166468175,1.3522636599657014,3.118003286966464,0.4318981635861281,-2.019742640053354,3.524408107850609,1.48773193359375,-0.9821449838033536,3.8362828696646334,-2.0093220036204267,1.0414487871953166,-7.851441830738707,-2.4798496642246697,-0.1610951218094077,-3.0446978021978017,-55.076646920787546,28.044658100458264,34.27462784916285,36.86246143708629,1577397809.999,-27.69537521238232,-51.127338435350445,12.229432
75307,1577397810.8,0.6904644007240848,-1.80292144284132,9.312218159596512,2.769156998201696,-2.408975636254287,8.133745386337653,-0.4534384363686166,-2.724075932795827,11.26051435933927,-0.9518134884717986,1.2869485994664631,-0.0563830864138719,0.6658042349466463,0.3810975609756097,-0.12969970703125,5.823274938071647,-3.7931116615853657,-1.276900128620427,1.6095117620291235,-6.573300137362638,-1.084934228098292,1.772046339903483,7.4425946275946275,-55.8862293956044,28.14050378889987,34.370473537604454,37.10207565819032,1577397809.999,-27.69537521238232,-51.127338435350445,12.229432
75308,1577397810.81,0.6521571741615853,-2.235074842499523,9.917951179616043,1.181801297518102,-2.243775721703506,9.608573608993904,-0.0428328516518197,-1.526975102717702,8.733434507044349,-1.9131171994092984,1.988852896341464,-0.2700061332888719,-1.8061195931783536,2.837762600038109,0.35858154296875,-2.0960365853658534,4.919656893102134,0.4626018245045731,2.93499203664134,-10.04254187652625,-0.3099812080280861,-3.3024499970928543,-1.9452235958485955,-16.925072795043498,28.092580944679067,34.250666427052444,37.14999850241112,1577397809.999,-27.69537521238232,-51.127338435350445,12.229432
75309,1577397810.82,0.2212008753334603,-2.256622657440929,10.109487312428543,-0.9681917933022104,-1.527909425316787,8.06431353819312,-0.1086733973061156,-4.426353313166921,10.812798648890052,-1.6079414181592986,-3.2601705411585367,-0.6056994926638719,0.3606284536966463,-0.8396055640243902,-0.43487548828125,-1.0126625619283538,10.550150057164634,0.0658733088795732,3.1243463615859426,-9.129583524114777,-0.1549906040140398,-3.2219024361881505,-3.21384768009768,-16.823874985691393,28.14050378889987,34.370473537604454,37.0062299697487,1577397809.999,-27.69537521238232,-51.127338435350445,12.229432
75310,1577397810.83,0.2978153284584603,-1.497660731171398,10.90915066692073,1.0549086095298208,-1.4105935439691308,9.455344702743904,0.6670479405845083,-0.3418452809403581,9.484016727503333,1.6574394412157014,2.568686880716464,0.1267223823361281,-2.416471155678354,-1.3584043921493902,1.09100341796875,0.2080405630716463,7.254251619664634,-1.429488019245427,3.503055011475147,-8.399216842185593,0.464971812042126,-3.2219024361881505,-3.21384768009768,-16.823874985691393,28.044658100458264,34.22670500494204,37.0062299697487,1577397809.999,-27.69537521238232,-51.127338435350445,12.229432
75311,1577397810.84,0.362458773282679,-1.8496083752143664,10.936683986012527,0.7532392003501334,-2.487984291039444,10.676387549423591,-1.0304410364662728,-3.7942840748856703,11.679499649866615,-2.5234687619092986,1.4853128572789631,0.1724987495236281,-0.7380043588033537,1.4492127953506098,-0.09918212890625,9.637972203696648,-2.6639612709603657,-0.1782673161204268,2.1775747368629306,-9.31217519459707,-0.6199624160561659,-3.382997557997558,-3.382997557997557,-17.026270604395606,28.092580944679067,34.46631922604607,37.05415281396951,1577397809.999,-27.69537521238232,-51.127338435350445,12.229432
75312,1577397810.85,0.3600645716225228,-1.7753881237495228,11.040831758229324,0.9567463414634146,-2.3706684096917874,9.0614985296482,-0.0308618433510384,-1.0146159474442644,9.81202235494474,-2.4319160275342986,4.155600943216464,-0.2700061332888719,-2.645352991615854,3.387079006288109,0.37384033203125,-4.506925257240853,-1.3211878334603655,-0.2087848942454268,2.745637711696738,-8.034033501221002,-1.084934228098292,8.6185890168033,-0.0845749389499388,-16.925072795043498,27.90088956779585,34.27462784916285,37.05415281396951,1577397809.999,-27.69537521238232,-51.127338435350445,12.229432
75313,1577397810.86,-0.0301902989829459,-2.412245765351085,9.13983564006526,-0.0703661707436156,-1.1735675796136622,9.328452014755625,0.0206134923423209,-2.7982961842606704,12.352270316370522,-4.293488293159299,2.599204458841464,0.4318981635861281,-0.6769692025533537,0.3200624047256097,-0.28228759765625,-14.715055140053352,-1.504293302210366,0.0048381526295732,4.260472311253564,-8.764400183150183,-0.464971812042126,-1.9331414617128904,-16.069238400488402,-10.347215187156593,28.14050378889987,34.17878216072124,36.910384281307095,1577397809.999,-27.69537521238232,-51.127338435350445,12.229432
75314,1577397810.87,0.3911891932045541,-1.4880839245307729,8.694514131276199,2.014983475252477,-1.5590340468988184,9.17761731016578,0.4204451695884146,-2.247629802424733,7.496829349573646,0.8334648318407013,1.6836771150914631,-0.0563830864138719,-2.202848108803354,-0.2292540015243902,0.54168701171875,-2.446988733803354,5.392679354039634,-1.002241925495427,1.4201574370845214,-7.486258489774114,0.0,1.9331414617128904,-17.422437423687423,-10.347215187156593,28.044658100458264,34.41839638182526,36.910384281307095,1577397809.999,-27.69537521238232,-51.127338435350445,12.229432
75315,1577397810.88,0.7503194422279915,-1.9310112316596797,9.011745851246902,0.9818854588950552,-1.6619847182855372,7.936223749374762,0.6119813024009146,-3.012577232844655,6.865957212122474,-1.5316474728467986,0.2646097322789634,-0.1631946098513719,-2.126554163490854,1.800164943788109,-0.11444091796875,3.946443883384148,4.324564119664634,-1.124312237995427,2.366929061807533,-8.034033501221002,-2.63484026823871,4.671758532472818,-8.964943528693526,-9.942423949748168,28.068619522568667,34.39443495971486,36.9822685476383,1577397809.999,-27.69537521238232,-51.127338435350445,12.229432
75316,1577397810.89,0.7527136438881478,-1.8041185436713976,10.195678572194169,2.639870108553258,-3.3762331069574123,9.745043103622807,-0.7048296106850228,-2.8653338307450453,10.786462430628331,-4.598664074409299,0.8291849275914634,-0.5141467582888719,-3.454068811928354,2.120599514100609,0.69427490234375,-1.0431801400533538,3.7752477134146334,-0.7581013004954268,0.8520944622507143,-8.399216842185593,-1.7048966441544575,7.410375603232745,-3.21384768009768,-15.609501273466115,27.94881241201665,34.08293647227963,37.0062299697487,1577397809.999,-27.69537521238232,-51.127338435350445,12.229432
75317,1577397810.9,0.7910208704506478,-2.551109461640148,9.910768574635574,-0.6353977625404915,-0.9940024551019434,9.94855024473609,0.5473378575766958,-2.302696440608327,10.92293192525724,-0.8144843869092987,4.765952505716464,-0.2089709770388719,-2.202848108803354,2.029046779725609,0.32806396484375,-14.684537561928352,1.333841463414634,-0.0256794254954267,1.798866086973726,-8.94699185363248,-1.5499060401404114,7.08818535961393,-3.21384768009768,-6.2993028130723445,28.044658100458264,34.08293647227963,37.0062299697487,1577397809.999,-27.69537521238232,-51.127338435350445,12.229432
75318,1577397810.91,0.1302212122475218,-1.6915910656440545,10.387214705006668,0.4970596227134146,-1.8966164809808497,9.689976465439216,1.1674360875571643,0.742728071110423,8.41380858541349,-2.0351875119092986,3.026450552591464,-0.5446643364138719,-2.599576624428354,2.486810451600609,0.14495849609375,-0.9516274056783536,5.392679354039634,1.866410418254573,1.9882204119183284,-10.590316887973138,-1.3949154361263716,8.699136577708005,-1.8606486568986569,-16.823874985691393,28.23634947734148,34.17878216072124,37.0062299697487,1577397809.999,-27.69537521238232,-51.127338435350445,12.229432
75319,1577397810.92,-0.1211699620688834,-2.639694923065929,10.222014790455887,-0.5240673853432259,-2.4389031570062407,10.500413727402108,0.4479784886802115,-3.103556895930592,10.25255546041349,-2.2488105587842986,3.545249380716464,0.004652069836128,-1.9281899056783536,0.4573915062881097,0.28228759765625,0.3301108755716462,3.2717076743521343,0.0048381526295732,0.8520944622507143,-8.399216842185593,-0.464971812042126,7.168732920518634,-1.268624084249084,-36.355052190647896,27.996735256237457,34.32255069338365,37.12603708030071,1577397809.999,-27.69537521238232,-51.127338435350445,12.229432
75320,1577397810.93,0.1589516321693978,-1.9525590466010851,11.201243269459791,1.9766762486899767,-2.349120594750381,11.35394661924781,-1.0256526331459603,-1.728088042170827,12.330722501429117,-2.1877754025342986,0.6460794588414634,-0.0563830864138719,-2.416471155678354,4.1957948266006095,-0.12969970703125,0.6658042349466463,-0.0394495522103658,-1.612593487995427,0.8520944622507143,-8.399216842185593,-0.464971812042126,6.927090237804523,-0.6765995115995113,-55.8862293956044,28.092580944679067,34.41839638182526,36.86246143708629,1577397809.999,-27.69537521238232,-51.127338435350445,12.229432
75321,1577397810.94,0.3648529749428353,-2.1632487926948354,10.169342353932448,0.2384858434165396,-2.246169923363662,8.152898999618902,-0.0655777674233031,-0.3107206593583269,10.06101932760099,-3.0422675900342986,0.6765970369664634,0.035169647961128,-2.050260218178354,3.249749904725609,-0.74005126953125,-11.113980921303352,-11.361471036585366,-0.8801716129954268,2.93499203664134,-8.58180851266789,-1.2399248321123315,6.927090237804523,-0.6765995115995113,-55.8862293956044,28.044658100458264,34.27462784916285,37.10207565819032,1577397809.999,-27.69537521238232,-51.127338435350445,12.229432
75322,1577397810.95,0.2595081018959598,-2.2685936657417103,8.602337367360184,1.8378125524009143,-2.4017930312738183,8.011641101669683,1.1027926427329455,0.6014701731612043,9.62048622213224,-1.8368232540967984,4.491294302591464,0.340345429211128,-4.888394983803353,3.493890529725609,0.32806396484375,-3.881314905678354,-7.058492520960366,3.1176311213795733,1.3254802746122205,-7.760145995497559,-0.8524483220772321,6.927090237804523,0.6765995115995117,-54.26706444597069,27.92485098990625,34.27462784916285,37.05415281396951,1577397809.999,-27.69537521238232,-51.127338435350445,12.229432
75323,1577397810.96,-0.3797437413657584,-1.919040223358898,9.20447908488948,0.5401552525962271,-1.4285500564203029,9.717509784531012,0.7125377721274772,-3.4303654225419207,9.387051560267006,-0.6618964962842987,-0.4830709317835365,-0.2394885551638719,-3.637174280678354,1.6018006859756095,0.17547607421875,-3.515103968178354,-9.271016935022866,2.0800334651295733,3.1243463615859426,-8.399216842185593,-0.464971812042126,3.785735362521076,-0.4228746947496947,-42.02212951436584,28.044658100458264,34.250666427052444,37.17395992452152,1577397809.999,-27.69537521238232,-51.127338435350445,12.229432
75324,1577397810.97,-0.2049670201743521,-2.3523907238471797,9.692896223561355,2.0365312901938832,-3.0721694961175685,9.713918482040778,-0.2355660852943978,-5.561204900080983,9.07221404195646,-2.2182929806592986,-0.1778951505335365,-0.1784533989138719,-1.9587074838033536,1.2355897484756098,-0.22125244140625,-5.834439905678353,-1.595846036585366,-0.9717243473704268,3.1243463615859426,-8.399216842185593,-0.464971812042126,2.0942365835222976,-3.382997557997557,-4.072951007326006,28.14050378889987,34.46631922604607,37.19792134663192,1577397809.999,-27.69537521238232,-51.127338435350445,12.229432
75325,1577397810.98,-0.3127060948813834,-2.026779298065929,10.49974218303401,-1.588290023282679,-2.138430848656631,9.900666211532966,0.7005667638266959,-0.6985813283036394,11.176717301233802,-3.4695136837842986,-0.4830709317835365,0.3403454292111281,-3.087857874428354,-1.4804747046493902,0.60272216796875,-4.827359827553353,2.7376500571646343,-1.856734112995427,2.745637711696738,-8.764400183150183,-0.7749530200702122,2.0942365835222976,-2.706398046398046,-16.216688129578753,28.044658100458264,34.370473537604454,37.0062299697487,1577397809.999,-27.69537521238232,-51.127338435350445,12.229432
75326,1577397810.99,-0.0828627355063834,-2.1824024059760854,11.462211250416823,1.0573028111899772,-2.162372865258193,11.33479300596656,-0.7958092737709603,-0.6794277150223894,11.53584755025724,-3.0270088009717986,-1.4291158536585369,0.065687226086128,-4.308560999428353,1.6933534203506098,0.54168701171875,-1.2262856088033538,2.4324742759146343,-0.2698200504954268,2.4616062242798344,-8.490512677426741,-0.2324859060210597,6.927090237804523,-3.0446978021978017,-7.311280906593407,28.068619522568667,34.27462784916285,37.0062299697487,1577397809.999,-27.69537521238232,-51.127338435350445,12.229432
75327,1577397811.0,-0.3031292882407584,-2.0124140881049914,12.170894941823072,-0.2906327234779916,-2.290462654076553,9.743846002792733,-0.199653060392054,-3.06046126604778,10.140027982386146,-4.446076183784299,-1.1239400724085369,0.3403454292111281,-1.5924965463033538,0.5489442406631098,0.38909912109375,2.344271031821646,-6.387105802210366,2.9040080745045733,2.745637711696738,-8.764400183150183,-0.7749530200702122,8.699136577708007,-1.6914987789987788,-12.573566992902933,28.044658100458264,34.34651211549405,36.98226854763831,1577397810.999,-27.695271574403748,-51.127366608025405,11.840758
75328,1577397811.01,0.3864007898842415,-1.7442635021674917,10.54523201457698,1.4714996983970083,-2.741769667016006,8.916649329208747,-0.8101744837318978,-5.312207927424733,10.276497477015052,-2.7981269650342986,0.4324564119664634,-0.0563830864138719,-1.3788734994283538,-1.0532286108993902,-0.00762939453125,-4.918912561928353,-10.537496427210366,0.7372600276295732,2.745637711696738,-8.764400183150183,-0.7749530200702122,1.1276658526658527,0.6765995115995117,-62.36288919413919,28.044658100458264,34.562164914487674,36.81453859286549,1577397810.999,-27.695271574403748,-51.127366608025405,11.840758
75329,1577397811.02,0.3026037317787728,-2.285353077362804,8.811830012623854,-0.5875137293373666,-2.169555470238662,10.173605200790778,-0.7215890223061165,-1.6371083790848893,10.551830667933022,-2.8286445431592986,0.2798685213414634,-0.0258655082888719,-1.2873207650533538,-1.9382383765243905,0.17547607421875,-9.771207483803352,-13.314596036585366,-1.765181378620427,3.503055011475147,-8.034033501221002,-1.084934228098292,-2.094236583522298,-3.382997557997557,-16.216688129578753,28.092580944679067,34.46631922604607,37.05415281396951,1577397810.999,-27.695271574403748,-51.127366608025405,11.840758
75330,1577397811.03,0.2343689844643192,-2.449355891083507,9.622267274586743,2.00061826529154,-2.5885407607660063,9.402672266220463,-1.2459191858803351,-1.9770850148270769,9.29487479635099,-0.6008613400342986,0.7223734041539632,0.248792694836128,-2.843717249428354,2.242669826600609,0.38909912109375,-5.712369593178353,-13.436666349085366,1.011918230754573,3.3137006865305447,-8.764400183150185,0.6199624160561659,6.927090237804523,-3.382997557997557,-14.19273194253663,28.044658100458264,34.41839638182526,37.0062299697487,1577397810.999,-27.695271574403748,-51.127366608025405,11.840758
75331,1577397811.04,0.1397980188881468,-2.847990467499523,9.803029499928543,0.3330568089927115,-2.472421980248428,8.88193340513648,0.7089464696372433,-1.268401323420827,8.80885185933927,-0.9365546994092988,0.5240091463414634,0.065687226086128,-1.5924965463033538,0.1216981469131093,0.31280517578125,2.298494664634146,-10.247579435022868,2.5683147151295733,2.93499203664134,-8.216625171703297,-1.2399248321123315,7.088185359613931,-3.2138476800976794,-11.156797661973442,28.044658100458264,34.514242070266874,36.958307125527895,1577397810.999,-27.695271574403748,-51.127366608025405,11.840758
75332,1577397811.05,0.1134618006264281,-2.486466016815929,10.013719246022292,1.2943287755454458,-2.3467263930902247,9.433796887802496,0.4467813878501334,-3.887657939631764,8.751391019495522,-1.3332832150342986,0.2188333650914634,-0.0869006645388719,-1.8366371713033536,0.3200624047256097,0.05340576171875,1.9170249380716464,3.3785191977896343,2.4767619807545733,2.93499203664134,-8.216625171703297,-1.2399248321123315,6.927090237804523,-3.382997557997557,-8.120863381410256,28.044658100458264,34.27462784916285,37.0062299697487,1577397810.999,-27.695271574403748,-51.127366608025405,11.840758
75333,1577397811.06,0.2212008753334603,-2.084240137909679,10.67212470256526,-0.7670788538490853,-1.4536891738519435,8.840034876083747,0.8178826451743522,-2.151861736018483,11.595702591761146,-0.7839668087842987,0.5240091463414634,-0.1174182426638719,-0.8295570931783537,0.0759217797256097,0.45013427734375,4.388948766196647,6.918558260289634,-1.856734112995427,2.93499203664134,-8.216625171703297,-1.2399248321123315,7.249280481423338,-3.382997557997557,-9.33523709363553,28.23634947734148,34.370473537604454,37.10207565819032,1577397810.999,-27.695271574403748,-51.127366608025405,11.840758
75334,1577397811.07,0.4282993189369759,-2.467312403534679,10.304614747731277,0.577265378328649,-2.644804499779678,9.84679667417945,-0.6509600733315072,-1.6155605641434831,11.826743051966224,-0.8450019650342986,1.6836771150914631,0.004652069836128,-0.8448158822408538,0.9151551781631094,0.46539306640625,6.128450719321648,-0.3141077553353657,-1.002241925495427,2.366929061807533,-9.129583524114777,-0.464971812042126,12.404324379324375,0.6765995115995114,-16.62147936698718,27.996735256237457,34.27462784916285,37.10207565819032,1577397810.999,-27.695271574403748,-51.127366608025405,11.840758
75335,1577397811.08,0.1781052454506478,-2.270987867401866,11.397567805592605,-0.1613458338295541,-1.997172950707412,9.519988147568125,-0.1637400354897103,0.4314818552901105,10.082567142542397,-0.7229316525342987,0.4934915682164634,-0.0258655082888719,-0.7990395150533537,0.8083436547256098,1.30462646484375,1.3677085318216462,-0.0394495522103658,1.347611590129573,1.9882204119183284,-7.303666819291821,-1.084934228098292,7.893660968660968,-2.706398046398046,-68.839548992674,28.044658100458264,34.370473537604454,37.0062299697487,1577397810.999,-27.695271574403748,-51.127366608025405,11.840758
75336,1577397811.09,0.7598962488686165,-2.132124171112804,10.44228134319026,1.411644656893102,-3.060198487816787,9.43140268614234,-0.5683601160561166,-2.824632402522389,11.693864859827553,3.2443535037157014,2.782309927591464,0.096204804211128,0.0249350943216463,0.1979920922256097,0.23651123046875,2.527376500571646,2.3714391196646343,1.866410418254573,1.9882204119183284,-7.303666819291821,-1.084934228098292,2.4164268271411125,-2.0297985347985343,-59.124559294871794,28.14050378889987,34.562164914487674,37.05415281396951,1577397810.999,-27.695271574403748,-51.127366608025405,11.840758
75337,1577397811.1,0.3600645716225228,-2.177614002655773,9.463052864186356,-1.0256526331459603,-2.387427821312881,8.749055212997808,0.7915464269126333,-2.554087614924733,11.952438639124429,-0.2651679806592987,0.1577982088414634,-0.3920764457888719,0.6352866568216463,-0.4428770483993902,0.26702880859375,-0.7990395150533537,1.639017244664634,0.1574260432545732,1.9882204119183284,-7.303666819291821,-1.084934228098292,2.4164268271411125,-1.353199023199023,-62.36288919413919,27.94881241201665,34.17878216072124,37.24584419085272,1577397810.999,-27.695271574403748,-51.127366608025405,11.840758
75338,1577397811.11,0.4378761255776009,-2.40266895871046,10.172933656422684,0.5126219335044303,-2.313207569848037,9.346408527206794,0.4922712193931021,-3.1047539967606705,9.443315299280677,-0.3109443478467987,1.1953958650914631,-0.2394885551638719,0.4674399771341462,-0.2445127905868902,0.49591064453125,-5.3766762338033525,1.8221227134146345,-1.261641339557927,1.9882204119183284,-9.129583524114777,0.0,-0.4832853654282226,3.382997557997558,-60.33893300709708,28.068619522568667,34.41839638182526,37.03019139185911,1577397810.999,-27.695271574403748,-51.127366608025405,11.840758
75339,1577397811.12,0.4893514612709603,-2.033961903046398,9.10152841350276,1.6965546544516958,-2.1719496718988185,8.765814624618903,1.3517896153891955,-0.3226916676591082,7.432185904749427,1.3217460818407014,2.355063833841464,0.004652069836128,-1.7756020150533538,2.914056545350609,0.96893310546875,1.0930503286966462,4.049905916539634,-0.8191364567454268,2.1775747368629306,-8.58180851266789,-0.3099812080280861,-2.094236583522298,-0.6765995115995113,-55.8862293956044,28.14050378889987,34.41839638182526,37.0062299697487,1577397810.999,-27.695271574403748,-51.127366608025405,11.840758
75340,1577397811.13,0.3073921350990853,-2.5606862682807727,8.088781111256667,1.5768445714438832,-2.6795204238519434,9.855176379989995,-0.2714791101967416,-1.9938444264481705,10.738578397425208,2.3898613162157014,4.247153677591464,0.4013805854611281,0.6658042349466463,-0.9311582983993902,-0.12969970703125,10.675569859946648,2.0357457602896343,1.744340105754573,2.745637711696738,-9.129583524114777,0.464971812042126,3.060807314378742,-0.6765995115995113,-15.407105654761905,27.90088956779585,34.27462784916285,37.0062299697487,1577397810.999,-27.695271574403748,-51.127366608025405,11.840758
75341,1577397811.14,-0.2732017674888052,-2.463721101044445,10.3034176469012,-0.9634033899818978,-1.537486231957412,11.04748880674781,1.7037372594321645,-1.5892243458817643,10.42493797994474,-0.4635322384717986,-1.4138570645960369,0.096204804211128,1.8254722036966464,0.1064393578506097,0.32806396484375,2.283235875571646,0.9371129477896342,0.9203654963795732,2.272251899335232,-8.307921006944445,0.5424671140491459,1.772046339903483,-0.6765995115995113,-17.026270604395606,28.092580944679067,34.370473537604454,37.19792134663192,1577397810.999,-27.695271574403748,-51.127366608025405,11.840758
75342,1577397811.15,-0.2600336583579459,-1.7035620739448354,11.46460545207698,0.3354510106528677,-2.551430635033584,10.444149988388435,-0.3947804956947884,-3.07961487932903,11.41494036641935,1.1691581912157014,-4.145180306783536,-0.3615588676638719,0.1622641958841462,0.1522157250381094,0.54168701171875,-2.1875893197408534,3.7447301352896334,-0.7428425114329269,1.9882204119183284,-9.129583524114777,-0.7749530200702122,7.410375603232746,-0.3382997557997556,-9.537632712339745,27.94881241201665,34.41839638182526,37.12603708030071,1577397810.999,-27.695271574403748,-51.127366608025405,11.840758
75343,1577397811.16,0.3576703699623665,-2.1440951794135854,10.791834785573071,1.0142071813071647,-1.020338673363662,10.482457214950935,0.8035174352134146,-1.1367202321122332,7.894266825159583,1.2912285037157014,0.7071146150914634,0.3098278510861281,-0.5548988900533537,2.242669826600609,1.09100341796875,4.419466344321647,8.078226229039634,-0.1172321598704267,2.93499203664134,-9.31217519459707,-0.929943624084252,7.893660968660968,2.706398046398046,-9.740028331043955,27.94881241201665,34.27462784916285,37.10207565819032,1577397810.999,-27.695271574403748,-51.127366608025405,11.840758
75344,1577397811.17,0.1326154139076781,-1.5335737560737417,10.46861756145198,0.7388739903891959,-2.54783933254335,8.813698657822027,-0.1110675989662718,-3.217281474788014,8.555066483362708,1.9931328005907007,2.294028677591464,0.3708630073361281,1.7644370474466462,-0.7480528296493902,-0.19073486328125,1.0320151724466462,1.333841463414634,-0.6360309879954268,2.93499203664134,-8.94699185363248,-0.929943624084252,9.343517064945637,2.5372481684981683,-12.775962611607142,27.94881241201665,34.46631922604607,36.910384281307095,1577397810.999,-27.695271574403748,-51.127366608025405,11.840758
75345,1577397811.18,0.3313341517006478,-2.4194283703315542,8.933934297291824,0.4276277745688834,-2.212651100121475,7.738702112411871,1.3110881871665396,-1.9531429982255144,8.600556314905678,0.9555351443407014,1.0580667635289631,0.141981171398628,1.4287436880716462,0.6557557641006098,0.20599365234375,3.381868688071646,1.852640291539634,-1.856734112995427,2.4616062242798344,-8.673104347909037,-0.8524483220772321,-0.9665707308564452,-15.392638888888886,-15.204710036057692,28.068619522568667,34.27462784916285,37.19792134663192,1577397810.999,-27.695271574403748,-51.127366608025405,11.840758
75346,1577397811.19,0.314574740079554,-1.9477706432807729,9.044067573659012,0.3450278172934927,-2.2461699233636625,8.786165338730232,-0.2595081018959603,-2.5002180775712173,9.519929752405677,-0.9975898556592988,-3.1381002286585367,-0.2394885551638719,2.069612828696646,-2.8079893530868905,0.26702880859375,-2.1723305306783534,2.0967809165396343,-0.1630085270579268,1.230803112139919,-8.399216842185593,-0.7749530200702122,4.993948776091632,-1.0148992673992672,-12.978358230311354,27.90088956779585,34.250666427052444,36.74265432653428,1577397810.999,-27.695271574403748,-51.127366608025405,11.840758
75347,1577397811.2,0.3265457483803353,-2.457735596894054,9.14701824504573,2.127510953279821,-2.8806333633050687,8.749055212997808,0.3366481114829459,-0.7799841847489518,8.54788387838224,1.7795097537157014,-0.2694478849085365,0.065687226086128,-0.1581703744283537,1.1135194359756098,0.48065185546875,1.0930503286966462,3.1648961509146343,-0.6055134098704268,4.260472311253564,-9.859950206043957,-0.464971812042126,8.215851212279782,0.6765995115995117,-10.549610805860803,27.75712103513344,34.27462784916285,37.24584419085272,1577397810.999,-27.695271574403748,-51.127366608025405,11.840758
75348,1577397811.21,0.1948646570717415,-1.7466577038276478,9.352919587819168,0.7963348302329458,-2.320390174828506,9.175223108505625,-0.237960286954554,-2.8581512257645767,10.477610416468178,1.0470878787157014,-0.5135885099085366,-0.1174182426638719,0.2690757193216463,-3.3725645483993905,-0.03814697265625,3.229280797446646,-6.081930020960366,0.1879436213795732,1.798866086973726,-8.58180851266789,-1.8598872481684976,8.215851212279782,-2.706398046398046,-17.026270604395606,28.14050378889987,34.27462784916285,37.0062299697487,1577397810.999,-27.695271574403748,-51.127366608025405,11.840758
75349,1577397811.22,-0.0206134923423209,-2.524773243378429,10.350104579274246,-0.0057227259193978,-2.2701119399652248,10.851164270614998,0.1522945836509146,-0.6099958668778581,10.189109116419347,0.4367363162157013,1.8820413729039636,-0.0411242973513719,0.7115806021341462,0.5947206078506097,0.23651123046875,5.472322789634148,-0.6955774818978658,0.3100139338795731,2.6509605492244366,-8.855696018391333,-1.4724107381333948,6.041067067852782,-2.283523351648351,-12.269973564846612,27.94881241201665,34.17878216072124,37.05415281396951,1577397810.999,-27.695271574403748,-51.127366608025405,11.840758
75350,1577397811.23,-0.2289090367759146,-2.1488835827338977,10.344119075123857,-0.7862324671303352,-2.227016310082412,10.075442932724371,-0.3265457483803353,-2.578029631526296,12.692246952112708,3.0612480349657014,-0.2389303067835365,0.096204804211128,1.9475425161966464,0.0759217797256097,-0.25177001953125,2.161165563071646,-1.595846036585366,2.0495158870045733,2.1775747368629306,-8.94699185363248,-0.929943624084252,12.404324379324375,-1.6914987789987788,-55.8862293956044,28.14050378889987,34.370473537604454,37.10207565819032,1577397810.999,-27.695271574403748,-51.127366608025405,11.840758
75351,1577397811.24,0.1541632288490853,-2.005231483124523,10.540443611256668,1.928792215486852,-2.370668409691787,10.187970410751715,-1.183669942716273,-4.996173308284108,12.009899478968178,0.1010429568407013,-2.9549947599085367,-0.5141467582888719,-0.4328285775533537,-1.3278868140243902,0.87738037109375,-1.0126625619283538,-4.830709317835366,-0.9717243473704268,2.556283386752136,-8.216625171703297,-1.8598872481684976,12.404324379324375,-1.6914987789987788,-55.8862293956044,28.044658100458264,34.27462784916285,37.05415281396951,1577397810.999,-27.695271574403748,-51.127366608025405,11.840758
75352,1577397811.25,0.2523254969154915,-2.0387503063667105,10.63381747600276,-0.7503194422279915,-2.217439503441787,10.647657129501717,0.7771812169516958,-0.5597176320145769,8.839976480921303,2.9696953005907014,0.0662454744664634,0.004652069836128,2.435823766196646,2.090081935975609,-0.86212158203125,8.722444859946647,-21.401754239710368,0.3100139338795732,1.4201574370845214,-8.216625171703297,-0.929943624084252,3.22190243618815,-2.1989484126984125,-58.51737243875915,28.14050378889987,34.370473537604454,36.910384281307095,1577397810.999,-27.695271574403748,-51.127366608025405,11.840758
75353,1577397811.26,0.1984559595619759,-2.4505529919135856,10.473405964772292,1.1351143651450553,-2.568190046654678,9.280567981552498,-0.2774646143471322,-2.3589601796219988,12.467191996058022,0.4214775271532013,1.0885843416539631,0.096204804211128,0.7420981802591462,-1.0684873999618905,0.09918212890625,-0.7837807259908538,-17.953267911585368,2.8887492854420733,2.1775747368629306,-8.58180851266789,-1.084934228098292,1.772046339903483,-3.0446978021978017,-64.79163661858975,27.996735256237457,34.32255069338365,36.958307125527895,1577397810.999,-27.695271574403748,-51.127366608025405,11.840758
75354,1577397811.27,0.0871255823647093,-2.3236603039253043,10.61466386272151,-0.0823371790443968,-1.757752784691787,10.717088977646249,1.6869778478110709,-1.9052589650223888,11.31797519918302,-1.1806953244092986,-1.8563619474085369,-0.1174182426638719,0.3301108755716463,0.9304139672256098,-0.03814697265625,-18.621305140053355,-17.251363614710368,1.103470965129573,2.1775747368629306,-8.94699185363248,-1.8598872481684976,1.772046339903483,-3.382997557997557,-64.79163661858975,27.75712103513344,34.27462784916285,37.0062299697487,1577397810.999,-27.695271574403748,-51.127366608025405,11.840758
75355,1577397811.28,0.4845630579506478,-2.414639967011241,10.102304707448074,1.9718878453696649,-2.435311854516006,10.784126624130622,0.7245087804282584,-1.902864763362233,7.985246488245521,2.2983085818407014,-1.4901510099085369,-0.0258655082888719,2.405306188071646,-0.7175352515243902,0.63323974609375,-5.895475061928353,-10.751119474085366,3.0871135432545733,2.366929061807533,-8.764400183150183,-1.084934228098292,2.0942365835222976,-3.382997557997557,-64.79163661858975,28.092580944679067,34.22670500494204,36.86246143708629,1577397810.999,-27.695271574403748,-51.127366608025405,11.840758
75356,1577397811.29,-0.0948337438071646,-1.823272156952648,10.090333699147292,-0.6545513758217415,-2.0642105971917872,10.484851416611091,1.1099752477134146,-4.725628520686452,9.421767484339272,3.0612480349657014,0.6155618807164634,0.1267223823361281,2.100130406821646,-2.6401426733993905,-0.22125244140625,-18.224576624428355,1.059183260289634,-1.612593487995427,2.1775747368629306,-7.851441830738707,0.0,2.0942365835222976,-3.382997557997557,-64.79163661858975,28.044658100458264,34.17878216072124,37.05415281396951,1577397810.999,-27.695271574403748,-51.127366608025405,11.840758
75357,1577397811.3,-0.1008192479575552,-2.121350263642101,10.271095924489089,0.5425494542563833,-2.2605351333246,10.225080536484136,-0.8353136011635384,-1.7412561513016862,9.07101694112638,0.8487236209032014,-2.3904195645960367,0.431898163586128,2.695223180259146,-0.6565000952743903,-0.03814697265625,3.687044469321647,9.390482088414634,-0.9259479801829268,2.366929061807533,-8.399216842185593,-0.464971812042126,2.57752194895052,-0.3382997557997556,-13.38314946771978,28.21238805523108,34.370473537604454,37.0062299697487,1577397810.999,-27.695271574403748,-51.127366608025405,11.840758
75358,1577397811.31,0.2451428919350228,-2.393092152069835,9.551638325612137,0.8514014684165396,-2.028297572289443,10.662022339462654,0.1115931554282584,-2.752806352717702,11.43289687887052,1.4132988162157014,-2.2836080411585367,0.3403454292111281,-0.2802406869283537,1.0830018578506098,0.99945068359375,-10.015348108803352,2.7986852134146343,-2.4670856754954267,3.1243463615859426,-8.399216842185593,-1.7048966441544575,9.504612186755043,1.3531990231990234,-9.740028331043955,28.044658100458264,34.27462784916285,37.19792134663192,1577397810.999,-27.695271574403748,-51.127366608025405,11.840758
75359,1577397811.32,0.7958092737709603,-2.1153647594917104,10.74873915569026,1.344607010408727,-1.0059734634027246,11.432955274032969,0.0254018956626334,0.7187860545088606,9.895819413050209,2.6034843630907014,-1.0018697599085369,0.4318981635861281,0.3911460318216463,0.0148866234756097,0.96893310546875,4.694124547446647,3.5005895102896343,1.805375262004573,4.260472311253564,-10.590316887973138,-0.1549906040140398,6.927090237804523,-3.382997557997557,-10.549610805860803,28.044658100458264,34.27462784916285,37.0062299697487,1577397810.999,-27.695271574403748,-51.127366608025405,11.840758
75360,1577397811.33,0.0033285242592411,-1.1540927929389762,10.5715682328387,0.0493439122641959,-1.3746805190667872,9.62293881895484,1.5169895299399772,-4.895616838557546,8.744208414515052,1.6879570193407014,-0.8645406583460367,0.2182751167111281,2.405306188071646,3.066644435975609,-0.83160400390625,-13.036588343178352,4.995950838414634,-0.4529255192454268,2.1775747368629306,-8.764400183150183,-0.7749530200702089,8.37694633408919,0.8457493894993894,-16.014292510874544,28.068619522568667,34.562164914487674,36.33531015065744,1577397810.999,-27.695271574403748,-51.127366608025405,11.840758
75361,1577397811.34,0.4725920496498665,-2.534350050019054,8.43115194865901,1.671415537020055,-1.85830925441835,9.430205585312263,-0.6162441492592415,-2.5588760182450456,8.699915683802162,1.0776054568407014,-2.1005025724085367,0.4624157417111281,1.1083091177591462,-3.219976657774391,0.41961669921875,7.349153844321647,3.7905065024771343,-1.078535870807927,1.4201574370845214,-7.851441830738707,-0.929943624084252,-1.4498560962846678,-8.79579365079365,-36.25385438129578,27.94881241201665,34.442357803935664,36.88642285919669,1577397810.999,-27.695271574403748,-51.127366608025405,11.840758
75362,1577397811.35,0.0152995325600218,-2.548715259979992,9.350525386159012,0.9232275182212272,-1.8463382461175684,10.003616882919683,0.4012915563071646,-3.310655339534108,7.046719437464271,0.5588066287157013,-3.3212056974085367,0.4318981635861281,2.039095250571646,0.8388612328506098,0.14495849609375,2.374788609946646,4.629739900914634,0.0353557307545732,2.93499203664134,-8.216625171703297,-0.3099812080280861,8.215851212279782,-0.6765995115995113,-16.62147936698718,28.092580944679067,34.370473537604454,37.10207565819032,1577397810.999,-27.695271574403748,-51.127366608025405,11.840758
75363,1577397811.36,0.5707543177162728,-2.455341395233898,9.601916560475418,1.3422128087485707,-2.526291517601944,7.154516907333746,-0.6617339808022102,-2.182986357600514,10.044259915979897,0.4977714724657013,-2.2836080411585367,0.5844860542111281,0.1775229849466463,1.2661073266006098,0.14495849609375,12.170931188071648,0.3572789634146341,-1.246382550495427,3.3137006865305447,-10.04254187652625,-0.6199624160561659,7.249280481423338,0.6765995115995117,-10.549610805860803,28.044658100458264,34.27462784916285,37.820918321502376,1577397810.999,-27.695271574403748,-51.127366608025405,11.840758
75364,1577397811.37,0.8556643152748665,-1.996851777313976,9.672545509450028,1.7444386876548208,-2.092941017113662,9.141704285263437,2.4435455724204456,0.3572616038252668,9.835964371546302,1.0776054568407014,-2.6345601895960367,0.065687226086128,0.2385581411966463,-0.7785704077743902,0.90789794921875,-3.637174280678354,4.873880525914634,-0.5749958317454268,3.0296691991136413,-8.490512677426741,-1.4724107381333915,6.927090237804523,1.0148992673992672,-17.026270604395606,27.92485098990625,34.41839638182526,37.19792134663192,1577397810.999,-27.695271574403748,-51.127366608025405,11.840758
75365,1577397811.38,0.5635717127358041,-1.6006114025581166,9.542061518971511,1.2272911290610709,-1.8104252212152243,9.978477765488044,0.2684133641684927,-2.719287529475515,9.77251802755216,3.1222831912157014,3.9114603182164633,0.5539684760861281,1.3066733755716462,0.0606629906631097,0.06866455078125,0.4521811880716462,4.812845369664634,0.0506145198170732,2.93499203664134,-7.486258489774114,-1.5499060401404114,2.0942365835222976,-3.382997557997557,-13.787940705128204,27.852966723575044,34.27462784916285,37.05415281396951,1577397810.999,-27.695271574403748,-51.127366608025405,11.840758
75366,1577397811.39,0.3935833948647103,-2.503225428437023,10.4949537797137,1.2081375157798209,-1.9157700942621,9.148886890243904,-0.7670788538490853,-2.611548454768483,11.12165066305021,0.3757011599657013,-1.2765279630335369,-0.0869006645388719,1.0014975943216462,-2.0908262671493905,0.32806396484375,2.008577672446646,0.6014195884146342,0.7677776057545732,2.93499203664134,-7.851441830738707,0.3099812080280861,2.4164268271411125,-3.382997557997557,-13.787940705128204,27.94881241201665,34.27462784916285,37.05415281396951,1577397810.999,-27.695271574403748,-51.127366608025405,11.840758
75367,1577397811.4,0.4223138147865853,-2.0195966930854605,10.253139412037918,-0.0990965906654906,-2.179132276879287,10.168816797470466,0.0325845006431021,-0.7321001515458269,10.85828848043302,2.5119316287157014,0.8902200838414634,0.2793102729611281,1.1540854849466462,-1.4194395483993902,0.93841552734375,9.576937047446648,1.883157869664634,0.4320842463795732,3.692409336419757,-7.486258489774114,-0.3099812080280861,1.772046339903483,-3.382997557997557,-13.787940705128204,27.94881241201665,34.22670500494204,37.0062299697487,1577397810.999,-27.695271574403748,-51.127366608025405,11.840758
75368,1577397811.41,0.6760991907631478,-1.8089069469917105,10.32137415935237,0.8047145360434927,-2.200680091820693,8.76222332212867,-0.366050075772913,-2.48585286761028,9.916170127161536,1.6269218630907014,-0.2847066739710367,-0.2242297661013719,0.8031333365091462,2.227411037538109,0.17547607421875,-1.3330971322408536,5.987772127477134,-1.078535870807927,2.272251899335232,-9.220879359355925,-0.8524483220772321,5.638329263329262,-3.382997557997557,-63.37486728766025,28.116542366789467,34.46631922604607,37.03019139185911,1577397810.999,-27.695271574403748,-51.127366608025405,11.840758
75369,1577397811.42,0.6282151575600228,-2.206344422577648,9.144624043385576,0.9351985265220084,-2.150401856957412,9.371547644638436,0.8681608800376334,-0.8206856129716081,8.195936234339271,1.0776054568407014,1.927817740091464,0.2793102729611281,-0.3717934213033537,1.6323182641006098,0.11444091796875,2.618929234946646,-0.2835901772103658,0.1879436213795732,2.366929061807533,-9.129583524114777,-0.7749530200702122,3.382997557997558,-2.0297985347985343,-61.95809795673076,27.94881241201665,34.370473537604454,37.0062299697487,1577397810.999,-27.695271574403748,-51.127366608025405,11.840758
75370,1577397811.43,0.8724237268959603,-2.8503846691596797,9.494177485768386,0.1307467687095083,-1.7002919448480371,7.946997656845465,-1.1214206995522102,-4.141443315608327,9.960462857874427,1.4438163943407014,2.385581411966464,-0.0869006645388719,0.9404624380716464,0.3505799828506097,0.14495849609375,1.5813315786966462,3.8668004477896334,0.7677776057545732,3.3137006865305447,-8.94699185363248,0.3099812080280861,1.772046339903483,-0.6765995115995113,-64.38684538118132,28.092580944679067,34.370473537604454,37.19792134663192,1577397810.999,-27.695271574403748,-51.127366608025405,11.840758
75371,1577397811.44,0.4833659571205697,-1.7634171154487417,9.263137025563308,1.363760623689977,-2.224622108422256,8.753843616318122,1.4643170934165397,-3.2579829030106704,11.66274023824552,1.0776054568407014,1.4700540682164636,-0.0411242973513719,0.7268393911966463,-0.5039122046493902,0.02288818359375,4.205843297446647,-0.9549768959603658,-1.337935284870427,2.0828975743906293,-8.673104347909035,-0.3874765100351061,-3.382997557997558,-3.382997557997557,-12.978358230311354,27.996735256237457,34.08293647227963,37.0062299697487,1577397810.999,-27.695271574403748,-51.127366608025405,11.840758
75372,1577397811.45,0.0536067591225218,-1.1576840954292105,10.327359663502762,0.7137348729575552,-1.3088399734124905,10.304089191269297,0.7173261754477896,0.1046733286787829,8.201921738489661,2.0541679568407014,0.2188333650914634,0.035169647961128,-0.0818764291158536,-1.3736631812118905,0.37384033203125,1.3677085318216462,3.5005895102896343,0.2947551448170731,2.745637711696738,-8.764400183150183,-0.464971812042126,-2.0942365835222976,-3.382997557997557,-14.192731942536629,28.23634947734148,34.32255069338365,37.12603708030072,1577397810.999,-27.695271574403748,-51.127366608025405,11.840758
75373,1577397811.46,0.2427486902748665,-2.5104080334174914,10.195678572194169,1.2679925572837272,-2.461648072777725,8.674834961532964,1.2823577672446649,-4.3928344899247325,9.546265970667395,-1.0891425900342986,-0.2084127286585365,-0.1479358207888719,-0.7074867806783537,4.1957948266006095,-0.19073486328125,1.2151206411966462,9.878763338414634,-0.0561970036204267,2.745637711696738,-8.764400183150183,-0.464971812042126,7.571470725042153,-3.382997557997557,-8.120863381410256,28.044658100458264,34.27462784916285,36.86246143708629,1577397810.999,-27.695271574403748,-51.127366608025405,11.840758
75374,1577397811.47,0.6808875940834603,-2.266199464081554,9.520513704030105,0.0373729039634146,-1.9085874892816308,9.03635941221656,-1.3081684290443978,-3.629084160334889,12.74970779195646,0.4977714724657013,1.927817740091464,-0.0869006645388719,-2.111295374428354,-0.1377012671493902,0.66375732421875,0.6047690786966463,7.101663729039634,-1.582075909870427,2.745637711696738,-8.764400183150183,-0.464971812042126,7.249280481423338,-3.382997557997557,-10.549610805860803,27.94881241201665,34.27462784916285,37.19792134663192,1577397810.999,-27.695271574403748,-51.127366608025405,11.840758
75375,1577397811.48,0.5719514185463509,-2.031567701386241,10.923515876881668,0.2863698766196647,-1.7433875747308496,11.145651074814216,1.363760623689977,1.1234061350752669,11.543030155237709,-0.0973213009717986,-0.6661764005335367,-0.1174182426638719,-1.7450844369283538,1.4186952172256098,-0.09918212890625,4.846712438071647,-2.2367151772103657,-1.093794659870427,3.029669199113645,-7.394962654532968,-1.0074389260912686,8.215851212279782,0.6765995115995117,-13.38314946771978,28.14050378889987,34.27462784916285,37.19792134663192,1577397810.999,-27.695271574403748,-51.127366608025405,11.840758
75376,1577397811.49,0.352881966642054,-1.0355798107612415,10.844507222096512,1.9730849461997424,-1.967245429955459,9.007628992294684,0.2265148351157584,-1.2755839284012955,8.787304044397866,-0.5398261837842987,1.7447122713414631,0.096204804211128,-0.9821449838033538,1.998529201600609,0.06866455078125,0.6047690786966462,5.362161775914634,0.0658733088795732,3.692409336419757,-7.486258489774114,-1.5499060401404114,7.08818535961393,-0.5074496336996336,-11.966380136790292,28.14050378889987,34.22670500494205,37.41357414562554,1577397810.999,-27.695271574403748,-51.127366608025405,11.840758
75377,1577397811.5,0.6665223841225228,-1.852002576874523,8.70648513957698,1.5912097814048207,-0.9580894301995996,8.950168152450935,-0.3744297815834603,-4.80942557879192,10.472822013147864,0.3451835818407013,4.521811880716464,-0.1479358207888719,-0.8905922494283537,1.0219667016006098,-0.74005126953125,-6.231168421303353,4.629739900914634,-1.398970441120427,4.639180961142769,-6.938483478327229,-0.464971812042126,7.08818535961393,-0.5074496336996336,-11.966380136790292,28.092580944679067,34.370473537604454,36.910384281307095,1577397810.999,-27.695271574403748,-51.127366608025405,11.840758
75378,1577397811.51,0.3121805384193978,-1.689196863983898,8.95548211223323,0.8609782750571646,-1.8583092544183497,8.38513656065406,-0.0009343225990853,-2.764777361018483,10.10650915914396,-4.903839855659299,-2.5277486661585367,-0.6972522270388719,-3.026822718178354,3.005609279725609,0.54168701171875,0.4216636099466463,4.019388338414634,-1.917769269245427,4.639180961142769,-6.938483478327229,-0.464971812042126,7.893660968660968,0.6765995115995117,-12.168775755494504,28.044658100458264,34.46631922604607,37.0062299697487,1577397810.999,-27.695271574403748,-51.127366608025405,11.840758
75379,1577397811.52,0.5288557886635384,-2.330842908905773,9.65818029948909,1.363760623689977,-2.3060249648675684,9.120156470322028,0.4467813878501334,-1.768789470393483,9.52471815572599,-1.5926826290967986,1.5616068025914631,-0.2700061332888719,-0.0361000619283536,0.3200624047256097,-0.37384033203125,-0.7990395150533537,1.455911775914634,-1.429488019245427,2.5562833867521357,-9.494766865079368,-0.154990604014043,8.860231699517414,-0.6765995115995113,-10.549610805860803,28.02069667834786,34.17878216072124,37.05415281396951,1577397810.999,-27.695271574403748,-51.127366608025405,11.840758
75380,1577397811.53,0.0009343225990853,-2.201556019257336,10.18131336223323,1.084836130281774,-2.595723365746475,9.436191089462652,0.519804538484899,-1.9591285023759049,9.774912229212315,-2.1572578244092986,0.8597025057164634,-0.3615588676638719,-2.401212366615854,0.0301454125381097,0.14495849609375,0.0707114615091463,2.1883336509146343,0.0658733088795732,2.1775747368629306,-7.121075148809526,-0.929943624084252,7.974208529565672,-0.5920245726495724,-13.6867428957761,27.90088956779585,34.46631922604607,37.07811423607991,1577397810.999,-27.695271574403748,-51.127366608025405,11.840758
75381,1577397811.54,-0.7101435704673209,-2.5319558483588978,10.159765547291824,-0.352881966642054,-1.381863124047256,11.48802191221656,-0.1350096155678343,-1.6562619923661392,11.289244779261146,-3.7441718869092986,3.8199075838414633,0.4318981635861281,-1.7450844369283538,-0.6870176733993902,-0.03814697265625,-1.1042152963033538,-1.229635099085366,0.6457072932545732,3.3137006865305447,-9.31217519459707,-0.929943624084252,6.927090237804523,-2.706398046398046,-8.525654618818681,28.044658100458264,34.17878216072124,37.10207565819032,1577397810.999,-27.695271574403748,-51.127366608025405,11.840758
75382,1577397811.55,-0.5114248326743521,-1.6580722424018666,10.588327644459792,0.2456684483970084,-2.0163265639886623,10.78652082579078,-0.4749862513100228,-3.265165507991139,10.970815958460364,-2.7370918087842986,-0.9408346036585366,-0.1479358207888719,-0.7380043588033537,0.6252381859756098,-0.46539306640625,-1.7450844369283538,-0.9244593178353658,0.3405315120045732,3.3137006865305447,-9.31217519459707,-0.929943624084252,12.082134135705564,-3.0446978021978017,-13.38314946771978,28.14050378889987,34.17878216072124,37.24584419085272,1577397810.999,-27.695271574403748,-51.127366608025405,11.840758
75383,1577397811.56,-0.366575632234899,-2.03276480221632,10.375243696705889,0.3210858006919302,-2.176738075219131,10.390280451034918,-0.926293264249476,-2.2153080800126235,11.187491208704506,-0.9365546994092986,-0.5441060880335366,-0.1937121879763719,-1.0279213509908538,-1.1600401343368905,0.02288818359375,-1.6840492806783538,-4.266134122522866,0.2642375666920732,2.1775747368629306,-9.129583524114777,-0.464971812042126,7.571470725042153,-2.0297985347985343,-65.6012190934066,28.044658100458264,34.322550693383654,37.05415281396951,1577397810.999,-27.695271574403748,-51.127366608025405,11.840758
75384,1577397811.57,0.7527136438881478,-2.4816776134956164,9.72162664348323,1.4355866734946643,-2.3443321914300683,9.354788233017342,0.7819696202720083,-1.548522917659108,9.737802103479895,-0.0210273556592986,-0.8797994474085366,-0.3310412895388719,-1.3788734994283538,3.7380311547256095,-0.74005126953125,-5.498746546303353,-6.417623380335366,0.4626018245045732,2.556283386752136,-9.67735853556166,-1.8598872481684976,7.410375603232745,-3.21384768009768,-61.75570233802655,27.94881241201665,34.27462784916285,37.10207565819032,1577397810.999,-27.695271574403748,-51.127366608025405,11.840758
75385,1577397811.58,0.5683601160561166,-1.603005604218273,8.962664717213698,0.6335291173423209,-2.404187232933974,8.595826306747808,-1.2267655725990854,-3.4279712208817643,9.37148924947599,-0.3567207150342987,0.1272806307164634,-0.1174182426638719,-1.4704262338033538,0.7167909203506098,-0.34332275390625,-3.087857874428354,-6.417623380335366,0.5846721370045732,2.745637711696738,-9.129583524114777,-0.7749530200702122,2.899712192569335,-3.21384768009768,-65.39882347470238,27.94881241201665,34.562164914487674,37.0062299697487,1577397810.999,-27.695271574403748,-51.127366608025405,11.840758
75386,1577397811.59,0.1517690271889281,-2.5104080334174914,8.538891023366043,1.8282357457602896,-1.5949470718011622,9.723495288681404,0.2696104649985709,-1.6179547658036393,7.602174222620521,-2.5234687619092986,0.7376321932164634,0.004652069836128,-1.9587074838033536,-0.6870176733993902,-0.34332275390625,-4.979947718178353,-3.0912073647103657,1.195023699504573,1.6095117620291235,-9.859950206043957,-1.3949154361263716,2.0942365835222976,-0.6765995115995113,-62.36288919413919,28.044658100458264,34.27462784916285,37.05415281396951,1577397810.999,-27.695271574403748,-51.127366608025405,11.840758
75387,1577397811.6,0.2307776819740853,-2.0219908947456164,9.955061305348464,1.066879617830602,-2.140825050316788,9.231486847519294,0.7999261327231802,-3.3345973561356703,8.440144803675208,-1.3790595822217986,-2.0547262052210367,-0.2547473442263719,-2.431729944740854,0.2895448266006097,-0.14495849609375,-3.301480921303354,3.9125768149771343,-0.7581013004954269,2.272251899335232,-9.40347102983822,-0.8524483220772289,2.0942365835222976,-0.6765995115995113,-55.8862293956044,28.092580944679067,34.27462784916285,37.173959924521526,1577397810.999,-27.695271574403748,-51.127366608025405,11.840758
75388,1577397811.61,0.4127370081459603,-2.3045066906440543,10.360878486744948,-0.1828936487709603,-2.148007655297256,9.867147388290778,-0.2068356653725228,-3.5381044972489515,10.88462469869474,0.1010429568407013,1.3479837557164631,-0.2089709770388719,-1.1347328744283538,-3.9829161108993913,-0.03814697265625,-2.996305140053354,2.2493688071646343,-1.215864972370427,3.1243463615859426,-9.129583524114777,-0.7749530200702122,2.0942365835222976,-0.6765995115995113,-55.8862293956044,28.044658100458264,34.41839638182526,37.19792134663192,1577397810.999,-27.695271574403748,-51.127366608025405,11.840758
75389,1577397811.62,0.199653060392054,-2.3140834972846798,11.01688974162776,0.5617030675376334,-1.295671864281631,11.116920654892342,-0.0105111292397093,0.3931746287276105,10.2956510902963,-3.2864082150342986,-0.6966939786585366,-0.3005237114138719,-3.087857874428354,1.3576600609756098,0.17547607421875,-1.5924965463033538,-0.4361780678353658,-0.6055134098704268,2.745637711696738,-7.668850160256411,-0.7749530200702122,-0.1610951218094077,-1.6914987789987788,-62.36288919413919,27.94881241201665,34.27462784916285,37.0062299697487,1577397810.999,-27.695271574403748,-51.127366608025405,11.840758
75390,1577397811.63,0.0607893641029906,-2.122547364472179,11.294617134205886,1.263204153963415,-2.370668409691787,10.250219653915778,0.4324161778891959,-1.2468535084794206,9.685129666956458,-1.6079414181592986,1.1343607088414631,0.2487926948361281,-1.1957680306783538,1.7849061547256098,-0.64849853515625,-1.2873207650533538,-0.7413538490853658,0.5541545588795732,1.9882204119183284,-9.494766865079368,0.1549906040140463,8.215851212279782,-3.382997557997557,-17.026270604395606,28.044658100458264,34.27462784916285,37.0062299697487,1577397810.999,-27.695271574403748,-51.127366608025405,11.840758
75391,1577397811.64,0.3253486475502571,-2.018399592255382,10.218423487965651,0.6766247472251333,-2.274900343285537,9.851585077499765,-0.7024354090248666,-2.7875222767899674,9.753364414270912,-0.4177558712842986,0.0967630525914634,-0.1784533989138719,-1.6077553353658538,0.1522157250381097,0.02288818359375,-2.752164515053354,1.165994783727134,0.6457072932545732,3.124346361585946,-8.94699185363248,-0.1549906040140398,9.504612186755043,-3.0446978021978017,-10.549610805860803,28.092580944679067,34.370473537604454,37.19792134663192,1577397810.999,-27.695271574403748,-51.127366608025405,11.840758
75392,1577397811.65,0.7598962488686165,-2.1009995495307727,9.417563032643386,-0.0943081873451781,-1.9085874892816308,8.533577063583746,-0.2235950769936165,-2.4702905568192643,10.149604789026773,-0.9975898556592988,0.5850443025914634,-0.1479358207888719,-1.8671547494283536,0.3505799828506097,0.32806396484375,0.2690757193216463,2.3104039634146343,0.1574260432545732,3.692409336419757,-9.31217519459707,-0.6199624160561659,8.538041455898599,-2.0297985347985343,-16.216688129578753,27.94881241201665,34.46631922604607,36.81453859286549,1577397810.999,-27.695271574403748,-51.127366608025405,11.840758
75393,1577397811.66,0.7239832239662728,-2.321266102265148,9.800635298268386,1.9144270055259145,-2.3156017715081934,9.54632436582984,0.4419929845298209,-4.471843144709889,9.783291935022865,-1.4858711056592986,-0.9408346036585366,-0.5446643364138719,-2.050260218178354,3.280267482850609,-0.06866455078125,-5.987027796303353,-0.7108362709603658,-2.5586384098704267,1.6095117620291235,-9.129583524114777,-0.464971812042126,6.927090237804523,-2.0297985347985343,-62.36288919413919,28.14050378889987,34.46631922604607,37.10207565819032,1577397810.999,-27.695271574403748,-51.127366608025405,11.840758
75394,1577397811.67,0.0105111292397093,-2.524773243378429,10.85168982707698,0.9735057530845084,-2.431720552025772,9.56547797911109,0.2684133641684932,0.6218208872725324,9.37747475362638,-4.690216808784299,1.5005716463414631,0.2182751167111281,-0.8600746713033536,-1.0227110327743905,0.28228759765625,-0.0055824838033537,-1.8552454506478655,0.5236369807545733,2.1775747368629306,-9.31217519459707,-0.929943624084252,2.57752194895052,-3.2138476800976794,-13.787940705128204,28.044658100458264,34.34651211549405,37.14999850241112,1577397810.999,-27.695271574403748,-51.127366608025405,11.840758
75395,1577397811.68,-0.0182192906821651,-2.366755933808117,9.757539668385574,0.7412681920493521,-2.294053956566787,11.227053931259528,-1.1046612879311166,-2.3410036671708268,11.102497049768958,-1.1044013790967986,0.7223734041539636,0.004652069836128,-2.019742640053354,2.486810451600609,-0.12969970703125,-5.712369593178353,1.028665682164634,0.2184611995045732,2.1775747368629306,-9.31217519459707,-0.929943624084252,8.699136577708005,-3.21384768009768,-16.823874985691393,28.068619522568667,34.61008775870848,37.0062299697487,1577397810.999,-27.695271574403748,-51.127366608025405,11.840758
75396,1577397811.69,0.1541632288490853,-2.7570108044135853,11.364048982350418,0.987870963045446,-2.940488404808975,9.007628992294684,-0.6066673426186165,-1.895682158381764,11.155169486292396,-1.7605293087842986,-4.023109994283536,-0.8803576957888719,0.5437339224466463,1.6628358422256098,-0.46539306640625,2.374788609946646,-0.0699671303353658,-0.3918903629954268,4.828535286087371,-9.31217519459707,-1.2399248321123315,8.699136577708005,-3.21384768009768,-16.823874985691393,28.14050378889987,34.370473537604454,37.0062299697487,1577397810.999,-27.695271574403748,-51.127366608025405,11.840758
75397,1577397811.7,0.6760991907631478,-2.6349065197456167,11.263492512623856,1.0189955846274772,-2.3946104262933496,10.130509570907966,-0.1541632288490853,-4.292278020198171,10.865471085413487,-0.1125800900342987,1.0122903963414631,0.035169647961128,-1.5314613900533538,0.9914491234756098,1.27410888671875,-3.606656702553354,2.8292027915396343,-0.7886188786204268,4.449826636198166,-8.94699185363248,-2.169868456196577,2.255331705331705,0.8457493894993894,-16.014292510874544,28.044658100458264,34.46631922604607,36.71869290442388,1577397810.999,-27.695271574403748,-51.127366608025405,11.840758
75398,1577397811.71,0.1972588587318978,-1.6197650158393666,11.057591169850417,-0.0607893641029906,-2.061816395531631,11.100161243271248,-0.3600645716225228,-1.902864763362233,11.073766629847084,-2.0351875119092986,1.7447122713414631,0.096204804211128,2.222200719321646,-2.9148008765243905,-0.40435791015625,3.320833531821646,1.547464510289634,-0.4529255192454268,3.503055011475147,-8.764400183150183,-0.7749530200702122,8.37694633408919,-3.21384768009768,-9.537632712339745,28.044658100458264,34.27462784916285,37.10207565819032,1577397810.999,-27.695271574403748,-51.127366608025405,11.840758
75399,1577397811.72,0.3636558741127572,-2.1357154736030384,10.67930730754573,1.4798794042075551,-1.7302194655999903,9.990448773788826,-0.7515165430580697,-2.5289484974930923,10.472822013147864,0.2841484255907013,1.5158304354039636,-0.1021594536013719,-0.4480873666158536,3.158197170350609,0.02288818359375,2.176424352134146,1.4711705649771345,0.3405315120045732,3.503055011475147,-8.764400183150183,-0.7749530200702122,7.652018285946857,-3.2984226190476185,-10.043621759100274,27.996735256237457,34.27462784916285,37.0062299697487,1577397810.999,-27.695271574403748,-51.127366608025405,11.840758
75400,1577397811.73,0.7694730555092415,-2.033961903046398,9.93231638957698,0.7101435704673209,-1.978019337426162,9.89827200987281,0.1499003819907584,-2.915612065608326,10.33635251851896,-0.1430976681592987,2.110923208841464,0.004652069836128,0.2080405630716463,0.0148866234756097,-0.00762939453125,2.344271031821646,4.751810213414634,0.0963908870045732,2.556283386752136,-9.67735853556166,-0.929943624084252,6.927090237804523,-3.382997557997557,-10.549610805860803,28.14050378889987,34.46631922604607,37.0062299697487,1577397810.999,-27.695271574403748,-51.127366608025405,11.840758
75401,1577397811.74,1.1166322962318975,-2.723491981171398,8.332989680592606,1.6175459996665396,-1.9899903457269437,8.794545044540778,-0.1374038172279906,-3.073629375178639,9.905396219690834,0.7724296755907013,3.484214224466464,0.065687226086128,0.4521811880716463,3.9516542016006095,0.29754638671875,0.0554526724466463,6.125101229039634,-0.2087848942454268,2.366929061807533,-10.590316887973138,0.1549906040140463,7.410375603232745,-2.875547924297924,-56.898207489125454,28.23634947734148,34.27462784916285,37.0062299697487,1577397810.999,-27.695271574403748,-51.127366608025405,11.840758
75402,1577397811.75,0.5731485193764291,-2.3080979931342887,9.442702150075029,0.9160449132407584,-2.2868713515863184,7.156911108993903,-0.7215890223061165,-2.716893327815358,11.32515780416349,0.4367363162157013,0.5240091463414633,-0.3005237114138719,-0.3412758431783537,3.127679592225609,0.23651123046875,3.748079625571646,4.080423494664634,-0.9106891911204268,2.6509605492244366,-9.038287688873629,-1.7823919461614743,2.738617070759928,-2.3680982905982906,-63.98205414377289,28.02069667834786,34.370473537604454,37.05415281396951,1577397810.999,-27.695271574403748,-51.127366608025405,11.840758
75403,1577397811.76,0.3696413782631478,-2.4816776134956164,10.408762519948072,0.7292971837485709,-2.1815264785394435,10.155648688339609,-0.257113900235804,-1.6095750599930925,10.186714914759191,1.2301933474657014,2.995932974466464,-0.5446643364138719,-0.1123940072408538,1.5712831078506095,0.17547607421875,1.0625327505716462,0.1131383384146341,-0.4987018864329267,2.366929061807533,-9.494766865079368,-1.3949154361263716,-0.8054756090470375,0.0,-62.36288919413919,28.092580944679067,34.298589271273244,37.10207565819032,1577397810.999,-27.695271574403748,-51.127366608025405,11.840758
75404,1577397811.77,0.1062791956459593,-2.3164776989448352,11.787822676198074,1.3326360021079455,-2.7202218520746,11.035517798447028,0.8801318883384146,-2.0106038380692643,10.075384537561929,-0.2956855587842987,0.3103860994664634,-0.1174182426638719,0.3911460318216463,1.7849061547256098,0.51116943359375,-0.0361000619283536,1.211771150914634,0.0353557307545732,2.556283386752136,-8.94699185363248,-0.929943624084252,-3.382997557997558,-0.3382997557997558,-60.743724244505486,28.044658100458264,34.41839638182526,37.19792134663192,1577397810.999,-27.695271574403748,-51.127366608025405,11.840758
75405,1577397811.78,-0.0349787023032584,-2.3164776989448352,11.651353181569169,0.7101435704673209,-2.255746730004287,11.116920654892342,-0.419919613126429,-2.0225748463700457,11.018699991663487,0.1620781130907013,3.179038443216464,-0.4836291801638719,0.5742515005716463,2.486810451600609,0.23651123046875,0.9404624380716464,1.944193025914634,1.286576433879573,4.071117986308962,-9.31217519459707,-1.5499060401404114,0.4832853654282225,-1.353199023199023,-9.740028331043955,27.90088956779585,34.46631922604607,36.86246143708629,1577397810.999,-27.695271574403748,-51.127366608025405,11.840758
75406,1577397811.79,-0.2336974400962271,-1.9549532482612415,9.436716645924635,-0.2140182703529915,-1.266941444359756,10.590196289657966,0.8921028966391958,-2.609154253108327,11.81596914449552,0.5740654177782013,2.706015982278964,0.050428437023628,-0.1581703744283537,1.0219667016006098,0.38909912109375,1.7034018911966462,-0.0699671303353658,-0.5444782536204268,3.2190235240582434,-8.855696018391331,-0.5424671140491426,-0.8054756090470375,-2.706398046398046,-16.216688129578753,27.972773834127057,34.46631922604607,37.19792134663192,1577397810.999,-27.695271574403748,-51.127366608025405,11.840758
75407,1577397811.8,-0.2121496251548209,-1.7466577038276478,9.95147000285823,0.8011232335532583,-2.2760974441156154,10.047909613632577,0.4264306737388053,-1.8621633351395768,10.094538150843178,2.1152031130907014,0.5545267244664634,0.1267223823361281,1.2303794302591462,-0.6107237280868902,0.25177001953125,-0.0055824838033536,0.2809850181021341,-0.9259479801829268,2.93499203664134,-7.851441830738707,-1.2399248321123315,6.927090237804523,-2.7063980463980464,-11.156797661973442,28.092580944679067,34.32255069338365,37.341689879294336,1577397810.999,-27.695271574403748,-51.127366608025405,11.840758
75408,1577397811.81,0.1374038172279906,-2.7498281994331166,9.975412019459792,0.5305784459556021,-1.582976063500381,10.123326965927497,0.8681608800376334,-1.711328630549733,10.154393192347085,-0.4177558712842987,-2.0089498380335367,-0.3005237114138719,-0.5548988900533537,2.364740139100609,0.20599365234375,1.3371909536966462,1.700052400914634,0.6457072932545732,3.503055011475147,-8.764400183150183,-1.3949154361263716,8.37694633408919,-1.8606486568986569,-16.823874985691393,28.14050378889987,34.562164914487674,37.10207565819032,1577397810.999,-27.695271574403748,-51.127366608025405,11.840758
75409,1577397811.82,0.0272705408608031,-1.3803448498237416,9.429534040944167,-0.0200879358803343,-2.2581409316644434,7.690818079208746,-0.6689165857826791,-3.3729045826981703,9.32599941793302,3.946257800590701,3.026450552591464,-0.1174182426638719,1.7034018911966462,0.5642030297256098,1.06048583984375,2.557894078696646,3.9583531821646334,1.011918230754573,3.692409336419757,-8.216625171703297,-0.3099812080280861,8.860231699517414,-1.353199023199023,-17.026270604395606,28.044658100458264,34.46631922604607,36.33531015065744,1577397810.999,-27.695271574403748,-51.127366608025405,11.840758
