,timestamp,acc_x_dashboard,acc_y_dashboard,acc_z_dashboard,acc_x_above_suspension,acc_y_above_suspension,acc_z_above_suspension,acc_x_below_suspension,acc_y_below_suspension,acc_z_below_suspension,gyro_x_dashboard,gyro_y_dashboard,gyro_z_dashboard,gyro_x_above_suspension,gyro_y_above_suspension,gyro_z_above_suspension,gyro_x_below_suspension,gyro_y_below_suspension,gyro_z_below_suspension,mag_x_dashboard,mag_y_dashboard,mag_z_dashboard,mag_x_above_suspension,mag_y_above_suspension,mag_z_above_suspension,temp_dashboard,temp_above_suspension,temp_below_suspension,timestamp_gps,latitude,longitude,speed
60652,1577399611.92,2.858501596739234,-3.975192288133574,8.741697422530011,2.110926727146055,1.4093088503953883,9.118696591260957,1.4970767795469695,-20.444379951886432,13.067552661132812,-8.588279165872713,4.214775271532012,-2.0670076695884143,-8.736401069455031,-1.4693097370426829,1.8705042397103653,-10.113413740948932,-5.010837461890244,6.769319859946647,-29.17688969017094,-10.736390224358974,-3.8324949356199385,-5.532490446252464,2.016268887362638,-1.2301369003592555,27.229969748704587,34.70593344715009,41.55890017072513,1577399611.0,-27.686197245483523,-51.12523064797904,7.5056734
60653,1577399611.93,-0.7806849266982656,3.231354708936737,9.469534727217512,2.4532975645483988,0.8490656619188257,9.317415329053924,-2.5898254543397483,5.968452762957317,6.373364819335937,6.914650521627286,9.707939334032012,-0.8463045445884145,-4.067211616330031,-0.6758527057926829,-1.4559117759146345,-9.350474287823932,-12.335056211890244,-18.407682093178355,-29.88207131410256,-10.736390224358974,-3.231319259444269,9.875899240983376,1.832971715784216,0.3923057111158077,26.990355527600563,34.70593344715009,41.31928594962111,1577399611.0,-27.686197245483523,-51.12523064797904,7.5056734
60654,1577399611.94,0.5014100623154052,2.3107841706066585,6.773663657881573,0.1572581724585553,1.4547986819383572,10.095530868604708,4.257591293707126,20.345633732195594,3.356670727539062,2.0318380216272867,-8.511054806592988,-3.5318514195884143,-7.149487006955031,6.861989091082317,-3.5005895102896343,-0.9886578815739328,-13.891452696265244,4.358431188071647,-28.47170806623932,-10.327384882478633,-2.780437502312504,9.875899240983376,-2.5661604020979016,-2.852579511834319,27.110162638152573,34.562164914487674,41.65474585916674,1577399611.0,-27.686197245483523,-51.12523064797904,7.5056734
60655,1577399611.95,0.3828970801376708,-0.8076634917468557,7.853448606612042,0.9784693418921496,-1.1189681027296114,14.605009695509006,-5.547861605462795,-6.322181459454792,18.43415568237305,0.0787130216272865,21.48772449028201,1.4119962366615857,-4.647045600705032,-0.3096417682926829,0.1615198647103656,-13.241465498761432,-35.98617925876525,-4.7358070931783525,-28.29541266025641,-10.940892895299145,-2.780437502312504,10.594957426387715,-0.6415401005244752,-1.45137907465131,27.18204690448378,34.70593344715009,41.630784437056334,1577399611.0,-27.686197245483523,-51.12523064797904,7.5056734
60656,1577399611.96,-0.1773461083388907,0.7629327973156431,13.695300657393291,-1.4971351747094124,-1.763008349311642,20.32116615913205,6.256749679937594,15.672152091570595,14.030021728515624,-9.290183462747711,5.801689334032012,-1.3345857945884143,-0.4661373975800305,5.214039872332317,-2.9207555259146343,-10.967905928448932,-57.68417730564025,13.605257359946648,-27.9428218482906,-10.940892895299145,-2.479849664224669,10.69768002430262,1.832971715784216,-4.032537774725275,27.229969748704587,34.753856291370894,41.27136310540031,1577399611.0,-27.686197245483523,-51.12523064797904,7.5056734
60657,1577399611.97,-1.3169860985732655,-2.5219118804187306,11.80627554753001,3.329575372165586,-4.978421178901487,12.240735556104708,-7.208240456781155,-21.476280867413777,15.382745666503906,-12.616599478372711,7.083427615282012,0.1912931116615854,-0.9239010694550304,8.113209794207316,-3.7752477134146334,-40.173228194073936,-60.73593511814025,24.500032750571645,-28.47170806623932,-11.96340625,-2.329555745180745,11.519460807621863,1.832971715784216,-4.032537774725275,27.18204690448378,34.753856291370894,41.55890017072513,1577399611.0,-27.686197245483523,-51.12523064797904,7.5056734
60658,1577399611.98,-1.4283164757705311,0.5737908661632999,12.450315794112042,-3.742896331935976,2.9224442996141384,17.972454330518772,4.786709860601658,1.5272086833674725,10.64222637939453,-9.213889517435211,5.191337771532012,-0.1901766149009143,-6.233959663205031,-9.495432783917684,2.6639612709603657,-24.42615788157393,-56.28036871189025,6.799837438071647,-28.383560363247867,-10.42963621794872,-2.104114866614869,-8.203277992040011,1.832971715784216,-35.301431741335584,27.229969748704587,34.94554766825411,41.31928594962111,1577399611.0,-27.686197245483523,-51.12523064797904,7.5056734
60659,1577399611.99,-0.2443837548232657,1.8211699311047056,10.295534299971417,0.724683965915587,0.7257642764207789,12.384387655714082,4.984231497564547,3.7418452190120046,4.198232611083984,3.1609884122522867,-1.797187619092988,-1.1209627477134143,0.1442141649199693,6.663624833269816,-3.4395543540396343,-5.840952803448933,-19.659274961890247,5.518099156821647,-28.47170806623932,-10.327384882478633,-2.0289679070929103,-9.025058775359255,3.4826462599900108,-37.51385348425613,27.229969748704587,34.753856291370894,41.48701590439393,1577399611.0,-27.686197245483523,-51.12523064797904,7.5056734
60660,1577399612.0,-1.0177108910537345,3.2002300873547056,13.161393687178448,-1.1140629090844123,2.5297952273485134,9.827380282667209,-1.6991824367616226,-11.853984395245806,4.031835595703125,6.762062631002286,-12.173164181592988,-2.6773592320884143,-3.2127194288300305,-10.288889815167684,0.3141077553353658,-0.5614117878239329,19.98305902248476,-9.679654749428352,-28.47170806623932,-10.327384882478633,-2.0289679070929103,-7.792387600380388,4.032537774725275,-35.89141087278106,27.3258154371462,34.89762482403331,41.463054482283525,1577399612.0,-27.68626017910292,-51.125209690449815,7.1579895
60661,1577399612.01,-0.2419895531631094,0.4349271698742369,10.920420933272196,-0.6447993836937874,-1.1596695309522669,9.870475912550022,1.422856528082126,7.005142081804973,9.873687646484374,-8.222068228372713,-1.369941525342988,-2.9825350133384143,2.555102836794969,2.528492997332317,-3.5311070884146343,8.105580399676068,18.30459222560976,-10.869840296303352,-29.88207131410256,-10.327384882478633,-2.630143583268586,-6.148826033741899,3.2993490884115886,-37.07136913567202,27.229969748704587,34.753856291370894,41.22344026117951,1577399612.0,-27.68626017910292,-51.125209690449815,7.1579895
60662,1577399612.02,1.0580619483017333,-1.267350210496856,6.959214286543682,0.680391235202696,0.1894631045457794,7.783929165723848,1.1989986728575168,5.379479154558879,7.559691741943359,0.2923360685022862,-0.3018262909679878,-2.1433016149009143,-2.0988278272675305,-4.215891768292683,0.1310022865853658,5.114857743426068,21.32583245998476,1.6881431021341462,-29.353185096153844,-8.895866185897436,-3.381613178488186,-14.57207906276416,3.4826462599900108,-41.34871783865174,27.134124060262977,34.70593344715009,41.55890017072513,1577399612.0,-27.68626017910292,-51.125209690449815,7.1579895
60663,1577399612.03,1.2304444678329831,0.8587008637218931,10.743250010420637,0.8348172422827741,-0.5850611325147669,9.09714877631955,-6.008745425042874,-2.854180354718464,12.58871232910156,3.954445443502287,0.4916307402820121,-3.1351229039634143,-2.8159909132050305,4.512135575457317,-3.6531774009146334,2.429310868426067,8.447414491234756,-0.9211098275533536,-28.29541266025641,-9.304871527777776,-1.8786739880489929,-16.215640629402646,-3.1160519168331664,-3.8850429918639056,27.18204690448378,34.94554766825411,41.55890017072513,1577399612.0,-27.68626017910292,-51.125209690449815,7.1579895
60664,1577399612.04,2.2168555518173583,-0.915402566453887,4.745774851729229,0.5307536314429303,1.4093088503953883,9.09714877631955,2.3637777805235323,1.4865072551448162,9.469067565917967,5.480324349752286,-10.464179806592988,-1.0904451695884143,-4.708080756955031,6.099049637957317,-1.9136754477896345,1.0255022746760671,5.700832459984756,-7.085660608803353,-28.29541266025641,-9.304871527777776,-1.8786739880489929,-12.928517496125668,-3.48264625999001,2.30973788831361,27.038278371821367,34.70593344715009,41.41513163806272,1577399612.0,-27.68626017910292,-51.125209690449815,7.1579895
60665,1577399612.05,-0.2204417382217032,4.009470248487518,10.539742869307354,-0.8794311463890999,1.1698886843797631,14.438612680128148,2.806705087652438,3.2869469035823173,10.46984385986328,6.578957162252286,2.6888963652820124,-3.2877107945884143,3.226489555544969,-3.788645674542683,0.3141077553353658,10.577504227801068,1.7030297256097562,-4.796842249428353,-28.824298878205127,-10.327384882478633,-2.630143583268586,-8.819613579529443,-3.849240603146853,-1.525126466081995,27.18204690448378,34.8017791355917,41.12759457273789,1577399612.0,-27.68626017910292,-51.125209690449815,7.1579895
60666,1577399612.06,0.2021348547958744,-1.6216920561999806,10.684592069746808,-0.3036256471215218,0.5821121768114045,10.768301535108614,0.7429032565977514,1.8971128398616144,11.577162127685549,-5.811179556497714,8.349907107469512,-1.4719148961509143,-1.763134467892531,2.177540848894817,-3.6836949790396334,4.748646805926067,4.953151795922256,-8.016446741615853,-28.73615117521368,-10.634138888888888,-3.0058783808783867,-5.327045250422654,-4.032537774725275,-1.0826421174978862,27.110162638152573,34.72989486926049,41.43909306017312,1577399612.0,-27.68626017910292,-51.125209690449815,7.1579895
60667,1577399612.07,-0.8333573632217032,2.6375926972179866,9.57248539860423,2.4413265562476174,2.144328760063357,14.50565032661252,-0.3488527004334977,10.905296586199505,9.423577734375,10.881935677877289,9.189140505907012,-1.8533846227134143,4.080981743044969,1.0331316692073171,0.4666956459603658,8.960072587176068,9.179836366234756,1.3982261099466462,-28.64800347222222,-9.304871527777776,-3.381613178488186,-3.2725932921245406,1.832971715784216,-2.852579511834319,27.421661125587804,34.562164914487674,41.07967172851709,1577399612.0,-27.68626017910292,-51.125209690449815,7.1579895
60668,1577399612.08,1.7667456397079833,1.5027411103039243,3.982024522139386,0.1572581724585553,2.5106416140672634,8.872093820264862,2.591226938238376,0.5096729778010662,8.741230261230468,10.576759896627289,-4.482734494092988,-0.8157869664634145,2.829761039919969,7.350270341082317,-4.477152010289634,3.466908524676067,12.170559022484756,4.877230016196647,-29.00059428418804,-9.304871527777776,-2.780437502312504,-2.861702900464919,1.832971715784216,-3.147569077557058,27.229969748704587,34.753856291370894,41.65474585916674,1577399612.0,-27.68626017910292,-51.125209690449815,7.1579895
60669,1577399612.09,-0.8764529931045156,-2.035888943407012,7.118428696944073,1.4501270689429302,1.4117030520555447,5.922437374952362,1.2815986301329074,-3.902840681866901,10.180145458984374,7.402931771627286,-1.888740353467988,-1.6397615758384143,1.5175051805449695,2.742116044207317,-0.3877965415396341,1.3611956340510671,8.294826600609756,-3.545621546303354,-29.00059428418804,-9.304871527777776,-2.780437502312504,-2.861702900464919,1.832971715784216,-3.147569077557058,27.038278371821367,34.70593344715009,41.463054482283525,1577399612.0,-27.68626017910292,-51.125209690449815,7.1579895
60670,1577399612.1,-0.5699951806045157,0.5737908661632993,8.70458729679759,1.0000171568335556,0.86582507353992,10.66295666206174,2.2332937900450167,-0.4192772663395576,4.542997650146484,0.0024190763147866,-2.056587033155488,-1.0141512242759143,1.9905276414824693,-0.7979230182926829,-1.5627232993521345,8.670155594988568,19.18960199123476,-2.8437172494283534,-28.824298878205127,-10.531887553418803,-2.930731421356428,-2.450812508805297,-1.099783029470529,-1.3776316832206257,27.229969748704587,34.63404918081888,41.43909306017312,1577399612.0,-27.68626017910292,-51.125209690449815,7.1579895
60671,1577399612.11,-0.3832474511123281,4.959968307569549,8.894926328780011,0.2913334654273053,2.144328760063357,9.887235324171115,-0.5691192531678727,-2.909246992902057,10.97502041015625,14.757668099752289,5.832206912157012,-0.8157869664634145,2.188891899294969,-0.4011945026676829,0.3141077553353658,9.906117509051068,25.90346917873476,-13.219693811928352,-28.64800347222222,-8.486860844017095,-1.8786739880489929,-6.55971642540152,-0.7331886863136862,-4.032537774725275,27.373738281367,34.46631922604607,41.41513163806272,1577399612.0,-27.68626017910292,-51.125209690449815,7.1579895
60672,1577399612.12,1.3381835425400146,-1.3703008818835745,5.543044004561261,0.3966783384741804,1.330300195610232,8.460291134717988,2.023801144781345,5.120905375262004,6.445190869140625,-3.4002908846227133,-4.055488400342988,-0.6326814977134145,2.799243461794969,2.070729325457317,-1.3643590415396345,11.493031571551068,23.43154535060976,-10.442594202553352,-28.1191172542735,-8.691363514957265,-2.630143583268586,-9.435949167018876,-1.832971715784216,-2.2626003803888417,27.18204690448378,34.753856291370894,41.463054482283525,1577399612.0,-27.68626017910292,-51.125209690449815,7.1579895
60673,1577399612.13,0.6678070776962646,-2.701477004930449,9.182230527998762,1.8284109312476176,-2.4884514523389862,8.5033867646008,-5.568212319574124,6.294064188738567,14.669273571777342,-0.8673319002477134,1.590263552782012,-2.5247713414634143,1.2428469774199695,-2.415354658917683,-2.8292027915396343,8.105580399676068,11.071926209984756,7.013460484946647,-28.1191172542735,-8.691363514957265,-2.630143583268586,-9.8468395586785,-4.032537774725275,-2.2626003803888417,27.18204690448378,34.70593344715009,41.41513163806272,1577399612.0,-27.68626017910292,-51.125209690449815,7.1579895
60674,1577399612.14,0.3541666602157958,1.2788832550793154,9.984288084151103,-0.1336373292504286,1.5757058657762475,10.63662044380002,3.293925125494236,-2.5537080463688544,6.206967803955078,2.764259896627287,0.8273240996570121,0.6032804163490856,1.5022463914824693,2.024952958269817,-0.4488316977896343,6.640736649676068,12.460476014672256,-1.6230141244283538,-28.119117254273505,-10.327384882478633,-2.3295557451807483,-6.148826033741899,-4.032537774725275,-2.2626003803888417,27.15808548237338,34.8497019798125,41.43909306017312,1577399612.0,-27.68626017910292,-51.125209690449815,7.1579895
60675,1577399612.15,3.631828732969703,2.323952279737518,5.430516526533917,3.8658765440405856,-1.2626202023389856,4.612809066846893,4.820228683843845,-20.01102945139815,12.275071911621094,5.877052865377286,-18.215644650342988,-2.2195955602134143,-0.6187252882050305,-4.917796065167683,0.5887659584603658,-2.239878584698933,2.618557069359756,-5.132535608803353,-28.824298878205127,-10.327384882478633,-2.630143583268586,10.69768002430262,0.7331886863136862,-1.6726212489433638,27.229969748704587,34.70593344715009,41.463054482283525,1577399612.0,-27.68626017910292,-51.125209690449815,7.1579895
60676,1577399612.16,-0.2922677880263907,3.327122775342987,14.15019897282298,-1.6240278626976936,1.6630942263719508,14.979702255323458,-2.824457217035061,3.143294803972942,13.87918702392578,4.717384896627286,-4.208076290967988,-3.0130525914634143,-0.4661373975800305,-11.631663252667684,0.7108362709603658,8.624379227801068,-22.253269102515244,-15.844205530678352,-28.824298878205127,-9.509374198717948,-2.930731421356421,9.875899240983376,-4.032537774725275,-3.147569077557058,27.229969748704587,34.8017791355917,41.41513163806272,1577399612.0,-27.68626017910292,-51.125209690449815,7.1579895
60677,1577399612.17,-0.7687139183974844,-0.8651243315906056,9.459957920576889,-2.193847857814881,2.6159864871141383,13.91188831489377,1.748467953863376,23.66878563649247,8.858546142578124,-9.564841665872711,10.745536990282012,2.0223477991615857,6.308764946169969,-0.7674054401676829,-3.2259313071646343,3.009144852801067,-29.333347227515244,6.372591344321647,-28.824298878205127,-9.509374198717948,-2.930731421356421,10.081344436813186,0.549891514735265,-0.6401577689137783,27.18204690448378,34.70593344715009,41.55890017072513,1577399612.0,-27.68626017910292,-51.125209690449815,7.1579895
60678,1577399612.18,1.2531893836044676,0.5917473786144712,9.754444724776103,3.78686788925543,-3.0666511532667204,12.088703750684786,-2.4449762539002946,-2.310696577862995,9.898826763916016,-0.8825906893102133,-2.804267697217988,-1.7007967320884143,1.1207766649199693,1.1704607707698171,-1.3643590415396345,-8.969004561261432,-32.23251714939025,9.073397008384148,-28.55985576923077,-10.634138888888888,-2.2544087856587893,9.875899240983376,1.832971715784216,0.6872952768385466,27.15808548237338,34.8017791355917,41.34324737173152,1577399612.0,-27.68626017910292,-51.125209690449815,7.1579895
60679,1577399612.19,-1.5444352562881092,-1.557048611375762,8.856619102217511,-6.108367572170351,4.797104199516482,12.006103793409396,1.0780914890196265,-6.498155281476276,9.583989245605467,2.9778829435022867,7.174980349657012,1.6866544397865857,4.660815727419969,-6.321604658917683,-2.0967809165396343,-13.897593428448932,-22.405856993140244,4.602571813071647,-28.29541266025641,-10.531887553418803,-3.682201016576021,-4.916154858763031,1.832971715784216,-4.032537774725275,27.18204690448378,34.753856291370894,41.55890017072513,1577399612.0,-27.68626017910292,-51.125209690449815,7.1579895
60680,1577399612.2,0.1506595191025145,1.3710600189953306,7.602057432295635,-1.8849958436547247,-1.3009274289014856,8.340581051710174,5.775515146246188,6.219843937273724,9.923965881347655,1.2688985685022869,-5.306709103467988,-1.5482088414634143,6.003589164919969,6.160084794207317,-0.9981481040396342,0.2930803996760671,-17.370456602515244,-2.538541468178354,-27.76652644230769,-10.736390224358974,-3.231319259444269,9.875899240983376,1.832971715784216,-4.032537774725275,27.229969748704587,34.70593344715009,41.55890017072513,1577399612.0,-27.68626017910292,-51.125209690449815,7.1579895
60681,1577399612.21,0.710902707579077,-0.4174086211413875,11.041328117110089,-0.2545445130883186,-2.356770361030392,8.232841977003144,0.96077560767197,-0.392941048077839,3.9456443359375,6.624733529439788,-0.8358839081554876,-0.5411287633384143,8.170337211794969,-1.4693097370426829,-0.2046910727896341,0.9644671184260672,-5.743259336890244,1.7644370474466462,-27.76652644230769,-10.736390224358974,-3.231319259444269,9.875899240983376,2.566160402097902,-36.48139000422654,27.206008326594183,34.94554766825411,41.41513163806272,1577399612.0,-27.68626017910292,-51.125209690449815,7.1579895
60682,1577399612.22,1.2065024512314209,-3.122856497117949,8.92126254704173,1.697926940769102,-0.3564148739698451,9.48141814277463,-1.9637417202088885,-0.4575844929020581,8.161833459472655,-2.3932108064977133,0.5221483184070121,0.0387052210365854,1.5327639696074693,-1.4387921589176833,-1.1659947837271345,3.650013993426068,9.347683045922256,1.8254722036966464,-28.64800347222222,-9.71387686965812,-2.780437502312504,9.97862183889828,0.091648585789211,-41.71745479580516,27.18204690448378,34.8017791355917,41.43909306017312,1577399612.0,-27.68626017910292,-51.125209690449815,7.1579895
60683,1577399612.23,0.2871290137314208,4.033412265089081,8.138358604170636,-2.229760882717225,5.268761926567263,5.333463766553924,4.0181711276915015,-3.598777071027057,10.089165795898436,8.318459115377287,-1.858222775342988,-2.3721834508384143,1.6395754930449695,3.016774247332317,0.3141077553353658,2.307240555926067,-2.599948790015244,-5.895475061928353,-28.29541266025641,-10.122882211538462,-3.0810253404003385,9.875899240983376,3.665943431568432,-41.4962126215131,27.18204690448378,34.94554766825411,41.463054482283525,1577399612.0,-27.68626017910292,-51.125209690449815,7.1579895
60684,1577399612.24,1.505777658750952,3.4947168915539244,10.345812534834698,-1.8466886170922248,-1.5475301998975797,10.952655062940648,4.576020114507908,-5.382457307843463,7.553706237792968,7.280861459127286,-8.785713009717988,-3.5318514195884143,5.027026664919969,-2.293284346417683,-0.8150426352896342,11.554066727801068,-4.400485899390244,-9.404996546303352,-27.76652644230769,-11.145395566239314,-1.4277922309172344,-7.9978327962102,2.016268887362638,-41.34871783865174,26.990355527600563,34.70593344715009,41.55890017072513,1577399612.0,-27.68626017910292,-51.125209690449815,7.1579895
60685,1577399612.25,1.0676387549423585,-0.5634549224109188,8.900911832930401,1.2466199278296488,1.7828043093797634,10.93110724799924,-3.4038540187928734,12.1095800212581,1.2689268798828124,1.5130391935022869,2.0175096465320124,0.0081876429115854,-1.7173581007050305,8.967701981707316,-4.171976229039634,1.1170550090510671,18.97597894435976,-0.4633461556783537,-27.76652644230769,-11.145395566239314,-1.4277922309172344,-9.8468395586785,1.832971715784216,-35.89141087278106,27.253931170814987,34.70593344715009,41.22344026117951,1577399612.0,-27.68626017910292,-51.125209690449815,7.1579895
60686,1577399612.26,0.6821722876572021,5.252060910108612,7.616422642256573,0.0602930052222271,1.7492854861375764,6.091228591993378,1.0098567417051727,-7.173320149640339,1.9788076721191403,10.820900521627289,-1.278388790967988,-1.3956209508384143,1.4869876024199693,-0.3706769245426828,-0.5098668540396343,7.113759110613568,52.30117425685975,-4.354337366615854,-27.41393563034188,-7.873352831196582,-2.630143583268586,1.2472010161313047,3.48264625999001,-37.07136913567202,27.18204690448378,34.753856291370894,41.39117021595232,1577399612.0,-27.68626017910292,-51.125209690449815,7.1579895
60687,1577399612.27,0.7779403540634521,-2.2154540679187305,5.839925010420636,0.5331478331030866,-0.4773220578077357,2.8458882416515805,0.108439816656345,16.016917130633097,9.74200655517578,0.0481954435022865,0.0338670684070121,-2.5247713414634143,0.1136965867949695,1.6740008098323171,-3.6531774009146334,23.059193680926068,55.84121331935975,-13.830045374428352,-29.17688969017094,-9.509374198717948,-2.930731421356421,-13.133962691955478,2.566160402097902,-35.89141087278106,27.229969748704587,34.8017791355917,41.31928594962111,1577399612.0,-27.68626017910292,-51.125209690449815,7.1579895
60688,1577399612.28,0.2488217871689208,-1.2769270171374807,9.661070860030012,-2.440450628810974,1.7828043093797634,5.881735946729706,0.7165670383360325,7.019507291765911,13.38119307861328,-3.3087381502477133,2.7194139434070124,-0.7852693883384145,-0.1609616163300304,0.3312273723323171,0.1004847084603658,19.519154618426068,48.27285394435975,-3.087857874428354,-29.70577590811965,-10.122882211538462,-2.479849664224669,-12.723072300295856,1.832971715784216,-34.71145260989011,27.229969748704587,34.89762482403331,41.31928594962111,1577399612.0,-27.68626017910292,-51.125209690449815,7.1579895
60689,1577399612.29,0.8952562354111083,2.7740621918468937,9.50185644962962,0.7115158567847276,-0.0930526913526581,8.729638821485565,-0.2040034999940454,-8.069948671368854,16.716315991210937,-1.6913065096227131,-3.719795040967988,-2.6010652867759143,-1.2595944288300305,0.4380388957698171,-2.0510045493521343,-1.8736676471989329,-0.9825171493902438,-6.0633217416158525,-28.824298878205127,-9.918379540598291,-2.930731421356421,-13.133962691955478,-2.5661604020979016,1.2772744082840235,27.15808548237338,34.65801060292928,41.51097732650433,1577399612.0,-27.68626017910292,-51.125209690449815,7.1579895
60690,1577399612.3,-2.0328523949599844,0.3128228852062682,9.07449145329173,-2.6415635682641008,5.797880493461794,13.368404538038302,1.3797608981993137,10.07211440846513,0.8571241943359375,-6.787742056497714,8.914482302782012,0.1302579554115854,-6.050854194455031,-2.751048018292683,-0.3877965415396341,-1.4769391315739329,-4.827731993140244,-4.033902796303353,-29.52948050213675,-9.100368856837608,-3.531907097532104,-13.133962691955478,-2.5661604020979016,1.2772744082840235,27.08620121604217,34.70593344715009,41.22344026117951,1577399612.0,-27.68626017910292,-51.125209690449815,7.1579895
60691,1577399612.31,-1.1446035790420157,4.53140621040158,10.896478916670636,-2.248914495998475,1.6726710330125758,9.1546096161633,-2.393500918206935,7.043449308367473,6.691793640136718,-7.916892447122714,0.6137010527820121,-1.4566561070884143,-2.2056393507050305,0.6974383098323171,-2.4019566977896343,-6.725962569073933,3.076320741234756,9.790560094321648,-28.29541266025641,-11.758903579059828,-2.179261826136828,-15.804750237743024,-2.3828632305194803,1.4247691911453937,27.373738281367,34.61008775870848,41.41513163806272,1577399612.0,-27.68626017910292,-51.125209690449815,7.1579895
60692,1577399612.32,0.9958127051376708,1.9073611908703303,9.64909985172923,0.3727363218726178,-2.550700695503049,4.612809066846893,3.8074813815977513,-16.826741243390337,13.864821813964843,-2.9730447908727133,-6.222236447217988,-0.9073397008384144,-3.975658881955032,3.596608231707317,-3.0733434165396343,-31.87244694407393,5.029445741234756,-11.480191858803352,-29.70577590811965,-10.531887553418803,-2.179261826136828,-12.723072300295856,0.7331886863136862,-1.9676108146661029,27.517506814029414,34.70593344715009,41.31928594962111,1577399612.0,-27.68626017910292,-51.125209690449815,7.1579895
60693,1577399612.33,-0.1749519066787344,-0.0223653472156062,7.810352976729229,-0.0366721620141004,2.1167954409715604,10.898785525587128,-5.259360305413968,8.846283158465129,8.544905725097657,-3.110373892435214,5.099785037157011,-0.9378572789634144,-5.577831733517531,-4.368479658917683,-1.7916051352896345,-5.108530928448933,3.427272889672256,4.785677281821647,-29.88207131410256,-8.691363514957265,-3.231319259444269,-3.06714809629473,0.0,-2.85257951183432,27.325815437146197,34.753856291370894,41.55890017072513,1577399612.0,-27.68626017910292,-51.125209690449815,7.1579895
60694,1577399612.34,1.448316818907202,2.608862277296112,9.44559271061595,3.224230499118711,3.614368579399295,8.67576928413205,3.920008859625095,-20.75323196604659,10.728417639160156,-12.708152212747711,-15.987861447217988,-3.4402986852134143,-5.440502631955031,4.115407059832317,-2.1272984946646343,-17.681773115948932,-11.450046446265244,-2.569059046303354,-29.52948050213675,-10.736390224358974,-1.4277922309172344,-2.656257704635109,0.9164858578921083,1.1297796254226546,27.18204690448378,34.70593344715009,41.55890017072513,1577399612.0,-27.68626017910292,-51.125209690449815,7.1579895
60695,1577399612.35,0.3733202734970458,2.7189955536632997,6.359466770674542,2.252184625095274,-1.4350027218702357,11.637396737745334,3.022183237066501,11.309916666765911,9.162609753417968,14.330422006002289,-0.6680372284679879,-2.5247713414634143,-8.705883491330031,2.375905106707317,-2.7986852134146343,-3.369028975323933,-35.40634527439025,-10.686734827553352,-28.29541266025641,-9.304871527777776,-2.179261826136828,-8.203277992040011,-2.1995660589410586,-4.032537774725275,27.18204690448378,34.753856291370894,41.31928594962111,1577399612.0,-27.68626017910292,-51.125209690449815,7.1579895
60696,1577399612.36,0.097987082579077,-2.5003640654773243,5.8878090436237605,0.6767999327124616,-1.1572753292921107,7.636685763624237,1.9543692966368136,20.058329532976845,8.073247998046874,-7.245505728372714,7.266533084032012,0.3438810022865854,-6.966381538205031,-5.070383955792683,-4.660257479039634,-8.038218428448932,-24.084323790015244,16.229769078696645,-28.824298878205127,-9.918379540598291,-1.7283800690050757,-5.7379356420822765,-4.032537774725275,-1.6726212489433638,27.08620121604217,34.61008775870848,41.55890017072513,1577399612.0,-27.68626017910292,-51.125209690449815,7.1579895
60697,1577399612.37,-1.283467275331078,1.7493438813000186,11.827823362471417,-2.293207226711366,2.30833157378406,14.0854679352551,-0.0615485012147485,-10.617379237775104,13.881581225585936,-8.359397329935213,3.879081912157013,-1.3651033727134143,-6.890087592892531,-5.909617354230183,-0.1283971274771345,-17.28504460032393,-28.311008360327747,-3.4693276009908534,-28.1191172542735,-10.327384882478633,-2.0289679070929103,-7.997832796210198,-4.032537774725275,-1.0826421174978864,27.014316949710967,34.993470512474914,41.39117021595232,1577399612.0,-27.68626017910292,-51.125209690449815,7.1579895
60698,1577399612.38,-1.4223309716201404,1.459645480421112,8.734514817549542,1.9553036192358988,1.4547986819383572,10.902376828077363,10.42744897192978,35.35009553639481,-2.506729138183593,-2.6068338533727133,-2.315986447217988,-0.1444002477134145,-4.128246772580031,6.495778153582317,-6.125101229039634,4.443471024676067,-12.914890196265244,5.029817906821647,-28.29541266025641,-9.304871527777776,-2.780437502312504,-9.435949167018876,-4.032537774725275,-4.032537774725275,27.18204690448378,34.70593344715009,41.463054482283525,1577399612.0,-27.68626017910292,-51.125209690449815,7.1579895
60699,1577399612.39,2.341354038145483,-2.2130598662585745,6.507907273604229,3.0446653746069927,-0.0032701290967982,0.6073096894054869,-4.213094179925686,-19.19221248362471,5.389347937011719,-4.926169790872714,-8.541572384717988,-1.6397615758384143,-4.769115913205031,-4.673655440167683,-0.3572789634146341,-9.472544600323932,10.644680116234756,13.788362828696648,-28.64800347222222,-9.304871527777776,-2.780437502312504,-6.148826033741899,-0.3665943431568428,-0.4926629860524088,27.18204690448378,34.46631922604607,41.65474585916674,1577399612.0,-27.68626017910292,-51.125209690449815,7.1579895
60700,1577399612.4,1.2543864844345458,2.815960720899628,8.149132511641339,-0.2162372865258186,1.7373144778367946,12.504097738721896,-6.736582729730373,-14.631258321027056,15.081076257324218,7.479225716939786,-5.535590939405488,-1.8381258336509143,-6.264477241330031,-13.188059737042684,0.7413538490853658,-12.829478194073932,13.147121522484756,-12.853482874428352,-28.55985576923077,-9.816128205128203,-2.8555844618344657,-4.916154858763031,-0.3665943431568428,-0.4926629860524088,27.182046904483784,34.70593344715009,41.463054482283525,1577399612.0,-27.68626017910292,-51.125209690449815,7.1579895
60701,1577399612.41,0.7659693457626708,-1.2912922270984182,6.555791306807355,-1.3630598817406625,0.8789931826707794,8.870896719434786,1.176253757086033,8.027466190691692,13.129801904296874,3.4356466153772867,-6.344306759717988,0.6185392054115855,-5.852489936642531,6.312672684832316,-2.1883336509146343,-0.2104596393864328,-10.748142149390244,-6.2922035775533525,-28.29541266025641,-10.122882211538462,-3.381613178488186,-3.2725932921245406,-4.032537774725275,-0.4926629860524088,27.229969748704587,34.681972025039684,41.39117021595232,1577399612.0,-27.68626017910292,-51.125209690449815,7.1579895
60702,1577399612.42,-1.362475930116234,0.1117099457531432,14.078372923018293,0.988046148532774,-2.0574951535108608,12.121025473096896,-3.849175527581936,2.221527164812785,14.26944189453125,-17.865622915872713,12.729179568407012,-0.6631990758384145,-5.654125678830031,-8.396799971417684,-0.2657262290396341,-22.10682194407393,-31.927341368140244,3.229280797446646,-28.29541266025641,-10.122882211538462,-3.381613178488186,-2.861702900464919,1.832971715784216,0.6872952768385466,27.08620121604217,34.8017791355917,41.31928594962111,1577399612.0,-27.68626017910292,-51.125209690449815,7.1579895
60703,1577399612.43,0.021372629454077,-1.1141213042468556,13.307439988447978,1.993610845798399,0.008700879203982,10.083559860303929,-4.682357705316311,-0.3905468464176827,13.41950030517578,-19.87978307212272,6.045829959032012,-0.7852693883384145,-9.590893256955033,-2.659495283917683,-0.6014195884146342,-13.012583662823932,-40.44174566501525,5.243440953696647,-30.23466212606837,-10.327384882478633,-2.930731421356421,-5.327045250422654,2.566160402097902,0.9822848425612848,27.229969748704587,34.753856291370894,41.41513163806272,1577399612.0,-27.68626017910292,-51.125209690449815,7.1579895
60704,1577399612.44,-0.7112530785537349,0.6240691010265806,8.79915826237376,-1.3439062684594123,0.5653527651903101,10.921530441358613,-0.2530846340272487,-1.639123012189167,6.700173345947265,-5.048240103372714,3.863823123094512,-1.8381258336509143,-2.861767280392531,-2.201731612042683,-1.7000524009146345,-14.721568037823932,-22.924655821265247,11.697908727134148,-29.088741987179485,-9.816128205128203,-2.2544087856587867,-2.656257704635109,2.749457573676324,1.5722639740067632,27.110162638152573,34.873663401922904,41.51097732650433,1577399612.0,-27.68626017910292,-51.125209690449815,7.1579895
60705,1577399612.45,-1.0464413109756094,0.7868748139172056,11.578826389815166,-4.092449774318788,2.414873547661013,9.317415329053924,-3.628908974847561,-11.43021070139815,9.715670336914062,0.6585470060022866,-5.245673947217988,0.0692227991615854,-5.226879585080031,-5.528147627667683,-2.4935094321646343,-4.315073897198933,-8.489841368140244,-20.452359827553355,-29.88207131410256,-9.509374198717948,-2.329555745180745,0.219975036982249,2.016268887362638,-0.9351473346365172,27.229969748704587,34.70593344715009,41.27136310540031,1577399612.0,-27.68626017910292,-51.125209690449815,7.1579895
60706,1577399612.46,0.6821722876572021,-0.8028750884265432,8.95956977360423,1.2346489195288677,-0.7358958371046107,8.812238778760955,9.314145199957125,26.359868302508094,5.267243652343749,-10.571921743997711,-10.555732540967988,-2.4027010289634143,-3.3347897413300305,2.925221512957317,-0.2657262290396341,13.476674149676068,6.006008241234756,-13.616422327553352,-29.88207131410256,-9.509374198717948,-2.329555745180745,-0.6018057463369949,-3.1160519168331664,-41.053728272929,27.3258154371462,34.70593344715009,41.41513163806272,1577399612.0,-27.68626017910292,-51.125209690449815,7.1579895
60707,1577399612.47,-0.0001751854873286,-1.4971935698718557,9.505447752119856,1.811651519626524,-1.9186314572217984,7.694146603467987,-10.275212783441312,-7.18529115794112,16.134524987792968,-3.3087381502477133,2.0480272246570124,0.3133634241615854,-3.5484127882050305,1.1246844035823171,-3.7447301352896334,-6.909068037823933,2.588039491234756,15.894075719321648,-28.824298878205127,-9.100368856837608,-2.329555745180745,-3.2725932921245406,-1.099783029470529,-41.79120218723584,27.3258154371462,34.70593344715009,41.463054482283525,1577399612.0,-27.68626017910292,-51.125209690449815,7.1579895
60708,1577399612.48,1.0293315283798583,1.3028252716808777,10.247650266768291,1.0682519041480083,1.9432158206102328,12.340094925001193,2.3051198398497044,-1.7121461628239347,12.352883465576172,2.1233907560022867,-6.481635861280488,-1.7770906774009143,-2.327709663205031,-2.110178877667683,-0.7692662681021343,-3.3690289753239324,-11.831516172827744,-10.824063929115852,-29.088741987179485,-9.611625534188034,-1.8035270285270344,-4.505264467103409,0.3665943431568434,-41.4962126215131,27.134124060262977,34.753856291370894,41.31928594962111,1577399612.0,-27.68626017910292,-51.125209690449815,7.1579895
60709,1577399612.49,0.4331753150009521,-0.8363939116687307,9.512630357100324,1.6225095884741805,-4.542676476753049,5.989475021436737,4.372512973394626,21.066288431902628,12.160150231933594,-6.452048697122714,5.221855349657012,0.3133634241615854,-0.3135495069550305,6.556813309832317,-4.721292635289634,2.826039384051067,-6.078952696265244,22.211214391196645,-29.353185096153844,-9.71387686965812,-2.780437502312504,9.875899240983376,4.765726461038961,-37.07136913567202,27.038278371821367,34.70593344715009,41.41513163806272,1577399612.0,-27.68626017910292,-51.125209690449815,7.1579895
60710,1577399612.5,0.4451463233017333,-2.179541043016387,12.220472434737042,-0.0654025819359749,0.0829211306688258,10.473814730909396,-3.676793008050686,-32.4034172443669,11.056423266601564,-10.785544790872711,-4.971015744092988,-3.6234041539634143,-1.8699459913300305,-12.089426924542684,0.9244593178353658,-13.409312178448932,-0.921481993140244,-2.691129358803354,-29.353185096153844,-9.71387686965812,-2.780437502312504,-8.203277992040011,1.832971715784216,-34.41646304416737,27.229969748704587,34.61008775870848,41.463054482283525,1577399612.0,-27.68626017910292,-51.125209690449815,7.1579895
60711,1577399612.51,-0.8333573632217036,2.1647378693371278,9.878943211104229,0.3224580870093366,3.746049670707888,19.253352218702364,0.65431779517197,7.618057706804973,18.35155572509765,3.267799935689787,2.6888963652820124,0.3896573694740856,-5.135326850705031,-2.384837080792683,-1.7000524009146345,3.497426102801067,-10.198825743140244,-11.632779749428352,-29.17688969017094,-9.918379540598291,-2.1792618261368317,-6.55971642540152,1.832971715784216,-37.07136913567202,27.110162638152573,34.61008775870848,41.463054482283525,1577399612.0,-27.68626017910292,-51.125209690449815,7.1579895
60712,1577399612.52,-1.522887441346703,0.473234396436737,9.481505735518294,-1.466010553127381,-1.3212781430128149,7.448740933301972,-3.874314645013576,3.289341105242473,12.41752691040039,-9.442771353372711,-9.243476681592988,-3.8370272008384143,0.9071536180449696,6.007496903582316,-2.7986852134146343,-7.183726240948933,-15.844577696265244,1.4897788443216464,-29.88207131410256,-9.918379540598291,-2.329555745180745,-6.55971642540152,2.199566058941059,-36.48139000422654,27.08620121604217,34.58612633659808,41.43909306017312,1577399612.0,-27.68626017910292,-51.125209690449815,7.1579895
60713,1577399612.53,0.5672506079697021,-2.0143411284656056,10.53016606266673,-1.7174017274437874,4.509800000297732,12.84646857612424,-0.437438161859279,8.396173246355755,7.376535314941406,0.1092305997522865,3.818046755907013,0.4354337366615854,-3.853588569455032,-16.544993330792682,3.8541468178353657,-3.887827803448933,-33.51425543064025,6.647249547446647,-29.52948050213675,-9.509374198717948,-2.329555745180745,-6.55971642540152,2.566160402097902,-35.301431741335584,27.08620121604217,34.70593344715009,41.41513163806272,1577399612.0,-27.68626017910292,-51.125209690449815,7.1579895
60714,1577399612.54,-1.1326325707412344,3.327122775342987,9.014636411787825,1.1484576597632428,1.337482800590701,14.950971835401583,-6.085359878167874,-6.268311922101276,8.667010009765624,6.121193490377286,4.794609255907012,0.1912931116615854,-4.524975288205031,6.892506669207317,-5.972513338414634,-15.850718428448932,-28.509372618140244,6.067415563071647,-29.52948050213675,-9.509374198717948,-2.329555745180745,-6.55971642540152,4.032537774725275,-35.89141087278106,27.18204690448378,34.70593344715009,41.31928594962111,1577399612.0,-27.68626017910292,-51.125209690449815,7.1579895
60715,1577399612.55,0.4104303992294682,-1.1787647490710749,10.50502694523509,3.183529070896055,-2.1341096066358607,6.485074765089081,-0.6241858913514665,-5.004173445538776,5.580884069824219,-10.297263540872716,-13.226020626905488,-1.6702791539634143,-3.0296139600800305,0.8805437785823171,-2.6766149009146343,-7.366831709698933,-15.325778868140244,-4.400113733803353,-29.52948050213675,-9.91837954059829,-2.179261826136828,-7.9978327962102,-3.1160519168331664,-0.9351473346365172,27.182046904483784,34.89762482403331,41.31928594962111,1577399612.0,-27.68626017910292,-51.125209690449815,7.1579895
60716,1577399612.56,0.2464275855087645,6.559295016553925,15.404760642744854,-0.061811279445741,3.7400641665574974,16.741834677198458,-0.4661685817811545,-3.0540961933415107,7.717709051513672,9.844338021627289,-13.302314572217988,-2.7383943883384143,-2.922802436642531,-8.763010908917682,1.3059290443978655,-6.420786787823932,6.524807069359756,4.312654820884147,-29.17688969017094,-9.509374198717948,-2.0289679070929103,-4.710709662933221,-3.849240603146853,-1.525126466081995,27.229969748704587,34.70593344715009,41.48701590439393,1577399612.0,-27.68626017910292,-51.125209690449815,7.1579895
60717,1577399612.57,-2.2196001244521715,-1.7677383574695118,10.66424135563548,2.041494879001524,-5.744565710151487,6.892089047315643,1.7173433322813447,16.512516874285442,12.63420216064453,-9.992087759622711,1.742851443407012,0.1607755335365854,-0.5882077100800305,-0.7368878620426829,-1.1202184165396345,2.673451493426067,-1.4402808212652438,-7.390836390053353,-28.64800347222222,-8.486860844017095,-1.578086149961158,-7.792387600380388,1.832971715784216,-1.0826421174978862,27.18204690448378,34.70593344715009,41.463054482283525,1577399612.0,-27.68626017910292,-51.125209690449815,7.1579895
60718,1577399612.58,-1.012922487733422,-8.22968863823123,8.535796079756572,-5.651075055080507,-4.755760424506955,6.41564291694455,-2.1660517604920915,5.331595121355755,17.10417666015625,-30.68300572837272,14.377128787157012,2.0223477991615857,3.257007133669969,-14.622385908917684,1.2906702553353655,-10.021861006573932,-9.832614805640244,12.293001500571648,-28.64800347222222,-8.486860844017095,-1.578086149961158,-2.0399221171456747,-3.299349088411588,-4.032537774725275,27.18204690448378,34.94554766825411,41.463054482283525,1577399612.0,-27.68626017910292,-51.125209690449815,7.1579895
60719,1577399612.59,0.0201755286239994,3.919687686231659,14.318990189863994,-5.256031781154726,8.728383325493045,18.410593234327365,-0.8372698391053727,-17.729355269269245,9.904812268066406,-1.1419901033727125,-8.846748165967988,-0.3885408727134145,5.576343071169969,-11.051829268292684,1.9010218178353653,-17.040903975323932,-17.675632383765244,-7.665494593178353,-28.55985576923077,-8.793614850427351,-1.653233109483117,-2.450812508805297,1.832971715784216,-4.032537774725275,27.27789259292539,34.70593344715009,41.27136310540031,1577399612.0,-27.68626017910292,-51.125209690449815,7.1579895
60720,1577399612.6,2.03729042730564,0.3104286835461119,9.385737669112045,3.6755375120581646,0.4468397830125757,7.10517299506955,2.743258743658298,7.313994095965129,13.660117572021484,11.553322396627289,-11.990058712842988,1.9002774866615848,2.158374321169969,6.480519364519818,-0.9218541587271344,-0.698740889386432,-29.592746641577747,3.1835044302591475,-28.824298878205127,-8.282358173076922,-3.231319259444269,-6.55971642540152,-2.5661604020979016,-2.85257951183432,27.229969748704587,34.8017791355917,41.51097732650433,1577399612.0,-27.68626017910292,-51.125209690449815,7.1579895
60721,1577399612.61,2.1977019385361083,-4.619232534715605,8.169483225752666,-2.289615924221131,-1.830045995796017,7.203335263135956,1.3414536716368135,-9.23472777903487,10.474632263183594,-6.329978384622714,0.7052537871570121,0.5880216272865855,6.369800102419969,-17.887766768292682,1.9925745522103653,-6.512339522198933,-30.767673399390244,-4.857877405678353,-30.587252938034187,-10.736390224358974,-1.7283800690050757,-6.148826033741899,-0.7331886863136862,-3.737548209002536,27.038278371821367,34.94554766825411,41.463054482283525,1577399612.0,-27.68626017910292,-51.125209690449815,7.1579895
60722,1577399612.62,-3.318538686463891,-1.901813650438262,15.179705686690166,-1.7078249208031624,-2.8140628781202364,15.978084347608617,5.51933556860947,21.782154728289346,5.087678527832031,-5.628074087747714,14.346611209032012,3.7618497522865857,7.773608696169969,-8.763010908917684,1.6873987709603655,7.678334305926067,-17.462009336890244,6.860872594321647,-28.824298878205127,-9.509374198717948,-2.930731421356421,-10.463175146167934,-2.3828632305194803,-41.34871783865174,27.229969748704587,34.70593344715009,41.463054482283525,1577399612.0,-27.68626017910292,-51.125209690449815,7.1579895
60723,1577399612.63,0.0309494360947025,-0.6568287871570125,11.267580173994856,1.9217847959937115,-0.1110092038038299,8.757172140577364,-0.6373540004823272,-12.61294632151534,7.770381488037109,-3.858054556497713,-10.036933712842988,1.7019132288490857,3.668994438357469,0.8042498332698171,-0.0673619712271342,-9.762461592511432,-7.711643125952744,14.413973180259148,-29.265037393162388,-10.020630876068376,-2.5549966237466246,-13.5448530836151,-35.559651286213786,-4.032537774725275,27.062239793931774,34.681972025039684,41.43909306017312,1577399612.0,-27.68626017910292,-51.125209690449815,7.1579895
60724,1577399612.64,-2.906736000917016,4.133968734815643,10.008230100752666,-4.049354144435976,5.1346866335985135,14.01483898628049,-5.400618203363186,-16.132422761945026,28.00737102050781,17.504250131002287,1.132499880907012,1.9918302210365848,4.904956352419969,-12.730296065167684,3.7625940834603657,7.159535477801067,-19.384616758765244,-34.12423482755335,-27.76652644230769,-10.736390224358974,-2.630143583268586,-13.5448530836151,-35.559651286213786,-4.032537774725275,27.18204690448378,34.94554766825411,41.463054482283525,1577399612.0,-27.68626017910292,-51.125209690449815,7.1579895
60725,1577399612.65,1.534508078672827,-3.836328591844512,7.748103733565167,-1.7652857606469123,1.5433841433641384,11.749924215772678,14.619696078863376,37.239120646258094,7.237671618652343,-2.7594217439977133,-11.227119259717988,0.5269864710365855,9.085864555544967,8.570973466082316,-1.9136754477896345,19.213978837176068,-21.093601133765244,6.891390172446647,-29.88207131410256,-7.873352831196582,-2.630143583268586,10.69768002430262,-33.36008522727273,-3.737548209002536,27.18204690448378,34.70593344715009,41.41513163806272,1577399612.0,-27.68626017910292,-51.125209690449815,7.1579895
60726,1577399612.66,-0.2922677880263907,-2.699082803270293,11.190965720869857,-0.5155124940453499,-6.304808898628049,6.717312326124237,-9.659902956781156,-28.352428035382527,15.942988854980468,2.0928731778772867,-5.642402462842988,0.8016446741615855,6.125659477419969,-9.129221846417684,3.8541468178353657,-15.179331709698932,-3.942722227515244,20.410677281821645,-28.47170806623932,-9.918379540598291,-1.4277922309172344,-1.629031725486053,-4.032537774725275,-4.032537774725275,27.18204690448378,34.8017791355917,41.463054482283525,1577399612.0,-27.68626017910292,-51.125209690449815,7.1579895
60727,1577399612.67,-1.8532872704482652,2.9225026947765804,11.799092942549542,-2.6415635682641003,0.4456426821824982,15.050331204298068,6.676932071295017,7.548625858660441,12.246341491699216,3.5882345060022867,10.989677615282012,4.829964986661586,9.864062797732467,-5.879099776105182,1.1075647865853655,4.184071610613568,-8.230441954077744,-2.5385414681783525,-28.29541266025641,-9.71387686965812,-2.479849664224669,-7.278774610805861,2.1079174731518484,-18.11828953798605,27.08620121604217,34.72989486926049,41.39117021595232,1577399612.0,-27.68626017910292,-51.125209690449815,7.1579895
60728,1577399612.68,0.2021348547958744,0.2781069611340031,9.440804307295636,5.4699916563452735,-2.126927001655392,8.38128247993283,4.832199692144626,-5.0951531086247135,8.882488159179687,11.248146615377289,-17.162788205030488,0.8321622522865857,4.782886039919969,3.291432450457317,-2.7376500571646343,8.014027665301068,5.212551209984756,3.503939000571646,-28.383560363247867,-9.611625534188034,-3.0058783808783867,9.875899240983376,3.665943431568432,-4.032537774725275,27.15808548237338,34.8017791355917,41.27136310540031,1577399612.0,-27.68626017910292,-51.125209690449815,7.1579895
60729,1577399612.69,0.9383518652939208,2.048619088819549,11.550095969893292,-1.2888396302758185,-0.5874553341749231,11.407553378370334,-1.8787475612733413,-3.859745051984089,10.761936462402344,10.332619271627289,-18.673408322217988,2.9073575647865857,9.055346977419967,-21.18366520579268,5.044332364710366,6.640736649676067,3.869777772484756,4.144808141196647,-29.88207131410256,-10.736390224358974,-2.930731421356421,-2.450812508805297,2.1995660589410586,-4.032537774725275,27.18204690448378,34.94554766825411,41.22344026117951,1577399612.0,-27.68626017910292,-51.125209690449815,7.1579895
60730,1577399612.7,2.338959836485327,1.0047471649914244,6.522272483565167,-3.704589105373476,-0.1636816403272669,14.002867977979708,3.2352671848204078,-11.645688850812212,6.658274816894531,17.931496224752287,-8.968818478467988,0.3743985804115854,19.52287627429497,-6.199534346417683,-1.3948766196646345,-1.1107281940739329,8.050685975609756,5.304476109946647,-27.76652644230769,-10.327384882478633,-1.7283800690050757,3.3016529744294165,4.032537774725275,-2.852579511834319,27.373738281367,34.8017791355917,41.41513163806272,1577399612.0,-27.68626017910292,-51.125209690449815,7.1579895
60731,1577399612.71,-0.2419895531631099,-0.9716663054675594,12.163011594893293,-0.7106399293480853,-5.120876177680783,-0.3862839995593563,3.419620712652438,11.306325364275674,7.332242584228515,2.2454610685022867,5.282890505907012,2.5564054163490857,8.719653618044969,-3.5902814167301838,-0.5251256431021344,17.520253251238568,9.500270936547256,-3.835538538490853,-29.17688969017094,-11.145395566239314,-2.329555745180745,5.766995324387152,0.0,-37.661348267117496,27.3497768592566,34.7778177134813,41.39117021595232,1577399612.0,-27.68626017910292,-51.125209690449815,7.1579895
60732,1577399612.72,2.549649582579078,6.202558969190643,8.246097678877668,-3.838664398342226,11.23511246367664,11.359669345167209,-5.879458535394436,-13.10375766184737,-0.0885854614257812,12.804543099752289,-14.553535275342988,0.1302579554115854,8.139819633669969,-12.150462080792684,0.8329065834603658,9.539906571551068,36.85927972560975,6.433626500571647,-29.353185096153844,-10.531887553418803,-0.9769104737854758,10.69768002430262,1.832971715784216,-37.07136913567202,27.3258154371462,34.70593344715009,41.463054482283525,1577399612.0,-27.68626017910292,-51.125209690449815,7.1579895
60733,1577399612.73,2.829771176817359,-0.072643582078887,6.99871861393626,5.122832415622617,-1.2123419674757043,3.602455966260956,6.828963876714938,0.4929135661799724,3.574543078613281,12.743507943502289,-21.450507931592988,-2.9520174352134143,4.813403618044969,8.906666825457316,2.8165491615853657,14.483754227801068,37.37807855373475,-16.668180140053355,-28.64800347222222,-10.940892895299145,-2.780437502312504,-9.8468395586785,4.032537774725275,-38.69381174714708,27.517506814029414,34.89762482403331,41.27136310540031,1577399612.0,-27.68626017910292,-51.125209690449815,7.1579895
60734,1577399612.74,2.2647395850204832,-1.157216934129668,5.076174680830792,-1.5737496278344123,-3.8770884152296112,6.820262997510956,-2.8412166286561544,4.333213029070598,11.305420239257812,26.110207162252287,4.184257693407012,2.6937345179115857,4.660815727419969,1.3077898723323171,0.3141077553353658,20.160023759051068,30.78628167873476,-1.2568031869283538,-29.52948050213675,-9.918379540598291,-2.630143583268586,-9.8468395586785,2.566160402097902,-41.79120218723584,27.373738281367,34.70593344715009,41.41513163806272,1577399612.0,-27.68626017910292,-51.125209690449815,7.1579895
60735,1577399612.75,0.5301404822372806,0.6946980500011906,7.823521085860088,2.127686138767149,4.157852356254764,11.431495394971895,-0.7989626125428727,-2.2173227131169013,15.332467431640625,9.569679818502289,0.7968065215320121,1.7324308069740857,2.463550102419969,-3.025706221417683,2.8775843178353657,12.622181962176068,15.191799256859756,-10.076383265053352,-29.52948050213675,-11.145395566239314,-2.630143583268586,9.875899240983376,1.832971715784216,-41.79120218723584,27.182046904483784,34.70593344715009,41.31928594962111,1577399612.0,-27.68626017910292,-51.125209690449815,7.1579895
60736,1577399612.76,1.168195224668921,-0.7837214751452932,11.590797398115948,0.6815883360327745,-0.8065247860792205,11.21601724555783,1.890922952642673,7.977187955828411,5.899312890625,-1.4776834627477131,0.0643846465320121,0.4354337366615854,3.516406547732469,6.770436356707316,-1.6084996665396345,12.042347977801068,13.635402772484758,8.859773961509145,-28.29541266025641,-10.122882211538462,-3.381613178488186,0.2199750369822499,1.832971715784216,-41.79120218723584,27.18204690448378,34.873663401922904,41.43909306017312,1577399612.0,-27.68626017910292,-51.125209690449815,7.1579895
60737,1577399612.77,1.3956443823837643,2.407749337842987,11.550095969893292,-0.3503125794945686,1.1243988528367943,6.528170394971894,4.348570956793064,-11.940175655011432,13.424288708496093,8.165871224752287,-2.407539181592988,1.1068204554115857,7.498950493044969,-7.420237471417683,3.7625940834603657,5.999867509051067,20.56289300685976,-4.491666468178353,-27.76652644230769,-8.282358173076922,-2.329555745180745,-9.435949167018876,1.832971715784216,-41.79120218723584,27.18204690448378,34.61008775870848,41.31928594962111,1577399612.0,-27.68626017910292,-51.125209690449815,7.1579895
60738,1577399612.78,-1.1924876122451409,5.472327462842987,12.332999912764386,-3.821904986721132,5.338193774711795,16.08342922065549,1.26723342017197,5.614110917254192,7.841010437011718,9.874855599752289,2.5057908965320124,-1.6397615758384143,6.156177055544969,3.840748856707317,-0.5709020102896342,10.577504227801068,15.924221131859756,-9.801725061928352,-28.64800347222222,-8.077855502136753,-2.479849664224669,-16.215640629402646,0.1832971715784216,-3.8850429918639056,27.373738281367,34.70593344715009,41.41513163806272,1577399612.0,-27.68626017910292,-51.125209690449815,7.1579895
60739,1577399612.79,2.5364814734482177,-3.960827078172637,10.731279002119852,2.3683034056128527,-1.683999694526486,2.960809921339081,1.1439320346739237,0.1277978130061454,12.434286322021483,-5.124534048685212,-3.765571408155488,0.5727628382240857,5.057544243044969,5.030934403582316,0.7566126381478656,12.454335282488568,11.300808045922256,-2.7216469369283534,-29.17688969017094,-9.100368856837608,-2.930731421356421,-9.744116960763597,-1.0081344436813189,-3.9587903832945903,27.206008326594183,34.681972025039684,41.39117021595232,1577399612.0,-27.68626017910292,-51.125209690449815,7.1579895
60740,1577399612.8,-0.0528476220107656,11.737953207471897,13.400813853194071,-5.921619842678163,9.58071911650867,13.773024618604708,-2.7215065456483423,0.229551383562785,5.834669445800781,15.886818490377289,-2.407539181592988,1.0763028772865857,11.496753227419967,-11.601145674542684,2.3587854897103657,-1.8431500690739329,0.4518090224847561,-11.205533655678352,-29.17688969017094,-9.100368856837608,-2.930731421356421,-9.435949167018876,3.2993490884115886,-4.032537774725275,27.08620121604217,34.753856291370894,41.12759457273789,1577399612.0,-27.68626017910292,-51.125209690449815,7.1579895
60741,1577399612.81,0.5073955664657958,2.402960934522674,5.691484507490948,5.30000333847418,-5.51232814911633,7.253613497999237,3.89127843970322,11.56609624440263,8.279149340820313,7.433449349752286,-3.841865353467988,-0.5716463414634145,17.23405791491997,14.003102372332316,-6.064066072789634,9.234730790301068,11.651760194359756,9.882112828696648,-28.1191172542735,-9.509374198717948,-3.531907097532104,-2.656257704635109,2.749457573676324,-3.2950638604184275,27.229969748704587,34.562164914487674,41.463054482283525,1577399612.0,-27.68626017910292,-51.125209690449815,7.1579895
60742,1577399612.82,-0.9865862694717036,-0.5574694182605281,5.966817698408917,3.5211115049780863,1.8689955691453883,7.215306271436737,-3.34878738060928,-10.079880965070023,6.971915234375,4.061256966939788,2.3379442168445124,0.3286222132240854,-17.55598114758003,2.467457841082317,1.3517054115853655,3.680531571551067,17.419582459984756,9.546419469321648,-29.17688969017094,-9.71387686965812,-2.179261826136828,-2.861702900464919,-4.032537774725275,-2.852579511834319,27.182046904483784,34.8017791355917,41.41513163806272,1577399612.0,-27.68626017910292,-51.125209690449815,7.1579895
60743,1577399612.83,1.4076153906845457,4.773220578077361,9.436015903975324,1.064660601657774,3.512615008842654,14.235105539014866,2.360186478033298,3.06189194752763,5.6383449096679685,0.9026876310022866,-9.212959103467988,-4.050650247713414,3.806323539919969,5.70232112233232,-1.7153111899771345,6.518666337176068,11.163478944359756,-6.200650843178353,-28.64800347222222,-9.304871527777776,-3.381613178488186,-2.2453673129754845,-3.299349088411588,-2.1151055975274726,27.18204690448378,34.753856291370894,41.36720879384191,1577399612.0,-27.68626017910292,-51.125209690449815,7.1579895
60744,1577399612.84,4.874419394590796,-0.8220287017077932,2.4401586529987607,5.56815392441168,-1.7773735592725797,5.819486703565644,4.556866501226658,-0.4815265095036202,5.0757075195312495,7.830177865377286,-23.006904415967988,1.7782071741615857,-7.759838569455031,-6.291087080792683,3.8541468178353657,7.830922196551067,41.25381097560975,8.691927281821647,-28.64800347222222,-9.304871527777776,-3.381613178488186,-2.450812508805297,-1.099783029470529,-3.4425586432797965,27.038278371821367,34.753856291370894,41.22344026117951,1577399612.0,-27.68626017910292,-51.125209690449815,7.1579895
60745,1577399612.85,2.281498996641577,1.263320944288299,12.797475034834696,1.1316982481421491,5.196935876762575,8.687740292432832,4.31265793189072,-19.02701256907393,6.526593725585937,4.320656381002286,-17.574775509717988,-4.447378763338414,8.139819633669969,-20.17658512766768,3.3963831459603657,3.558461259051067,39.81948480373475,-15.142301233803352,-29.00059428418804,-8.895866185897434,-3.381613178488186,-9.641394362848688,-0.916485857892108,-0.9351473346365172,27.18204690448378,34.753856291370894,41.55890017072513,1577399612.0,-27.68626017910292,-51.125209690449815,7.1579895
60746,1577399612.86,0.8976504370712646,1.5266831269054877,10.039354722334698,-1.0374484559594124,0.200237012016482,13.052369918897677,0.27124552954697,0.2319455852229412,0.8092401611328125,-0.714744009622712,2.5820848418445124,0.1455167444740855,4.996509086794969,2.436940262957317,-1.6084996665396345,18.878285477801068,48.97475824123475,-18.407682093178355,-29.52948050213675,-8.691363514957265,-2.780437502312507,-6.354271229571711,-0.1832971715784212,-1.2301369003592555,27.206008326594183,34.753856291370894,41.41513163806272,1577399612.0,-27.68626017910292,-51.125209690449815,7.1579895
60747,1577399612.87,1.390855979063452,-2.035888943407012,13.819799143721417,0.8982635862769146,-3.495213250434689,8.402830294874239,-4.155633340081937,3.1947701396663004,16.16684671020508,-18.87270299399772,1.407158084032012,-5.362906107088414,7.193774711794968,-6.962473799542682,0.6498011147103657,12.500111649676068,26.040798280297253,2.359529820884146,-28.64800347222222,-8.077855502136753,-1.578086149961158,-6.456993827486615,-0.274945757367632,-2.631337337542265,27.18204690448378,34.70593344715009,41.1994788390691,1577399612.0,-27.68626017910292,-51.125209690449815,7.1579895
60748,1577399612.88,-0.3497286278701407,4.782797384717987,10.673818162276104,-1.379819293361756,2.8889254763719507,12.714787484815648,-4.045500063714749,7.242168046160442,16.61336531982422,4.931007943502286,20.14495105278201,3.3040860804115857,6.552905571169969,5.580250809832317,-2.0662633384146343,-2.392466475323933,-23.046726133765244,-9.252408655678352,-28.64800347222222,-8.077855502136753,-1.578086149961158,-3.2725932921245406,-3.665943431568431,0.6872952768385466,27.18204690448378,34.70593344715009,41.55890017072513,1577399612.0,-27.68626017910292,-51.125209690449815,7.1579895
60749,1577399612.89,-0.2898735863662344,1.172341281202362,7.355454661299542,3.032694366306212,-0.0008759274366425,9.106725582960175,-2.884312258538967,16.40477779957841,5.978321545410156,-0.3790506502477134,3.0551073027820124,-1.0904451695884143,6.400317680544969,13.697926591082316,-3.9278356040396334,-2.758677412823933,-25.854343321265244,13.116976109946648,-28.824298878205127,-9.100368856837608,-3.531907097532104,-2.450812508805297,1.832971715784216,-0.4926629860524088,27.18204690448378,34.61008775870848,41.55890017072513,1577399612.0,-27.68626017910292,-51.125209690449815,7.1579895
60750,1577399612.9,1.5440848853134523,1.634422201612518,11.25082076237376,-0.6280399720726937,-2.119744396674923,3.0565779877453303,-0.6457337062928727,-10.970523982648151,2.3582886352539063,8.547340951314787,-1.2783887909679876,-0.6174227086509143,6.369800102419969,-5.161936690167683,0.4056604897103658,-22.96131413157393,-2.691501524390244,9.912630406821648,-29.088741987179485,-10.225133547008546,-2.104114866614869,-2.450812508805297,1.832971715784216,-0.4926629860524088,27.3497768592566,34.753856291370894,41.31928594962111,1577399612.0,-27.68626017910292,-51.125209690449815,7.1579895
60751,1577399612.91,1.2352328711532958,4.639145285108612,8.471152634932354,-2.5553723084984754,4.326643573295779,10.344527841260955,2.081261984625095,0.7550786479670829,6.423643054199219,6.609474740377286,2.5973436309070124,-1.2125154820884143,2.692431938357469,7.014576981707316,-1.4253941977896345,4.870717118426068,6.646877381859756,-10.473111780678352,-28.64800347222222,-9.304871527777776,-2.780437502312504,9.875899240983376,-0.7331886863136863,-1.0826421174978862,27.038278371821367,34.58612633659808,41.31928594962111,1577399612.0,-27.68626017910292,-51.125209690449815,7.1579895
60752,1577399612.92,2.7507625220322027,-1.3583298735827931,4.978012412764386,6.963973492282774,-3.029541027534299,7.816250888135956,0.2257556980040012,2.566292203875286,2.042254016113281,-3.888572134622713,-7.839668087842988,-1.0904451695884143,-1.3206295850800305,6.129567216082317,2.2061975990853657,3.497426102801067,22.18032464748476,2.832552281821646,-28.64800347222222,-9.304871527777776,-2.780437502312504,11.724906003451672,3.849240603146854,-0.6401577689137783,27.3258154371462,34.8017791355917,41.41513163806272,1577399612.0,-27.68626017910292,-51.125209690449815,7.1579895
60753,1577399612.93,-0.4239488793349844,0.8419414521007994,8.79915826237376,0.0519132994116803,-0.5276002926710169,8.086795675733612,2.016618539800876,-5.181344368390339,5.736507177734374,4.442726693502286,7.113945193407012,0.4049161585365854,-2.7244381788300305,-2.445872237042683,1.1075647865853655,2.185170243426067,21.32583245998476,0.9709800161966464,-29.70577590811965,-8.486860844017095,-2.780437502312504,11.519460807621863,3.2993490884115886,-0.1976734203296699,27.421661125587804,34.61008775870848,41.31928594962111,1577399612.0,-27.68626017910292,-51.125209690449815,7.1579895
60754,1577399612.94,-0.5065488366103755,1.6260424958019717,7.767257346846417,0.9617099302710552,0.6024628909227322,9.990185995557832,-0.3009686672303733,-1.964734437970417,13.601459631347655,-4.636252798685214,5.282890505907012,-1.6092439977134143,0.0374026414824695,4.985158036394816,-3.2869664634146343,1.8952532512385671,6.570583436547256,-5.437711390053353,-28.47170806623932,-10.327384882478633,-2.3295557451807483,10.69768002430262,2.5661604020979025,-1.9676108146661029,27.229969748704583,34.72989486926049,41.34324737173152,1577399612.0,-27.68626017910292,-51.125209690449815,7.1579895
60755,1577399612.95,1.055667746641577,-0.2522087065906058,6.840701304365948,-2.16272323623285,4.100391516411014,7.313468539503143,-2.9633209133241234,12.981069425554972,9.871293444824218,-8.069480337747713,7.297050662157012,0.5575040491615855,-4.555492866330031,-9.342844893292684,4.067769864710366,4.473988602801067,10.095363709984756,-1.0126625619283538,-28.824298878205127,-9.509374198717948,-2.930731421356421,-0.8072509421668069,2.566160402097902,-33.53149434699915,27.18204690448378,34.61008775870848,41.55890017072513,1577399612.0,-27.68626017910292,-51.125209690449815,7.1579895
60756,1577399612.96,-0.8237805565810782,8.000604415967986,17.344063987471415,-4.920843548732851,8.539241394340701,15.616559896925022,-3.044723769769436,8.982752653094035,9.363722692871091,1.8182149747522869,-1.369941525342988,-0.5106111852134145,1.8837161180449693,-6.291087080792683,-1.3338414634146345,1.5748186809260671,8.600002381859756,1.6423667349466462,-28.824298878205127,-9.509374198717948,-2.930731421356421,-4.916154858763031,2.566160402097902,-35.59642130705832,27.038278371821367,34.70593344715009,41.65474585916674,1577399612.0,-27.68626017910292,-51.125209690449815,7.1579895
60757,1577399612.97,2.1019338721298584,5.077284188917206,7.496712559248761,7.409295001071836,-3.728647912299924,10.073983053663303,2.2225198825743133,-11.865955403546588,11.635820068359374,4.717384896627286,-10.006416134717988,-0.3885408727134145,0.8766360399199695,14.918629716082316,-4.812845369664634,-12.341196944073932,6.189113709984756,-3.667691858803354,-28.824298878205127,-9.509374198717948,-2.930731421356421,-4.916154858763031,2.932754745254746,-37.07136913567202,27.18204690448378,34.46631922604607,41.31928594962111,1577399612.0,-27.68626017910292,-51.125209690449815,7.1579895
60758,1577399612.98,-0.5257024498916255,-2.2657323027820127,7.045405546309308,-0.3610864869652728,0.9687757449266388,13.231935043409392,3.29751642798447,3.219909257097941,14.49210264892578,-8.008445181497713,14.02617663871951,-0.3580232945884143,-14.031200874142533,-3.5750226276676838,2.0230921303353657,-0.8513287800114329,2.191310975609756,-2.1570717416158534,-30.23466212606837,-8.691363514957265,-2.6301435832685898,-4.916154858763031,2.932754745254746,-37.07136913567202,27.18204690448378,34.681972025039684,41.29532452751072,1577399612.0,-27.68626017910292,-51.125209690449815,7.1579895
60759,1577399612.99,-0.993768874452172,4.936026290967988,13.563619566084698,-0.4101676209984748,-1.3775418820264858,11.809779257276585,-4.936143081292874,1.721139017840129,13.38119307861328,-6.726706900247714,-0.3628614472179878,-4.233755716463414,-4.586010444455031,14.369313309832316,-3.7142125571646334,-7.000620772198933,-5.529636290015244,-2.538541468178354,-29.353185096153844,-8.895866185897434,-3.0810253404003385,-4.916154858763031,2.566160402097902,-35.89141087278106,27.229969748704587,34.70593344715009,41.31928594962111,1577399612.0,-27.68626017910292,-51.125209690449815,7.1579895
60760,1577399613.0,1.5416906836532958,-0.8148460967273244,8.044984739424542,2.0127644590796487,2.8769544680711694,10.119472885206273,1.161888547125095,4.163224711199504,17.18079111328125,-6.421531118997714,-2.560127072217988,-1.7313143102134143,-11.147289741330033,2.925221512957317,-0.2046910727896341,-4.772837569073933,-15.081638243140244,5.487581578696647,-29.353185096153844,-8.895866185897434,-3.0810253404003385,-7.9978327962102,6.415401005244755,-32.79402043269231,27.373738281367,34.70593344715009,41.12759457273789,1577399613.0,-27.686325475200608,-51.125188382755,7.2720456
60761,1577399613.01,0.2991000220322025,0.7234284699230655,10.558896482588604,0.2003538023413678,-1.1740347409132044,7.174604843214081,-1.4741274807069351,-12.768569429425494,13.479355346679686,-0.6537088533727132,-0.5001905487804876,-1.2430330602134143,-0.7102780225800305,-5.192454268292683,-1.1202184165396345,-18.65833561594893,-31.286472227515244,-1.9281899056783536,-29.26503739316239,-9.407122863247864,-2.2544087856587867,-13.750298279444912,2.016268887362638,-33.38399956413779,27.18204690448378,34.94554766825411,41.41513163806272,1577399613.0,-27.686325475200608,-51.125188382755,7.2720456
60762,1577399613.02,0.6127404395126708,-4.458821023485137,8.64592935612376,-1.772468365627382,-1.080660876167111,6.579645730665253,0.5992511569883767,8.40575005299638,7.9092451843261715,-15.515769400247711,1.620781130907012,-0.5411287633384145,-1.8699459913300305,-0.9352521198551828,-0.9676305259146344,-7.092173506573932,-24.786228086890244,7.303377477134146,-28.824298878205127,-9.918379540598291,-2.329555745180745,-14.26391126901944,1.008134443681319,-15.168393880758666,27.038278371821367,34.72989486926049,41.55890017072513,1577399613.0,-27.686325475200608,-51.125188382755,7.2720456
60763,1577399613.03,2.2647395850204832,5.702170822217987,11.734449497725322,3.0853668028296486,4.076449499809451,14.764224105909395,-5.632855764398342,-22.68056430247237,9.124302526855468,7.189308724752286,-2.193916134717988,0.8626798304115855,-5.806713569455031,-7.511790205792683,0.1615198647103658,-16.949351240948932,-12.304538633765244,-10.228971155678352,-29.52948050213675,-7.055342147435899,-2.630143583268586,-9.435949167018876,-3.665943431568431,-4.032537774725275,27.08620121604217,34.89762482403331,41.31928594962111,1577399613.0,-27.686325475200608,-51.125188382755,7.2720456
60764,1577399613.04,2.401209079649389,8.177775338819549,7.951610874678448,4.124450323337461,4.04532487822742,8.055671054151581,8.741931003179781,12.674611613054973,1.8626888916015625,13.964211068502289,-9.121406369092988,-4.050650247713414,-7.881908881955031,12.294117997332316,-5.728372713414634,-7.214243819073933,-0.6773413681402439,-14.562467249428352,-29.52948050213675,-8.282358173076922,-2.930731421356421,-7.381497208720765,-2.5661604020979016,-3.737548209002536,27.08620121604217,34.993470512474914,41.12759457273789,1577399613.0,-27.686325475200608,-51.125188382755,7.2720456
60765,1577399613.05,-0.4526792992568598,-2.162781631395293,7.210605460860089,2.5562482359351177,-0.0391831539991419,7.4690916474133,6.038877328863376,32.79787656666825,4.745307690429687,-7.108176626810215,11.996757693407012,-0.7394930211509144,-8.797436225705031,-6.840403487042683,2.4503382240853657,5.114857743426067,9.912258241234756,12.293001500571648,-28.91244658119658,-7.975604166666666,-2.404702704702707,-3.6834836837841647,1.832971715784216,-4.032537774725275,26.96639410549016,34.70593344715009,41.463054482283525,1577399613.0,-27.686325475200608,-51.125188382755,7.2720456
60766,1577399613.06,-2.7151998681045155,2.307192868116424,11.26997437565501,0.8563650572241808,1.485923303520389,16.719089761426975,-3.5798278408143585,-14.457678700665731,15.757438226318358,-4.193747915872714,14.194023318407012,0.0692227991615854,-5.181103217892531,-4.215891768292683,-1.2422887290396345,-12.982066084698932,-22.955173399390247,-0.4633461556783533,-30.587252938034187,-10.327384882478633,-2.329555745180745,-3.2725932921245406,1.832971715784216,-4.032537774725275,27.18204690448378,34.945547668254115,41.36720879384191,1577399613.0,-27.686325475200608,-51.125188382755,7.2720456
60767,1577399613.07,-1.8149800438857653,1.3806368256359556,9.459957920576889,-0.5705791322289436,-3.2162887570264864,13.739505795362522,-0.7103771511170914,5.709878983660442,10.876858142089842,-8.679831900247713,9.677421755907012,2.0223477991615857,1.9447512742949693,2.436940262957317,-2.0357457602896343,-16.827280928448932,-43.98178472751525,7.043978063071647,-28.824298878205127,-9.918379540598291,-2.0289679070929103,-3.067148096294731,2.016268887362638,1.7197587568681325,27.3258154371462,34.753856291370894,41.463054482283525,1577399613.0,-27.686325475200608,-51.125188382755,7.2720456
60768,1577399613.08,-0.2970561913467032,-4.5234644683093554,10.87493110172923,-0.5131182923851937,-6.14439738739758,5.783573678663299,5.18654153784775,4.177589921160442,9.885658654785155,-18.68959752524772,-10.738838009717988,-1.9754549352134143,-1.3511471632050305,-9.617503096417684,-0.2046910727896341,-20.03162663157393,-31.408542540015244,4.572054234946647,-27.9428218482906,-6.850839476495726,-3.982788854663856,-6.55971642540152,1.832971715784216,-3.4425586432797965,27.18204690448378,34.70593344715009,41.41513163806272,1577399613.0,-27.686325475200608,-51.125188382755,7.2720456
60769,1577399613.09,1.811038370420874,6.226500985792206,15.025279679610088,-0.1396228334008186,11.47692683135242,20.744939852979705,-4.074230483636623,2.07787506520341,3.924096520996093,1.345192513814788,-4.559028439405488,0.2981046350990854,-13.161449897580033,-14.378245283917684,3.6710413490853657,-12.615855147198932,-11.358493711890244,8.478304234946647,-28.55985576923077,-8.180106837606838,-3.306466218966221,-6.55971642540152,1.832971715784216,-3.4425586432797965,27.18204690448378,34.8017791355917,41.27136310540031,1577399613.0,-27.686325475200608,-51.125188382755,7.2720456
60770,1577399613.1,-1.0919311425185785,-4.667116567918731,7.501500962569073,6.656318578952695,-3.3862770748975795,7.969479794385958,3.167032437505954,0.200820963640911,8.790311395263672,-7.459128775247714,4.184257693407012,-0.9073397008384144,4.645556938357469,10.844533036394818,-1.8678990806021345,-1.6295270221989329,3.045803163109756,-5.803922327553353,-29.00059428418804,-8.895866185897434,-1.578086149961158,-5.737935642082276,-4.032537774725275,-3.4425586432797965,27.18204690448378,34.65801060292928,41.39117021595232,1577399613.0,-27.686325475200608,-51.125188382755,7.2720456
60771,1577399613.11,3.8664604956650153,-5.490721939012481,11.107168662764384,-8.519328643947695,-2.0670719601514858,5.460356454542206,-5.881852737054593,3.519184464617473,8.645462194824217,-25.18984166587272,1.925956912157012,0.5575040491615855,-8.126049506955031,-20.20710270579268,1.0160120522103655,-0.7445172565739329,2.710109803734756,13.300081578696648,-30.23466212606837,-10.736390224358974,-2.930731421356421,-9.641394362848688,-3.849240603146853,-3.8850429918639056,27.229969748704587,34.753856291370894,41.27136310540031,1577399613.0,-27.686325475200608,-51.125188382755,7.2720456
60772,1577399613.12,-1.7551250023818592,2.5753434540539244,13.719242673994854,-3.944009271389101,7.797038879692263,19.10251751411252,-0.7654437893006852,-10.3767619709294,12.00213292236328,8.379494271627287,4.642021365282012,3.5787442835365857,4.416675102419969,-4.490549971417683,-0.9371129477896342,-9.991343428448932,-13.128513243140244,-5.559781702553353,-27.76652644230769,-9.100368856837608,-3.231319259444269,-8.203277992040011,-2.5661604020979016,-0.4926629860524088,27.038278371821367,34.94554766825411,41.55890017072513,1577399613.0,-27.686325475200608,-51.125188382755,7.2720456
60773,1577399613.13,-0.4335256859756098,-0.6101418547839659,7.274051804854229,3.657580999606993,3.215734002983279,6.395292202833222,-2.74903986474014,8.556584757586224,9.54448491821289,0.3533712247522862,-5.657661251905488,-1.6397615758384143,-13.344555366330033,9.974782059832314,-0.7387486899771343,5.160634110613567,3.961330506859758,11.026522008384145,-27.76652644230769,-9.100368856837608,-3.231319259444269,-4.402541869188504,-0.2749457573676326,-1.5988738575126793,27.229969748704583,34.72989486926049,41.48701590439393,1577399613.0,-27.686325475200608,-51.125188382755,7.2720456
60774,1577399613.14,1.161012619688452,6.317480648878143,6.764086851240948,-3.872183221584413,7.52409989043445,17.120118539503146,0.6710772067930637,-19.97511642649581,3.8474820678710935,28.978859506002287,20.38909167778201,3.2430509241615857,8.750171196169969,-6.138499190167683,2.6029261147103657,-0.9581403034489328,23.88930902248476,-9.404996546303352,-28.824298878205127,-8.691363514957265,-2.329555745180745,-4.0943740754437865,0.3665943431568428,-1.6726212489433638,27.373738281367,34.8017791355917,41.31928594962111,1577399613.0,-27.686325475200608,-51.125188382755,7.2720456
60775,1577399613.15,0.1410827124618895,5.048553768995331,8.945204563643292,0.0447306944312116,-4.456485216987423,10.291855404737522,-1.117391433343654,5.738609403582317,13.642161059570313,10.210548959127289,0.1864549590320121,-1.3956209508384143,5.637378227419969,10.554616044207316,2.2672327553353657,2.124135087176067,-10.992282774390244,-20.818570765053355,-29.70577590811965,-9.71387686965812,-2.179261826136828,-2.450812508805297,2.566160402097902,-1.6726212489433638,27.18204690448378,34.70593344715009,41.31928594962111,1577399613.0,-27.686325475200608,-51.125188382755,7.2720456
60776,1577399613.16,1.4985950537704833,-9.637479214403106,6.735356431319073,0.8228462339819929,-5.507539745796017,9.623873141553924,-0.7271365627381852,17.360064261980753,15.567099194335936,-5.078757681497714,-4.482734494092988,-1.5787264195884143,-7.790356147580031,2.955739091082317,4.006734708460366,11.615101884051068,-30.584567930640244,1.4897788443216462,-28.47170806623932,-8.691363514957265,-2.630143583268586,10.286789632642996,1.832971715784216,0.0973161453930689,27.3258154371462,34.8017791355917,41.31928594962111,1577399613.0,-27.686325475200608,-51.125188382755,7.2720456
60777,1577399613.17,1.1550271155380614,1.9552452240734564,15.326949088789776,-0.4604458558617572,0.1583384829637481,7.518172781446503,-5.498780471429592,-3.1845801838200263,13.684059588623048,-5.750144400247713,7.174980349657012,2.6174405725990857,7.773608696169968,3.3372088176448167,2.0230921303353657,-14.61475651438643,-56.73813238376525,11.133333531821648,-28.29541266025641,-8.895866185897434,-2.479849664224669,6.075163118131867,2.29121464473027,0.6135478854078621,27.110162638152573,34.873663401922904,41.29532452751071,1577399613.0,-27.686325475200608,-51.125188382755,7.2720456
60778,1577399613.18,0.6749896826767333,-1.1332749175281056,9.615581028487044,-1.6312104676781622,-0.3600061764600794,10.047646835401585,9.529623349371189,11.985081534929972,4.340687609863281,-1.1419901033727131,5.252372927782012,-1.7007967320884143,-0.4661373975800305,-10.410960127667684,2.4503382240853657,-13.561900069073932,-36.96274175876525,21.112581578696645,-28.47170806623932,-10.327384882478633,-1.1272043928293995,10.081344436813186,2.016268887362638,2.0147483225908704,27.18204690448378,34.70593344715009,41.463054482283525,1577399613.0,-27.686325475200608,-51.125188382755,7.2720456
60779,1577399613.19,-1.3768411400771718,-0.915402566453887,11.447145298506571,-2.0525899598656623,5.852947131645388,17.725851559522678,2.924020969000095,-3.92917690012862,4.390965844726562,10.027443490377289,11.050712771532012,2.9378751429115857,7.224292289919969,-17.613108565167682,4.617086270960366,-4.345591475323933,-2.722019102515244,11.682649938071648,-27.76652644230769,-10.327384882478633,-2.630143583268586,10.081344436813186,2.016268887362638,-36.03890565564243,27.3258154371462,34.562164914487674,41.12759457273789,1577399613.0,-27.686325475200608,-51.125188382755,7.2720456
60780,1577399613.2,0.3972622900986088,2.751317276075409,11.64586403629954,-1.4109439149437872,5.80027469512195,14.345238815382052,1.5138361911680636,-8.490131062726276,9.732429748535155,4.015480599752287,-3.933418087842988,0.3896573694740854,3.226489555544969,7.899586747332317,0.4056604897103658,7.800404618426067,19.25063714748476,-13.799527796303352,-28.207264957264957,-9.407122863247864,-1.6532331094831136,10.081344436813186,2.016268887362638,-36.03890565564243,27.229969748704587,34.89762482403331,41.41513163806272,1577399613.0,-27.686325475200608,-51.125188382755,7.2720456
60781,1577399613.21,0.452328928282202,-3.221018765184356,5.808800388838605,0.1165567442358989,-3.0834105648878145,1.740964175489472,1.1894218662168925,1.56072750660966,9.956287603759764,0.8721700528772866,5.649101443407012,3.9449552210365857,3.638476860232469,2.7268572551448167,3.1064661537728657,15.048329423113568,29.702907655297256,-9.710172327553352,-28.64800347222222,-8.895866185897434,-1.8786739880489929,-4.197096673358692,2.4745118163086923,-38.32507478999366,26.990355527600563,34.8017791355917,41.36720879384192,1577399613.0,-27.686325475200608,-51.125188382755,7.2720456
60782,1577399613.22,1.2519922827743897,3.0829142060070494,6.570156516768292,-2.6894476014672257,9.76028424102039,19.284476840284395,4.374907175054783,6.478417716570598,8.329427575683594,17.717873177877287,3.5128709746570124,0.1302579554115854,9.085864555544967,0.026051591082317,2.7860315834603657,14.178578446551068,12.170559022484756,-1.2262856088033538,-28.1191172542735,-7.873352831196582,-1.7283800690050757,-8.614168383699631,-4.032537774725275,-40.61124392434488,27.038278371821367,34.70593344715009,41.65474585916674,1577399613.0,-27.686325475200608,-51.125188382755,7.2720456
60783,1577399613.23,-1.1254499657607655,1.6080859833507992,5.550226609541729,9.880111114353086,2.548948840629764,13.339674118116427,-3.5594771267030296,8.989935258074505,13.651737866210937,21.654640756002287,3.3602830840320124,3.4871915491615857,-0.4051022413300305,24.98943049733232,-2.7376500571646343,9.875599930926068,3.869777772484756,4.694124547446647,-29.70577590811965,-10.122882211538462,-1.578086149961158,-9.641394362848688,2.016268887362638,-35.15393695847422,27.229969748704587,34.70593344715009,41.27136310540031,1577399613.0,-27.686325475200608,-51.125188382755,7.2720456
60784,1577399613.24,-0.917154421327172,-2.7733030547351367,11.755997312666729,1.52674152206793,-3.154039513862424,7.160239633253143,5.761149936285251,-4.142260847882526,5.664681127929687,-3.980124868997713,3.3602830840320124,0.2218106897865854,-4.677563178830031,-5.222971846417683,7.089010099085366,2.002064774676067,10.064846131859756,6.616731969321647,-29.52948050213675,-9.509374198717948,-1.4277922309172344,-6.55971642540152,4.765726461038961,-35.301431741335584,27.3258154371462,34.70593344715009,41.31928594962111,1577399613.0,-27.686325475200608,-51.125188382755,7.2720456
60785,1577399613.25,2.1354526953720456,1.1053036347179868,6.008716227461651,-1.6192394593773816,-1.0674927670362513,9.66457456977658,-1.826075124749904,2.767405143328411,9.433154541015623,9.386574349752289,9.448539919969512,3.7313321741615857,13.297290336794967,-8.76301090891768,1.7484339272103655,8.151356766863568,10.690456483422256,4.114290563071647,-29.6176282051282,-9.202620192307691,-2.2544087856587893,-13.853020877359818,-0.0916485857892102,-21.36317476093618,27.27789259292539,34.94554766825411,41.36720879384191,1577399613.0,-27.686325475200608,-51.125188382755,7.2720456
60786,1577399613.26,0.6223172461532958,-0.2905159331531058,11.4184148785847,3.2745087339819925,-0.3432467648389856,6.865752829053925,4.853747507086032,-2.5572993488590887,8.892064965820312,8.410011849752287,0.3390428496570121,1.3204435022865857,1.7006106492949695,5.702321122332317,4.067769864710366,7.525746415301067,19.61684808498476,-3.423551233803354,-29.88207131410256,-8.691363514957265,-2.0289679070929103,-15.393859846083402,-3.48264625999001,-3.8850429918639056,27.373738281367,34.94554766825411,41.12759457273789,1577399613.0,-27.686325475200608,-51.125188382755,7.2720456
60787,1577399613.27,1.505777658750952,2.8267346283703305,11.739237901045636,-0.3934082093773811,0.3007934817430445,5.958350399854706,-0.9497973171327164,2.623753043719036,6.818686328125,3.4051290372522867,0.5526658965320121,1.3204435022865857,2.829761039919969,-7.511790205792683,4.678121427210366,11.737172196551068,21.72256097560976,2.618929234946646,-28.824298878205127,-9.918379540598291,-1.4277922309172344,-13.750298279444912,-3.48264625999001,-3.8850429918639056,27.18204690448378,34.8017791355917,41.31928594962111,1577399613.0,-27.686325475200608,-51.125188382755,7.2720456
60788,1577399613.28,-0.5771777855849844,2.7142071503429865,10.125545982100324,-1.713810424953554,2.784777704155154,12.057579129102756,4.4778578464415,6.340751121111614,12.630610858154297,4.503761849752286,4.275810427782012,1.0457852991615857,10.627002250857467,1.811329911394816,2.0230921303353657,15.353505204363568,6.860500428734756,-8.062223108803353,-28.47170806623932,-9.918379540598291,-2.329555745180745,-6.867884219146238,-0.0916485857892106,-2.631337337542265,27.18204690448378,34.634049180818884,41.31928594962112,1577399613.0,-27.686325475200608,-51.125188382755,7.2720456
60789,1577399613.29,0.3601521643661869,0.2218432221203307,7.89295293400462,2.6113148741187118,-1.516405578315548,8.972650289991424,-3.4421612453553734,-11.267404988507526,3.246537451171875,4.641090951314788,5.221855349657012,2.4495938929115857,-2.1140866163300305,12.782399247332316,4.037252286585366,8.380238602801068,16.198879334984756,11.560579625571648,-29.61762820512821,-9.816128205128203,-2.1041148666148723,-3.2725932921245406,-3.299349088411588,-1.6726212489433638,27.206008326594183,34.70593344715009,41.31928594962111,1577399613.0,-27.686325475200608,-51.125188382755,7.2720456
60790,1577399613.3,0.5121839697861084,-1.1787647490710744,8.787187254072979,0.8204520323218366,0.8059700320360133,11.745135812452364,-4.246613003167873,-14.585768489484089,13.558364001464843,-0.8368143221227134,4.642021365282012,0.1912931116615854,1.2733645555449695,1.3383074504573171,3.3353479897103657,-1.0191754596989329,3.412014100609756,-10.412076624428352,-28.824298878205127,-9.509374198717948,-3.231319259444269,-3.2725932921245406,1.832971715784216,-3.4425586432797965,27.229969748704587,34.61008775870848,41.31928594962111,1577399613.0,-27.686325475200608,-51.125188382755,7.2720456
60791,1577399613.31,0.5457027930282958,-1.147640127489043,1.5088142071979798,1.0335359800757429,0.458810791313357,11.225594052198458,13.235847519293063,38.754650297137,14.161702819824216,11.400734506002289,7.724296755907012,3.7618497522865857,2.707690727419969,6.556813309832317,1.4432581459603655,4.107777665301067,-4.858249571265244,10.584017125571648,-28.824298878205127,-9.509374198717948,-3.231319259444269,-3.2725932921245406,1.832971715784216,-3.4425586432797965,27.3258154371462,34.753856291370894,41.07967172851709,1577399613.0,-27.686325475200608,-51.125188382755,7.2720456
60792,1577399613.32,-2.346492812440453,8.199323153760956,14.224419224287823,-0.6400109803734749,2.5609198489305447,10.76590733344846,-1.4262434475038102,-6.766305867413776,3.1962592163085937,11.858498177877289,-5.794990353467988,1.6256192835365857,-1.2290768507050305,10.188405106707316,2.1451624428353657,8.563344071551068,15.435939881859756,20.685335484946645,-29.52948050213675,-9.509374198717948,-2.329555745180745,-3.2725932921245406,1.832971715784216,-1.0826421174978862,27.18204690448378,34.94554766825411,41.41513163806272,1577399613.0,-27.686325475200608,-51.125188382755,7.2720456
60793,1577399613.33,1.08559526739353,2.212621902540253,8.009071714522198,1.2250721128882431,0.6850628481981231,9.874067215040254,-0.4027222377870147,3.015205015154583,9.58997474975586,15.368019662252289,-7.870185665967988,1.0610440882240857,3.882617485232469,6.266896317644817,0.9702356850228656,1.7426653606135671,5.349880311547256,-9.191373499428352,-30.058366720085463,-10.327384882478633,-2.329555745180745,-6.55971642540152,0.549891514735265,-2.4100951632502112,27.206008326594183,34.70593344715009,41.463054482283525,1577399613.0,-27.686325475200608,-51.125188382755,7.2720456
60794,1577399613.34,-0.9219428246474844,-1.2290429839343555,6.687472398115948,-2.031042144924256,-0.3360641598585169,4.885748056104705,-1.9840924343202164,2.40348649098466,6.382941625976562,-6.299460806497714,8.304130740282012,1.1373380335365857,4.111499321169969,-5.863840987042683,3.5794886147103657,5.297963212176067,7.776027772484756,10.461946813071648,-29.52948050213675,-9.509374198717948,-2.329555745180745,-9.8468395586785,-2.5661604020979016,-3.4425586432797965,27.18204690448378,34.753856291370894,41.463054482283525,1577399613.0,-27.686325475200608,-51.125188382755,7.2720456
60795,1577399613.35,-0.5149285424209219,1.7541322846203309,15.54123013737376,-0.2377851014672249,4.6702115115282,16.816054928663302,-1.9577562160584976,-6.215639485577839,14.305354919433594,-8.496726431497713,-0.3628614472179878,1.7476895960365857,4.813403618044969,-12.608225752667684,4.037252286585366,2.124135087176067,0.055080506859756,-2.263883265053354,-29.52948050213675,-9.509374198717948,-2.329555745180745,-9.8468395586785,-4.032537774725275,-3.147569077557058,27.18204690448378,34.94554766825411,41.31928594962111,1577399613.0,-27.686325475200608,-51.125188382755,7.2720456
60796,1577399613.36,-0.7950501366592035,1.2824745575695502,10.326658921553449,-0.4963588807640999,1.1243988528367943,13.198416220167209,-0.5595424465272477,16.02888813893388,14.731522814941403,5.938088021627287,-2.193916134717988,0.6032804163490856,7.254809868044969,14.186207841082316,-1.9441930259146345,-4.589732100323933,-4.339450743140244,5.396028844321647,-29.52948050213675,-10.736390224358974,-2.4798496642246657,-6.148826033741899,-4.032537774725275,-4.032537774725275,27.206008326594183,34.61008775870848,41.27136310540031,1577399613.0,-27.686325475200608,-51.125188382755,7.2720456
60797,1577399613.37,-2.3033971825576405,3.647945797803924,10.719307993819072,-4.352220654445741,2.356215606987185,10.750345022657442,4.987822800054782,-5.627862978009479,10.921150872802734,14.269386849752289,15.719902224657012,4.738412252286586,1.9447512742949693,-4.566843916730184,3.1064661537728657,2.734486649676067,-12.106174375952744,2.4205649771341475,-29.17688969017094,-11.96340625,-2.329555745180745,-2.450812508805297,0.0,-1.0826421174978862,27.229969748704587,34.70593344715009,41.51097732650433,1577399613.0,-27.686325475200608,-51.125188382755,7.2720456
60798,1577399613.38,-0.0576360253310781,0.5977328827648619,9.998653294112042,0.0950089292944928,-0.9417971798780482,9.4610674286633,-3.96170300560928,17.35048745534013,6.040570788574218,-8.283103384622713,0.1864549590320121,0.8321622522865855,4.630298149294969,14.582936356707316,-1.5474645102896345,7.434193680926067,-13.006442930640244,15.100618688071648,-29.17688969017094,-8.282358173076922,-1.1272043928293995,10.081344436813186,2.016268887362638,-3.8850429918639056,27.18204690448378,34.70593344715009,41.41513163806272,1577399613.0,-27.686325475200608,-51.125188382755,7.2720456
60799,1577399613.39,1.726044211485327,-3.628033047410918,4.683525608565167,0.5953970762671491,-3.728647912299924,0.8563066620617369,1.442010141363376,-18.351847700909868,4.649539624023437,7.402931771627286,-6.893623165967988,2.2970060022865857,-2.0225338819550305,4.878346512957317,1.8705042397103653,-3.948862959698933,-0.6163062118902439,2.039095250571646,-29.17688969017094,-8.282358173076922,-1.1272043928293995,-7.176052012890954,-0.1832971715784212,1.1297796254226546,27.229969748704587,34.70593344715009,41.55890017072513,1577399613.0,-27.686325475200608,-51.125188382755,7.2720456
60800,1577399613.4,0.8844823279404062,4.801950997999237,11.654243742110088,-1.0877266908226937,4.447550757133669,15.47051359565549,11.708346860113377,5.274134281512005,8.51617530517578,5.220924935689787,0.6289598418445123,0.6185392054115856,3.6232180711699695,-12.089426924542684,5.715719083460366,-1.6600446003239329,-2.233737852515244,-15.416959436928352,-28.207264957264957,-10.020630876068374,-1.953820947570952,-7.176052012890954,-0.1832971715784212,1.1297796254226546,27.15808548237338,34.61008775870848,41.463054482283525,1577399613.0,-27.686325475200608,-51.125188382755,7.2720456
60801,1577399613.41,0.2943116187118895,2.5490072357922053,2.8208367169636044,2.1145180296362893,2.681827032768436,9.516134066846892,0.6267844760801735,-1.19739280589034,14.261062188720702,23.150002084127287,-4.024970822217988,1.6866544397865857,2.448291313357469,5.900685380144816,0.2988489662728657,3.405873368426068,-0.2806128525152438,2.5121177115091475,-29.88207131410256,-10.736390224358974,-2.930731421356421,-1.0126961379966188,-0.5498915147352641,-1.3776316832206257,27.038278371821367,34.7778177134813,41.31928594962111,1577399613.0,-27.686325475200608,-51.125188382755,7.2720456
60802,1577399613.42,-2.262695754334984,-0.0415189604968558,12.136675376631572,-5.734872113185976,-3.4054306881788303,7.265584506300018,-0.6553105129334977,7.416944767351848,11.949460485839843,-3.2782205721227133,12.942802615282012,-0.8768221227134145,9.726733696169967,-2.812083174542683,1.2906702553353655,0.6287737590510671,-24.511569883765244,-12.121060999428352,-29.52948050213675,-9.918379540598291,-1.4277922309172344,10.69768002430262,1.832971715784216,-3.4425586432797965,27.229969748704587,34.89762482403331,41.41513163806272,1577399613.0,-27.686325475200608,-51.125188382755,7.2720456
60803,1577399613.43,-0.1917113182998282,-3.695070693895293,6.455234837080792,-2.4117202088891,-2.0598893551710167,6.667034091260956,4.456310031500095,22.720681779070595,13.836091394042969,-8.801902212747713,17.489921755907012,4.219613424161586,7.315845024294969,4.084889481707317,0.0089319740853658,5.023305009051067,-28.753513243140244,18.335481969321645,-29.52948050213675,-9.918379540598291,-1.4277922309172344,10.69768002430262,1.832971715784216,-3.4425586432797965,27.229969748704587,34.753856291370894,41.31928594962111,1577399613.0,-27.686325475200608,-51.125188382755,7.2720456
60804,1577399613.44,0.1434769141220463,3.547389328077362,10.526574760176494,-2.027450842434023,3.356991900932498,11.89357631538205,-1.129362441644436,-12.032352418927449,8.77834038696289,2.840553841939786,-5.871284298780488,0.7100919397865856,-2.709179389767531,-8.625681807355182,2.7097376381478657,-10.998423506573932,-8.245700743140244,2.847811070884146,-28.47170806623932,-10.12288221153846,-0.8266165547415584,-3.1698706942096355,-0.0916485857892104,-20.920690412352076,27.206008326594183,34.7778177134813,41.39117021595232,1577399613.0,-27.686325475200608,-51.125188382755,7.2720456
60805,1577399613.45,-1.3457165184951403,9.44191381538205,11.957110252119854,-8.725229986721132,8.242360388481325,11.481773629835178,6.409978586187594,15.104726298113569,7.888894470214844,22.570168099752287,-8.999336056592988,2.4495938929115857,3.012866508669969,5.519215653582317,-2.7071324790396343,5.236928055926067,8.447414491234756,-7.940152796303353,-29.17688969017094,-8.691363514957265,-2.630143583268586,-9.8468395586785,-1.832971715784216,-40.02126479289941,26.84658699493815,34.70593344715009,41.60682301494594,1577399613.0,-27.686325475200608,-51.125188382755,7.2720456
60806,1577399613.46,-2.066371218202172,1.203465902784393,10.733673203780013,7.438025420993711,-6.407759570014767,3.0829142060070494,6.283085898199313,-1.9443837238590889,14.188039038085936,-4.285300650247714,-2.682197384717988,-0.6326814977134145,4.386157524294969,6.923024247332317,0.4361780678353658,8.868519852801068,8.661037538109756,-6.749967249428353,-29.70577590811965,-10.531887553418803,-1.578086149961158,-9.435949167018876,2.566160402097902,-34.71145260989011,27.229969748704587,34.70593344715009,41.41513163806272,1577399613.0,-27.686325475200608,-51.125188382755,7.2720456
60807,1577399613.47,2.276710593321265,-3.771685147020293,6.103287193037823,-3.065337262111757,-6.568171081245236,7.11714400337033,-4.1628159450624045,8.690660050554973,2.0973206542968748,-6.558860220560215,8.548271365282012,1.7476895960365857,-2.2971920850800305,-13.249094893292684,0.1004847084603658,4.931752274676067,16.687160584984756,5.640169469321647,-28.912446581196576,-10.634138888888888,-1.8035270285270344,-9.230503971189066,4.949023632617384,-36.92387435281065,27.18204690448378,34.70593344715009,41.12759457273789,1577399613.0,-27.686325475200608,-51.125188382755,7.2720456
60808,1577399613.48,0.3421956519150145,-0.0415189604968558,8.94041616032298,2.4688598753394144,3.779568493950076,6.857373123243378,1.886134549322361,-4.40801723215987,9.928754284667969,-5.506003775247714,0.0338670684070121,-1.0294100133384143,0.144214164919969,0.1786394817073171,-2.0967809165396343,3.665272782488568,19.64736566310976,2.267977086509146,-29.70577590811965,-7.66885016025641,-1.578086149961158,-11.079510733657369,0.9164858578921082,-35.74391608991969,27.08620121604217,34.753856291370894,41.29532452751072,1577399613.0,-27.686325475200608,-51.125188382755,7.2720456
60809,1577399613.49,2.1354526953720456,5.769208468702362,8.267645493819073,1.9002369810523048,5.6278921755907,7.976662399366424,3.146681723394626,2.4944661540705986,9.093177905273436,13.109718881002289,-20.443427853467988,-0.8157869664634145,-7.057934272580031,-0.3706769245426829,-0.8760777915396342,9.723012040301068,15.649562928734756,-9.527066858803352,-29.17688969017094,-8.282358173076922,-2.630143583268586,-16.421085825232456,-1.099783029470529,-1.3776316832206257,27.08620121604217,34.70593344715009,41.463054482283525,1577399613.0,-27.686325475200608,-51.125188382755,7.2720456
60810,1577399613.5,0.3421956519150145,7.569648117139862,14.236390232588604,-1.6814887025414436,3.4395918582078884,8.934343063428924,5.706083298101657,5.278922684832317,8.147468249511718,14.055763802877289,-18.459785275342988,-4.844107278963414,0.4188723680449695,-10.502512862042684,3.7320765053353657,2.002064774676067,7.684475038109756,-5.925992640053353,-30.587252938034187,-9.509374198717948,-2.329555745180745,-9.641394362848688,-3.48264625999001,-3.2950638604184275,27.18204690448378,34.61008775870848,41.27136310540031,1577399613.0,-27.686325475200608,-51.125188382755,7.2720456
60811,1577399613.51,1.1059459815048591,-0.9884257170886532,5.92013076603587,-1.097303497463319,-0.7550494503858607,6.717312326124237,1.6407288791563448,6.337159818621379,4.218583325195312,-2.469504751810214,7.586967654344512,1.0152677210365857,2.799243461794969,4.054371903582317,-1.9136754477896345,0.2930803996760671,6.768947694359756,2.863069859946646,-29.70577590811965,-8.895866185897436,-2.4798496642246657,-6.354271229571711,-3.849240603146853,-3.2950638604184275,27.206008326594183,34.94554766825411,41.31928594962111,1577399613.0,-27.686325475200608,-51.125188382755,7.2720456
60812,1577399613.52,0.356560861875952,-0.0965855986804495,14.74396098454173,1.7146863523901958,-1.214736169135861,8.480641848829316,-0.5403888332459985,-0.4934975178044014,7.908048083496094,-14.966452993997711,8.182060427782012,-1.3651033727134143,-2.053051460080031,-1.7744855182926829,0.3446253334603658,1.4069720012385676,3.457790467797256,-3.4388100228658534,-29.88207131410256,-9.100368856837608,-1.7283800690050757,-7.2787746108058595,-3.5742948457792205,-1.893863423235418,27.229969748704587,34.753856291370894,41.36720879384191,1577399613.0,-27.686325475200608,-51.125188382755,7.2720456
60813,1577399613.53,-0.2587489647842032,-0.158834841844512,10.755221018721416,1.6057501768530864,0.6455585208055445,13.610218905714085,3.8410002048399385,15.846928812762004,15.193603735351562,-16.431296743997713,1.681816287157012,2.9378751429115857,-8.095531928830031,-1.9270734089176829,-1.1812535727896345,4.504506180926067,22.02773675685976,11.652132359946648,-29.17688969017094,-10.327384882478633,-2.329555745180745,-6.55971642540152,-3.299349088411588,-0.4926629860524088,27.421661125587804,34.70593344715009,41.31928594962111,1577399613.0,-27.686325475200608,-51.125188382755,7.2720456
60814,1577399613.54,0.452328928282202,5.089255197217987,10.716913792158916,-1.5258655946312871,7.334957959282106,13.98371436469846,1.8131113986875949,-13.721461690167684,10.644620581054689,5.327736459127286,-1.553046994092988,-0.3580232945884145,-6.630688178830031,2.070729325457317,-0.3267613852896341,-4.467661787823933,14.825588319359756,6.097933141196647,-30.058366720085463,-8.077855502136753,-2.780437502312504,-8.203277992040011,-4.032537774725275,-0.4926629860524088,27.229969748704587,34.8017791355917,41.22344026117951,1577399613.0,-27.686325475200608,-51.125188382755,7.2720456
60815,1577399613.55,-1.2762846703506092,2.256914633253143,11.57643218815501,-0.5250893006859749,-0.5060524777296107,11.421918588331271,-1.4477912624452165,-0.3378744098942452,11.67652149658203,-2.3016580721227133,-1.705634884717988,-0.5106111852134145,0.5714602586699695,4.084889481707317,0.3141077553353658,-17.742808272198932,11.773830506859756,-14.318326624428352,-30.23466212606837,-9.509374198717948,-1.7283800690050757,-8.203277992040011,-4.032537774725275,-0.4926629860524088,27.421661125587804,34.61008775870848,41.22344026117951,1577399613.0,-27.686325475200608,-51.125188382755,7.2720456
60816,1577399613.56,0.7168882117294683,-0.0929942961902156,9.736488212324932,1.6320863951148052,-0.6269596615675019,5.497466580274628,0.6615004001524393,1.1620929301936451,11.3772462890625,-6.040061392435214,0.2932664824695121,-0.7700105992759145,-2.8770260694550305,2.9404803020198167,1.7789515053353655,4.473988602801068,14.535671327172256,2.008577672446646,-29.265037393162388,-9.611625534188034,-1.953820947570952,-8.20327799204001,-2.749457573676324,-1.0826421174978864,27.206008326594183,34.63404918081888,41.29532452751072,1577399613.0,-27.686325475200608,-51.125188382755,7.2720456
60817,1577399613.57,1.0963691748642332,1.7637090912609557,7.0873040753620415,0.9928345518530866,4.210524792778201,6.130732919385956,-0.1573165676209977,-0.2852019733708077,4.010287780761718,-4.437888540872714,5.374443240282012,1.1068204554115857,-5.013256538205031,-6.931956221417683,-3.3785191977896343,-3.216441084698933,3.595119569359756,-8.581021936928353,-30.23466212606837,-8.282358173076922,-2.0289679070929103,-9.8468395586785,-3.665943431568431,-4.032537774725275,27.229969748704587,34.94554766825411,41.41513163806272,1577399613.0,-27.686325475200608,-51.125188382755,7.2720456
60818,1577399613.58,0.1243233008407958,2.71181294868283,7.72655591862376,-4.123574395900819,5.077225793754764,10.169751120069552,-2.788544192132717,15.145427726336225,12.126631408691406,3.954445443502287,-8.450019650342988,-1.3956209508384143,-8.583813178830031,1.0026140910823171,3.3963831459603657,-3.796275069073933,-3.301853086890244,9.088655797446648,-29.70577590811965,-8.895866185897434,-1.8786739880489929,-9.8468395586785,-3.665943431568431,-3.737548209002536,27.08620121604217,34.753856291370894,41.22344026117951,1577399613.0,-27.686325475200608,-51.125188382755,7.2720456
60819,1577399613.59,-1.7000583641982654,1.835535141065643,8.641140952803449,-2.7612736512719134,1.0693322146532007,3.607244369581268,3.3286410495665013,-9.203603157452838,10.40041201171875,-3.4460672518102133,4.977714724657012,1.2594083460365857,5.210132133669969,5.641285966082317,-2.5240270102896343,-18.26160710032393,-8.978122618140244,1.1846030630716462,-29.17688969017094,-9.509374198717948,-1.7283800690050757,-6.55971642540152,-4.032537774725275,0.6872952768385466,27.27789259292539,34.61008775870848,41.41513163806272,1577399613.0,-27.686325475200608,-51.125188382755,7.2720456
60820,1577399613.6,-0.6106966088271719,-0.9800460112781056,10.657058750655011,-2.1711029420433974,-1.8683532223585175,14.11539545600705,-0.0447890895936544,1.4924927592952069,10.302249743652345,-13.806785025247711,9.433281130907012,1.8087247522865848,-2.815990913205031,-14.027293135480182,2.4655970131478657,-4.452402998761433,-8.459323790015244,5.746980992759148,-30.23466212606837,-8.691363514957265,-2.329555745180745,-6.35427122957171,-2.5661604020979016,0.3923057111158073,27.08620121604217,34.8257405577021,41.34324737173152,1577399613.0,-27.686325475200608,-51.125188382755,7.2720456
60821,1577399613.61,-2.1525624779677965,3.839481930616424,13.230825535322978,-4.068507757717226,-0.6544929806592982,9.781890451124235,-2.766996377191311,-13.520348750714556,8.671798413085938,-8.161033072122713,-4.604804806592988,0.5575040491615855,-0.4051022413300305,3.840748856707317,0.4666956459603658,-12.707407881573932,6.097560975609756,-1.7450844369283538,-29.00059428418804,-10.940892895299145,-1.578086149961158,-5.327045250422654,0.3665943431568428,1.2772744082840235,27.18204690448378,34.70593344715009,41.463054482283525,1577399613.0,-27.686325475200608,-51.125188382755,7.2720456
60822,1577399613.62,-0.8525109765029532,-0.3048811431140433,10.98985278141673,-3.446015326076601,-0.9058841549757044,4.912084274366425,-0.2626614406678727,5.037108317156536,7.402871533203124,-8.740867056497713,-3.292548947217988,0.8016446741615855,-5.593090522580031,-0.9505109089176828,0.5887659584603658,-2.178843428448933,2.465969178734756,-8.031705530678353,-29.70577590811965,-8.895866185897434,-2.479849664224669,-9.025058775359255,-3.299349088411588,-3.4425586432797965,27.038278371821367,34.61008775870848,41.27136310540031,1577399613.0,-27.686325475200608,-51.125188382755,7.2720456
60823,1577399613.63,1.503383457090796,2.825537527540253,10.13392568791087,-0.6160689637719123,6.384459900200076,9.616690536573456,2.28237492407822,11.254850028582316,7.673416320800781,2.977882943502286,-9.777534298780488,0.9237149866615856,-2.9380612257050305,-11.204417158917684,2.5418909584603657,5.511586259051067,7.379299256859756,7.013460484946647,-29.17688969017094,-9.509374198717948,-3.231319259444269,-7.792387600380388,-3.299349088411588,1.2772744082840235,27.229969748704587,34.70593344715009,41.55890017072513,1577399613.0,-27.686325475200608,-51.125188382755,7.2720456
60824,1577399613.64,1.1466474097275146,1.5817497650890806,8.94041616032298,1.5877936644019146,-0.4749278561475799,7.87850013130002,-1.3699797084901393,-1.3242854938786202,9.396044415283203,-0.7452615877477134,-3.719795040967988,0.8626798304115855,-0.8933834913300305,0.7432146770198171,1.0312708412728655,-3.475840498761433,2.816921327172256,0.7726157583841462,-29.17688969017094,-9.509374198717948,-3.231319259444269,3.4043755723443225,-0.4582429289460539,1.6460113654374475,27.18204690448378,34.65801060292928,41.43909306017312,1577399613.0,-27.686325475200608,-51.125188382755,7.2720456
60825,1577399613.65,1.026937326719702,-4.18827623588748,6.742539036299542,-1.839506012111756,1.617604394828982,8.500992562940644,-0.3201222805116227,-3.87171606028487,12.797007873535156,-13.074363150247711,3.695976443407013,1.8392423304115848,2.280444633669969,-8.061106612042684,1.4432581459603655,-4.528696944073933,-9.863132383765244,1.2456382193216462,-30.93984375,-9.918379540598291,-1.7283800690050757,-1.629031725486053,2.1995660589410586,3.0472118026204567,27.229969748704587,34.753856291370894,41.31928594962111,1577399613.0,-27.686325475200608,-51.125188382755,7.2720456
60826,1577399613.66,-2.0951016381240466,2.9967229462414244,13.731213682295635,0.7653853941382428,0.5162716311571071,11.941460348585178,-0.6122148830506852,0.75627574879716,12.3732341796875,-5.475486197122714,4.184257693407012,1.4119962366615857,-0.8628659132050305,-2.598460127667683,-0.1741734946646341,-18.62781803782393,-17.248386290015244,3.992220250571646,-30.058366720085463,-9.304871527777776,-1.8786739880489929,-1.629031725486053,2.1995660589410586,3.0472118026204567,27.229969748704587,34.8017791355917,41.27136310540031,1577399613.0,-27.686325475200608,-51.125188382755,7.2720456
60827,1577399613.67,-0.7818820275283442,1.5542164459972836,11.497423533369854,-0.0199127503930072,2.0904592227098413,10.276293093946506,-0.7810061000917008,3.343210642595989,7.224503509521484,-3.858054556497713,-2.712714962842988,1.4730313929115857,-3.075390327267531,-1.2709454792301833,1.3974817787728655,-4.406626631573932,-10.809177305640244,3.198763219321646,-29.70577590811965,-8.895866185897434,-1.578086149961158,-7.586942404550577,2.0162688873626373,-39.431285661453934,27.3497768592566,34.65801060292928,41.36720879384192,1577399613.0,-27.686325475200608,-51.125188382755,7.2720456
60828,1577399613.68,-0.1222794701552969,4.160304953077362,11.083226646162824,1.4333676573218364,1.4045204470750758,12.269465976026584,-1.433426052484279,-1.3386507038395576,6.60799658203125,-9.076560415872711,-8.205879025342988,-1.8839022008384143,-3.823070991330032,2.223317216082317,-2.4935094321646343,1.4832659465510671,17.999416444359756,1.5202964224466462,-29.70577590811965,-8.895866185897434,-1.578086149961158,-9.641394362848688,2.016268887362638,-39.28379087859256,27.229969748704587,34.8017791355917,41.27136310540031,1577399613.0,-27.686325475200608,-51.125188382755,7.2720456
60829,1577399613.69,1.9343397559189208,-3.1707405303210745,11.504606138350322,3.305633355564024,-0.4749278561475794,7.892865341260956,1.6934013156797822,-3.2540120319645576,12.758700646972656,-5.872214712747714,-1.339423947217988,1.2594083460365857,-0.5882077100800305,1.7655535442073171,1.3211878334603655,2.642933915301067,20.89858636623476,-3.148893030678354,-29.353185096153844,-9.304871527777776,-3.682201016576021,-9.230503971189066,2.382863230519481,-33.973978695583256,27.517506814029414,34.753856291370894,41.31928594962111,1577399613.0,-27.686325475200608,-51.125188382755,7.2720456
60830,1577399613.7,2.061232443907202,2.8339172333508,9.372569559981182,0.5499072447241804,3.434803454887576,11.072365145948458,-0.8276930324647477,0.076322477312785,10.060435375976562,2.138649545064786,-2.773750119092988,0.1302579554115857,-1.4732174757050305,-4.154856612042683,2.2061975990853657,3.558461259051067,13.330226991234756,-5.834439905678353,-29.970219017094017,-10.225133547008546,-2.404702704702707,-14.57207906276416,2.749457573676324,-36.03890565564243,27.27789259292539,34.94554766825411,41.27136310540031,1577399613.0,-27.686325475200608,-51.125188382755,7.2720456
60831,1577399613.71,0.0860160742782958,1.5027411103039243,13.091961839033916,3.245778314060117,1.0597554080125755,10.756330526807831,2.2129430759336883,5.041896720476848,17.535132958984374,-2.7899393221227133,-2.621162228467988,-0.6631990758384145,0.2968020555449695,4.542653153582317,-1.5169469321646345,1.7274065715510671,0.4212914443597561,-3.942350061928354,-30.41095753205128,-10.122882211538462,-1.8786739880489929,-11.490401125316987,2.566160402097902,-36.48139000422654,27.373738281367,34.89762482403331,41.31928594962111,1577399613.0,-27.686325475200608,-51.125188382755,7.2720456
60832,1577399613.72,-0.2324127465224844,-2.287280117723418,7.980341294600323,1.0718432066382428,-1.2626202023389856,11.25671867378049,2.85698332251572,1.359614567156535,7.967903124999999,-5.994285025247714,11.813652224657012,1.8392423304115848,-1.8699459913300305,3.321950028582317,-0.4488316977896341,-9.838755537823932,3.381496522484756,-2.477506311928354,-29.70577590811965,-10.122882211538462,-2.479849664224669,-15.599305041913214,-2.5661604020979016,-1.0826421174978862,27.18204690448378,34.70593344715009,41.60682301494594,1577399613.0,-27.686325475200608,-51.125188382755,7.2720456
60833,1577399613.73,-0.300647493836938,-0.532330300828887,8.641140952803449,1.3687242124976176,-1.390709991157346,11.049620230176972,-0.7881887050721704,7.659956235857708,10.192116467285157,-11.334861197122711,7.388603396532012,-0.5106111852134144,-5.562572944455031,-2.796824385480183,-0.0368443931021342,1.2849016887385671,9.805446717797256,7.867952672446647,-29.52948050213675,-10.122882211538462,-1.7283800690050724,-11.28495592948718,-3.48264625999001,-3.000074294695689,27.253931170814987,34.70593344715009,41.34324737173152,1577399613.0,-27.686325475200608,-51.125188382755,7.2720456
60834,1577399613.74,-1.475003408143578,3.398948825147674,8.255674485518291,-3.8147223817406632,3.5186005129930447,9.542470285108612,3.618339450445408,-24.990968904523157,13.302184423828123,3.679787240377287,0.979911990282012,2.4801114710365857,-0.8933834913300305,-0.7368878620426829,0.6192835365853658,-26.65394108469893,-2.081149961890244,-8.916715296303353,-29.88207131410256,-9.509374198717948,-2.0289679070929103,-9.641394362848688,-3.1160519168331664,-3.5900534261411665,27.229969748704587,34.8017791355917,41.31928594962111,1577399613.0,-27.686325475200608,-51.125188382755,7.2720456
60835,1577399613.75,-1.4869744164443592,1.972004635694549,14.420743760420637,-2.4356622254906624,3.109192029106325,14.11060705268674,2.4786994602110326,10.912479191179973,2.916137622070312,-4.285300650247714,-14.553535275342988,-3.8980623570884143,-3.3958248975800305,-1.4387921589176829,1.6873987709603655,-3.491099287823933,-5.346530821265244,-13.707975061928352,-29.88207131410256,-9.509374198717948,-2.0289679070929103,-6.55971642540152,1.832971715784216,-4.032537774725275,27.3258154371462,34.8017791355917,41.27136310540031,1577399613.0,-27.686325475200608,-51.125188382755,7.2720456
60836,1577399613.76,1.9415223608993892,0.8060284271984556,10.482282029463605,2.351543993991758,1.7229492678758571,5.781179477003144,-0.7247423610780299,1.828878092547161,10.236409197998046,6.578957162252286,-12.386787228467988,0.9847501429115856,-3.594189155392531,3.398243973894817,-1.0134068931021345,0.4151507121760671,11.407619569359756,3.580232945884146,-29.70577590811965,-9.304871527777776,-2.179261826136828,-9.025058775359255,-1.0997830294705293,-2.85257951183432,27.18204690448378,34.753856291370894,41.1994788390691,1577399613.0,-27.686325475200608,-51.125188382755,7.2720456
60837,1577399613.77,1.255583585264624,-0.4988114775867,9.978302580000712,0.3655537168921491,-2.981656994331174,8.165804330518768,-2.3767415065858413,3.104987577410442,3.349488122558593,-5.795920767435213,8.960258669969512,0.6490567835365856,-1.2901120069550305,-7.389719893292683,3.5184534584603657,3.527943680926067,8.935695741234756,-13.280728968178352,-29.08874198717948,-9.611625534188036,-1.653233109483117,-6.55971642540152,-3.665943431568431,-1.6726212489433638,27.3497768592566,34.753856291370894,41.463054482283525,1577399613.0,-27.686325475200608,-51.125188382755,7.2720456
60838,1577399613.78,2.015742612364233,-1.9640628936023243,5.468823753096417,1.2226779112280866,3.688588830864138,8.223265170362518,7.94466185034775,17.175710734148723,14.520833068847656,-2.1490701814977133,-2.071845822217988,-0.7242342320884145,-2.8159909132050305,9.730641434832316,-3.4395543540396343,2.398793290301067,-0.2500952743902439,7.684847203696647,-30.587252938034187,-9.100368856837608,-1.7283800690050757,-6.55971642540152,-3.665943431568431,-1.6726212489433638,27.18204690448378,34.8017791355917,41.22344026117951,1577399613.0,-27.686325475200608,-51.125188382755,7.2720456
60839,1577399613.79,-0.0241172020888906,3.726954452589081,12.060060923506573,0.9545273252905866,2.553737243950076,5.599220150831268,0.7429032565977512,-10.520414070538775,17.51119094238281,15.520607552877289,-4.421699337842988,-0.5106111852134145,-7.088451850705031,4.878346512957317,3.2743128334603657,-5.474741865948933,-24.847263243140244,-3.148893030678354,-30.587252938034187,-9.100368856837608,-1.7283800690050757,-6.55971642540152,-0.3665943431568428,-1.3776316832206257,27.229969748704587,34.70593344715009,41.463054482283525,1577399613.0,-27.686325475200608,-51.125188382755,7.2720456
60840,1577399613.8,-2.5811245751357657,4.845046627882049,14.030488889815166,-0.1719445558129285,1.1411582644578884,13.53001315009885,-1.8763533596131852,5.399829868670207,4.85184966430664,-6.238425650247714,1.651298709032012,1.4425138147865857,-0.9544186475800308,-3.346140791730183,0.4972132240853657,-8.206065108136432,-24.694675352515247,5.548616734946647,-30.23466212606837,-9.509374198717948,-1.4277922309172344,-11.6958463211468,-3.849240603146853,-2.2626003803888417,27.038278371821367,34.70593344715009,41.29532452751072,1577399613.0,-27.686325475200608,-51.125188382755,7.2720456
60841,1577399613.81,-1.2080499230361568,-1.1057415984363088,8.533401878096416,-1.1116687074242562,-1.4397911251905482,9.506557260206268,9.019658395757906,-16.185095198468463,12.313379138183594,-6.497825064310212,4.901420779344512,1.2594083460365857,1.1818118211699695,-3.819163252667683,1.2906702553353655,-10.388071944073932,-9.039157774390244,12.018343297446648,-30.14651442307692,-10.634138888888888,-1.953820947570952,-9.8468395586785,-2.5661604020979016,-2.2626003803888417,27.229969748704587,34.753856291370894,41.41513163806272,1577399613.0,-27.686325475200608,-51.125188382755,7.2720456
60842,1577399613.82,-2.049611806581078,5.699776620557831,8.813523472334698,-4.805921869045351,3.645493200981326,16.253417538526584,3.364554074468845,11.216542802019816,9.03332286376953,0.2313009122522865,1.163017459032012,1.8392423304115848,-4.952221381955031,-13.981516768292684,3.3353479897103657,-2.789194990948933,-9.985202696265244,-2.233365686928354,-28.824298878205127,-11.145395566239314,-1.7283800690050757,-9.8468395586785,-2.5661604020979016,-2.2626003803888417,27.3258154371462,34.753856291370894,41.41513163806272,1577399613.0,-27.686325475200608,-51.125188382755,7.2720456
60843,1577399613.83,0.0285552344345458,-0.8220287017077932,10.269198081709698,0.5546956480444929,2.153905566703982,11.836115475538303,0.3909556125547824,10.342659196062783,9.26316622314453,-6.543601431497714,-20.290839962842988,-1.3040682164634143,0.1747317430449695,9.059254716082316,-2.8902379477896343,9.753529618426068,8.203273866234756,3.748079625571646,-28.824298878205127,-11.145395566239314,-1.7283800690050757,-6.55971642540152,-2.9327547452547447,-3.4425586432797965,27.18204690448378,34.70593344715009,41.55890017072513,1577399613.0,-27.686325475200608,-51.125188382755,7.2720456
60844,1577399613.84,0.7073114050888432,1.8798278717785344,7.85464570744212,2.770529284519102,1.0142655764696076,10.114684481885956,2.3146966464903294,-5.335770375470417,11.966219897460936,8.394753060689787,-5.459296994092988,1.5035489710365857,-1.9614987257050305,-6.352122237042684,2.9538782631478657,-2.636607100323933,-3.149265196265244,-6.0938393197408525,-30.85169604700854,-11.247646901709402,-1.6532331094831136,1.966259201535644,-3.390997674200799,-1.156389508928571,27.15808548237338,34.8497019798125,41.41513163806272,1577399613.0,-27.686325475200608,-51.125188382755,7.2720456
60845,1577399613.85,0.6654128760361083,1.723007663038299,14.217236619307354,2.5658250425757427,3.8059047122117935,14.37157503364377,-2.470115371331936,16.69208199879716,9.758765966796874,-7.794822134622714,-15.408027462842988,-0.8157869664634145,-1.5342526319550305,4.145924637957317,-2.8902379477896343,10.669056962176068,-6.292575743140244,7.501741734946647,-30.76354834401709,-9.71387686965812,-1.8786739880489929,-5.7379356420822765,2.566160402097902,1.5722639740067632,27.3258154371462,34.61008775870848,41.55890017072513,1577399613.0,-27.686325475200608,-51.125188382755,7.2720456
60846,1577399613.86,-0.3305750145888907,0.0662201142101744,10.585232700850325,2.9105900816382424,-3.920184045112424,9.238406674268768,-5.338368960199124,-16.987152754620805,6.500257507324219,-2.6983865877477133,-0.6680372284679879,3.7923673304115857,0.7240481492949695,-1.6524152057926829,1.3211878334603655,-6.420786787823933,12.170559022484756,11.896272984946648,-29.88207131410256,-10.327384882478633,-2.930731421356421,-5.7379356420822765,2.566160402097902,1.5722639740067632,27.229969748704587,34.61008775870848,41.55890017072513,1577399613.0,-27.686325475200608,-51.125188382755,7.2720456
60847,1577399613.87,-2.260301552674828,2.285645053175018,9.634734641768294,-1.8083813905297248,2.5824676638719506,11.764289425733615,2.572073324957126,0.62220045582841,6.833051538085937,-0.5011209627477134,15.567314334032012,1.7476895960365857,2.738208305544969,-12.394602705792684,3.0912073647103657,-3.002818037823933,6.097560975609756,-4.766324671303353,-29.88207131410256,-10.327384882478633,-2.930731421356421,-1.629031725486053,-3.665943431568431,1.2772744082840235,27.18204690448378,34.46631922604607,41.463054482283525,1577399613.0,-27.686325475200608,-51.125188382755,7.2720456
60848,1577399613.88,-0.1366446801162349,0.0410809967785343,8.344259946944073,0.2099306089819927,1.6714739321824983,11.508109848096897,-1.840440334710843,-1.4451926777165107,14.510059161376953,-6.513083853372712,-8.877265744092988,2.8615811975990857,-0.0083737257050304,0.056569169207317,0.0547083412728656,-2.5145367878239324,-7.620090391577744,4.556795445884147,-31.46872996794872,-10.327384882478633,-2.780437502312504,-2.450812508805297,-0.9164858578921076,2.30973788831361,27.134124060262977,34.8017791355917,41.24740168328991,1577399613.0,-27.686325475200608,-51.125188382755,7.2720456
60849,1577399613.89,-0.1127026635146719,2.790821603467987,9.692195481612044,2.4724511778296487,0.9975061648485132,12.724364291456272,9.577507382574312,-17.121228047589558,7.3932947265625,4.961525521627286,-3.384101681592988,-0.1749178258384145,1.8837161180449693,-2.873118330792683,-0.0826207602896341,-15.209849287823932,-30.370944883765244,-21.337369593178355,-29.17688969017094,-11.145395566239314,-3.231319259444269,10.081344436813186,-0.1832971715784212,-39.5787804443153,27.229969748704587,34.70593344715009,41.41513163806272,1577399613.0,-27.686325475200608,-51.125188382755,7.2720456
60850,1577399613.9,2.0851744605087643,-2.600920535203887,8.123993394209698,4.749336956638243,3.4778990847703883,9.348539950635956,7.070778244390719,40.76338549000809,9.464279162597656,8.379494271627287,-9.365546994092988,2.2359708460365857,-1.0764889600800305,1.3383074504573171,-0.8455602134146342,14.148060868426068,-32.07992925876525,8.173128453696647,-31.468729967948715,-9.71387686965812,-1.8786739880489929,10.081344436813186,-0.1832971715784212,-39.5787804443153,27.18204690448378,34.70593344715009,41.27136310540031,1577399613.0,-27.686325475200608,-51.125188382755,7.2720456
60851,1577399613.91,0.0357378394150145,2.853070846632049,12.316240501143293,4.895383257907774,-2.7973034664991427,10.768301535108614,-8.077335659417873,-1.0417696979801827,12.08592998046875,6.578957162252286,-5.337226681592988,2.4495938929115857,-2.3277096632050305,-4.002268721417683,1.7789515053353655,-16.888316084698932,-29.577487852515244,30.817171422446645,-31.468729967948715,-9.71387686965812,-1.8786739880489929,-9.435949167018876,1.832971715784216,-37.661348267117496,27.08620121604217,34.753856291370894,41.31928594962111,1577399613.0,-27.686325475200608,-51.125188382755,7.2720456
60852,1577399613.92,-1.4929599205947506,2.3610624054699407,9.570091196944071,-3.970345489650819,1.9875085513231228,11.213623043897677,-0.1357687526795928,11.783968595476846,6.251260534667968,0.3381124356897862,5.115043826219512,1.4577726038490857,4.157275688357469,-3.2088116901676838,-1.1507359946646345,-0.0273541706364319,-11.953586485327744,2.191683141196646,-31.02799145299145,-9.407122863247864,-2.104114866614869,-7.586942404550577,2.016268887362638,-36.33389522136517,27.03827837182137,34.58612633659808,41.31928594962111,1577399613.0,-27.686325475200608,-51.125188382755,7.2720456
60853,1577399613.93,3.152988400938453,-2.277703311082793,8.056955747725324,3.755743267673399,-2.612949938667112,2.769273788526581,0.2640629245665012,-21.885689351300496,4.5322237426757805,-2.2711404939977133,-15.530097775342988,0.4049161585365854,0.7850833055449695,0.6669207317073171,0.5277308022103658,-0.4393414753239328,23.70620355373476,-4.888394983803353,-30.058366720085463,-7.66885016025641,-2.780437502312504,-15.18841465025359,3.665943431568432,-37.07136913567202,27.18204690448378,34.753856291370894,41.27136310540031,1577399613.0,-27.686325475200608,-51.125188382755,7.2720456
