,timestamp,acc_x_dashboard,acc_y_dashboard,acc_z_dashboard,acc_x_above_suspension,acc_y_above_suspension,acc_z_above_suspension,acc_x_below_suspension,acc_y_below_suspension,acc_z_below_suspension,gyro_x_dashboard,gyro_y_dashboard,gyro_z_dashboard,gyro_x_above_suspension,gyro_y_above_suspension,gyro_z_above_suspension,gyro_x_below_suspension,gyro_y_below_suspension,gyro_z_below_suspension,mag_x_dashboard,mag_y_dashboard,mag_z_dashboard,mag_x_above_suspension,mag_y_above_suspension,mag_z_above_suspension,temp_dashboard,temp_above_suspension,temp_below_suspension,timestamp_gps,latitude,longitude,speed
60494,1577396035.36,-1.5703568688964842,-0.6400898138427734,7.098388937072753,1.7084672675900336,-1.241889919671779,5.419012679532679,-3.771836696370442,1.822386496988932,2.830744429524739,1.5201568603515625,-2.890586853027344,0.519561767578125,3.927463438452744,-2.473970738852896,-1.2342871689214938,3.0839102608816966,-60.93415759858631,1.113528297061012,5.3798969645323815,-3.6079478185504974,0.3648904914529966,55.394088084795335,-8.724572649572648,-114.25035612535616,33.55578518585078,37.0062299697487,37.725072633060776,1577396035.0,-27.68660504097652,-51.13242755693811,6.3338
60495,1577396035.37,-0.7491456994628906,1.643978569946289,5.080076937561034,-4.650532341784965,2.854589120855564,4.308103109220179,0.6957436014811195,-15.135743861897785,9.625488741048176,-3.240585327148437,-2.463340759277344,0.122833251953125,-6.082302186547256,-5.952974645102897,-2.393955137671494,1.1307852608816966,-64.07746814546131,9.261721656436013,5.3798969645323815,-2.84837985675039,0.0,55.58743041497977,-8.64303458742711,-6.647293447293474,33.31617096474676,37.19792134663192,37.725072633060776,1577396035.0,-27.68660504097652,-51.13242755693811,6.3338
60496,1577396035.38,-1.443464180908203,0.0805648858642578,10.105506222229003,-1.5500411918826216,-2.446173354730373,11.009473555997522,-1.7511304951985671,-1.7641275899251296,11.43311099446615,2.0084381103515625,-2.524375915527344,1.068878173828125,1.638645079077744,12.479642542397103,1.7564354873285062,-1.0664803641183034,-52.32820056733631,18.539065406436013,6.9858363569301085,-2.84837985675039,-1.824452457264953,55.394088084795335,-8.398420400990494,-7.062749287749304,33.17240243208434,37.24584419085272,37.53338125617755,1577396035.0,-27.68660504097652,-51.13242755693811,6.3338
60497,1577396035.39,-0.6162675073242186,-1.685158838500976,7.463504690246581,-0.7012967033572315,-1.5339825222108423,6.444928090909632,1.88925312906901,7.351795231119791,13.73633299153646,-4.8885345458984375,-2.097129821777344,0.794219970703125,-1.7945824599847562,-7.341524449790397,2.458339784203506,0.6577627999441967,-16.02754138764881,-0.2597627185639881,5.701084843011927,-3.2281638376504453,-1.824452457264957,57.32751138663969,-8.398420400990494,-113.41944444444444,33.31617096474676,37.12603708030072,37.58130410039836,1577396035.0,-27.68660504097652,-51.13242755693811,6.3338
60498,1577396035.4,-1.108275948486328,6.295912395629883,11.67131410797119,1.2942703803830025,1.327088461675876,9.802795919278774,0.3749205790201819,-0.8375715474446611,5.734911043294271,0.9403228759765624,-2.890586853027344,-0.060272216796875,-2.267604920922256,12.174466761147103,-0.1051367782964938,-0.9444100516183034,-7.558913457961309,-3.982907249813988,6.6646484784505615,-2.088811894950291,-2.554233440170939,31.419639141925344,-8.561496525281571,-105.94123931623932,33.22032527630515,37.10207565819032,37.43753556773595,1577396035.0,-27.68660504097652,-51.13242755693811,6.3338
60499,1577396035.41,-0.696473262939453,0.2385821954345703,10.33774378326416,-0.0033869194216839,-0.6984061428163102,3.108608077481898,-3.5659353535970046,4.951608066813151,1.873063765462239,1.5811920166015625,-0.7238388061523438,-0.579071044921875,-1.168972108422256,-9.767671910727897,1.8479882217035064,-0.9444100516183034,-18.39265369233631,-11.734372093563987,4.737521207573292,-2.84837985675039,-0.7297809829059857,32.19300846266308,-8.724572649572648,-8.724572649572671,33.36409380896756,37.10207565819032,37.772995477281576,1577396035.0,-27.68660504097652,-51.13242755693811,6.3338
60500,1577396035.42,-0.7012616662597655,-1.966477533569336,2.628414437561034,-2.814179668445121,1.652699887457126,3.580265804532679,1.7898937601725255,-4.129598830159504,5.892928352864583,-12.304306030273438,-5.209922790527344,-1.158905029296875,-0.863796327172256,-7.570406285727897,1.2681542373285062,-1.2495858328683034,-18.78938220796131,-8.072262718563987,6.6646484784505615,-1.7090279140502358,0.7297809829059857,58.4875653677463,-8.561496525281571,4.570014245014226,33.41201665318837,37.10207565819032,37.58130410039836,1577396035.0,-27.68660504097652,-51.13242755693811,6.3338
60501,1577396035.43,-1.291432375488281,-1.0746374151611326,6.1251459622192375,0.3916563545040967,-1.8859301662538104,3.4294310999428355,-1.4338987752278645,-9.7882944539388,9.207700551350912,-7.909774780273437,-6.796836853027344,-1.204681396484375,-8.752590272484756,-6.700655309165397,-0.1966895126714938,-12.403760637555802,-1.1959984188988098,13.579958961123513,6.182866660731245,-3.987731799450549,-0.7297809829059857,58.4875653677463,-8.561496525281571,4.570014245014226,33.36409380896756,37.05415281396951,37.58130410039836,1577396035.0,-27.68660504097652,-51.13242755693811,6.3338
60502,1577396035.44,-1.3548787194824217,0.4085705133056641,8.539698336486815,-5.668068047351372,-0.0232412746522477,9.845891549161584,1.5385025858561194,4.120820090738932,15.807317427571617,-0.9822845458984376,-4.050254821777344,-1.311492919921875,-9.134059999047256,-10.805269566977897,-0.8985938095464938,-10.954175676618304,29.61149669828869,9.017581031436013,6.022272721491472,-3.987731799450549,-0.7297809829059857,55.394088084795335,6.60458303378864,-6.231837606837628,33.41201665318837,36.86246143708629,37.53338125617755,1577396035.0,-27.68660504097652,-51.13242755693811,6.3338
60503,1577396035.45,-1.7642872033691406,-0.1923741033935546,15.96172348297119,-6.436606780261528,-2.201964785394435,5.75659511361471,4.593503904215494,12.038444980875653,18.26616253255208,-3.149032592773437,-4.172325134277344,-0.792694091796875,-4.007106874047256,-12.148043004477897,2.732997987328506,-7.292066301618304,56.71110607328869,-15.182858421688987,4.898115146813064,-3.797839809000523,-1.2771167200854656,56.16745740553308,-8.561496525281571,4.570014245014226,33.41201665318837,36.81453859286549,37.43753556773595,1577396035.0,-27.68660504097652,-51.13242755693811,6.3338
60504,1577396035.46,-0.3995922570800771,0.0973242974853515,11.510902596740722,3.808182123547065,1.3989145114805637,15.328613350919396,-0.2427834493001296,-7.627527455647787,14.603033992513025,-12.792587280273438,-4.965782165527344,-1.860809326171875,-12.735134217797256,13.944486292397103,1.5733300185785062,-11.564527239118304,74.89958263578869,-8.133297874813987,6.022272721491472,-3.987731799450549,-1.094671474358975,56.94082672627082,5.626126288042176,-2.0772792022792146,33.41201665318837,37.0062299697487,37.58130410039836,1577396035.0,-27.68660504097652,-51.13242755693811,6.3338
60505,1577396035.47,1.03812583984375,1.1531672296142577,12.33450796783447,1.591151386242378,2.0764735813047825,9.786036507657675,-0.3385515157063802,1.5554330118815105,12.38480615437826,-9.832382202148438,-6.781578063964844,-1.967620849609375,-8.203273866234756,-11.415621129477897,2.382045838891006,-11.961255754743304,90.11259533110118,-7.797604515438987,4.255739389853974,-2.6584878663003666,-0.5473357371794874,57.52085371682413,-8.316882338844954,-99.7094017094017,33.340132386857164,37.03019139185911,37.48545841195676,1577396035.0,-27.68660504097652,-51.13242755693811,6.3338
60506,1577396035.48,-0.1146822595214833,0.0422576593017578,9.990584542541503,3.1737186836056583,-1.5555303371522478,15.290306124356896,0.0732511698404944,-18.41340593465169,9.486625044759114,-15.508651733398438,-5.484580993652344,-3.569793701171875,-8.889919374047256,1.1881386361471036,-1.2037695907964938,-18.766675676618306,88.78508068266369,17.562502906436013,3.773957572134656,-2.4685958758503426,-0.7297809829059857,56.94082672627082,-8.724572649572648,-101.78668091168092,33.50786234162997,36.86246143708629,37.58130410039836,1577396035.0,-27.68660504097652,-51.13242755693811,6.3338
60507,1577396035.49,-0.3541024255371083,-3.8531084417724606,7.014591878967284,-3.635390837878715,-3.2003468776795923,4.317679915860804,-4.425453749593098,7.707334177652994,1.7437768758138017,-17.492294311523438,-5.148887634277344,-3.173065185546875,-1.016384217797256,-22.21884378572789,2.366787049828506,-15.959058489118304,76.18132091703869,5.599612281436012,5.219303025292609,-3.0382718472004164,-2.736678685897437,55.78077274516421,-8.561496525281571,-105.11032763532766,33.31617096474676,37.05415281396951,37.725072633060776,1577396035.0,-27.68660504097652,-51.13242755693811,6.3338
60508,1577396035.5,0.2336740820312505,-0.8615534674072264,7.887278384094237,-3.953819658679497,-1.5267999172303726,2.890735726407679,6.290992881266275,14.042391770426432,0.5155514241536455,-8.230209350585938,-5.713462829589844,-2.364349365234375,-10.202175233422256,-0.2461875357278963,-0.1661719345464938,-7.810865129743304,57.53508068266369,-13.138180687313987,5.3798969645323815,-2.468595875850343,-1.6420072115384623,55.78077274516421,-8.561496525281571,-105.11032763532766,33.50786234162997,36.910384281307095,37.58130410039836,1577396035.0,-27.68660504097652,-51.13242755693811,6.3338
60509,1577396035.51,2.157415115966797,0.5953182427978515,8.692927242736815,1.7419860908322218,-1.4477912624452165,12.19101207528463,0.52336108194987,-6.058128267415364,3.604071565755208,-9.435653686523438,-4.355430603027344,-3.447723388671875,-12.277370545922256,-4.015108434165397,2.046352479516006,-11.045728410993304,27.46000744047619,-19.348507835751487,4.898115146813064,-3.797839809000523,-0.1824452457264983,56.36079973571752,-7.664577841680645,-114.66581196581198,33.50786234162997,36.93434570341749,37.50941983406716,1577396035.0,-27.68660504097652,-51.13242755693811,6.3338
60510,1577396035.52,3.780683841552734,0.4612429498291015,9.004173458557128,-0.5157460746951215,2.490670468511814,10.657525911954552,-2.170115785725911,-12.06158893025716,4.6144246663411455,-14.837265014648438,-0.9374618530273438,-3.630828857421875,-14.474636170922256,13.730863245522103,-0.2577246689214938,-13.975415910993304,1.8710181826636905,-6.515866234188988,4.898115146813064,-3.797839809000523,-0.1824452457264983,31.419639141925344,-8.398420400990494,-115.08126780626785,33.36409380896756,37.0062299697487,37.58130410039836,1577396035.0,-27.68660504097652,-51.13242755693811,6.3338
60511,1577396035.53,-1.0460267053222656,1.591306133422851,14.319301144104005,4.368425312023627,-1.2490725246522476,18.809782564786584,2.1897254374186192,-6.392119399007162,9.285512105305989,-2.904891967773437,13.131141662597656,-1.616668701171875,-16.793972108422256,-0.7344687857278964,1.8785057998285064,-14.738355364118304,1.5353248232886905,9.719485328311013,5.3798969645323815,-3.22816383765045,-0.7297809829059857,31.419639141925344,-7.909192028117261,-115.08126780626785,33.36409380896756,36.910384281307095,37.58130410039836,1577396035.0,-27.68660504097652,-51.13242755693811,6.3338
60512,1577396035.54,0.4503493322753911,-3.344340588989257,10.830949325256348,0.0301319038205025,-3.794108889398342,6.6568149378334605,-1.0687830220540355,9.321026096598306,9.512961263020832,-16.363143920898438,0.2069473266601562,-3.478240966796875,-7.211452577172256,-11.507173863852897,1.2071190810785062,-14.097486223493304,-5.971999395461309,11.062258765811013,4.496630298713633,-2.373649880625329,-0.6385583600427327,31.419639141925344,-8.561496525281571,-98.4630341880342,33.38805523107796,36.81453859286549,37.58130410039836,1577396035.0,-27.68660504097652,-51.13242755693811,6.3338
60513,1577396035.55,-2.516066524658203,1.6703147882080076,13.383168294982909,0.0049927863888623,1.8119142978575176,13.185802865079555,-0.0787806355794269,1.6942967081705724,13.0994753499349,-8.367538452148438,0.8630752563476562,-3.020477294921875,-18.502956483422256,8.558133753334603,-0.5323828720464938,-15.150342668805802,13.57450939360119,5.279177711123512,5.219303025292609,-4.55740777080063,-0.1824452457264983,31.419639141925344,-8.724572649572648,-8.724572649572671,33.55578518585078,37.05415281396951,37.55734267828795,1577396035.0,-27.68660504097652,-51.13242755693811,6.3338
60514,1577396035.56,-1.022084688720703,2.2928072198486324,14.314512740783693,-2.4598378227419966,0.11801662329697,7.286489974454554,1.885661826578776,-2.4871764912923173,15.280593062337244,-8.214950561523438,-2.585411071777344,-2.837371826171875,-6.753688905297256,-15.749117223227897,1.0545311904535062,-12.388501848493304,17.77067638578869,-4.196530296688988,5.219303025292609,-4.55740777080063,-0.1824452457264983,55.58743041497977,-7.990730090262799,-8.309116809116826,33.41201665318837,37.19792134663192,37.58130410039836,1577396035.0,-27.68660504097652,-51.13242755693811,6.3338
60515,1577396035.57,0.0433350500488281,-4.69586742614746,9.538080428771972,-2.155774211902153,-1.2778029445741226,5.421406881192835,-2.9314719136555984,9.3377855082194,8.241640181477864,-14.623641967773438,-4.416465759277344,-1.891326904296875,-10.507351014672256,-2.901216832602896,0.8714257217035062,-10.710035051618304,20.36467052641369,-17.013913109188987,5.058709086052835,-2.4685958758503426,-0.3648904914529891,57.13416905645526,-8.64303458742711,-4.985470085470089,33.31617096474676,37.05415281396951,37.58130410039836,1577396035.0,-27.68660504097652,-51.13242755693811,6.3338
60516,1577396035.58,0.2636016027832031,-1.0351330877685547,7.798692922668456,1.2918761787228463,-1.3029420620057632,6.267757168058071,-0.0440647115071613,-8.89525723470052,6.474719356282552,-18.98765563964844,-3.317832946777344,-3.127288818359375,-17.617946717797256,0.0589882455221033,1.5122948623285062,-13.151441301618304,18.67094494047619,-12.329464867001487,5.3798969645323815,-3.03827184720042,-0.7297809829059819,58.680907697930735,-8.64303458742711,-1.661823361823385,33.36409380896757,37.0062299697487,37.60526552250876,1577396035.0,-27.68660504097652,-51.13242755693811,6.3338
60517,1577396035.59,-1.0268730920410154,-0.3049015814208984,1.9891625942993156,-2.512510259265434,3.7643857517149386,9.125236849454556,0.0229729349772131,-9.3944482808431,13.298194087727868,-13.647079467773438,-4.660606384277344,-1.372528076171875,-12.368923280297256,1.7679726205221036,0.8409081435785062,-15.531812395368304,27.78044201078869,6.087893531436012,5.8616787822517,-1.51913592360021,-0.5473357371794875,59.26093468848404,-8.561496525281571,-5.400925925925935,33.41201665318837,37.0062299697487,37.62922694461916,1577396035.0,-27.68660504097652,-51.13242755693811,6.3338
60518,1577396035.6,0.1055842932128906,1.394981597290039,11.812572005920408,4.672488922863471,-1.3807536159608411,12.77878858285299,-3.060758803304036,-16.94576031697591,18.247008919270836,-12.884140014648438,-5.393028259277344,-4.149627685546875,-17.862087342797256,1.7374550423971036,1.6648827529535062,-21.879468645368306,47.89152599516369,31.295413062686013,5.8616787822517,-1.51913592360021,-0.5473357371794875,58.680907697930735,-8.64303458742711,-4.985470085470089,33.41201665318837,37.24584419085272,37.725072633060776,1577396035.0,-27.68660504097652,-51.13242755693811,6.3338
60519,1577396035.61,-1.1789048974609373,-3.4425028570556635,12.892356954650875,-1.1454211113162152,-3.8970595607850607,7.853915767911585,-2.593889479573567,24.94798033243815,17.270174641927085,-10.824203491210938,-2.966880798339844,-1.555633544921875,-8.401638124047256,-23.62265237947789,2.366787049828506,-20.628247942243306,74.80802990141369,13.808840797061013,5.3798969645323815,-3.797839809000523,-0.1824452457264945,58.4875653677463,-8.724572649572648,-2.0772792022792146,33.24428669841555,37.0062299697487,37.53338125617755,1577396035.0,-27.68660504097652,-51.13242755693811,6.3338
60520,1577396035.62,2.7439945227050777,-2.9121871893310542,11.738351754455564,1.2140646247677689,-2.7286891506288105,20.10265146127096,0.555682804361979,4.411715592447917,16.475299690755207,-17.797470092773438,-3.684043884277344,-1.952362060546875,-15.786892030297256,5.796292933022103,1.2834130263910062,-11.534009660993304,89.09025646391369,-15.259152367001487,4.255739389853973,-4.177623789900575,-1.6420072115384547,58.10088070737744,-8.724572649572648,-8.724572649572671,33.41201665318837,36.958307125527895,37.653188366729566,1577396035.0,-27.68660504097652,-51.13242755693811,6.3338
60521,1577396035.63,2.2603657873535155,-2.2992715643310544,16.007213314514157,1.301452985363471,0.23293830298447,11.36860380502096,-3.300178969319661,-6.51422368367513,11.016519905598962,-10.381698608398438,-1.7004013061523438,-1.494598388671875,-1.748806092797256,-18.28207620760289,3.770595643578506,-8.817945207868304,88.87663341703869,-17.349606468563987,5.058709086052835,-2.84837985675039,-0.3648904914529891,55.97411507534864,-7.990730090262799,-8.309116809116826,33.41201665318837,37.19792134663192,37.43753556773595,1577396035.0,-27.68660504097652,-51.13242755693811,6.3338
60522,1577396035.64,2.947501663818359,-3.580169452514648,12.50689048736572,4.603057074718939,1.6311520725157198,14.964694698575649,-7.478060866292317,-10.668163564046225,9.436346809895833,-7.482528686523437,0.9851455688476562,-1.311492919921875,5.575412657202744,6.193021448647103,-1.1122168564214938,-11.045728410993304,69.04020763578869,0.960940406436012,5.058709086052835,-2.84837985675039,-0.3648904914529891,55.394088084795335,-8.561496525281571,-111.7576210826211,33.31617096474676,36.86246143708629,37.58130410039836,1577396035.0,-27.68660504097652,-51.13242755693811,6.3338
60523,1577396035.65,2.393243979492187,-1.9844340460205077,7.969878341369628,3.803393720226752,-2.558700832757717,19.104269368985804,-0.1254675679524733,-10.756749025472004,-0.6887320109049473,-8.092880249023438,2.709388732910156,-2.669525146484375,-4.342800233422256,1.1271034798971036,-0.3797949814214938,-10.648999895368304,22.86711193266369,9.811038062686013,5.3798969645323815,-3.03827184720042,-0.7297809829059819,58.4875653677463,-8.07226815240834,-115.08126780626785,33.38805523107796,37.10207565819032,37.58130410039836,1577396035.0,-27.68660504097652,-51.13242755693811,6.3338
60524,1577396035.66,1.048899747314453,-3.458065167846679,1.2637194912719716,-1.395615184802543,-4.918186568841701,10.90891708627096,0.640676963297526,5.957172764078776,10.56880419514974,-8.428573608398438,3.121376037597656,-3.050994873046875,-6.555324647484756,3.003934534584604,-1.0969580673589938,-4.469190325055804,-0.6771995907738094,-1.709347679501488,5.540490903772155,-3.797839809000523,-0.5473357371794875,35.86651273616736,-7.664577841680645,-107.18760683760688,33.31617096474676,37.14999850241112,37.48545841195675,1577396035.0,-27.68660504097652,-51.13242755693811,6.3338
60525,1577396035.67,-0.2966415856933584,-1.430176361694336,10.402387228088378,1.1410414741330024,-0.0232412746522477,10.600065072110803,2.747574424235025,8.27236576944987,10.999760493977869,-1.6536712646484375,2.877235412597656,-1.403045654296875,-1.382595155297256,4.117826136147103,0.1695214248285061,-1.6157967703683034,-2.1878197079613093,-2.029782249813988,5.058709086052835,-3.6079478185504974,1.4595619658119638,35.47982807579848,-7.664577841680645,-108.84943019943024,33.17240243208434,37.24584419085272,37.772995477281576,1577396035.0,-27.68660504097652,-51.13242755693811,6.3338
60526,1577396035.68,0.9866505041503906,1.6966510064697264,13.41429291656494,3.717202460461127,1.0445726657774388,9.232975924161586,-4.765430385335286,4.659515464274088,14.75147449544271,2.4051666259765625,4.067420959472656,-1.555633544921875,4.324191954077744,7.505277308022103,2.122646424828506,-3.660474504743304,5.655197870163691,1.205081031436012,5.058709086052835,-3.6079478185504974,1.4595619658119638,57.71419604700856,-8.724572649572648,-105.11032763532766,33.41201665318837,37.19792134663192,37.43753556773595,1577396035.0,-27.68660504097652,-51.13242755693811,6.3338
60527,1577396035.69,0.0517147558593755,-5.205832379760742,9.898407778625486,1.0165429878048773,-3.7605900661561535,14.61753545785299,-3.2451123311360672,-5.716954530843099,21.316375447591145,-5.2089691162109375,7.027626037597656,-2.410125732421875,16.012424375952744,-8.516451207602897,-0.3187598251714938,-3.2332284109933034,25.91886974516369,-6.668454124813988,4.978412116432949,-2.9433258519754077,0.4561131143162382,30.646269821187605,-8.724572649572648,-100.95576923076926,33.36409380896756,37.05415281396951,37.58130410039836,1577396035.0,-27.68660504097652,-51.13242755693811,6.3338
60528,1577396035.7,1.690545792236328,-5.131612128295898,15.604987435607908,0.4706650092892525,-2.0104286525819357,19.613037221769005,-3.67726573079427,-1.574985658772786,16.063497005208333,0.4825592041015625,5.990028381347656,-1.647186279296875,23.565524961890247,-15.916963902915397,-0.9291113876714936,-1.6615731375558034,39.71281505766369,0.4116240001860118,4.737521207573292,-2.4685958758503426,-1.824452457264953,33.54640477395414,9.132262960300343,-98.04757834757838,33.22032527630515,36.910384281307095,37.53338125617755,1577396035.0,-27.68660504097652,-51.13242755693811,6.3338
60529,1577396035.71,-0.5288791467285145,-1.7845182073974608,18.18354262359619,4.217590607433784,-2.853187636956936,14.797100582364708,0.4395640238444006,2.4353021219889315,13.09229274495443,6.2808990478515625,7.302284240722656,-0.731658935546875,22.207492735327744,-6.349703160727897,-2.088779356421494,0.2457754952566966,28.11613537016369,2.029055640811012,5.058709086052835,-3.987731799450549,-1.094671474358975,61.1943579903284,-8.235344276699415,-5.400925925925935,33.41201665318837,37.05415281396951,37.62922694461916,1577396035.0,-27.68660504097652,-51.13242755693811,6.3338
60530,1577396035.72,0.3210624426269531,-2.888245172729492,16.043126339416503,5.014859760265815,1.2935696384336886,15.694926204923302,-1.4566436909993483,9.55565785929362,13.24552165120443,4.8160552978515625,7.119178771972656,-2.471160888671875,-103.46389398342224,100.3397499642721,-2.149814512671494,5.342211042131696,18.59465099516369,-4.959469749813988,5.058709086052835,-3.987731799450549,-1.094671474358975,61.1943579903284,-8.235344276699415,-5.400925925925935,33.41201665318837,36.910384281307095,37.58130410039836,1577396035.0,-27.68660504097652,-51.13242755693811,6.3338
60531,1577396035.73,0.0816422766113286,-1.948521021118164,11.449850454406738,0.0157666938595654,-1.1066175258729507,10.808360616544396,-0.6450093282063796,0.7641493631998697,8.162631526692708,2.6493072509765625,6.127357482910156,-2.242279052734375,-20.272976014672256,32.5144325814596,-4.286044981421494,6.639208112444196,-0.5703880673363093,-5.279904320126488,5.3798969645323815,-3.797839809000523,-1.2771167200854694,32.38635079284752,0.0815380621455394,-98.87849002849003,33.41201665318837,36.958307125527895,37.58130410039836,1577396035.0,-27.68660504097652,-51.13242755693811,6.3338
60532,1577396035.74,-0.811394942626953,-2.861908954467773,9.973825130920408,3.0204897773556585,-3.937760989007717,12.429235140470178,-1.2507423482259108,-6.981093007405599,7.736463631184896,5.8231353759765625,4.616737365722656,-1.921844482421875,-4.281765077172256,11.716703089272103,-1.9667090439214936,6.532396589006696,-7.558913457961309,1.235598609561012,5.3798969645323815,-4.3675157803506,-0.7297809829059857,32.38635079284752,8.806110711718189,-98.04757834757837,33.50786234162997,37.10207565819032,37.62922694461916,1577396035.0,-27.68660504097652,-51.13242755693811,6.3338
60533,1577396035.75,1.3792995764160156,-2.926552399291992,7.51498002593994,-1.1478153129763713,-2.3097038601014663,9.89856398568502,-2.0216752827962234,-2.843912538655599,9.005390511067707,7.257461547851562,6.173133850097656,-2.043914794921875,-1.382595155297256,9.702542933022103,-1.0511817001714938,7.386888776506696,-8.04719470796131,6.576174781436012,5.540490903772155,-3.0382718472004164,-1.2771167200854656,60.22764633940623,-8.64303458742711,4.985470085470055,33.50786234162997,37.0062299697487,37.62922694461916,1577396035.0,-27.68660504097652,-51.13242755693811,6.3338
60534,1577396035.76,-0.4331110803222646,-6.307165143432616,8.47266069000244,-2.567576897449028,-0.8276930324647477,7.535486947110804,-0.6833165547688795,12.076752207438153,9.500990254720053,9.851455688476562,2.938270568847656,-0.609588623046875,-3.366237733422256,10.892728479897103,-5.506748106421494,13.642992292131696,-23.21443103608631,-0.4428681873139881,5.540490903772155,-3.0382718472004164,-1.2771167200854656,60.420988669590656,-8.724572649572648,-101.78668091168092,33.50786234162997,37.24584419085272,37.58130410039836,1577396035.0,-27.68660504097652,-51.13242755693811,6.3338
60535,1577396035.77,-2.3939622399902345,-0.7226897711181641,14.089457784729005,0.5161548408322216,-0.2686469448182638,16.107925991300256,-1.4506581868489583,-1.8515159505208336,9.06165425008138,15.26832580566406,3.624916076660156,-0.380706787109375,0.6010474228277438,1.3102089486471034,-4.987949278296494,16.145433698381698,-51.07697986421131,-8.621579124813987,5.139006055672724,-3.323109832875457,-0.8210036057692274,59.45427701866848,-1.3861470564741594,-104.6948717948718,33.45993949740917,37.12603708030072,37.67714978883997,1577396035.0,-27.68660504097652,-51.13242755693811,6.3338
60536,1577396035.78,-1.1394005700683592,-1.411022748413086,12.933058382873536,-2.2683016899294963,-0.628974294671779,10.992714144376428,-4.504462404378255,-8.71688921101888,15.433821968587242,21.50917053222656,1.2903213500976562,-0.548553466796875,9.359592344702744,11.228421839272103,-5.506748106421494,13.551439557756696,-58.30964587983631,1.968020484561012,4.898115146813064,-4.177623789900575,-0.1824452457264983,56.55414206590194,-8.561496525281571,-106.77215099715102,33.31617096474676,37.05415281396951,37.58130410039836,1577396035.0,-27.68660504097652,-51.13242755693811,6.3338
60537,1577396035.79,-1.6182409020996091,-3.149213153686523,13.852431820373534,2.7810696113400333,-1.1269682399842789,13.482683870938928,3.2982408060709627,-10.093555165608723,16.78175750325521,9.943008422851562,-0.4491806030273437,-1.433563232421875,9.603732969702744,5.063871058022103,-4.530185606421494,11.964525495256696,-42.95930408296131,12.160891578311013,3.131581815175565,-2.4685958758503426,-0.7297809829059857,55.78077274516421,-8.561496525281571,-105.94123931623932,33.41201665318837,37.05415281396951,37.725072633060776,1577396035.0,-27.68660504097652,-51.13242755693811,6.3338
60538,1577396035.8,-1.4027627526855468,-2.916975592651367,10.86686235015869,2.4219393623165963,-3.667216201410061,8.665550130704554,-0.7312005879720045,9.057663913981118,13.985329964192712,10.477066040039062,-1.6241073608398438,-0.029754638671875,24.282688047827744,-1.5889609732278964,-3.706210997046494,13.795580182756696,-27.09016345796131,14.266604468936013,3.131581815175565,-2.4685958758503426,-0.7297809829059857,57.32751138663969,-7.746115903826182,-115.08126780626785,33.36409380896756,37.05415281396951,37.725072633060776,1577396035.0,-27.68660504097652,-51.13242755693811,6.3338
60539,1577396035.81,-0.2918531823730458,-0.4078522528076171,5.496668026428222,-3.403153276843559,-0.1884411892030295,7.776104213956506,-0.3277776082356764,6.604804313151041,6.213751375325521,16.534805297851562,-2.615928649902344,0.183868408203125,9.069675352515244,0.3641640267721033,-6.056064512671494,18.37321690150669,-15.70710681733631,-7.156735374813987,4.737521207573292,-2.4685958758503426,0.0,45.63030041048136,-8.03149912133557,-114.04262820512822,33.22032527630515,37.269805612963125,37.62922694461916,1577396035.0,-27.68660504097652,-51.13242755693811,6.3338
60540,1577396035.82,1.1326968054199218,1.5218742852783202,6.921218014221191,2.7355797797970647,-0.1357687526795915,10.226569613126427,-5.160473659261068,-10.646615749104816,3.5633701375325515,16.504287719726562,-0.3271102905273437,-0.243377685546875,13.693088438452744,1.4933144173971036,-3.706210997046494,15.107836042131696,-26.23567127046131,-9.781247093563987,5.8616787822517,-3.418055828100472,-0.9122262286324764,33.3530624437697,-7.419963655244028,-12.879131054131069,33.36409380896756,36.86246143708629,37.725072633060776,1577396035.0,-27.68660504097652,-51.13242755693811,6.3338
60541,1577396035.83,1.652238565673828,-0.2163161199951171,6.4806849087524405,-0.9538849785037152,0.4651758640196262,1.7678551477943978,-2.854857460530598,-3.7608917744954415,2.0095332600911453,13.544082641601562,1.6870498657226562,-1.372528076171875,13.143772032202744,-6.380220738852897,-2.393955137671494,15.199388776506696,-41.09773181733631,-1.144772484188988,4.737521207573292,-1.7090279140502358,-0.3648904914529891,32.19300846266308,-8.561496525281571,-93.47756410256412,33.31617096474676,36.86246143708629,37.725072633060776,1577396035.0,-27.68660504097652,-51.13242755693811,6.3338
60542,1577396035.84,1.3338097448730466,-1.336802496948242,7.523359731750487,1.3158181953244088,-0.916278493890529,9.72857566781393,3.3940088724772126,-2.26212153523763,4.245717610677083,12.231826782226562,1.488685607910156,-1.448822021484375,10.641330625952744,11.472562464272103,-6.269687559546494,13.368334089006696,-56.69221423921131,5.111331031436012,4.737521207573292,-1.7090279140502358,-0.3648904914529891,30.646269821187605,-8.398420400990494,-93.47756410256412,33.43597807529876,37.19792134663192,37.341689879294336,1577396035.0,-27.68660504097652,-51.13242755693811,6.3338
60543,1577396035.85,-1.1992556115722657,2.5585636041259767,8.896434383850096,-1.8876236259646533,0.3777875034239235,10.120027639249477,-2.803382124837239,-2.363875105794271,4.960386806233724,14.245986938476562,2.999305725097656,-2.410125732421875,12.808078672827744,-2.992769566977896,-5.338901426733994,14.878954206194196,-89.54438709077382,3.432864234561012,5.3798969645323815,-2.4685958758503426,-0.3648904914529891,43.89021943882143,-7.94996105919003,-8.516844729344749,33.36409380896756,36.910384281307095,37.58130410039836,1577396035.0,-27.68660504097652,-51.13242755693811,6.3338
60544,1577396035.86,-2.365231820068359,-1.911410895385742,8.216481112365722,-2.49575084764434,-3.427796035394436,11.945606405118616,-2.6633213277180983,1.451285239664713,14.4402282796224,13.147354125976562,1.6565322875976562,-1.921844482421875,8.779758360327744,5.369046839272103,-5.018466856421494,14.466966901506696,-90.90241931733632,3.982180640811012,5.701084843011927,-2.4685958758503426,-1.094671474358975,58.4875653677463,-8.724572649572648,-7.062749287749304,33.41201665318837,37.19792134663192,37.58130410039836,1577396035.0,-27.68660504097652,-51.13242755693811,6.3338
60545,1577396035.87,-1.1896788049316405,-2.304059967651367,6.650673226623534,-1.0424704399294964,-1.203582693109279,8.390216939786585,-1.866052174886067,0.946108689371744,10.52570856526693,5.1517486572265625,-3.348350524902344,-1.067352294921875,5.453342344702744,3.690580042397104,-3.797763731421494,14.161791120256696,-71.85945056733631,-0.198727562313988,4.898115146813064,-2.6584878663003684,-1.2771167200854656,58.680907697930735,-8.64303458742711,-4.985470085470089,33.41201665318837,37.05415281396951,37.58130410039836,1577396035.0,-27.68660504097652,-51.13242755693811,6.3338
60546,1577396035.88,-0.7264007836914057,-0.6903680487060547,7.201339608459472,-2.6118696281619185,-2.332448775872951,7.676744845060021,-0.3553109273274739,-5.628369069417317,9.530917775472004,7.867813110351562,1.3818740844726562,-0.365447998046875,10.885471250952744,1.6153847298971038,-2.744907286108994,12.712206159319196,-55.97505115327381,-4.089718773251488,6.182866660731244,-1.8989199045002647,-1.2771167200854656,57.4241825517319,-8.357651369917726,-7.270477207977226,33.41201665318837,37.17395992452152,37.43753556773595,1577396035.0,-27.68660504097652,-51.13242755693811,6.3338
60547,1577396035.89,0.7304709265136718,3.1307778009033203,5.010645089416503,-0.3744881767459027,1.815505600347751,9.067776009610805,-4.5068566060384105,1.2094708719889316,10.054050838216147,11.529922485351562,2.083778381347656,0.824737548828125,8.840793516577744,3.354886683022104,-2.516025450171494,8.302416120256696,-27.27326892671131,3.127688453311012,5.701084843011927,-3.6079478185504974,0.0,56.94082672627082,-8.398420400990494,-3.7391025641025832,33.41201665318837,37.10207565819032,37.62922694461916,1577396035.0,-27.68660504097652,-51.13242755693811,6.3338
60548,1577396035.9,1.9084181433105467,0.379840093383789,8.048886996154785,0.927957526379096,-1.5890491603944352,4.427813192227991,2.232821067301432,-1.402603139241536,13.47536501057943,7.440567016601562,2.724647521972656,-0.762176513671875,6.185764219702744,3.202298792397104,-1.0206641220464938,6.776537214006696,1.3217017764136905,4.653567359561012,4.898115146813064,-3.0382718472004164,-0.1824452457264983,55.58743041497977,-8.64303458742711,-8.309116809116826,33.31617096474676,37.10207565819032,37.58130410039836,1577396035.0,-27.68660504097652,-51.13242755693811,6.3338
60549,1577396035.91,-0.4163516687011708,-3.817195416870117,4.586871395568847,-3.036840422839653,-2.623344277581936,8.734981978849085,4.28944029337565,15.438211338297526,3.5011208943684893,4.3888092041015625,3.060340881347656,0.611114501953125,1.913303282202744,-1.6499961294778964,-2.516025450171494,11.323656354631696,6.173996698288691,-7.370358421688988,6.825242417690333,-3.418055828100472,-0.1824452457264983,55.394088084795335,-8.398420400990494,-8.724572649572671,33.22032527630515,36.86246143708629,37.62922694461916,1577396035.0,-27.68660504097652,-51.13242755693811,6.3338
60550,1577396035.92,0.5245695837402343,-4.224209699096679,7.900446493225097,-0.8437517021365276,-5.108525600824123,11.61041817269674,4.083538950602213,-10.77111423543294,5.600835750325521,4.4803619384765625,3.518104553222656,-0.853729248046875,3.286594297827744,9.275296839272103,-3.034824278296494,8.027757917131696,-0.9671165829613096,-8.407956077938987,4.737521207573292,-4.3675157803506,-0.7297809829059857,55.394088084795335,-8.398420400990494,-8.724572649572671,33.36409380896756,37.10207565819032,37.58130410039836,1577396035.0,-27.68660504097652,-51.13242755693811,6.3338
60551,1577396035.93,0.9579200842285156,0.7700949639892577,8.156626070861815,1.957464240246284,-1.7542490749452164,12.110806319669395,-3.716770058186848,0.2948858378092441,10.022926216634117,11.163711547851562,1.3818740844726562,1.282501220703125,7.436984922827744,8.909085901772103,0.1084862685785061,7.325853620256696,-3.2559349423363093,3.615969703311012,4.737521207573292,-3.987731799450549,-0.3648904914529891,57.32751138663969,-8.07226815240834,-115.08126780626785,33.17240243208434,37.19792134663192,37.43753556773595,1577396035.0,-27.68660504097652,-51.13242755693811,6.3338
60552,1577396035.94,-2.360443416748047,0.8227674005126953,16.28015230377197,1.0763980293087836,4.125910202398533,7.892222994474085,-1.4327016743977858,3.2996089213053383,13.844072066243491,13.727188110351562,1.1072158813476562,0.916290283203125,5.056613829077744,-6.258150426352897,-0.4713477157964938,-0.8223397391183034,2.3592994326636907,3.158206031436012,3.4527696936551098,-1.7090279140502358,0.3648904914529966,55.58743041497977,-8.64303458742711,-113.00398860398865,33.41201665318837,37.19792134663192,37.772995477281576,1577396035.0,-27.68660504097652,-51.13242755693811,6.3338
60553,1577396035.95,-1.4386757775878902,-0.1600523809814453,7.622719100646972,-4.614619316882622,-1.8955069728944351,4.734271004727992,-0.7455657979329421,-4.936444789632161,10.566409993489586,4.098892211914063,4.418373107910156,-0.243377685546875,8.871311094702744,3.995755823647104,-1.5394629501714938,2.4430411202566966,16.30583263578869,3.280276343936012,7.387321205029539,-2.7534338615253797,-0.8210036057692311,59.64761934885292,-7.909192028117261,-8.724572649572671,33.31617096474676,37.0062299697487,37.58130410039836,1577396035.0,-27.68660504097652,-51.13242755693811,6.3338
60554,1577396035.96,0.4647145422363281,-5.191467169799804,7.167820785217284,-1.5823629142947309,-3.3595612880799828,9.5442221399819,-2.4107330525716137,3.1356061075846355,7.848991109212239,-4.0645599365234375,1.7480850219726562,1.984405517578125,3.561252500952744,0.0895058236471033,-2.088779356421494,5.296434674944196,22.59245372953869,-0.0003633045014881,7.78880605312897,-3.0382718472004164,-0.5473357371794875,59.067592358299606,-7.9091920281172605,-8.724572649572671,33.36409380896756,37.0062299697487,37.60526552250876,1577396035.0,-27.68660504097652,-51.13242755693811,6.3338
60555,1577396035.97,0.5628768103027343,1.7158046197509764,8.819819930725096,1.32778920362519,1.985493918218845,8.86666307015768,2.338165940348307,0.8168217997233066,1.9831970418294265,7.898330688476562,3.548622131347656,0.794219970703125,2.096408750952744,12.296537073647103,0.8103905654535062,7.447923932756696,-0.3872825985863095,-8.682614281063987,5.8616787822517,-3.418055828100472,-0.5473357371794875,56.94082672627082,-7.746115903826182,-113.41944444444444,33.41201665318837,37.19792134663192,37.62922694461916,1577396035.0,-27.68660504097652,-51.13242755693811,6.3338
60556,1577396035.98,0.8406042028808594,0.8802282403564452,8.609130184631347,1.4977775214962838,-0.427861355218654,4.169239412931117,-1.0256873921712233,-0.8710903706868486,2.0023506551106767,12.109756469726562,4.860877990722656,0.946807861328125,-0.0703392959222559,4.270414026772103,-1.3868750595464938,1.4969961983816966,-11.52619861421131,-16.220456077938987,5.3798969645323815,-2.088811894950291,-0.3648904914529891,35.28648574561405,-8.07226815240834,-115.08126780626785,33.41201665318837,37.19792134663192,37.43753556773595,1577396035.0,-27.68660504097652,-51.13242755693811,6.3338
60557,1577396035.99,0.8070853796386719,-0.8340201483154296,7.412029354553222,-2.024093120593559,0.5705207370665012,3.774196139005336,-2.648956117757161,-11.855687587483722,4.602453658040364,-0.2956390380859373,4.006385803222656,-1.509857177734375,1.699680235327744,-2.321382848227896,-0.2577246689214938,1.9547598702566968,-17.99592517671131,-1.510983421688988,5.139006055672724,-3.70289381377551,-0.8210036057692311,33.93308943432301,7.012273344516337,-7.47820512820515,33.41201665318837,37.0062299697487,37.772995477281576,1577396035.0,-27.68660504097652,-51.13242755693811,6.3338
60558,1577396036.0,-2.5950751794433597,0.5594052178955078,8.118318844299315,-0.2068940605349657,-1.1161943325135768,5.268177974942836,2.818203373209635,2.2365833841959635,9.225657063802084,0.6961822509765625,1.6565322875976562,-0.945281982421875,-1.2300072646722562,6.254056604897103,-2.897495176733994,0.0168936593191966,-22.00898670014881,10.268801734561013,5.540490903772155,-4.55740777080063,-0.5473357371794875,44.18023293409808,-8.724572649572648,2.908190883190866,33.41201665318837,37.03019139185911,37.653188366729566,1577396036.0,-27.686631836296435,-51.13248315417407,6.1949353
60559,1577396036.01,-0.1793257043457021,-2.007178961791992,13.60582904937744,0.50418383253144,-3.542717715081936,11.38057481332174,-0.2236298360188796,-7.311492836507162,11.093134358723962,0.1468658447265625,2.053260803222656,-1.647186279296875,0.723117735327744,-8.394380895102897,-1.0206641220464938,-1.0664803641183034,-10.79377673921131,0.8999052501860119,6.182866660731244,-4.177623789900575,-2.006897702991451,56.16745740553308,-8.724572649572648,10.386396011395991,33.41201665318837,37.0062299697487,37.725072633060776,1577396036.0,-27.686631836296435,-51.13248315417407,6.1949353
60560,1577396036.02,0.7137115148925781,-1.1069591375732422,8.506179513244629,-4.473361418933402,0.951198801031345,4.212335042813929,-1.413548061116536,-2.5997039693196613,11.842519478352868,0.6656646728515625,0.5884170532226562,0.092315673828125,4.354709532202744,7.627347620522103,1.2986718154535062,-1.4326913016183034,7.638840448288691,8.315676734561013,6.022272721491472,-4.3675157803506,-1.4595619658119638,58.4875653677463,7.909192028117262,-8.724572649572671,33.41201665318837,37.0062299697487,37.725072633060776,1577396036.0,-27.686631836296435,-51.13248315417407,6.1949353
60561,1577396036.03,-2.7770345056152346,-0.4186261602783203,9.514138412170407,-2.483779839343559,0.299975949468845,9.151573067716274,5.797787339274088,12.60826497599284,12.206438130696618,1.4591217041015627,-0.3271102905273437,-0.273895263671875,-11.178737733422256,5.338529261147103,-2.699130918921494,2.3820059640066966,16.85514904203869,-11.429196312313987,5.219303025292609,-3.418055828100472,-0.7297809829059819,58.87425002811517,-8.07226815240834,-7.8936609686609795,33.36409380896756,37.05415281396951,37.725072633060776,1577396036.0,-27.686631836296435,-51.13248315417407,6.1949353
60562,1577396036.04,0.5461173986816406,-0.0559046087646474,8.24281733062744,-0.554053301257622,-2.006837350091701,9.10847743783346,-2.94344292195638,-13.615425807698566,8.949126772054038,-2.386093139648437,1.809120178222656,-0.792694091796875,0.7231177353277438,-4.030367223227897,2.244716737328506,-2.1651131766183034,27.17009044828869,-7.400875999813987,5.540490903772155,-4.177623789900575,-0.1824452457264983,57.13416905645525,-8.561496525281571,-6.231837606837628,33.36409380896756,37.0062299697487,37.653188366729566,1577396036.0,-27.686631836296435,-51.13248315417407,6.1949353
60563,1577396036.05,-0.2703053674316396,0.7892485772705077,10.73278705718994,-1.8876236259646528,3.893672641363376,4.083048153165492,2.6542005594889315,18.881073325602213,7.283959517415364,-1.9283294677734373,0.5884170532226562,-1.006317138671875,-11.453395936547256,11.594632776772103,-2.973789122046494,-1.5852791922433034,28.39079357328869,2.242678687686012,5.540490903772155,-4.177623789900575,-0.1824452457264983,58.87425002811517,-8.398420400990494,-5.400925925925935,33.22032527630515,37.05415281396951,37.58130410039836,1577396036.0,-27.686631836296435,-51.13248315417407,6.1949353
60564,1577396036.06,0.6418854650878907,3.0637401544189453,5.192604415588378,4.495318000011908,4.645451962652439,13.944764791349083,-0.9514671407063796,-10.581972304280598,8.028556233723958,-3.149032592773437,0.9241104125976562,-1.036834716796875,-7.333522889672256,-10.042330113852897,-0.1966895126714938,-7.658277239118304,29.70304943266369,-0.8395967029389881,5.701084843011927,-2.4685958758503426,0.3648904914529966,58.680907697930735,-8.64303458742711,-100.5403133903134,33.41201665318837,37.0062299697487,37.58130410039836,1577396036.0,-27.686631836296435,-51.13248315417407,6.1949353
60565,1577396036.07,1.9982007055664064,-2.918172693481445,8.807848922424315,-1.0640182548709027,-5.303653036126857,7.834762154630334,1.066844858805338,1.3615026774088548,9.850543697102866,-2.996444702148437,1.961708068847656,-0.472259521484375,0.3721655868902438,0.9897743783346036,-0.6697119736089938,-6.590162004743304,25.41532970610119,6.744021461123513,5.861678782251699,-2.088811894950287,-0.7297809829059857,57.4241825517319,-8.60226555635434,-54.63244301994303,33.29220954263636,37.07811423607991,37.70111121095037,1577396036.0,-27.686631836296435,-51.13248315417407,6.1949353
60566,1577396036.08,-0.2966415856933584,-2.5889699652099605,10.850102938537596,1.7850817207150338,4.034930539312595,15.596763936856895,-2.201240407307942,14.13337143351237,14.4785355061849,-9.527206420898438,5.806922912597656,-1.494598388671875,-6.082302186547256,-3.420015660727896,0.1084862685785061,0.3983633858816966,25.88835216703869,-15.610104515438987,6.022272721491472,-1.3292439331501842,-0.7297809829059857,55.58743041497977,-8.479958463136033,-7.47820512820515,33.17240243208434,37.0062299697487,37.58130410039836,1577396036.0,-27.686631836296435,-51.13248315417407,6.1949353
60567,1577396036.09,3.026510318603515,1.5410278985595702,9.423158749084472,0.1809666084103462,-0.1142209377381852,7.015945186856897,1.9526994730631504,-19.715851637776687,8.428387910970052,-0.2193450927734375,6.752967834472656,-2.227020263671875,2.126926329077744,12.540677698647103,3.099208924828506,-4.667554582868304,32.23600841703869,-10.940915062313987,6.022272721491472,-1.3292439331501842,-0.7297809829059857,55.58743041497977,-8.316882338844954,-113.00398860398865,33.41201665318837,37.0062299697487,37.43753556773595,1577396036.0,-27.686631836296435,-51.13248315417407,6.1949353
60568,1577396036.1,1.0728417639160155,-1.1787851873779296,9.952277315979003,3.2335737251095646,-4.033529055413967,7.841944759610804,-4.87795786336263,-3.4855585835774736,3.070164595540364,2.3441314697265625,5.471229553222656,-2.074432373046875,-5.868679139672256,4.270414026772103,0.0779686904535061,-7.414136614118304,25.30851818266369,-0.8090791248139881,5.3798969645323815,-3.6079478185504974,-1.094671474358975,55.394088084795335,-8.724572649572648,-108.43397435897435,33.36409380896756,37.05415281396951,37.58130410039836,1577396036.0,-27.686631836296435,-51.13248315417407,6.1949353
60569,1577396036.11,-0.3181894006347655,-0.7394491827392579,9.521321017150878,0.3114505988888622,1.5329898044493144,7.7545563990151,0.0672656656901043,-0.5143543233235675,8.424796608479818,-6.6280364990234375,5.852699279785156,-2.989959716796875,-5.532985780297256,6.727079065834604,-1.2648047470464938,-6.346021379743304,12.67424083891369,-0.1376924060639881,6.022272721491472,-3.987731799450549,-1.459561965811964,43.11685011808369,-8.68380361849988,-114.87353988603992,33.43597807529876,37.14999850241112,37.60526552250876,1577396036.0,-27.686631836296435,-51.13248315417407,6.1949353
60570,1577396036.12,0.1630451330566406,1.6511611749267576,9.01614446685791,-0.2906911186404339,-5.194716860589748,9.972784237149863,-2.5699474629720047,-10.028911720784505,7.631118758138021,-5.9871673583984375,6.783485412597656,-3.783416748046875,-5.014186952172256,2.469876917397104,-2.668613340796494,-11.350904192243304,2.7255103701636907,5.447024390811012,6.343460599971017,-4.3675157803506,-2.1893429487179423,32.19300846266308,-7.419963655244028,-8.724572649572671,33.36409380896756,37.10207565819032,37.53338125617755,1577396036.0,-27.686631836296435,-51.13248315417407,6.1949353
60571,1577396036.13,-0.5288791467285145,0.5378574029541016,10.21563949859619,-3.4797677299685588,1.19061896704697,8.715828365567836,-0.113496559651692,9.541292649332682,6.14431952718099,-7.299423217773437,7.668495178222656,-3.539276123046875,-14.535671327172256,4.667142542397103,1.2376366592035062,-9.275708879743304,7.791428338913691,-0.4123506091889881,6.343460599971017,-4.3675157803506,-2.1893429487179423,32.19300846266308,-7.419963655244028,-8.724572649572671,33.41201665318837,37.0062299697487,37.58130410039836,1577396036.0,-27.686631836296435,-51.13248315417407,6.1949353
60572,1577396036.14,0.6538564733886719,-1.4086285467529294,8.239226028137207,4.619816486340033,-4.438149135980374,7.401411654142054,3.834541977945962,6.811902756754557,5.045380965169271,-11.083602905273438,7.378578186035156,-3.127288818359375,-4.861599061547256,17.637113245522105,2.946621034203506,-6.742749895368304,12.70475841703869,-8.591061546688987,6.504054539210788,-4.367515780350603,-0.5473357371794875,33.73974710413857,-7.419963655244028,-8.724572649572671,33.31617096474676,37.0062299697487,37.38961272351514,1577396036.0,-27.686631836296435,-51.13248315417407,6.1949353
60573,1577396036.15,-0.2655169641113271,-1.5139734197998047,8.958683627014159,-0.0919723808474657,-0.3883570278260763,7.886237490323695,-0.955058443196614,-10.251572475179035,12.338119222005211,-12.029647827148438,7.546424865722656,-3.508758544921875,-11.911159608422256,5.597928675209603,0.8103905654535062,-9.580884660993304,19.15922619047619,-14.526730492001487,5.701084843011927,-2.84837985675039,0.0,55.97411507534864,-8.316882338844955,-8.724572649572671,33.31617096474676,37.12603708030071,37.48545841195676,1577396036.0,-27.686631836296435,-51.13248315417407,6.1949353
60574,1577396036.16,1.3769053747558593,0.6408080743408202,9.727222359924315,2.141817768078315,0.8961321628477512,13.935187984708458,-3.3456688008626294,-13.715982277425129,16.925409602864587,-9.099960327148438,7.271766662597656,-4.119110107421875,-14.627224061547256,15.409330042397103,-1.7225684189214938,-17.698560442243302,47.06755138578869,14.785403297061013,5.701084843011927,-2.84837985675039,0.0,57.32751138663969,-8.724572649572648,-7.062749287749304,33.36409380896756,37.10207565819032,37.91676400994399,1577396036.0,-27.686631836296435,-51.13248315417407,6.1949353
60575,1577396036.17,-0.3541024255371083,0.4085705133056641,9.71764555328369,1.071609625988471,0.6016453586485324,9.917717598966272,1.5911750223795569,8.835003159586588,14.626976009114586,-8.916854858398438,8.736610412597656,-4.332733154296875,-12.399440858422256,-2.382418004477896,0.4441796279535062,-17.607007707868302,72.64128185453869,13.839358375186013,5.701084843011927,-2.84837985675039,0.0,56.94082672627082,-8.398420400990494,-8.724572649572671,33.36409380896756,37.05415281396951,37.58130410039836,1577396036.0,-27.686631836296435,-51.13248315417407,6.1949353
60576,1577396036.18,0.2037465612792968,-3.1192856329345697,9.485407992248534,-1.9235366508669964,-3.04232956810928,3.1612805140053357,2.386049973551432,13.522850010172526,13.487336018880212,-13.998031616210938,7.454872131347656,-4.027557373046875,-7.241970155297256,4.514554651772103,0.0169335342035061,-12.022290910993304,84.54313732328869,-6.363278343563988,4.496630298713633,-4.272569785125589,-1.1858940972222205,58.4875653677463,-8.724572649572648,-7.062749287749304,33.45993949740917,37.10207565819032,37.725072633060776,1577396036.0,-27.686631836296435,-51.13248315417407,6.1949353
60577,1577396036.19,-0.1577778894042958,-3.829166425170898,8.575611361389159,1.575589075451362,-2.9561383083436543,13.171437655118616,-0.9299193257649738,3.904144840494791,8.373321272786459,-15.142440795898438,7.973670959472656,-3.752899169921875,-11.178737733422256,11.426786097084603,0.0474511123285061,-7.887159075055804,83.45976329985118,-21.850949242001487,5.219303025292609,-1.51913592360021,-1.2771167200854656,57.327511386639685,-8.479958463136033,-8.309116809116826,33.41201665318837,37.05415281396951,37.58130410039836,1577396036.0,-27.686631836296435,-51.13248315417407,6.1949353
60578,1577396036.2,0.9842563024902344,2.0629638604736327,9.739193368225097,0.6789605537228461,1.470740561285251,10.16671457162252,-5.359192397054036,-20.735781545003253,-0.7485870524088535,-7.482528686523437,9.499549865722656,-4.271697998046875,-7.699733827172256,11.350492151772103,1.0850487685785062,-13.639722551618304,40.78093029203869,-16.006833031063987,5.219303025292609,-1.51913592360021,-1.2771167200854656,55.97411507534864,-8.316882338844954,-8.309116809116826,33.41201665318837,37.0062299697487,37.58130410039836,1577396036.0,-27.686631836296435,-51.13248315417407,6.1949353
60579,1577396036.21,0.8573636145019531,1.3973757989501951,14.623364754943848,1.394826850109565,4.456310031500095,9.999120455411584,-8.407011110432942,-10.091160963948566,0.5035804158528643,-7.909774780273437,10.201454162597656,-5.278778076171875,-13.742214295922256,-0.5208457388528964,-0.6849707626714938,-13.426099504743304,8.21867443266369,22.323245093936013,5.219303025292609,-1.51913592360021,-1.2771167200854656,56.94082672627082,-8.724572649572648,-8.724572649572671,33.22032527630515,37.0062299697487,37.62922694461916,1577396036.0,-27.686631836296435,-51.13248315417407,6.1949353
60580,1577396036.22,-0.6210559106445306,-0.4689043951416014,7.977060946350097,-0.4882127556033251,-3.039935366449123,8.287266268399867,1.1326854044596353,0.8742826395670574,12.316571407063805,-16.607284545898438,9.072303771972656,-5.065155029296875,-7.409816834984756,11.350492151772103,-0.8528174423589938,-14.341626848493304,-2.9355003720238093,8.315676734561013,6.022272721491472,-3.03827184720042,-0.7297809829059857,58.4875653677463,-8.724572649572648,-8.724572649572671,33.36409380896756,37.07811423607991,37.55734267828795,1577396036.0,-27.686631836296435,-51.13248315417407,6.1949353
60581,1577396036.23,-0.6270414147949218,-7.863396222534179,6.253235751037597,-3.910724028796684,-5.321609548578029,13.841814119962365,0.4180162089029944,4.630785044352214,11.753934016927088,-18.65196228027344,8.584022521972656,-2.989959716796875,-17.007595155297256,4.575589808022103,-2.516025450171494,-9.245191301618304,4.617600213913691,-5.539303734188988,5.3798969645323815,-3.6079478185504974,-1.824452457264953,55.78077274516421,-8.724572649572648,-17.033689458689466,33.50786234162997,37.10207565819032,37.62922694461916,1577396036.0,-27.686631836296435,-51.13248315417407,6.1949353
60582,1577396036.24,-2.4250868615722654,-2.5362975286865237,9.79426000640869,-3.640179241199028,0.2975817478086887,11.948000606778772,-0.6569803365071608,2.581348423258464,11.557609480794271,-8.947372436523438,9.530067443847656,-3.081512451171875,-6.875759217797256,13.151029261147103,-1.2342871689214938,-2.5923592703683034,5.441574823288691,-18.204098656063987,6.6646484784505615,-1.3292439331501842,-1.824452457264953,55.97411507534864,-7.012273344516334,-29.91282051282053,33.31617096474676,37.0062299697487,37.53338125617755,1577396036.0,-27.686631836296435,-51.13248315417407,6.1949353
60583,1577396036.25,-3.272634249267578,1.3494917657470702,12.128606625061034,-2.139014800281059,-0.7055887477967789,10.492325997403771,1.1769781351725257,-7.986657704671224,14.370796431477867,1.4896392822265625,8.004188537597656,-3.264617919921875,-12.185817811547256,8.725980433022103,-0.3797949814214938,-6.101880754743304,8.89006115141369,-17.471676781063987,6.6646484784505615,-1.3292439331501842,-1.824452457264953,55.78077274516421,-8.398420400990494,-31.99009971509973,33.50786234162997,37.0062299697487,37.725072633060776,1577396036.0,-27.686631836296435,-51.13248315417407,6.1949353
60584,1577396036.26,-1.6361974145507812,-1.2338518255615232,13.709976821594235,1.0129516853146432,-0.5212352199647483,7.9365157251869745,-2.134202760823567,-4.503094289143879,13.863225679524742,-5.9566497802734375,7.760047912597656,-3.493499755859375,-6.753688905297256,2.515653284584604,0.9934960342035062,-9.275708879743304,13.78813244047619,7.506960914248513,5.219303025292609,-3.228163837650446,-2.006897702991448,55.394088084795335,7.33842559309849,-60.65655270655273,33.38805523107796,37.05415281396951,37.62922694461916,1577396036.0,-27.686631836296435,-51.13248315417407,6.1949353
60585,1577396036.27,-2.5878925744628907,-6.436452033081054,12.46858326080322,-0.9275487602419964,-3.5977843532655296,10.846667843106896,3.154588706461588,5.042587729899088,14.480929707845055,-11.999130249023438,2.907752990722656,-2.593231201171875,-11.483913514672256,1.7069374642721036,-4.286044981421494,-7.627759660993304,27.62785412016369,2.975100562686012,5.701084843011927,-4.3675157803506,-2.9191239316239352,61.58104265069727,-7.909192028117261,-114.25035612535616,33.31617096474676,37.0062299697487,37.43753556773595,1577396036.0,-27.686631836296435,-51.13248315417407,6.1949353
60586,1577396036.28,-0.2272097375488271,-3.510737604370117,8.566034554748533,-0.8269922905154339,-2.4509617580506853,17.289464510587365,-3.0775182149251297,-2.072979604085286,6.211357173665364,-8.489608764648438,2.541542053222656,-2.532196044921875,-8.157497499047256,3.751615198647104,-2.424472715796494,-4.820142473493304,24.75920177641369,-2.884274437313988,6.182866660731244,-4.55740777080063,-2.006897702991451,55.394088084795335,-8.724572649572648,-114.25035612535616,33.31617096474676,37.10207565819032,37.58130410039836,1577396036.0,-27.686631836296435,-51.13248315417407,6.1949353
60587,1577396036.29,0.550905802001953,-0.0846350286865224,11.712015536193846,-3.192463530749809,1.7987461887266574,13.559298324063928,-2.5483996480305984,7.870139890543619,2.361480904134114,3.9920806884765625,5.471229553222656,-1.708221435546875,-4.068142030297256,3.934720667397104,-0.2272070907964938,-1.3411385672433034,3.0917213076636907,-8.438473656063987,6.182866660731244,-4.55740777080063,-2.006897702991451,55.394088084795335,-7.419963655244028,-114.25035612535616,33.41201665318837,36.81453859286549,37.772995477281576,1577396036.0,-27.686631836296435,-51.13248315417407,6.1949353
60588,1577396036.3,-0.6461950280761718,-1.3451822027587887,10.708845040588375,2.261527851086127,0.2305441013243142,7.68512455087057,1.1566274210611978,-4.676673909505208,7.5197883809407555,0.8029937744140625,5.623817443847656,-2.303314208984375,-4.724269959984756,7.383206995522103,0.6578026748285062,-2.393995012555804,-22.42097400483631,-11.093502952938987,5.3798969645323815,-3.987731799450549,-1.2771167200854656,33.44973360886192,-0.2038451553638474,-50.89334045584048,33.29220954263636,37.14999850241112,37.60526552250876,1577396036.0,-27.686631836296435,-51.13248315417407,6.1949353
60589,1577396036.31,-2.676478035888672,-2.7829002996826167,10.85967974517822,-3.668909661120903,-1.4214550441834977,8.632031307462366,-2.371228725179036,-7.309098634847005,9.177773030598958,-7.1163177490234375,3.212928771972656,-2.745819091796875,-2.633815858422256,-0.0020469107278963,-3.004306700171494,-1.7378670828683034,-50.40559314546131,1.021975562686012,5.701084843011927,-3.6079478185504974,-1.094671474358975,58.4875653677463,8.887648773863726,11.217307692307685,33.22032527630515,36.910384281307095,37.725072633060776,1577396036.0,-27.686631836296435,-51.13248315417407,6.1949353
60590,1577396036.32,-2.1593304772949216,-2.11731223815918,9.918758492736815,-0.7719256523318402,-1.8787475612733413,13.05891017709127,-3.769442494710286,-11.367270448811848,14.083492232259117,-6.2618255615234375,2.175331115722656,-3.997039794921875,-0.833278749047256,6.925443323647103,-3.126377012671494,-6.010328020368304,-24.86238025483631,12.374514625186013,5.058709086052835,-5.127083742150708,-0.3648904914529891,58.4875653677463,8.887648773863726,11.217307692307685,33.41201665318837,37.24584419085272,37.58130410039836,1577396036.0,-27.686631836296435,-51.13248315417407,6.1949353
60591,1577396036.33,-3.2846052575683595,-1.4804545965576172,10.98178402984619,0.6478359321408149,-6.018322231683498,11.785194893888146,0.8370014994303382,15.644112681070965,17.523960017903647,-3.7593841552734375,0.5578994750976562,-3.142547607421875,-3.793483827172256,-5.129000035727897,-2.027744200171494,-2.9280526297433034,-0.2652122860863095,4.592532203311012,5.058709086052835,-5.127083742150708,-0.3648904914529891,60.03430400922179,-8.724572649572648,-8.724572649572671,33.55578518585078,37.341689879294336,37.58130410039836,1577396036.0,-27.686631836296435,-51.13248315417407,6.1949353
60592,1577396036.34,-1.7499219934082029,-1.6360777044677732,10.871650753479004,-0.2092882621951219,-1.0814784084413105,11.581687752774863,-0.3684790364583327,2.292847123209635,15.913859401448567,-3.484725952148437,-1.5630722045898438,-1.464080810546875,-3.015285584984756,-1.8178428091653964,-1.7225684189214938,-3.828321184430804,41.31498790922619,0.1522245861235118,6.022272721491472,-3.2281638376504445,-0.5473357371794837,55.58743041497977,-7.9091920281172605,-42.79195156695159,33.29220954263636,37.00622996974871,37.60526552250876,1577396036.0,-27.686631836296435,-51.13248315417407,6.1949353
60593,1577396036.35,-0.9957484704589844,0.5546168145751953,9.904393282775878,-4.751088811511528,0.3885614108946262,13.760411263517051,-2.134202760823567,-1.785675404866536,9.946311763509115,2.7408599853515625,-2.188682556152344,-1.403045654296875,-4.190212342797256,-0.9480918326028964,-1.3868750595464938,-2.1345955984933034,39.98747326078869,-10.513668968563987,5.219303025292609,-4.55740777080063,0.5473357371794949,55.394088084795335,-8.398420400990494,7.062749287749271,33.50786234162997,37.0062299697487,37.58130410039836,1577396036.0,-27.686631836296435,-51.13248315417407,6.1949353
60594,1577396036.36,0.3833116857910156,-0.5778405706787109,10.071987398986815,-0.8078386772341839,1.9615519016172824,12.59443505502096,-1.336933607991536,1.271720115152994,4.980737520345052,-1.8367767333984373,-0.2050399780273437,-1.769256591796875,-3.061061952172256,0.0895058236471036,1.2376366592035062,1.6495840890066966,23.87419201078869,-15.243893577938987,4.737521207573292,-3.987731799450549,-1.4595619658119638,56.16745740553308,-8.398420400990494,-8.724572649572671,33.36409380896756,37.10207565819032,37.58130410039836,1577396036.0,-27.686631836296435,-51.13248315417407,6.1949353
60595,1577396036.37,2.534501877441406,-5.4021569158935545,9.862494753723144,6.171259162121284,-4.600954848870998,12.122777327970178,2.0197371195475258,-0.1887428975423173,2.8259560262044268,-4.1103363037109375,0.8783340454101562,-2.227020263671875,-3.885036561547256,8.573392542397103,-1.3258399032964938,3.2975333077566966,-14.79157947358631,-18.997555687313987,4.737521207573292,-4.367515780350603,-1.2771167200854694,56.55414206590194,-8.724572649572648,-8.724572649572671,33.24428669841555,37.05415281396951,37.38961272351514,1577396036.0,-27.686631836296435,-51.13248315417407,6.1949353
60596,1577396036.38,0.301908829345703,1.19626285949707,3.873399300842284,0.1821637092404247,1.4910912753965797,6.928556826261195,-3.9873148457845047,-14.490506514485675,8.617529842122396,-2.416610717773437,1.2292861938476562,-2.104949951171875,-1.3825951552972562,-5.037447301352897,-4.072421934546494,-0.2425057547433033,-23.42805408296131,10.894412086123513,4.898115146813064,-3.0382718472004164,0.1824452457264983,57.52085371682412,-1.7938373672018528,-56.086538461538495,33.50786234162997,36.93434570341749,37.67714978883997,1577396036.0,-27.686631836296435,-51.13248315417407,6.1949353
60597,1577396036.39,-2.516066524658203,3.1810560357666016,11.769476376037597,-4.233941252917778,1.0158422458555638,17.040467537931114,-3.187651491292317,15.20597377726237,18.077020601399735,5.7621002197265625,0.5273818969726562,-2.196502685546875,5.300754454077744,6.925443323647103,-4.804843809546494,-2.1651131766183034,-9.08479236421131,17.348879859561013,6.50405453921079,-2.6584878663003684,-1.2771167200854656,59.64761934885292,-8.724572649572648,-114.25035612535616,33.41201665318837,37.24584419085272,37.58130410039836,1577396036.0,-27.686631836296435,-51.13248315417407,6.1949353
60598,1577396036.4,-2.6692954309082038,-2.5889699652099605,10.071987398986815,-1.5596179985232466,-8.469984731683498,6.671180147794398,-2.9362603169759107,9.574811472574869,8.409234297688801,4.2057037353515625,0.7410049438476562,-1.616668701171875,4.049533750952744,-11.415621129477897,-1.2037695907964938,0.7645743233816966,-1.1197044735863095,-2.548581077938988,4.576927268333519,-2.2787038854003168,0.1824452457264983,59.64761934885292,-8.724572649572648,-114.25035612535616,33.31617096474676,36.910384281307095,37.58130410039836,1577396036.0,-27.686631836296435,-51.13248315417407,6.1949353
60599,1577396036.41,-3.0930691247558597,-3.710653442993164,13.138959725646972,-0.7719256523318402,1.4515869480040011,3.082271859220179,2.038890732828776,6.455166709391276,0.4317543660481767,-2.874374389648437,-1.105308532714844,-1.555633544921875,-6.387477967797256,2.897123011147104,-0.6239356064214938,6.562914167131696,-23.42805408296131,-12.894040062313987,4.576927268333519,-2.2787038854003168,0.1824452457264983,56.94082672627082,-6.115354660915408,-115.08126780626785,33.53182376374038,37.10207565819032,37.58130410039836,1577396036.0,-27.686631836296435,-51.13248315417407,6.1949353
60600,1577396036.42,-0.7802703210449218,-1.2673706488037109,8.803060519104003,-0.6821430900759813,-2.87593255272842,9.027074581388147,-5.23589101155599,-2.028686873372396,3.956019209798177,1.5506744384765625,-1.944541931152344,-1.708221435546875,4.659885313452744,2.088407190834604,-0.5171240829839938,8.470262799944196,-50.28352283296131,-19.836789085751487,4.898115146813064,-4.177623789900575,-1.2771167200854656,58.68090769793074,-8.64303458742711,-82.67571225071228,33.41201665318837,37.19792134663192,37.461496989846346,1577396036.0,-27.686631836296435,-51.13248315417407,6.1949353
60601,1577396036.43,-1.1896788049316405,-0.2546233465576171,6.77517171295166,-0.2835085136599652,1.0972451023008762,11.991096236661583,-1.7080348653157549,-19.59614155476888,14.875972981770836,6.0367584228515625,-3.684043884277344,-0.304412841796875,3.957981016577744,2.500394495522104,-2.424472715796494,4.152025495256696,-60.81208728608631,3.219241187686012,5.701084843011927,-1.7090279140502358,-0.3648904914529891,33.15972011358526,-8.64303458742711,-4.985470085470089,33.31617096474676,37.0062299697487,37.62922694461916,1577396036.0,-27.686631836296435,-51.13248315417407,6.1949353
60602,1577396036.44,-3.694013741455078,2.7453113336181643,6.9331890225219714,3.583127167492377,-0.504475808343654,6.659209139493616,-2.835703847249348,-14.202005214436848,15.893508687337242,7.226943969726562,-3.348350524902344,-1.677703857421875,8.505100157202744,-7.845064488852897,0.1084862685785061,0.1847403390066966,-34.23127673921131,28.152102515811013,4.416333329093747,-3.6079478185504974,0.0,33.15972011358526,-8.64303458742711,-4.985470085470089,33.41201665318837,37.05415281396951,37.62922694461916,1577396036.0,-27.686631836296435,-51.13248315417407,6.1949353
60603,1577396036.45,-0.6713341455078119,-2.8463466436767573,5.439207186584472,-1.861287407702934,-4.232247793206936,0.6713107874428353,-2.8859820821126294,4.664303867594401,15.53198423665365,-3.6373138427734375,-7.834434509277344,-1.189422607421875,2.004856016577744,-14.375826207602897,-0.5934180282964938,-5.308423723493304,-0.2652122860863095,20.736331031436013,4.416333329093747,-3.6079478185504974,0.0,33.15972011358526,-8.64303458742711,-4.985470085470089,33.579746607961184,36.86246143708629,37.62922694461916,1577396036.0,-27.686631836296435,-51.13248315417407,6.1949353
60604,1577396036.46,-0.5312733483886708,-7.209779169311523,9.394428329162595,2.03647289503144,-5.110919802484279,16.60951123910299,5.359648435465495,18.58299521891276,19.520724202473957,-2.599716186523437,-5.789756774902344,-1.555633544921875,1.928562071265244,-2.0925010122903966,-2.195590879858994,5.998338971819196,39.48393322172619,-5.371457054501487,5.058709086052835,-3.987731799450549,-0.3648904914529891,56.16745740553308,-8.724572649572648,-6.231837606837628,33.50786234162997,37.12603708030072,37.48545841195676,1577396036.0,-27.686631836296435,-51.13248315417407,6.1949353
60605,1577396036.47,-2.920686605224609,-3.5849578558349604,15.42542231109619,-3.2930200004763712,-1.6321447902772477,8.354303914884241,-0.1996878194173171,-10.000181300862629,16.45614607747396,9.393692016601562,-8.536338806152344,-0.182342529296875,7.528537657202744,-14.619966832602897,-1.2037695907964938,8.241380964006696,73.61784435453869,-22.018795921688987,5.540490903772155,-4.177623789900575,-1.2771167200854656,56.55414206590194,-8.724572649572648,-3.7391025641025832,33.31617096474676,37.0062299697487,37.43753556773595,1577396036.0,-27.686631836296435,-51.13248315417407,6.1949353
60606,1577396036.48,-1.8409016564941405,-1.4972140081787109,16.514784066467282,0.8130358466915961,0.989506027593845,15.922375362638146,-1.9761854512532544,-9.700906093343098,13.250310054524745,15.100479125976562,-11.466026306152344,-1.525115966796875,2.432102110327744,-1.3143027701028964,-4.102939512671494,6.959642682756696,81.09465099516369,-14.847165062313987,4.898115146813064,-2.6584878663003684,-0.5473357371794875,56.55414206590194,-8.561496525281571,-7.8936609686609795,33.50786234162997,37.24584419085272,37.725072633060776,1577396036.0,-27.686631836296435,-51.13248315417407,6.1949353
60607,1577396036.49,-6.778942580566406,0.1368286248779296,14.234306985168455,-2.044443834704888,0.3299034702207986,12.884133455899866,-6.798107594807942,-5.896519655354818,10.92554024251302,14.001846313476562,-9.085655212402344,-0.487518310546875,7.803195860327744,-16.542574254477895,-4.972690489233994,3.877367292131696,63.36393810453869,11.291140601748513,4.898115146813064,-2.6584878663003684,-0.5473357371794875,59.84096167903736,-8.724572649572648,-8.724572649572671,33.579746607961184,37.12603708030072,37.653188366729566,1577396036.0,-27.686631836296435,-51.13248315417407,6.1949353
60608,1577396036.5,-2.597469381103516,-4.832336920776367,10.060016390686034,-3.944242852038872,-6.434913320550685,15.366920577481896,-5.792542897542317,1.0993375956217442,1.6097015828450516,-3.545761108398437,-28.616905212402344,0.916290283203125,24.160617735327744,-14.192720738852897,-3.706210997046494,5.647386823381696,13.00993419828869,11.275881812686013,6.825242417690333,-3.0382718472004164,-0.1824452457264983,55.58743041497977,-8.64303458742711,-4.985470085470089,33.50786234162997,37.0062299697487,37.725072633060776,1577396036.0,-27.686631836296435,-51.13248315417407,6.1949353
60609,1577396036.51,0.6466738684082032,-7.078098078002929,5.403294161682128,-1.736788921374809,-5.242600893792873,11.44521825814596,0.9638941874186194,11.408769944254557,14.330095003255211,-1.2874603271484375,-15.494346618652344,-0.273895263671875,18.514865782202744,-17.671724645102895,-1.6004981064214938,15.168871198381696,0.5892799014136905,-6.851559593563988,5.3798969645323815,-4.3675157803506,-1.4595619658119638,55.58743041497977,-8.64303458742711,-4.985470085470089,33.31617096474676,37.341689879294336,37.58130410039836,1577396036.0,-27.686631836296435,-51.13248315417407,6.1949353
60610,1577396036.52,-1.80259442993164,-3.544256427612304,16.210720455627442,3.10907523878144,-5.3263979518983415,21.989282369474083,-3.367216615804036,-5.59485024617513,20.770497469075515,19.83070373535156,-13.129234313964844,3.479766845703125,23.885959532202744,-9.279390660727897,-1.4479102157964938,18.43425205775669,16.00065685453869,-7.980709984188988,6.182866660731244,-3.0382718472004164,-1.2771167200854656,61.58104265069727,-7.419963655244028,1.2463675213675056,33.22032527630515,37.0062299697487,37.58130410039836,1577396036.0,-27.686631836296435,-51.13248315417407,6.1949353
60611,1577396036.53,-4.278198946533203,1.2082338677978517,26.228060201721192,-1.5907426201052783,4.206115958013768,15.726050826505334,-7.373913094075521,1.575783725992838,18.145255348714198,27.97889709472656,-13.571739196777344,2.838897705078125,35.65048589939025,-35.9212363638529,-2.638095762671494,17.930712018694194,18.97612072172619,-3.158932640438988,6.182866660731244,-3.0382718472004164,-1.2771167200854656,56.74748439608639,-8.64303458742711,-15.371866096866114,33.22032527630515,37.22188276874232,37.58130410039836,1577396036.0,-27.686631836296435,-51.13248315417407,6.1949353
60612,1577396036.54,2.0017920080566407,-3.5873520574951168,15.52119037750244,1.528902143078315,-3.0590889797303733,20.085892049649864,-0.7024701680501295,-20.95844229939778,15.579868269856773,18.45741271972656,-13.083457946777344,1.404571533203125,55.04440679782775,-30.42807230135289,-5.048984434546494,13.398851667131696,10.62956310453869,11.275881812686013,6.022272721491472,-5.50686772305076,-0.7297809829059857,56.94082672627082,-8.07226815240834,-20.3573361823362,33.17240243208434,37.0062299697487,37.58130410039836,1577396036.0,-27.686631836296435,-51.13248315417407,6.1949353
60613,1577396036.55,2.0664354528808597,-7.233721185913085,7.124725155334472,3.4921475044064394,-5.865093325433498,19.4274865931069,-4.69839273885091,13.5898876566569,5.189033064778646,11.438369750976562,-11.374473571777344,2.136993408203125,17.416232969702744,-4.854341832602897,-4.682773497046494,20.60100010463169,-1.4553978329613095,3.982180640811012,6.9858363569301085,-2.4685958758503426,-0.7297809829059857,56.94082672627082,-8.07226815240834,-20.3573361823362,33.50786234162997,37.10207565819032,37.43753556773595,1577396036.0,-27.686631836296435,-51.13248315417407,6.1949353
60614,1577396036.56,2.4734497351074216,-2.791280005493164,10.353306094055174,-0.3888533867068403,-3.164433852777248,11.598447164395958,-2.217999818929036,1.2645375101725254,11.021308308919274,22.33314514160156,-7.224082946777344,3.693389892578125,2.279514219702744,6.620267542397103,-2.851718809546494,27.22331455775669,-26.78498767671131,-6.576901390438988,5.701084843011927,-3.228163837650444,-2.189342948717946,55.394088084795335,-8.07226815240834,-46.94650997151,33.41201665318837,37.10207565819032,37.62922694461916,1577396036.0,-27.686631836296435,-51.13248315417407,6.1949353
60615,1577396036.57,-0.6342240197753906,1.4955380670166014,14.857996517639158,0.6430475288205024,1.7053723239805636,15.758372548917444,-4.215961104329426,2.6507802714029944,14.527616640218104,30.96961975097656,-1.6698837280273438,3.479766845703125,14.166110899390244,8.893827112709603,-3.385776426733994,27.28434971400669,-33.45307849702381,-1.236325218563988,5.701084843011927,-3.6079478185504974,-2.554233440170939,57.907538377193,-8.316882338844955,-76.85933048433051,33.36409380896756,37.14999850241112,37.653188366729566,1577396036.0,-27.686631836296435,-51.13248315417407,6.1949353
60616,1577396036.58,-1.0101136804199218,-1.920987702026367,10.35689739654541,-4.734329399890433,-2.6496804958436546,9.419723653653774,-9.738187233479817,-7.285156618245443,6.98707851155599,22.72987365722656,-2.341270446777344,2.228546142578125,29.623264219702744,-11.140962926352897,-3.278964903296494,24.56828526088169,-36.03181384858631,4.623049781436012,6.50405453921079,-2.6584878663003684,-1.6420072115384547,58.4875653677463,-8.398420400990494,-115.08126780626785,33.50786234162997,37.0062299697487,37.58130410039836,1577396036.0,-27.686631836296435,-51.13248315417407,6.1949353
60617,1577396036.59,-0.8904035974121093,-3.980001129760742,12.41112242095947,-1.3225920341677777,-6.662362478265529,13.676614205411584,-5.601006764729817,-3.3490890889485674,1.892217378743489,17.084121704101562,-4.416465759277344,4.242706298828125,28.372043516577744,5.430081995522103,-3.431552793921494,25.11760166713169,-56.17341541108631,8.132571265811013,5.058709086052835,-2.4685958758503426,-0.7297809829059857,58.4875653677463,-8.398420400990494,-115.08126780626785,33.55578518585078,37.0062299697487,37.62922694461916,1577396036.0,-27.686631836296435,-51.13248315417407,6.1949353
60618,1577396036.6,1.5253458776855466,-2.1963208929443354,6.428012472229003,3.207237506847846,-6.025504836663966,8.22741122689596,3.070791648356119,9.70170416056315,8.045315645345053,26.23939514160156,0.4816055297851562,5.204010009765625,20.193332579077744,2.347806604897104,-0.1966895126714938,30.48869541713169,-68.96028064546131,-0.6870088123139881,6.102569691111358,-3.702893813775508,-0.0912226228632453,55.394088084795335,-8.398420400990494,-110.09579772079776,33.36409380896756,37.0062299697487,37.53338125617755,1577396036.0,-27.686631836296435,-51.13248315417407,6.1949353
60619,1577396036.61,1.7887080603027343,4.725316106567383,16.909827340393065,-0.2823114128298876,4.192947848882907,10.740125869229944,-2.839295149739583,-2.0334752766927084,11.7311891011556,29.38270568847656,0.9851455688476562,5.799102783203125,28.814548399390244,-0.5971396841653966,-1.8141211532964936,28.886522565569194,-76.68122791108631,5.248660132998513,6.6646484784505615,-4.3675157803506,0.7297809829059857,32.483021957939734,7.86842299704449,-111.54989316239318,33.50786234162997,37.03019139185911,37.48545841195675,1577396036.0,-27.686631836296435,-51.13248315417407,6.1949353
60620,1577396036.62,-0.4163516687011708,3.8801629205322254,15.013619625549316,0.7986706367306586,-2.158869155511623,10.841879439786585,-0.8102092427571608,-0.7178614644368486,7.238469685872396,31.15272521972656,3.670692443847656,4.944610595703125,23.855441954077744,12.693265589272103,-2.088779356421494,23.74431065150669,-75.91828845796131,15.151614234561013,6.022272721491472,-3.6079478185504974,-1.4595619658119638,32.19300846266308,7.746115903826182,-115.08126780626785,33.50786234162997,37.24584419085272,37.62922694461916,1577396036.0,-27.686631836296435,-51.13248315417407,6.1949353
60621,1577396036.63,-0.2176329309082021,-4.303218353881835,7.910023299865721,3.6262227973751897,-6.454066933831935,5.634490828946742,3.2000785380045564,1.4081896097819002,6.596823640950521,9.027481079101562,-1.7004013061523438,4.120635986328125,21.688693907202744,-10.561128941977897,-1.9361914657964936,26.55192783900669,-78.90901111421131,-1.388913109188988,7.14643029616988,-1.1393519427001584,1.2771167200854732,60.03430400922179,8.398420400990496,5.400925925925918,33.41201665318837,37.24584419085272,37.53338125617755,1577396036.0,-27.686631836296435,-51.13248315417407,6.1949353
60622,1577396036.64,1.1865663427734374,-1.3607445135498044,6.51300663116455,-2.0588090446658245,-0.2279455165956075,4.650473946622522,0.6993349039713541,-8.58161681722005,10.241995668538411,18.045425415039062,2.114295959472656,4.242706298828125,25.381320860327744,3.034452112709604,-1.0054053329839938,25.88054112025669,-72.17988513764881,4.012698218936013,6.022272721491472,-4.367515780350603,0.1824452457264946,58.4875653677463,9.295339084591422,-97.21666666666668,33.41201665318837,37.24584419085272,37.62922694461916,1577396036.0,-27.686631836296435,-51.13248315417407,6.1949353
60623,1577396036.65,1.6498443640136715,1.665526384887695,9.234016817932128,0.0899869453244087,0.6567119968321262,11.770829683927207,-4.765430385335286,0.8551290262858066,8.756393538411459,26.88026428222656,2.388954162597656,6.409454345703125,18.179172422827744,6.681302698647103,-1.7225684189214938,23.59172276088169,-62.09382556733631,5.904788062686012,5.701084843011927,-3.987731799450549,-0.7297809829059857,60.03430400922179,4.973821790877866,4.570014245014226,33.41201665318837,37.0062299697487,37.53338125617755,1577396036.0,-27.686631836296435,-51.13248315417407,6.1949353
60624,1577396036.66,1.2715605017089844,2.1922507501220703,9.732010763244627,4.569538251476752,0.7764220798399387,10.23135801644674,4.550408274332681,4.314750425211589,12.759498714192713,23.55384826660156,3.090858459472656,5.280303955078125,22.756809141577744,5.185941370522103,0.5967675185785062,23.16447666713169,-42.22688220796131,5.385989234561012,5.701084843011927,-4.747299761250656,-1.4595619658119638,60.03430400922179,4.973821790877866,4.570014245014226,33.31617096474676,36.910384281307095,37.53338125617755,1577396036.0,-27.686631836296435,-51.13248315417407,6.1949353
60625,1577396036.67,1.6211139440917963,0.8012195855712889,7.372525027160644,1.9167628120236275,1.2337145969297822,2.7758140467201797,2.1897254374186192,4.125608494059245,7.034962544759114,18.18275451660156,2.434730529785156,3.876495361328125,22.787326719702744,-0.3987754263528963,0.4746972060785062,21.02824619838169,-31.39314197358631,0.3200712658110119,5.9419757518715866,-3.5130018233254847,-0.2736678685897437,60.03430400922179,4.973821790877866,4.570014245014226,33.43597807529877,37.05415281396951,37.58130410039836,1577396036.0,-27.686631836296435,-51.13248315417407,6.1949353
60626,1577396036.68,0.1175553015136718,-1.6097414862060546,7.49582641265869,-0.0117666252322313,0.0054891452696267,8.190301101163538,-1.9749883504231764,-1.4696407857259115,2.7098372456868494,12.445449829101562,4.189491271972656,2.655792236328125,17.309421446265244,9.565213831459603,-2.744907286108994,19.99064854213169,-52.60285877046131,2.532595679873512,5.8616787822517,-3.418055828100472,-0.5473357371794875,55.78077274516421,-1.3046089943286203,-98.4630341880342,33.41201665318837,37.12603708030071,37.67714978883997,1577396036.0,-27.686631836296435,-51.13248315417407,6.1949353
60627,1577396036.69,-0.0667982263183583,1.94325377746582,6.878122384338378,0.6119229072384712,-2.2713966335389664,8.919335506681117,-0.0273052998860671,0.7976681864420566,0.290496468098958,15.314102172851562,5.471229553222656,2.259063720703125,17.904514219702744,-4.060884801352897,-0.9901465439214938,22.15739658900669,-87.48445056733631,-7.431393577938988,5.8616787822517,-3.418055828100472,-0.5473357371794875,55.78077274516421,-8.724572649572648,-102.61759259259262,33.41201665318837,37.05415281396951,37.725072633060776,1577396036.0,-27.686631836296435,-51.13248315417407,6.1949353
60628,1577396036.7,1.048899747314453,2.620812847290039,7.651449520568847,-1.1454211113162152,5.394837082281345,2.8189096766029915,-1.777466713460286,-10.660980959065752,3.0557993855794265,18.39637756347656,5.654335021972656,2.564239501953125,15.432590391577744,-4.549166051352897,-1.7530859970464938,18.67839268275669,-106.61897205171132,6.240481422061012,5.8616787822517,-3.797839809000523,-0.9122262286324764,55.394088084795335,-8.724572649572648,-102.61759259259262,33.41201665318837,36.81453859286549,37.58130410039836,1577396036.0,-27.686631836296435,-51.13248315417407,6.1949353
60629,1577396036.71,0.9471461767578124,1.0705672723388673,6.042546004943847,-0.6498213676638714,-1.0479595851991228,4.030375716642054,-0.4750210103352858,-0.95967583211263,8.452329927571615,14.26124572753906,5.272865295410156,2.365875244140625,12.319797422827744,18.064359339272105,-0.4408301376714938,17.274584089006698,-100.79011462983632,15.609377906436013,6.263163630351131,-3.1332178424254327,0.8210036057692349,56.36079973571752,6.196892723060947,-108.01851851851852,33.31617096474676,37.19792134663192,37.58130410039836,1577396036.0,-27.686631836296435,-51.13248315417407,6.1949353
60630,1577396036.72,0.5485116003417968,-2.888245172729492,3.5358168667602525,0.1941347175412061,-1.8057244106385768,4.468514620450648,2.22085005900065,2.3048181315104164,12.356075734456384,9.210586547851562,6.173133850097656,2.838897705078125,14.913791563452744,7.215360315834603,-0.1966895126714938,15.550340924944198,-70.28779529389881,3.066653297061012,6.50405453921079,-3.418055828100472,-1.6420072115384547,56.16745740553307,-8.153806214553878,-113.41944444444448,33.41201665318837,37.03019139185911,37.653188366729566,1577396036.0,-27.686631836296435,-51.13248315417407,6.1949353
60631,1577396036.73,-1.9606117395019529,2.0821174737548827,9.629060091857909,1.3541254218869088,2.07168517798447,6.663997542813929,2.127476194254557,-1.1751539815266925,10.604717220052086,14.245986938476562,3.151893615722656,1.801300048828125,12.655490782202744,6.376126917397103,-2.973789122046494,14.772142682756696,-39.08357166108631,2.090090797061012,6.50405453921079,-3.418055828100472,-1.6420072115384547,56.55414206590194,-8.07226815240834,-111.7576210826211,33.41201665318837,37.0062299697487,37.725072633060776,1577396036.0,-27.686631836296435,-51.13248315417407,6.1949353
60632,1577396036.74,-1.833719051513672,1.0190919366455078,8.77911850250244,-3.5468053764529337,1.5689028293516574,1.3895712854897102,1.9431226664225256,4.173492527262369,7.3150841389973955,14.276504516601562,3.426551818847656,0.672149658203125,8.108371641577744,-3.755709020102896,-5.659335997046494,14.161791120256696,-28.00569080171131,-8.804684593563987,5.058709086052835,-3.6079478185504974,-0.3648904914529891,56.55414206590194,-8.07226815240834,-111.7576210826211,33.22032527630515,36.910384281307095,37.53338125617755,1577396036.0,-27.686631836296435,-51.13248315417407,6.1949353
60633,1577396036.75,0.9076418493652344,1.4081497064208983,6.070079324035643,-0.8629053154177777,-1.5052521022889664,9.022286178067835,-5.172444667561849,-7.196571156819662,4.185862569173176,9.347915649414062,3.441810607910156,0.031280517578125,5.972141172827744,7.932523401772103,-3.217929747046494,9.950365339006696,-23.39753650483631,-2.731686546688988,5.219303025292609,-3.607947818550496,-0.3648904914529929,30.646269821187605,-8.07226815240834,-111.7576210826211,33.48390091951957,37.10207565819032,37.91676400994399,1577396036.0,-27.686631836296435,-51.13248315417407,6.1949353
60634,1577396036.76,1.0345345373535155,0.121266314086914,4.589265597229002,-3.0966954643435587,-0.4015251369569357,6.27493977303854,-0.6090963033040357,-3.331132576497396,7.637104262288411,6.7996978759765625,5.349159240722656,0.702667236328125,9.435886290015244,1.1881386361471036,-0.1661719345464938,7.936205182756696,-24.08418201264881,3.936404273623512,5.8616787822517,-4.177623789900575,-0.9122262286324764,43.89021943882143,-8.60226555635434,-55.04789886039889,33.31617096474676,36.9822685476383,37.60526552250876,1577396036.0,-27.686631836296435,-51.13248315417407,6.1949353
60635,1577396036.77,0.7352593298339843,0.6647500909423827,4.572506185607909,3.9039501899533136,-0.810933620843654,7.72941728158346,-0.9490729390462233,4.946819663492838,8.797094966634114,6.2503814697265625,6.295204162597656,0.855255126953125,3.317111875952744,13.486722620522103,-2.180332090796494,6.898607526506696,-15.70710681733631,3.097170875186012,5.8616787822517,-4.177623789900575,-0.9122262286324764,56.94082672627082,-8.724572649572648,-8.724572649572671,33.31617096474676,37.05415281396951,37.53338125617755,1577396036.0,-27.686631836296435,-51.13248315417407,6.1949353
60636,1577396036.78,0.7280767248535156,0.5570110162353515,8.97065463531494,0.2001202216915962,0.96077560767197,7.4995739222084605,1.832989390055338,6.917247629801431,9.338184541829428,4.2667388916015625,8.126258850097656,-0.151824951171875,5.453342344702744,1.951078089272104,-0.1966895126714938,8.210863385881696,-13.26570056733631,-3.860836937313988,6.825242417690333,-3.418055828100472,-0.5473357371794875,56.94082672627082,-8.724572649572648,-8.724572649572671,33.50786234162997,37.05415281396951,37.62922694461916,1577396036.0,-27.686631836296435,-51.13248315417407,6.1949353
60637,1577396036.79,-2.7866113122558587,2.630389653930664,10.306619161682129,-2.069582952136528,2.6929805087950176,5.993621077970179,-0.3289747090657551,-2.1723389729817706,8.147069215901693,10.965347290039062,8.828163146972656,-0.411224365234375,1.5928687118902438,7.749417933022103,-1.7683447861089938,3.892626081194196,-4.09516834077381,1.784915015811012,6.343460599971017,-2.848379856750394,-0.3648904914529853,56.55414206590194,-8.316882338844955,-53.593803418803454,33.36409380896757,37.12603708030072,37.653188366729566,1577396036.0,-27.686631836296435,-51.13248315417407,6.1949353
60638,1577396036.8,-1.7235857751464845,-2.9433118109130856,3.578912496643065,-3.656938652820121,-4.119720315179592,7.475631905606898,0.1307120096842444,12.105482627360026,5.715757430013021,-4.4612884521484375,-0.0524520874023437,-0.548553466796875,3.805393125952744,-8.608003941977897,-3.126377012671494,7.447923932756696,-5.910964239211309,-12.314206077938987,6.6646484784505615,-3.6079478185504974,-1.824452457264953,56.55414206590194,-8.07226815240834,-7.062749287749304,33.65163087429239,37.341689879294336,37.62922694461916,1577396036.0,-27.686631836296435,-51.13248315417407,6.1949353
60639,1577396036.81,-1.0484209069824215,0.6120776544189452,3.171898214416503,-4.514062847156059,-0.667281521234279,1.6146262415443975,1.193737546793619,-7.579643422444661,2.0406578816731766,-8.764266967773438,-4.477500915527344,0.214385986328125,7.253879454077744,0.7608925423971036,0.9324608779535062,4.090990339006696,-13.99812244233631,-12.924557640438987,6.6646484784505615,-3.6079478185504974,-1.824452457264953,56.16745740553308,-8.07226815240834,-96.80121082621083,33.31617096474676,36.910384281307095,37.725072633060776,1577396036.0,-27.686631836296435,-51.13248315417407,6.1949353
60640,1577396036.82,0.5042188696289063,0.6599616876220707,4.257668667297363,0.29349408643769,-0.2052006008241227,7.501968123868616,-4.657691310628255,-14.726335378011068,9.005390511067707,3.7937164306640634,1.381874084472656,0.550079345703125,0.295871641577744,8.329251917397103,0.9019432998285062,2.1073477608816966,-11.61775134858631,10.940188453311013,6.423757569590904,-3.513001823325486,-1.0034488514957256,56.94082672627082,-7.909192028117261,-102.61759259259262,33.31617096474676,36.81453859286549,37.725072633060776,1577396036.0,-27.686631836296435,-51.13248315417407,6.1949353
60641,1577396036.83,-1.251928048095703,1.0693701715087889,7.948330526428221,-1.095142876452934,0.842262625494236,6.9536959436928365,0.0564917582194011,3.715002909342448,11.747948512776691,4.1446685791015625,4.036903381347656,-0.243377685546875,2.722019102515244,1.829007776772104,-0.0898779892339937,1.7258780343191966,5.71623302641369,3.3107939220610123,7.307024235409652,-2.4685958758503426,-0.7297809829059857,55.394088084795335,-8.724572649572648,-7.8936609686609875,33.41201665318837,36.9343457034175,37.55734267828795,1577396036.0,-27.686631836296435,-51.13248315417407,6.1949353
60642,1577396036.84,0.5030217687988281,1.2393584893798826,7.210916415100097,-3.08951285936309,1.700583920660251,9.28804256234518,-0.956255544026692,-8.625909547932942,11.993354182942712,2.0694732666015625,3.121376037597656,-0.121307373046875,-1.138454530297256,2.286771448647104,-2.912753965796494,-2.5618416922433034,30.92375255766369,11.275881812686013,6.6646484784505615,-2.84837985675039,0.7297809829059857,55.394088084795335,-8.724572649572648,-7.062749287749304,33.17240243208434,37.10207565819032,37.58130410039836,1577396036.0,-27.686631836296435,-51.13248315417407,6.1949353
60643,1577396036.85,-4.1106048303222655,1.3686453790283202,12.080722591857908,-1.3608992607302777,-1.0168349636170917,3.577871602872523,1.6677894755045568,11.554816245524089,9.996589998372398,3.4427642822265625,2.449989318847656,0.672149658203125,0.784152891577744,1.7679726205221036,1.3902245498285062,-2.0125252859933034,44.80925060453869,5.813235328311012,6.6646484784505615,-2.84837985675039,0.7297809829059857,57.32751138663969,-7.909192028117261,-108.43397435897435,33.31617096474676,37.19792134663192,37.62922694461916,1577396036.0,-27.686631836296435,-51.13248315417407,6.1949353
60644,1577396036.86,-2.0815189233398432,-5.292023639526367,10.212048196105956,-2.376040764636528,-7.840309695062404,10.396557930997522,2.8050352640787755,10.240399534098309,12.206438130696618,-5.056381225585937,0.4205703735351562,0.229644775390625,1.852268125952744,-5.251070348227897,-1.7836035751714938,3.9994376046316966,59.39665294828869,-21.835690452938987,6.343460599971017,-3.03827184720042,-0.1824452457264983,57.32751138663969,-7.909192028117261,-108.43397435897435,33.43597807529877,37.05415281396951,37.58130410039836,1577396036.0,-27.686631836296435,-51.13248315417407,6.1949353
60645,1577396036.87,-1.261504854736328,4.2033801446533205,12.564351327209472,-0.1003520866580127,0.3658164951231423,8.296843075040492,0.8525638102213541,-12.670913252766926,7.579643422444661,3.6563873291015625,-1.944541931152344,-0.731658935546875,-1.7793236709222562,6.894925745522103,0.6883202529535062,-1.4174325125558034,56.14653087797619,-7.370358421688987,6.6646484784505615,-2.84837985675039,-1.094671474358975,55.78077274516421,-8.398420400990494,-115.08126780626785,33.41201665318837,37.12603708030072,37.74903405517118,1577396036.0,-27.686631836296435,-51.13248315417407,6.1949353
60646,1577396036.88,-2.803370723876953,1.2537236993408205,17.221073556213376,-1.9019888359255903,1.8849374484922825,9.41493525033346,1.0500854471842445,6.491079734293619,-0.8084420939127598,6.8607330322265625,-2.097129821777344,1.129913330078125,-0.2229271865472559,-16.481539098227895,-0.9596289657964938,-2.2566659109933034,24.97282482328869,-5.813961937313988,7.307024235409652,-2.4685958758503426,-1.094671474358975,56.16745740553308,-8.398420400990494,-115.08126780626785,33.41201665318837,37.0062299697487,37.725072633060776,1577396036.0,-27.686631836296435,-51.13248315417407,6.1949353
60647,1577396036.89,-0.888009395751953,3.240911077270508,10.332955379943847,-3.3145678154177776,2.988664413824314,7.28888417611471,-0.0512473164876296,-13.675280849202473,5.2321286946614585,-2.355575561523437,-1.7004013061523438,-1.158905029296875,-5.288845155297256,0.5472694955221036,-0.4103125595464938,-4.942212785993304,20.97502208891369,0.3200712658110119,7.307024235409652,-2.4685958758503426,-1.094671474358975,59.26093468848404,-8.724572649572648,-12.048219373219393,33.65163087429239,37.0062299697487,37.62922694461916,1577396036.0,-27.686631836296435,-51.13248315417407,6.1949353
60648,1577396036.9,-3.496492104492188,0.7581239556884765,8.266759347229003,-0.041694145984184,1.7724099704649383,5.818844356778773,-2.909924098714192,-8.901242738850911,13.056379720052089,-8.489608764648438,-4.324913024902344,-1.616668701171875,-10.751491639672256,-2.901216832602896,-1.3258399032964938,-8.451734270368304,23.26384044828869,22.811526343936013,6.985836356930106,-3.6079478185504974,-0.1824452457264945,59.454277018668485,-8.64303458742711,-11.632763532763562,33.48390091951957,37.10207565819032,37.53338125617755,1577396036.0,-27.686631836296435,-51.13248315417407,6.1949353
60649,1577396036.91,-2.829706942138672,2.5394099908447267,8.937135812072754,-4.196831127185356,0.8027582981016576,9.182697689298305,1.3278128397623694,14.022041056315103,10.71604759724935,-5.2547454833984375,-5.515098571777344,-1.097869873046875,-6.570583436547256,-7.768770543540397,-0.2119483017339938,-8.177076067243304,33.97551037016369,-1.5415009998139872,6.6646484784505615,-3.22816383765045,0.0,57.81086721210078,-8.68380361849988,-111.54989316239318,33.31617096474676,37.12603708030071,37.62922694461916,1577396036.0,-27.686631836296435,-51.13248315417407,6.1949353
60650,1577396036.92,-0.4857835168457021,-0.3312377996826171,12.68645561187744,-1.2938616142459027,-8.604060024652247,8.61048349252096,7.533583542887369,-7.704141908772787,9.41240479329427,-9.374618530273438,-5.057334899902344,-0.975799560546875,-3.183132264672256,-1.9246543326028964,6.150966737328506,-7.902417864118304,44.19889904203869,-25.040036156063987,4.898115146813064,-2.2787038854003168,-0.1824452457264983,55.394088084795335,-8.561496525281571,-115.08126780626785,33.55578518585078,37.10207565819032,37.62922694461916,1577396036.0,-27.686631836296435,-51.13248315417407,6.1949353
60651,1577396036.93,0.3761290808105468,-0.3791218328857421,10.577163949279784,0.5544620673947213,3.2352671848204078,10.176291378263146,-4.8827462666829415,-1.9939709493001296,6.16347314046224,-11.205673217773438,-5.087852478027344,-0.853729248046875,-16.031032655297256,-9.035250035727897,2.122646424828506,-9.062085832868304,52.04191662016369,-18.112545921688987,7.307024235409652,-3.987731799450549,-1.094671474358975,55.58743041497977,7.6645778416806465,-4.985470085470089,33.31617096474676,37.0062299697487,37.58130410039836,1577396036.0,-27.686631836296435,-51.13248315417407,6.1949353
60652,1577396036.94,-0.594719692382812,2.751296837768555,8.558851949768066,2.120269953136909,7.271891183843845,16.451493929532678,-4.71754635213216,-10.933919948323569,13.183272408040368,-11.953353881835938,-3.363609313964844,-1.952362060546875,-16.610866639672256,-5.373140660727897,0.6883202529535062,-13.334546770368304,41.69645763578869,-1.388913109188988,7.387321205029539,-4.462461775575616,-1.0034488514957256,56.16745740553308,7.25688753095295,-7.062749287749304,33.31617096474676,37.10207565819032,37.772995477281576,1577396036.0,-27.686631836296435,-51.13248315417407,6.1949353
60653,1577396036.95,0.0696712683105468,0.4684255548095703,11.388798312072751,-0.7216474174685596,-1.976909829339748,8.068196816495568,-0.7886614278157551,-5.0645345784505205,9.320228029378256,-9.344100952148438,-1.6698837280273438,-3.630828857421875,-8.157497499047256,-0.9938681997903966,0.9019432998285062,-16.355787004743302,38.49211193266369,11.413210914248513,6.182866660731244,-4.177623789900575,0.5473357371794949,56.16745740553308,8.235344276699415,4.570014245014226,33.31617096474676,37.07811423607991,37.60526552250876,1577396036.0,-27.686631836296435,-51.13248315417407,6.1949353
60654,1577396036.96,0.4695029455566405,-3.3335666815185543,10.938688399963375,0.8824676948361274,0.5034830905821261,7.815608541349085,2.8385540873209627,10.34095600382487,13.106657954915368,-15.356063842773438,-1.2121200561523438,-2.135467529296875,-24.118190858422256,-1.1311973013528964,1.1460839248285062,-15.653882707868304,43.46647716703869,9.322756812686013,5.540490903772155,-3.418055828100472,-0.1824452457264983,56.16745740553308,-8.724572649572648,6.231837606837594,33.41201665318837,37.19792134663192,37.43753556773595,1577396036.0,-27.686631836296435,-51.13248315417407,6.1949353
60655,1577396036.97,-0.8951920007324218,-0.932182416381836,13.294582833557127,-0.0919723808474652,0.6591061984922825,13.633518575528772,-2.3017968770345045,2.89020043741862,13.451422993977868,-18.31626892089844,-3.836631774902344,-2.654266357421875,-8.126979920922256,2.103665979897104,-0.7460059189214938,-15.409742082868304,45.78581310453869,-3.677731468563988,6.825242417690333,-3.0382718472004164,-0.5473357371794875,58.4875653677463,-8.235344276699415,-7.062749287749304,33.41201665318837,37.24584419085272,37.58130410039836,1577396036.0,-27.686631836296435,-51.13248315417407,6.1949353
60656,1577396036.98,-2.0527885034179687,2.0725406671142577,10.814189913635254,-3.467796721667778,-1.147318954095607,7.673153542569788,1.0261434305826822,2.583742624918619,8.732451521809896,-10.152816772460938,-2.417564392089844,-1.952362060546875,-14.428859803734756,-2.229830113852896,3.099208924828506,-14.021192278180804,46.47245861235119,-15.655880882626487,6.744945448070448,-2.563541871075354,-0.8210036057692311,56.940826726270814,-8.398420400990492,-0.8309116809116928,33.41201665318837,37.14999850241112,37.725072633060776,1577396036.0,-27.686631836296435,-51.13248315417407,6.1949353
60657,1577396036.99,-2.1689072839355465,-0.3360262030029297,9.727222359924315,1.3038471870236277,-0.2339310207459977,6.484432418302211,-2.210817213948567,-13.371217238362629,10.8393489827474,-19.38438415527344,-6.125450134277344,-2.135467529296875,-14.840847108422256,-1.7720664419778964,3.618007752953506,-18.278394426618306,60.19010997953869,-4.257565452938988,7.14643029616988,-2.2787038854003168,-0.1824452457264983,56.55414206590194,-8.724572649572648,4.570014245014226,33.31617096474676,37.19792134663192,37.58130410039836,1577396036.0,-27.686631836296435,-51.13248315417407,6.1949353
60658,1577396037.0,-1.9989189660644529,-0.4126406561279296,8.774330099182128,-0.8557227104373089,1.844236020269626,8.138825765470179,-3.185257289632161,-6.899690150960287,7.9327881673177085,-22.31407165527344,-5.820274353027344,-2.379608154296875,-15.451198670922256,-11.720796910727897,2.519374940453506,-19.438062395368306,56.19230724516369,11.062258765811013,6.182866660731244,-1.51913592360021,-0.1824452457264983,58.4875653677463,5.626126288042176,-5.400925925925935,33.50786234162997,37.24584419085272,37.53338125617755,1577396037.0,-27.686659222070727,-51.13253416293649,5.793579
60659,1577396037.01,-0.7275978845214843,2.400546294555664,8.836579342346191,-0.6426387626834027,-0.3871599269959977,11.47634287972799,-2.366440321858723,6.491079734293619,4.813143404134114,-14.104843139648438,-6.155967712402344,-1.799774169921875,-15.084987733422256,-6.136080113852897,1.5428124404535062,-17.820630754743302,47.06755138578869,7.644290015811012,6.343460599971017,-3.6079478185504974,0.0,56.16745740553308,6.60458303378864,-103.44850427350433,33.31617096474676,37.05415281396951,37.53338125617755,1577396037.0,-27.686659222070727,-51.13253416293649,5.793579
60660,1577396037.02,-0.6581660363769525,-2.7601553839111324,12.168110952453612,-1.123873296374809,-3.561871328363185,13.050530471280725,-1.9330898213704424,3.3678436686197912,13.483744716389976,-13.494491577148438,-4.279136657714844,-1.067352294921875,-12.597805116234756,-5.632540074790397,2.961879823266006,-14.662061418805804,36.96623302641369,-3.342038109188988,6.022272721491472,-3.03827184720042,0.7297809829059819,55.58743041497977,-8.64303458742711,-103.8639601139601,33.29220954263636,37.22188276874232,37.74903405517118,1577396037.0,-27.686659222070727,-51.13253416293649,5.793579
60661,1577396037.03,-0.7252036828613281,0.7557297540283202,14.635335763244628,3.1641418769650334,2.8809253391172827,10.458807174161583,-0.9442845357259108,0.0602540751139316,6.618371455891927,-13.738632202148438,-4.660606384277344,-0.243377685546875,-16.000515077172256,-4.243990270102897,5.174404237328506,-14.463697160993304,20.39518810453869,-4.745846702938988,4.416333329093747,-5.50686772305076,-0.7297809829059857,55.97411507534864,-8.64303458742711,-109.68034188034189,33.22032527630515,37.19792134663192,37.58130410039836,1577396037.0,-27.686659222070727,-51.13253416293649,5.793579
60662,1577396037.04,-0.667742843017578,2.9536068780517577,11.52526780670166,0.7268445869259712,-0.494899001703029,12.853008834317832,1.0333260355631506,-5.056154872639974,13.097081148274745,-9.069442749023438,-3.745079040527344,-0.487518310546875,-10.812526795922256,-3.694673863852896,6.425624940453506,-13.700757707868304,21.06657482328869,-1.663571312313988,6.50405453921079,-2.2787038854003168,-0.9122262286324764,56.94082672627082,-7.746115903826182,-115.08126780626785,33.41201665318837,37.0062299697487,37.725072633060776,1577396037.0,-27.686659222070727,-51.13253416293649,5.793579
60663,1577396037.05,-0.1158793603515615,-5.530246704711914,10.268311935119629,-0.7264358207888714,-4.5937722438905295,13.348608577970175,-2.2491244405110677,3.345098752848308,14.176866097005211,-16.546249389648438,-4.935264587402344,-0.167083740234375,-3.579860780297256,-6.380220738852897,3.923183534203506,-11.961255754743304,23.75212169828869,-2.518063499813988,2.9709878759357933,-1.8989199045002647,0.1824452457264983,56.94082672627082,-7.746115903826182,-115.08126780626785,33.29220954263636,37.19792134663192,37.772995477281576,1577396037.0,-27.686659222070727,-51.13253416293649,5.793579
60664,1577396037.06,0.2037465612792968,-0.1037886419677724,10.83573772857666,2.44468427808808,1.5473550144102513,12.110806319669395,-2.379608430989583,-3.900952571614583,10.935117049153648,-11.754989624023438,-4.233360290527344,-1.158905029296875,-13.910060975609756,-1.5737021841653962,3.297573182641006,-11.640821184430804,21.29545665922619,2.608889625186012,5.8616787822517,-1.51913592360021,-0.1824452457264983,55.394088084795335,-8.724572649572648,-115.08126780626785,33.31617096474676,37.12603708030072,37.50941983406716,1577396037.0,-27.686659222070727,-51.13253416293649,5.793579
60665,1577396037.07,-0.3684676354980458,1.9456479791259764,10.277888741760252,0.5209432441525338,2.081261984625095,8.864268868497524,-2.6465619160970046,2.203064560953776,8.758787740071615,-3.484725952148437,-2.707481384277344,-0.640106201171875,-10.995632264672256,-7.906099645102897,2.092128846703506,-11.900220598493304,17.70964122953869,1.327151343936012,5.058709086052835,-2.088811894950291,-0.7297809829059857,35.28648574561405,-8.07226815240834,-115.08126780626785,33.41201665318837,37.05415281396951,37.62922694461916,1577396037.0,-27.686659222070727,-51.13253416293649,5.793579
60666,1577396037.08,-0.5480327600097645,-0.4940435125732421,10.447877059631349,-1.3585050590701215,-1.4765216823670917,12.608800264981896,-1.298626381429036,1.913366160074869,10.31501881917318,-6.3228607177734375,-2.982139587402344,-0.487518310546875,-9.896999452172256,-1.3143027701028964,1.4512597060785062,-9.611402239118304,14.35270763578869,-1.419430687313988,5.701084843011927,-2.4685958758503426,0.7297809829059857,32.57969312303195,-8.07226815240834,-115.08126780626785,33.41201665318837,37.05415281396951,37.58130410039836,1577396037.0,-27.686659222070727,-51.13253416293649,5.793579
60667,1577396037.09,0.4587290380859375,-2.440529462280273,10.52927991607666,-2.086342363757621,-5.187534255609279,15.12750041146627,-3.1158254414876296,2.34671666056315,8.488242952473959,-13.204574584960938,-2.142906188964844,0.061798095703125,-7.119899842797256,-0.9786094107278964,4.625087831078506,-7.963453020368304,3.0001685732886907,-4.013424827938988,6.825242417690333,-2.2787038854003168,0.912226228632484,57.32751138663969,-8.398420400990494,-7.062749287749304,33.43597807529877,36.910384281307095,37.725072633060776,1577396037.0,-27.686659222070727,-51.13253416293649,5.793579
60668,1577396037.1,-0.868855782470703,1.3159729425048827,13.076710482482907,1.703678864269721,0.9248625827696269,12.07130199227682,-0.5887455891927077,-0.7453947835286455,10.96624167073568,-5.6209564208984375,-1.7614364624023438,0.641632080078125,-6.479030702172256,0.4709755502096033,2.885585877953506,-6.941114153180804,-12.50276111421131,-4.501706077938988,7.467618174649426,-3.0382718472004164,0.5473357371794949,56.55414206590195,-8.398420400990494,-4.985470085470105,33.41201665318837,36.910384281307095,37.58130410039836,1577396037.0,-27.686659222070727,-51.13253416293649,5.793579
60669,1577396037.11,-1.6661249353027343,0.0207098443603515,12.58350494049072,0.8776792915158149,-1.976909829339748,12.850614632657678,-1.617055202229817,-5.350641676839193,14.782599117024745,-4.0645599365234375,-1.7614364624023438,0.977325439453125,-3.244167420922256,-13.918062535727897,2.397304627953506,-6.407056535993304,-5.849929082961309,7.583254859561012,5.540490903772155,-3.0382718472004164,0.1824452457264983,58.4875653677463,8.235344276699415,-4.570014245014259,33.41201665318837,36.86246143708629,37.53338125617755,1577396037.0,-27.686659222070727,-51.13253416293649,5.793579
60670,1577396037.12,0.4144363073730468,-1.643260309448242,9.712857149963378,-0.568418511218559,2.256038705816501,6.977637960294397,-1.090330836995442,2.7321831278483075,10.880050410970057,-8.825302124023438,-2.188682556152344,-0.060272216796875,-5.777126405297256,-3.420015660727896,2.855068299828506,-6.651197160993304,-2.5235130673363093,13.778323218936013,5.8616787822517,-3.0382718472004164,-0.1824452457264983,58.4875653677463,10.192257768192349,-7.062749287749304,33.50786234162997,37.24584419085272,37.58130410039836,1577396037.0,-27.686659222070727,-51.13253416293649,5.793579
60671,1577396037.13,0.3126827368164062,-2.160407868041992,10.957842013244628,0.729238788586128,-0.4434236660096701,12.55612782845846,-0.6174760091145832,2.720212119547526,9.321425130208333,-6.0482025146484375,-2.844810485839844,0.504302978515625,-4.373317811547256,-3.2369101919778966,2.168422792016006,-3.690992082868304,-4.293532598586309,-2.304440452938988,5.540490903772155,-3.0382718472004164,0.5473357371794949,58.4875653677463,7.583039779535106,-8.309116809116826,33.26824812052595,37.10207565819032,37.58130410039836,1577396037.0,-27.686659222070727,-51.13253416293649,5.793579
60672,1577396037.14,-0.2104503259277333,-1.9712659368896484,11.108676717834472,0.1713898017697212,-0.3440642971131852,4.576253695157679,-0.6162789082845045,-0.0762154195149736,10.437123103841149,-3.332138061523437,-2.860069274902344,0.824737548828125,-5.136257264672256,-0.6123984732278964,1.0850487685785062,-0.5171639578683034,-5.392165411086309,-4.654293968563988,4.737521207573292,-3.22816383765045,0.0,58.4875653677463,-8.07226815240834,-8.724572649572671,33.41201665318837,37.10207565819032,37.58130410039836,1577396037.0,-27.686659222070727,-51.13253416293649,5.793579
60673,1577396037.15,0.5293579870605468,-0.9609128363037108,10.584346554260254,0.0660449287228462,-0.7175597560975602,12.007855648282678,-1.6840928487141922,-1.941298512776692,6.687803304036458,-2.202987670898437,-2.493858337402344,0.519561767578125,-1.687770936547256,0.1810585580221036,0.9629784560785062,-2.9280526297433034,-10.15290759858631,-4.532223656063988,5.8616787822517,-2.2787038854003168,-0.5473357371794875,55.78077274516421,-8.07226815240834,-5.400925925925935,33.31617096474676,37.10207565819032,37.53338125617755,1577396037.0,-27.686659222070727,-51.13253416293649,5.793579
60674,1577396037.16,0.9459490759277344,-1.4182053533935546,9.324996481018063,0.5664330756955025,-0.523629421624904,10.446836165860802,-2.399959145100911,-5.848635622151693,6.445988936360677,-1.5316009521484375,-3.287315368652344,-0.212860107421875,-4.739528749047256,-2.016207066977896,0.0779686904535061,-2.2261483328683034,-13.47932361421131,6.576174781436012,5.701084843011927,-3.22816383765045,-1.094671474358975,55.394088084795335,-8.724572649572648,-8.724572649572671,33.41201665318837,37.10207565819032,37.43753556773595,1577396037.0,-27.686659222070727,-51.13253416293649,5.793579
60675,1577396037.17,-0.6557718347167968,0.5079298822021484,10.022906264953612,0.0540739204220655,0.2915962436582983,10.962786623624474,-0.2822877766927082,4.309962021891276,12.769075520833336,-0.3261566162109375,-2.814292907714844,0.168609619140625,0.204318907202744,-4.930635777915397,0.5509911513910062,-0.1356942313058033,-17.46186755952381,-0.931149437313988,5.219303025292609,-3.418055828100472,0.1824452457264983,55.394088084795335,-8.724572649572648,-6.647293447293457,33.24428669841555,37.10207565819032,37.653188366729566,1577396037.0,-27.686659222070727,-51.13253416293649,5.793579
60676,1577396037.18,0.0960074865722656,-1.6552313177490234,9.868480257873534,2.134635163097846,-2.178022768792873,10.592882467130334,1.160218723551432,-7.534153590901693,10.00856100667318,-3.332138061523437,-2.280235290527344,-0.121307373046875,1.638645079077744,-0.6734336294778964,1.0240136123285062,-2.9280526297433034,-8.35237048921131,12.374514625186013,5.701084843011927,-3.22816383765045,0.7297809829059857,55.394088084795335,-8.07226815240834,-108.43397435897435,33.41201665318837,37.19792134663192,37.53338125617755,1577396037.0,-27.686659222070727,-51.13253416293649,5.793579
60677,1577396037.19,1.048899747314453,-4.554609528198242,7.941147921447753,-2.435895806140434,-3.8683291408631857,15.005396126798304,-0.8916120992024733,10.405599448649088,13.58310408528646,-4.0645599365234375,-1.6088485717773438,0.550079345703125,1.058811094702744,-2.596041051352896,-0.5323828720464938,0.6730215890066966,-2.1878197079613093,8.254641578311013,5.219303025292609,-3.797839809000523,-0.5473357371794875,55.58743041497977,-7.827653965971723,-114.66581196581198,33.41201665318837,37.10207565819032,37.341689879294336,1577396037.0,-27.686659222070727,-51.13253416293649,5.793579
60678,1577396037.2,0.9698910925292968,-1.3595474127197265,8.710883755187988,2.1849133979611275,1.9064852634336888,10.087705916837365,1.0979694803873694,6.6945868754069,12.065180232747398,1.3523101806640625,0.1611709594726562,0.031280517578125,4.720920469702744,1.0050331673971036,0.1390038467035061,3.0228751046316966,-2.1878197079613093,-7.156735374813988,5.299599994912494,-2.1837578901753005,0.2736678685897437,55.58743041497977,-7.827653965971723,-114.66581196581198,33.45993949740917,37.05415281396951,37.58130410039836,1577396037.0,-27.686659222070727,-51.13253416293649,5.793579
60679,1577396037.21,1.5947777258300782,0.695874712524414,10.237187313537596,1.0045719795040966,1.2397001010801738,9.970390035489707,-3.4534078755696607,-3.156355855305989,8.50021396077474,5.0601959228515625,1.1682510375976562,0.000762939453125,0.799411680640244,-1.4974082388528964,-0.1814307236089938,3.0991690499441966,-1.073928106398809,-7.721310570126487,6.6646484784505615,-1.3292439331501842,1.094671474358975,58.58423653283852,-8.03149912133557,-114.45808404558406,33.41201665318837,37.173959924521526,37.58130410039836,1577396037.0,-27.686659222070727,-51.13253416293649,5.793579
60680,1577396037.22,0.7951143713378906,3.681444182739258,11.88200385406494,0.8609198798947212,3.785933566656345,11.751676070645958,0.3773147806803381,-3.753709169514973,9.809842268880212,8.935928344726562,2.572059631347656,-0.975799560546875,1.089328672827744,9.641507776772103,-0.8375586532964938,1.2833731515066966,-5.697341192336309,4.073733375186012,6.182866660731244,-2.2787038854003168,1.2771167200854732,55.78077274516421,-8.724572649572648,-8.724572649572671,33.41201665318837,37.0062299697487,37.43753556773595,1577396037.0,-27.686659222070727,-51.13253416293649,5.793579
60681,1577396037.23,1.048899747314453,-0.2881421697998046,9.030509676818848,0.9135923164181586,-5.254571902093654,9.845891549161584,0.5089958719889319,4.997097898356119,10.281499995930991,-1.3790130615234375,2.633094787597656,-1.799774169921875,2.523654844702744,4.361966761147103,0.6883202529535062,0.8256094796316966,-5.636306036086309,3.585452125186012,4.576927268333519,-3.797839809000523,-0.1824452457264983,56.16745740553308,-8.724572649572648,-108.43397435897435,33.41201665318837,37.19792134663192,37.58130410039836,1577396037.0,-27.686659222070727,-51.13253416293649,5.793579
60682,1577396037.24,1.941936966552734,-2.3040599676513667,6.696163058166503,1.8281773505978465,0.71177863501572,6.824409054044398,-0.4941746236165358,-4.21579008992513,7.856173714192709,-1.9435882568359373,4.006385803222656,-0.960540771484375,-1.046901795922256,0.1810585580221036,-0.6849707626714938,1.0392325265066966,-3.5000755673363093,-0.015622093563988,6.022272721491471,-2.8483798567503924,0.0,56.36079973571752,-8.64303458742711,-108.01851851851852,33.38805523107796,37.0062299697487,37.725072633060776,1577396037.0,-27.686659222070727,-51.13253416293649,5.793579
60683,1577396037.25,0.3904942907714843,-0.2713827581787109,9.222045809631346,0.7711373176388617,-1.0587334926698266,11.72533985238424,-0.6174760091145832,1.9564617899576824,8.131506905110676,6.3724517822265625,4.097938537597656,-0.792694091796875,2.554172422827744,10.114530237709603,-0.9138525986089936,2.6566641671316966,-12.22810291108631,-0.1224336170014881,6.825242417690333,-2.6584878663003684,0.1824452457264983,55.87744391025643,-8.520727494208803,-108.22624643874644,33.41201665318837,37.10207565819032,37.725072633060776,1577396037.0,-27.686659222070727,-51.13253416293649,5.793579
60684,1577396037.26,-0.7754819177246093,-0.6353014105224609,7.165426583557128,-2.4526552177615275,-0.8205104274842789,6.601748299649866,-2.4909388081868484,0.3331930643717441,5.201004073079427,3.1681060791015625,5.440711975097656,-1.006317138671875,-2.694851014672256,-6.654878941977897,-0.7154883407964938,3.1449454171316966,-21.68855212983631,-9.933834984188987,5.3798969645323815,-2.84837985675039,-0.3648904914529891,31.419639141925344,-8.724572649572648,-101.78668091168092,33.22032527630515,37.05415281396951,37.58130410039836,1577396037.0,-27.686659222070727,-51.13253416293649,5.793579
60685,1577396037.27,-0.2966415856933584,1.3494917657470702,10.297042355041503,-1.811009172839653,5.567219601812595,10.377404317716271,-2.7758488057454422,-5.57569663289388,8.057286653645834,2.7408599853515625,5.623817443847656,-0.945281982421875,1.425022032202744,4.392484339272103,-1.6920508407964938,3.7858145577566966,-30.05036853608631,-6.882077171688988,5.3798969645323815,-3.6079478185504974,1.4595619658119638,36.83322438708954,8.235344276699415,-98.4630341880342,33.55578518585078,37.19792134663192,37.38961272351514,1577396037.0,-27.686659222070727,-51.13253416293649,5.793579
60686,1577396037.28,0.0816422766113286,-0.9561244329833984,8.847353249816894,0.771137317638862,-2.8843122585389667,7.225437832120569,-0.5564238667805989,-3.189874678548177,9.5859844136556,-1.6994476318359375,4.448890686035156,-1.158905029296875,1.028293516577744,5.948880823647103,-0.7307471298589938,0.7645743233816966,-31.91194080171131,6.805056617373513,5.781381812631812,-2.9433258519754077,-0.456113114316242,60.034304009221785,8.969186836009264,9.555484330484315,33.38805523107796,37.05415281396951,37.67714978883997,1577396037.0,-27.686659222070727,-51.13253416293649,5.793579
60687,1577396037.29,-0.6054935998535146,-3.206673993530273,8.695321444396972,-1.0831718681521527,1.987888119879001,7.8946171961342415,1.2224679667154943,5.535793271891276,8.68456748860677,-2.508163452148437,3.670692443847656,-0.029754638671875,-0.650173280297256,3.232816370522104,-2.454990293921494,2.1989004952566966,-28.12776111421131,6.759280250186012,5.058709086052835,-2.4685958758503426,-0.7297809829059857,55.394088084795335,10.518410016774505,-94.3084757834758,33.41201665318837,37.05415281396951,37.58130410039836,1577396037.0,-27.686659222070727,-51.13253416293649,5.793579
60688,1577396037.3,-0.0883460412597646,4.119583086547851,7.977060946350097,-0.6019373344607465,-0.284209255609279,7.719840474942835,0.6502537699381506,0.6300740702311192,9.563239497884114,3.2291412353515625,3.396034240722656,-0.182342529296875,-3.671413514672256,10.679105433022103,-0.0746192001714938,1.2833731515066966,-17.56867908296131,-2.304440452938988,4.416333329093747,-3.6079478185504974,-0.3648904914529891,56.94082672627082,7.746115903826182,-7.062749287749304,33.31617096474676,37.24584419085272,37.62922694461916,1577396037.0,-27.686659222070727,-51.13253416293649,5.793579
60689,1577396037.31,1.3266271398925782,0.2313995904541015,7.627507503967284,-0.4558910331912152,-0.083096316156154,7.286489974454554,-0.8940063008626296,-0.6460354146321611,7.789136067708333,6.1588287353515625,4.067420959472656,-0.395965576171875,-0.985866639672256,-4.793306676352897,-0.5934180282964938,1.0392325265066966,-15.40193103608631,-0.8395967029389881,5.701084843011927,-2.84837985675039,-0.3648904914529891,58.680907697930735,5.707664350187715,4.985470085470055,33.17240243208434,37.19792134663192,37.725072633060776,1577396037.0,-27.686659222070727,-51.13253416293649,5.793579
60690,1577396037.32,-0.6222530114746093,-0.435385571899414,7.468293093566894,-0.5624330070681689,0.2700484287168923,5.383099654630335,-1.5548059590657546,3.0494148478190106,6.299942635091146,-3.026962280273437,3.609657287597656,-0.289154052734375,-1.3825951552972562,5.094388636147103,0.5052147842035062,0.7645743233816966,-21.94795154389881,-3.219967796688988,5.3798969645323815,-3.228163837650446,0.5473357371794911,58.680907697930735,5.707664350187715,6.647293447293424,33.41201665318837,37.05415281396951,37.58130410039836,1577396037.0,-27.686659222070727,-51.13253416293649,5.793579
60691,1577396037.33,-1.163342586669922,2.7500997369384765,9.320208077697751,-2.2323886650271527,1.1571001438047823,5.857151583341273,0.4922364603678381,-5.34585327351888,6.702168513997396,1.7032623291015625,1.5649795532226562,0.153350830078125,-4.953151795922256,-0.0630820669778963,-1.2342871689214938,-0.9138924734933034,-23.94685291108631,-4.257565452938988,5.8616787822517,-2.6584878663003684,0.1824452457264983,56.55414206590194,5.789202412333252,-0.4154558404558628,33.50786234162997,37.19792134663192,37.62922694461916,1577396037.0,-27.686659222070727,-51.13253416293649,5.793579
60692,1577396037.34,-0.6078878015136708,-0.9680954412841796,6.265206759338378,-0.6306677543826215,-2.4030777248475603,11.002290951017052,-1.2315887349446608,-3.385002113850911,8.696538496907552,-1.8062591552734373,1.5344619750976562,-0.487518310546875,-2.450710389672256,7.047513636147103,1.0850487685785062,-0.9749276297433034,-21.13923572358631,4.562014625186012,5.8616787822517,-2.6584878663003684,0.1824452457264983,55.97411507534864,-8.64303458742711,-103.8639601139601,33.41201665318837,37.05415281396951,37.43753556773595,1577396037.0,-27.686659222070727,-51.13253416293649,5.793579
60693,1577396037.35,-0.5671863732910146,-3.6807259222412094,8.752782284240721,-3.489344536609184,-3.973674013910061,9.051016597989712,-1.2842611714680985,-2.4057736348470047,10.556833186848962,-7.299423217773437,1.4734268188476562,-0.029754638671875,-0.650173280297256,-7.997652379477897,1.5733300185785062,-2.5008065359933034,-19.70490955171131,5.935305640811012,5.3798969645323815,-2.84837985675039,0.3648904914529966,55.58743041497977,-8.316882338844954,-104.69487179487184,33.31617096474676,37.0062299697487,37.53338125617755,1577396037.0,-27.686659222070727,-51.13253416293649,5.793579
60694,1577396037.36,0.0493205541992188,2.771647551879883,8.612721487121581,2.175336591320503,3.2137193698790014,9.73336407113424,-1.643391420491536,1.5590243143717444,10.668163564046225,0.2536773681640627,2.007484436035156,0.870513916015625,-4.724269959984756,7.367948206459603,1.1766015029535062,-1.7073495047433034,-13.84553455171131,4.287356422061012,5.219303025292609,-2.6584878663003666,-0.5473357371794799,55.78077274516421,-8.64303458742711,-108.84943019943024,33.29220954263636,37.07811423607991,37.653188366729566,1577396037.0,-27.686659222070727,-51.13253416293649,5.793579
60695,1577396037.37,1.7887080603027343,1.224993279418945,9.758346981506346,-1.4231485038943403,-2.146898147210841,8.696674752286585,-3.072729811604817,1.645215574137369,9.474654036458332,2.5272369384765625,6.295204162597656,-0.060272216796875,1.425022032202744,-0.8870566763528964,2.427822206078506,-4.118238176618304,6.265549432663691,6.911868140811012,5.219303025292609,-4.177623789900575,0.1824452457264983,55.78077274516421,-8.561496525281571,-111.7576210826211,33.41201665318837,37.0062299697487,37.725072633060776,1577396037.0,-27.686659222070727,-51.13253416293649,5.793579
60696,1577396037.38,1.048899747314453,-5.4213105291748045,5.6929925625610345,-1.4255427055544965,-4.167604348382717,8.450071981290492,0.6502537699381506,1.0753955790201817,12.967794258626306,-11.816024780273438,6.234169006347656,0.672149658203125,-4.403835389672256,7.718900354897103,1.4817772842035062,-3.1416756766183034,16.45842052641369,3.646487281436012,5.219303025292609,-4.177623789900575,0.1824452457264983,60.420988669590656,-8.724572649572648,-111.7576210826211,33.36409380896756,37.19792134663192,37.58130410039836,1577396037.0,-27.686659222070727,-51.13253416293649,5.793579
