,timestamp,acc_x_dashboard,acc_y_dashboard,acc_z_dashboard,acc_x_above_suspension,acc_y_above_suspension,acc_z_above_suspension,acc_x_below_suspension,acc_y_below_suspension,acc_z_below_suspension,gyro_x_dashboard,gyro_y_dashboard,gyro_z_dashboard,gyro_x_above_suspension,gyro_y_above_suspension,gyro_z_above_suspension,gyro_x_below_suspension,gyro_y_below_suspension,gyro_z_below_suspension,mag_x_dashboard,mag_y_dashboard,mag_z_dashboard,mag_x_above_suspension,mag_y_above_suspension,mag_z_above_suspension,temp_dashboard,temp_above_suspension,temp_below_suspension,timestamp_gps,latitude,longitude,speed
83456,1577397892.29,0.3480935633217416,1.0545582385551635,14.428627107350415,-0.3887949915443978,2.4991377670660246,12.400212744736091,3.4491102696860705,9.596485810368234,12.663516532190831,-3.6221015744092986,3.148520865091464,-1.704332305163872,-0.5854164681783537,-6.882086032774391,0.69427490234375,-10.320523890053352,-44.65614877096037,9.007523699504572,-11.834645309037668,-22.09359212835776,3.409793288308909,21.425651200651203,-37.88957264957265,-15.407105654761905,27.94881241201665,34.993470512474914,38.30014676371043,1577397891.999,-27.69051495298396,-51.12835722456942,7.1605873
83457,1577397892.3,1.5164639734779914,0.4129121936332885,8.670572114674636,-1.1309975061928352,2.788836167944931,13.64519760801734,-4.980873775724086,-2.2236877858231705,6.946162967737709,10.7516777224657,4.491294302591464,1.347425507336128,1.5813315786966462,4.1042420922256095,-0.25177001953125,-15.081266077553352,-32.418599942835364,16.484330340129574,-13.160125583649888,-21.18063377594628,1.7048966441544513,21.425651200651203,-37.88957264957265,-16.216688129578753,27.90088956779585,34.993470512474914,38.25222391948962,1577397891.999,-27.69051495298396,-51.12835722456942,7.1605873
83458,1577397892.31,-0.5413523534263052,0.6379671496879764,11.241944697682449,-0.850875911954554,-2.159978663598037,10.137692175888434,7.01168233999857,-7.7495052174637955,7.891872623499427,3.0154716677782014,-0.1473775724085362,-0.1937121879763719,1.8865073599466464,3.432855373475609,2.15911865234375,-23.595670374428355,-22.683492520960368,-3.5352009098704267,-11.077228009259256,-22.09359212835776,3.099812080280829,19.814699982557126,-46.6853663003663,-13.38314946771978,27.94881241201665,35.13723904513733,38.30014676371043,1577397891.999,-27.69051495298396,-51.12835722456942,7.1605873
83459,1577397892.32,1.83010439095846,3.8629567859184446,8.366508503834792,-0.8843947351967415,0.4688547592535252,10.76138170835914,-2.0683274561440075,-4.864492216975516,10.912158017786536,-8.9626777462843,-0.0863424161585365,-1.582261992663872,-1.2262856088033538,0.4726502953506094,-1.24359130859375,-2.614835413490854,-4.845968106897866,-4.694868878620427,-11.077228009259256,-22.09359212835776,3.099812080280829,9.504612186755043,-46.6853663003663,-14.39512756124084,27.70919819091263,35.13723904513733,38.34806960793124,1577397891.999,-27.69051495298396,-51.12835722456942,7.1605873
83460,1577397892.33,0.5946963343178353,1.9835084826957885,11.4909416703387,1.4188272618735709,-0.0363217910394435,12.053053504013434,9.441797025057165,7.458463727848703,17.11673162008146,6.204558581840701,-7.227455697408536,-1.795885039538872,-1.3178383431783538,3.219232326600609,1.09100341796875,2.252718297446646,-14.932027677210366,-6.586958722370427,-10.698519359370051,-21.728408787393168,3.409793288308909,-3.382997557997558,-44.65556776556777,-17.026270604395606,27.70919819091263,34.94554766825411,38.30014676371043,1577397891.999,-27.69051495298396,-51.12835722456942,7.1605873
83461,1577397892.34,0.199653060392054,-0.913475526093273,8.388056318776199,-1.0591714563881478,4.910098838843369,12.093754932236092,-7.973625850919397,11.873371589176823,13.453603080042395,4.678679675590701,12.395347036966465,1.042249726086128,0.5437339224466463,-1.8466856421493905,2.00653076171875,-5.193570765053353,-27.932515958460368,13.493607683879572,-12.40270828387148,-21.91100045787546,2.63484026823871,-3.382997557997558,-44.65556776556777,-17.026270604395606,27.94881241201665,35.233084733578934,38.39599245215204,1577397891.999,-27.69051495298396,-51.12835722456942,7.1605873
83462,1577397892.35,-0.7388739903891959,1.1108219775688355,13.861201313893384,-0.6473687708412728,-0.5786084670648343,11.958482538437265,0.7197203771079456,-0.795546495539968,12.090105234583412,-10.2596748165968,1.2716898104039631,-0.1326770317263719,-0.4175697884908536,2.608880764100609,0.19073486328125,-12.761930140053352,-33.608785489710364,3.819535418254573,-10.50916503442545,-21.728408787393164,4.6497181204212445,-3.382997557997558,-35.52147435897436,-17.026270604395606,27.852966723575044,35.065354778806125,38.30014676371043,1577397891.999,-27.69051495298396,-51.12835722456942,7.1605873
83463,1577397892.36,0.2858443201576791,1.799154954863757,10.959428901784012,-0.6760991907631478,-0.5247389297113184,16.616401868271247,-3.2546543787514293,-7.103070769221608,6.826452884729896,-3.9272773556592986,4.704917349466464,2.812269257336128,-0.1886879525533537,-8.86572861089939,1.85394287109375,-13.280728968178352,-10.568014005335366,10.838578387004572,-10.130456384536249,-21.91100045787546,4.184746308379121,17.237178033606607,-35.85977411477411,-66.41080156822345,27.70919819091263,35.13723904513733,38.58768382903526,1577397891.999,-27.69051495298396,-51.12835722456942,7.1605873
83464,1577397892.37,-2.7212729649985703,0.0489935412895385,14.80930517131526,-0.7479252405678353,-3.1966679824456934,15.555770532822027,-1.521252376798304,4.642882575504954,8.389866568811927,0.0705253787157013,5.864585318216464,0.3403454292111281,2.679964391196646,3.432855373475609,-2.84576416015625,1.0320151724466462,4.202493807164634,-2.4976032536204267,-11.266582334203862,-21.545817116910868,4.184746308379121,17.881558520844237,-35.85977411477411,-63.17247166895604,27.852966723575044,34.8017791355917,38.25222391948962,1577397891.999,-27.69051495298396,-51.12835722456942,7.1605873
83465,1577397892.38,-1.3086939855063833,-3.4369640758979605,9.824577314869948,-0.5563891077553353,0.4832199692144617,5.078744067978278,7.509676285311071,12.780774018376045,13.441632071741614,-5.514191418159299,9.923423208841465,1.774671601086128,-1.5009438119283538,-0.8396055640243902,0.96893310546875,11.285921422446648,19.278177400914632,3.0871135432545733,-12.213353958926874,-22.458775469322347,4.029755704365082,17.881558520844237,-35.52147435897436,-66.41080156822345,27.852966723575044,35.13723904513733,38.30014676371043,1577397891.999,-27.69051495298396,-51.12835722456942,7.1605873
83466,1577397892.39,0.2152153711830697,3.343415025664539,5.947167726246902,1.220108524080602,1.511529582251572,9.786941632675545,2.6721918309653674,-4.929135661799735,8.672382364710364,15.6039726443407,-7.929359994283537,-1.658555937976372,4.526277867759147,-2.6401426733993905,-2.63214111328125,5.548616734946648,6.918558260289634,-9.303023175495428,-11.645290984093068,-20.267675423534804,4.184746308379122,17.237178033606607,-35.183174603174606,-39.6945798992674,27.92485098990625,35.113277623026924,38.39599245215204,1577397891.999,-27.69051495298396,-51.12835722456942,7.1605873
83467,1577397892.4,2.773419845060023,-4.349154908417492,1.92610603801448,-0.870029525235804,1.0243095444097752,-0.4351023553615651,-8.88581668343893,7.673941877262766,6.024395328577553,1.5353691287157014,-4.480873666158536,-0.910875273913872,-5.651334436928353,10.48241592035061,-1.56402587890625,12.323519078696648,8.230814119664634,1.774857683879573,-12.023999633982273,-20.81545043498169,3.874765100351035,17.55936827722542,-35.85977411477411,-16.62147936698718,27.852966723575044,34.993470512474914,38.30014676371043,1577397891.999,-27.69051495298396,-51.12835722456942,7.1605873
83468,1577397892.41,3.003263204435023,1.375381261016101,8.984212532155105,-3.043964632657679,1.9963554184332128,8.045159924911871,5.620651175447789,-1.5892243458817643,0.0436795815072394,0.4367363162157013,-12.751137338033535,-1.185533477038872,-2.996305140053354,-4.349127048399391,3.71551513671875,2.252718297446646,23.916849275914632,2.2936565120045733,-11.834645309037668,-21.36322544642857,3.409793288308909,17.881558520844237,-35.85977411477411,-16.62147936698718,27.70919819091263,35.13723904513733,38.25222391948962,1577397891.999,-27.69051495298396,-51.12835722456942,7.1605873
83469,1577397892.42,1.7151827112709606,1.0952596667778196,10.585933442799636,-0.1924704554115853,-2.112094630394912,2.569620728134528,8.223148380037633,2.239104108708079,5.878349027308022,-1.8673408322217997,2.080405630716464,-0.4836291801638719,-3.209928186928354,1.815423732850609,-0.19073486328125,9.210726109946648,44.42466177591464,2.2326213557545733,-12.118676796454574,-20.90674627022284,4.262241610386141,17.881558520844237,-46.00876678876679,-15.81189689217033,27.90088956779585,34.993470512474914,38.10845538682721,1577397891.999,-27.69051495298396,-51.12835722456942,7.1605873
83470,1577397892.43,0.3313341517006478,2.9914673816215696,10.992947725026198,-1.120223598722132,4.04100363620665,6.861227203964606,-0.266690706876429,2.1002404124190166,9.73421080098966,10.9347831912157,13.280356802591465,-0.8498401176638719,-2.5538002572408534,3.6159608422256095,-0.43487548828125,20.548006383384145,62.01804556497714,-11.591841534870426,-10.887873684314654,-21.18063377594628,3.2548026842948694,18.848129251700684,-46.516216422466414,-16.216688129578753,27.94881241201665,35.13723904513733,38.44391529637284,1577397891.999,-27.69051495298396,-51.12835722456942,7.1605873
83471,1577397892.44,0.0919139856850218,2.8095080554496943,11.603469148366042,-0.7575020472084603,-0.031533387719131,6.816934473251715,-2.5794895105873668,3.82167140607136,11.186294107874428,-1.3638007931592986,6.810630240091464,-1.368638945788872,3.137728063071646,6.2404725609756095,0.05340576171875,19.830843297446645,55.38047232278964,-12.629439191120428,-10.887873684314654,-21.18063377594628,3.2548026842948694,18.84812925170068,-46.6853663003663,-16.216688129578753,27.75712103513344,34.94554766825411,38.39599245215204,1577397891.999,-27.69051495298396,-51.12835722456942,7.1605873
83472,1577397892.45,1.3512640589272102,-0.4035105724799917,10.389608906666824,0.1738423985923209,-2.454465467797256,8.169658411239997,-0.5372354944740853,-4.780695158870046,18.53649320455412,-4.262970715034299,8.122886099466463,-1.704332305163872,1.0014975943216462,-0.1071836890243902,2.12860107421875,1.6118491568216462,26.297220369664632,-3.809859112995426,-11.645290984093066,-20.450267094017097,4.184746308379121,18.84812925170068,-46.6853663003663,-16.216688129578753,27.94881241201665,34.993470512474914,38.25222391948962,1577397891.999,-27.69051495298396,-51.12835722456942,7.1605873
83473,1577397892.46,-0.2145438268149771,-0.6333539318549917,5.362982521168777,-1.1788815393959602,2.884604234351181,10.255008057236092,-1.8085565760170537,1.4681711741377668,22.31214922262052,0.7724296755907015,10.854209341653965,0.950696991711128,-0.7380043588033537,0.4421327172256097,1.06048583984375,-17.431119593178355,-13.497701505335366,-8.631636456745428,-12.213353958926875,-21.728408787393164,3.719774496336996,18.84812925170068,-46.34706654456654,-10.14481956845238,27.900889567795847,34.993470512474914,38.44391529637284,1577397891.999,-27.69051495298396,-51.12835722456942,7.1605873
83474,1577397892.47,-1.7061314610923208,-0.4202699841010854,7.619517585866043,0.2193322301352896,-1.190326991234756,11.604140692734138,1.5660706639731798,3.5630976267744847,11.528664945276772,13.3456718630907,16.545737661966463,0.4318981635861281,5.319734899009147,-2.2891905249618905,0.35858154296875,-7.3450600228658525,-41.97060189596037,10.029862566692074,-10.698519359370051,-20.99804210546398,4.029755704365082,19.975795104366533,-46.516216422466414,-15.81189689217033,27.517506814029414,35.113277623026924,38.34806960793124,1577397891.999,-27.69051495298396,-51.12835722456942,7.1605873
83475,1577397892.48,2.1006491785561163,1.8135201648246944,9.515725300709793,2.934356912752477,0.8734748398199315,13.037070386337652,-5.979255868009242,-7.208415642268483,6.129740201624427,-1.3332832150342986,-6.952797494283536,-0.971910430163872,-0.4938637338033537,1.998529201600609,0.05340576171875,-19.567350061928355,-43.89320931783536,2.8734904963795733,-10.698519359370051,-20.99804210546398,4.029755704365082,19.814699982557126,-38.2278724053724,-13.787940705128204,27.70919819091263,35.233084733578934,38.30014676371043,1577397891.999,-27.69051495298396,-51.12835722456942,7.1605873
83476,1577397892.49,-1.5289605382407585,5.141460472441882,13.059143757741042,-4.420630587247523,0.8471386215582127,14.30360306456031,7.782615274568883,1.7363217600752667,-1.2779197348990092,9.1952812380907,-1.2460103849085369,-1.429674102038872,2.863069859946646,0.3810975609756097,1.27410888671875,-10.228971155678352,-14.993062833460366,1.408646746379573,-10.698519359370051,-20.99804210546398,4.029755704365082,19.814699982557126,-38.2278724053724,-13.787940705128204,27.75712103513344,34.94554766825411,38.30014676371043,1577397891.999,-27.69051495298396,-51.12835722456942,7.1605873
83477,1577397892.5,-0.9028768041098996,-0.0228325085151485,7.954705818287918,-0.6126528467690072,0.3587214828863367,6.473366535019293,2.554875949617711,-3.760765251643485,5.996862009485755,-4.262970715034299,3.392661490091463,0.4929333198361281,1.7186606802591462,-1.2668516577743905,-1.04522705078125,10.629793492759148,44.04319204935214,5.543778582317072,-11.645290984093068,-20.998042105463984,3.564783892322956,18.848129251700684,-40.59597069597069,-16.823874985691393,27.82900530146464,34.96950909036451,38.37203103004163,1577397891.999,-27.69051495298396,-51.12835722456942,7.1605873
83478,1577397892.51,-0.2552452550376334,0.8917525256645384,9.202084883229324,-2.5866721155678354,1.7329932358160252,11.401830652450936,-1.9282666590248665,-6.873227409846608,13.283614762171302,-7.009552746284299,-12.293373666158535,-2.345201445788872,5.090853063071647,-1.2668516577743902,-0.31280517578125,14.581819859946648,28.006204744664632,-17.878462628620426,-11.455936659148463,-22.09359212835776,3.719774496336995,19.975795104366533,-41.103420329670335,-16.823874985691393,27.90088956779585,35.13723904513733,38.25222391948962,1577397891.999,-27.69051495298396,-51.12835722456942,7.1605873
83479,1577397892.52,1.0879018763100228,-2.625329713104992,5.131942060963699,0.6047986974204459,1.2206340805425877,8.12895698301734,0.3294655065024771,16.700082136051826,14.969132730921302,11.4230644412157,3.301108755716464,0.7065563667111281,2.710481969321646,7.5832459984756095,1.97601318359375,20.410677281821645,14.883646150914634,-8.692671612995428,-11.455936659148463,-22.09359212835776,3.719774496336995,22.392221931507645,-41.272570207570205,-13.38314946771978,27.852966723575044,34.993470512474914,38.30014676371043,1577397891.999,-27.69051495298396,-51.12835722456942,7.1605873
83480,1577397892.53,0.0823371790443968,2.4048879748832883,11.306588142506667,0.8322478551352896,-0.5103737197503809,7.405908081650153,1.947945828768102,6.026731135075266,16.702534732874426,4.526091784965701,-1.2154928067835369,0.1877575385861281,2.069612828696646,-2.3044493140243905,0.05340576171875,1.6728843130716462,-12.215963224085366,3.4533244807545733,-11.455936659148463,-22.09359212835776,3.719774496336995,-3.2219024361881505,-39.41192155067155,-16.823874985691393,27.94881241201665,35.28100757779974,38.25222391948962,1577397891.999,-27.69051495298396,-51.12835722456942,7.1605873
83481,1577397892.54,-1.459528690096227,1.4112942859184443,12.276239814869948,-2.848837197354945,1.2541529037847747,13.368667316269294,2.304681876131383,2.952576203434641,15.256436930140053,-4.6902168087843,5.528891958841464,1.789930390148628,3.687044469321647,-7.9807188452743905,1.76239013671875,-10.564664515053352,-44.13734994283536,0.6151897151295731,-10.887873684314654,-21.18063377594628,4.184746308379125,-3.3024499970928543,-41.864594780219775,-12.877160420959248,27.733159613023037,34.873663401922904,38.132416808937606,1577397891.999,-27.69051495298396,-51.12835722456942,7.1605873
83482,1577397892.55,-0.4060799596274771,-0.8703798962104604,12.1421645219012,0.3270713048423209,-5.885356446801161,10.480063013290778,1.210531717439977,9.685071271794016,13.046588797815833,-5.422638683784299,-9.455238900533535,-0.7582873832888719,12.689730016196648,-1.3584043921493902,-2.14385986328125,-12.365201624428352,-59.51820931783536,18.43745534012957,-12.213353958926874,-20.2676754235348,2.7898308722527494,22.392221931507645,-46.6853663003663,-10.95440204326923,27.852966723575044,35.08931620091653,38.15637823104801,1577397891.999,-27.69051495298396,-51.12835722456942,7.1605873
83483,1577397892.56,-0.1786308019126334,0.6068425281059447,10.550020417897292,-5.119737472013147,1.9317119736089936,10.676387549423591,0.4755118077720084,-15.401373723323172,12.35945292135099,2.5119316287157014,-3.7179342130335367,0.3403454292111281,-2.202848108803354,-14.99976181402439,5.82122802734375,-25.487760218178355,-54.11659798971037,16.331742449504574,-11.645290984093066,-21.18063377594628,3.564783892322956,-3.382997557997558,-45.67046703296703,-12.573566992902933,27.94881241201665,35.233084733578934,38.44391529637284,1577397891.999,-27.69051495298396,-51.12835722456942,7.1605873
83484,1577397892.57,0.0212850367104134,0.9252713489067268,13.102239387623856,-7.853915767911585,3.3131663315191497,16.898917664169684,-0.9705859949623664,-2.8437860158036394,9.982010672815834,-0.5856025509717995,-4.374062142721036,0.5997448432736281,2.405306188071646,1.815423732850609,-1.13677978515625,-11.052945765053352,-55.48988900533536,0.0048381526295732,-11.455936659148463,-21.18063377594628,3.564783892322956,-3.382997557997558,-45.67046703296703,-12.573566992902933,27.94881241201665,34.94554766825411,38.39599245215204,1577397891.999,-27.69051495298396,-51.12835722456942,7.1605873
83485,1577397892.58,0.3959775965248666,-2.886297694062023,9.8820381547137,-0.1397980188881478,-3.468409870873428,6.135784100937262,6.317363858553258,5.766960254948311,8.410217282923256,-2.7981269650342986,7.543052115091464,4.826429413586128,3.671785680259146,7.1559999047256095,1.70135498046875,-0.5243813119283538,-29.977193692835364,3.1939250666920733,-10.509165034425452,-22.27618379884005,4.184746308379121,-3.3024499970928543,-35.77519917582417,-14.698720989297165,27.852966723575044,34.993470512474914,38.39599245215204,1577397891.999,-27.69051495298396,-51.12835722456942,7.1605873
83486,1577397892.59,-0.7819696202720083,2.7233167956840694,16.063866841237136,-0.7120122156654916,4.0697340561285245,14.461620374130622,-1.4039364954506477,-2.822238200862233,6.452957425745521,-2.2793281369092986,8.641684927591463,4.032972382336128,5.151888219321647,-16.58667587652439,4.93621826171875,-3.148893030678354,-16.030660489710368,6.657670183879573,-11.645290984093066,-20.450267094017097,3.564783892322956,-3.382997557997558,-35.85977411477411,-17.026270604395606,28.044658100458264,34.94554766825411,38.30014676371043,1577397891.999,-27.69051495298396,-51.12835722456942,7.1605873
83487,1577397892.6,0.2714791101967416,2.3402445300590697,12.877184431569168,0.5042422276938834,3.226975071753525,14.523869617294684,-0.8820005335365853,-3.85174491472942,7.336417838343177,2.7560722537157014,-10.035072884908535,1.438978241711128,2.283235875571646,7.7053163109756095,1.36566162109375,-0.2802406869283537,-2.7249964272103657,2.8734904963795733,-12.023999633982273,-21.18063377594628,2.63484026823871,17.237178033606607,-35.85977411477411,-68.839548992674,27.852966723575044,35.13723904513733,38.30014676371043,1577397891.999,-27.69051495298396,-51.12835722456942,7.1605873
83488,1577397892.61,-2.101174735018102,0.3937585803520389,7.621911787526199,-0.3097863367592415,0.332385264624618,6.802569263290778,2.541707840486852,2.296564948551829,7.044325235804115,2.160979480278201,6.474936880716464,3.285291718273628,5.640169469321647,1.4492127953506098,0.75531005859375,1.5813315786966462,2.5850621665396343,0.0353557307545732,-12.213353958926875,-21.36322544642857,3.0998120802808327,17.398273155416014,-45.50131715506714,-67.01798842433608,27.996735256237457,34.8017791355917,38.30014676371043,1577397891.999,-27.69051495298396,-51.12835722456942,7.1605873
83489,1577397892.62,2.687228585294398,1.7177520984184445,5.409669453541824,-0.3002095301186168,1.1500051315679782,10.615335407089606,-0.0775487757240854,-2.6366875722001244,10.344732224329505,7.577849597465701,-12.354408822408535,2.781751679211128,0.0249350943216462,-12.75671982183689,1.50299072265625,1.4287436880716466,7.330545564977134,1.698563738567073,-12.023999633982273,-21.91100045787546,2.9448214762667897,17.237178033606607,-40.59597069597069,-39.6945798992674,28.044658100458264,34.96950909036451,38.276185341600026,1577397891.999,-27.69051495298396,-51.12835722456942,7.1605873
83490,1577397892.63,0.4055544031654916,3.800707542754382,13.676847786061357,0.1091989537681021,2.2836596176519626,13.207058704208746,0.4180509679282584,0.3835978220869855,15.792738102015052,9.3478691287157,-21.784340463033537,-1.277086211413872,7.074495641196647,7.8884217797256095,0.45013427734375,11.865755406821648,-10.110250333460366,-9.150435284870428,-11.834645309037668,-21.36322544642857,3.099812080280829,18.20374876446305,-34.506575091575094,-17.026270604395606,27.75712103513344,34.89762482403331,38.49183814059364,1577397891.999,-27.69051495298396,-51.12835722456942,7.1605873
83491,1577397892.64,0.0583951624428343,-2.9892483654487414,13.7510680375262,0.9543521398032584,-0.6755736343011622,9.201559326767342,-6.041505111173304,11.542971760075265,13.410507450159583,-0.8755195431592987,-2.2225728849085367,2.476575897961128,-0.6159340463033537,1.1440370141006098,3.95965576171875,6.311556188071647,-10.903707364710366,0.9814006526295732,-12.40270828387148,-22.64136713980464,3.564783892322956,20.45908046979476,-35.85977411477411,-62.36288919413919,27.75712103513344,35.08931620091653,38.44391529637284,1577397891.999,-27.69051495298396,-51.12835722456942,7.1605873
83492,1577397892.65,0.1888791529213509,1.1922248340141477,16.715089692799637,3.5065711095298204,0.2378142990484461,17.032992957138433,-0.5695572168861947,-4.857309611995047,9.539083365686928,-9.5730293087843,0.9817728182164634,2.980115937023628,2.618929234946646,-4.501714939024391,2.69317626953125,0.8336509146341463,-12.460103849085366,2.8734904963795733,-11.645290984093066,-21.91100045787546,3.874765100351039,20.45908046979476,-45.33216727716727,-10.14481956845238,27.90088956779585,35.04139335669572,38.34806960793124,1577397891.999,-27.69051495298396,-51.12835722456942,7.1605873
83493,1577397892.66,0.6330035608803353,-2.6468775280463976,6.400868940846512,1.7659865025962271,1.4648426498785252,15.96996742002906,-0.324151546720179,11.346647223942451,10.135239579065834,5.716277331840701,10.716880240091465,3.361585663586128,-1.1042152963033538,-0.1682188452743902,4.69207763671875,-0.0055824838033536,-2.3587854897103657,14.531205340129572,-11.455936659148463,-20.632858764499392,3.099812080280829,19.814699982557126,-46.6853663003663,-11.359193280677657,27.70919819091263,34.993470512474914,38.49183814059364,1577397891.999,-27.69051495298396,-51.12835722456942,7.1605873
83494,1577397892.67,-0.3558017247641959,2.843026878691882,13.253074092213698,1.5529025548423208,0.1671853500738367,10.92538452207984,-0.9729801966225228,-19.493064360530205,7.137699100550209,2.6340019412157014,-1.7342916349085369,1.927259491711128,8.447786656821647,3.310785060975609,-0.74005126953125,-10.167935999428352,2.1272984946646343,1.011918230754573,-10.887873684314654,-22.64136713980464,3.874765100351035,18.525939008081867,-46.6853663003663,-15.407105654761905,28.092580944679067,35.13723904513733,38.30014676371043,1577397891.999,-27.69051495298396,-51.12835722456942,7.1605873
83495,1577397892.68,0.381612386563929,-1.2893651867378042,4.557333662526198,-0.9238990625893198,0.1947186691656346,7.689620978378668,3.078009012361852,7.524304273502999,7.76857123800138,1.0165703005907014,-3.2601705411585367,3.300550507336128,4.770418492759147,-2.3960020483993905,1.80816650390625,8.875032750571647,-2.1756800209603657,-0.0561970036204266,-10.130456384536249,-20.81545043498169,3.564783892322956,18.848129251700684,-42.62576923076923,-16.216688129578753,27.75712103513344,35.13723904513733,38.276185341600026,1577397891.999,-27.69051495298396,-51.12835722456942,7.1605873
83496,1577397892.69,1.2961974207436164,1.8015491565239128,9.14701824504573,-0.3097863367592415,1.2326050888433688,8.042765723251716,-10.255300033048302,-20.639886955745048,5.15769432760099,1.0470878787157014,-14.032875619283535,0.2182751167111281,4.205843297446647,4.1042420922256095,2.61688232421875,-5.437711390053353,5.575784822789634,4.033158465129573,-11.455936659148463,-20.2676754235348,3.719774496336995,17.881558520844237,-38.56617216117216,-15.81189689217033,27.90088956779585,35.08931620091653,38.25222391948962,1577397891.999,-27.69051495298396,-51.12835722456942,7.1605873
83497,1577397892.7,2.5603358973061168,4.605159300566882,4.942800129811356,1.6247286046470084,-0.2350405288324122,4.971004993271246,10.432996512361852,1.6932261301924545,4.346059964808021,19.8459160037157,-18.763100228658537,0.035169647961128,4.053255406821647,-2.5791075171493905,-0.03814697265625,11.835237828696648,10.672220369664634,-11.897017316120428,-12.023999633982273,-20.450267094017097,2.324859060210624,17.881558520844237,-38.56617216117216,-15.81189689217033,27.90088956779585,34.94554766825411,38.30014676371043,1577397891.999,-27.69051495298396,-51.12835722456942,7.1605873
83498,1577397892.71,1.1693047327553352,2.208563438750476,9.692896223561355,-0.5180818811928353,4.1367717026129,10.583013684677498,0.3821379430259146,16.072801301090887,7.769768338831459,22.3788749880907,-9.485756478658535,-0.4225940239138719,3.259798375571646,-5.722418064024391,1.70135498046875,13.208528844321648,19.369730135289632,10.167191668254572,-11.266582334203862,-21.545817116910868,4.184746308379121,17.237178033606607,-38.56617216117216,-17.026270604395606,27.61335250247102,35.08931620091653,38.58768382903526,1577397891.999,-27.69051495298396,-51.12835722456942,7.1605873
83499,1577397892.72,-0.4695263036216178,-1.5587128735053823,9.465447065846512,1.5169895299399772,-0.6085359878167872,8.031991815781012,0.8382333592856802,-8.769435124690359,2.805391196497474,-10.6564033322218,13.814414419778965,2.385023163586128,0.3758872427591466,3.9821717797256095,0.23651123046875,10.309358922446645,39.038309236852136,-7.822920636432927,-12.40270828387148,-20.450267094017097,3.2548026842948694,18.12320120355835,-39.834796245421245,-16.520281557635073,27.92485098990625,35.04139335669572,38.276185341600026,1577397891.999,-27.69051495298396,-51.12835722456942,7.1605873
83500,1577397892.73,0.2331718836342415,0.235741270781726,8.54607362834651,0.8466130650962271,-0.6300838027581934,5.880801624130621,-0.0176937342201781,8.423326996891673,5.950175077112709,-5.636261730659299,-1.7953267911585369,0.5234508979611281,4.663606969321647,-3.5556700171493905,0.11444091796875,29.260774938071645,88.43100943216463,6.749222918254573,-10.698519359370051,-22.823958810286936,4.339736912393168,17.237178033606607,-38.56617216117216,-17.026270604395606,27.94881241201665,35.08931620091653,38.49183814059364,1577397891.999,-27.69051495298396,-51.12835722456942,7.1605873
83501,1577397892.74,2.3496461512123665,6.824584239531726,10.408762519948072,-0.7814440638100227,4.242116575659774,4.422732813095465,-1.300985824063929,-13.198708195979425,9.469651517542395,19.3271171755907,-13.788734994283535,-2.223131133288872,2.771517125571646,-5.173101657774391,1.30462646484375,24.164339391196645,80.49643911966463,-13.514448956745428,-11.266582334203862,-23.00655048076923,2.014877852182544,20.45908046979476,-44.31726800976801,-15.407105654761905,27.94881241201665,34.94554766825411,38.39599245215204,1577397891.999,-27.69051495298396,-51.12835722456942,7.1605873
83502,1577397892.75,1.8420753992592416,3.965907457305163,9.98977722942073,0.8274594518149772,4.373797666968368,9.52238234922828,-2.972138582852992,14.308274677555731,10.324381510218178,10.1108085818407,-1.9479146817835369,-1.032945586413872,7.288118688071647,8.01049209222561,2.40325927734375,26.117464391196645,58.06601919778964,-11.195113019245428,-12.023999633982273,-22.27618379884005,3.564783892322956,17.881558520844237,-40.934270451770445,-17.026270604395606,27.94881241201665,35.08931620091653,38.44391529637284,1577397891.999,-27.69051495298396,-51.12835722456942,7.1605873
83503,1577397892.76,1.5176610743080698,-2.3954863537299915,6.785138307301589,2.138284860750524,-2.4137640395746,6.822919977402106,1.3386215062583364,0.7092092478682356,13.48831900411466,4.816008777153201,5.116904654153965,1.271131562023628,0.7878745474466462,4.6535584984756095,0.49591064453125,8.478304234946648,21.88743033060214,-4.359175519245427,-10.31981070948085,-21.36322544642857,3.409793288308909,21.103460957032382,-39.58107142857143,-16.419083748282965,27.900889567795847,34.993470512474914,38.37203103004164,1577397891.999,-27.69051495298396,-51.12835722456942,7.1605873
83504,1577397892.77,2.3831649744545538,2.596424107695788,11.251521504323074,0.9806883580649772,6.382532859839463,13.12326164610328,-3.324086226895961,5.521554584782297,11.93807342916349,-6.643341808784299,5.315268911966464,-0.6056994926638719,-3.484586390053354,9.68895888910061,2.55584716796875,-0.7380043588033537,7.742532869664634,11.723588152629572,-10.887873684314654,-21.91100045787546,3.2548026842948694,22.392221931507645,-38.56617216117216,-13.787940705128204,28.044658100458264,34.94554766825411,38.25222391948962,1577397891.999,-27.69051495298396,-51.12835722456942,7.1605873
83505,1577397892.78,-1.160253482576696,2.469531419707507,9.815000508229325,2.072444315096227,-1.736204969750381,11.078613428329842,4.926332694002476,-8.764646721370045,13.740907279261146,9.7751152224657,7.024253286966464,1.042249726086128,0.6352866568216463,12.19140029535061,1.42669677734375,-3.393033655678354,5.941995760289634,-5.396773175495427,-12.40270828387148,-21.545817116910868,3.564783892322956,-3.382997557997558,-46.6853663003663,-17.026270604395606,27.70919819091263,35.08931620091653,38.30014676371043,1577397891.999,-27.69051495298396,-51.12835722456942,7.1605873
83506,1577397892.79,1.1118438929115857,0.7792250476371946,9.710852736012528,-1.1740931360756477,-0.6707852309808497,7.326899426864996,3.614310184236852,7.393820283024485,3.6972313149056775,-6.0940254025343,3.011191763528964,0.3861217963986281,0.9709800161966464,8.07152724847561,-1.80816650390625,-4.613736780678353,14.578470369664634,-5.152632550495427,-11.361259496676162,-21.271929611187424,3.332297986301892,22.55331705331705,-46.51621642246642,-16.823874985691393,27.78108245724384,34.993470512474914,38.44391529637284,1577397891.999,-27.69051495298396,-51.12835722456942,7.1605873
83507,1577397892.8,2.6441329554115853,2.567693687773913,3.408116865651199,1.1147636510337275,3.732151622046493,7.696803583359138,1.2859490697348988,-3.238829289729421,4.140158622034583,16.1532890505907,2.171958365091464,0.1877575385861281,-1.2873207650533538,5.4622743187881095,1.22833251953125,7.166048375571647,38.48899283060214,-1.185347394245427,-11.834645309037668,-21.36322544642857,2.4798496642246635,-3.2219024361881505,-46.51621642246642,-16.823874985691393,27.90088956779585,35.04139335669572,38.25222391948962,1577397891.999,-27.69051495298396,-51.12835722456942,7.1605873
83508,1577397892.81,1.2076119593178352,2.2420822619926635,7.837389936940261,4.299051859041539,0.1743679550543054,5.289433814072027,-4.446966805509241,-0.5190162037919206,3.237544596155677,14.1086113162157,2.141440786966464,-0.1174182426638719,-2.508023890053354,5.7827088891006095,0.32806396484375,13.849397984946648,66.82456411966463,-4.084517316120427,-11.834645309037668,-21.36322544642857,2.4798496642246635,-3.382997557997558,-35.85977411477411,-17.026270604395606,27.852966723575044,35.13723904513733,38.25222391948962,1577397891.999,-27.69051495298396,-51.12835722456942,7.1605873
83509,1577397892.82,1.9665738855873665,0.1280021960746948,5.8813271805926055,-3.1301558924233044,4.407316490210556,2.399632410263434,0.4970596227134146,-4.936318266780202,10.688300162561926,8.4018242068407,-1.2765279630335369,0.1877575385861281,-2.965787561928354,-0.9921934546493902,-0.19073486328125,19.495149938071645,62.12485708841464,-16.505171612995426,-10.31981070948085,-22.823958810286936,2.4798496642246635,-3.382997557997558,-35.85977411477411,-17.026270604395606,27.70919819091263,35.08931620091653,38.30014676371043,1577397891.999,-27.69051495298396,-51.12835722456942,7.1605873
83510,1577397892.83,2.593854720548304,2.777186333037585,6.991039650075027,-1.0591714563881478,3.871015318335556,9.88630100157203,3.4491102696860705,14.092796528141667,10.975604361780675,2.6645195193407014,11.098349966653965,-0.0869006645388719,-0.2192055306783537,9.41430068597561,2.46429443359375,20.837923375571645,39.41977896341464,-11.591841534870428,-11.834645309037668,-22.27618379884005,2.944821476266786,-3.2219024361881505,-35.690624236874235,-13.585545086423991,27.90088956779585,35.08931620091653,38.25222391948962,1577397891.999,-27.69051495298396,-51.12835722456942,7.1605873
83511,1577397892.84,0.2116240686928353,-4.641247510956554,5.04814500285823,2.347777506014196,-2.424537947045303,7.808133960556404,-2.5208315699135384,1.2287510081221422,15.137923947962316,-6.063507824409299,23.168052115091463,1.591566132336128,-2.080777796303354,5.2791688500381095,0.78582763671875,-1.2262856088033536,0.1283971274771342,2.9040080745045733,-11.834645309037668,-22.823958810286936,2.4798496642246635,21.82838900517472,-35.098599664224665,-15.103512226705586,27.852966723575044,34.89762482403331,38.276185341600026,1577397891.999,-27.69051495298396,-51.12835722456942,7.1605873
83512,1577397892.85,-1.0836390294516958,-0.4466062023628042,11.98175301067073,-0.2307776819740853,2.9755838974371187,18.21094017393531,4.92393849234232,3.630135273258861,10.638021927698643,-24.2214668087843,15.080893911966465,1.225355194836128,0.5742515005716463,2.853021389100609,-0.52642822265625,-5.498746546303353,-2.4503382240853657,2.5683147151295733,-11.834645309037668,-22.823958810286936,2.4798496642246635,22.392221931507645,-33.829975579975574,-16.62147936698718,27.75712103513344,34.70593344715009,38.25222391948962,1577397891.999,-27.69051495298396,-51.12835722456942,7.1605873
83513,1577397892.86,-2.120328348299352,5.953094835234851,15.599391719166825,-0.9634033899818978,1.7138396225347752,12.632450305771249,5.03886017202982,0.5583745432783918,2.9215099770150528,-5.178498058784299,-2.4056783536585367,-1.826402617663872,-1.6535317025533538,11.64208388910061,-2.26593017578125,7.654329625571647,14.273294588414634,8.732865496379572,-11.455936659148463,-20.99804210546398,3.099812080280829,22.55331705331705,-35.690624236874235,-16.419083748282965,27.75712103513344,34.94554766825411,38.25222391948962,1577397891.999,-27.69051495298396,-51.12835722456942,7.1605873
83514,1577397892.87,-0.5437465550864615,-0.8488320812690547,6.852175953785965,1.3505925145591178,0.2019012741461032,4.817776087021247,0.3653785314048209,-4.343753355891532,12.86941787496427,-3.042267590034299,3.926719107278964,-0.0716418754763719,-7.1466957650533525,3.417596584413109,-2.08282470703125,1.5508140005716462,1.4253941977896345,-5.137373761432926,-12.118676796454574,-21.819704622634312,3.1773073822878564,20.378532908890055,-34.760299908424905,-12.87716042095925,27.94881241201665,34.993470512474914,38.34806960793124,1577397891.999,-27.69051495298396,-51.12835722456942,7.1605873
83515,1577397892.88,-1.2608099523032583,3.446365697051257,9.036884968678542,-5.924189229825648,4.009879014624619,11.53830014707984,6.13061612906107,8.581344306461984,7.176006327112709,13.1015312380907,0.6460794588414634,-0.4225940239138719,-0.6769692025533537,-0.7175352515243902,0.29754638671875,6.464144078696647,-8.462301114710366,-5.488325909870427,-13.160125583649888,-21.18063377594628,3.874765100351035,19.975795104366533,-46.51621642246642,-8.728050237522895,27.852966723575044,35.13723904513733,38.25222391948962,1577397891.999,-27.69051495298396,-51.12835722456942,7.1605873
83516,1577397892.89,0.1828936487709603,1.6770506701957884,7.791900105397293,2.7954932164634143,-2.617271180687881,5.157752722763434,-6.75258300423971,-7.031244719416921,6.874336917933022,3.854705066215701,1.7141946932164631,0.1267223823361281,-1.4093910775533538,6.8508241234756095,-0.40435791015625,-6.994107874428353,-1.534810880335366,13.279984637004572,-13.160125583649888,-21.18063377594628,3.874765100351035,19.975795104366533,-46.51621642246642,-8.728050237522895,27.75712103513344,35.08931620091653,38.44391529637284,1577397891.999,-27.69051495298396,-51.12835722456942,7.1605873
83517,1577397892.9,0.726377425626429,2.110401170684069,10.57635663615901,-0.4821688562904915,0.629266270483994,4.6501819708103085,-0.0033285242592406,-9.62416511736614,12.062571915491615,-4.690216808784299,-11.286293588033535,-3.108140898913872,-3.637174280678354,-12.49732040777439,4.14276123046875,-16.698697718178355,-20.394674161585368,-5.213667706745427,-12.213353958926874,-20.99804210546398,3.719774496336995,19.814699982557126,-46.6853663003663,-12.168775755494504,28.044658100458264,34.993470512474914,38.0605325426064,1577397891.999,-27.69051495298396,-51.12835722456942,7.1605873
83518,1577397892.91,-0.9627318456138052,1.7895781482231323,5.835837349049637,-0.5480094019447885,-0.5450896438226466,9.347605628036872,-0.6162441492592419,9.243341065495189,7.773359641321693,-1.0433662228467986,5.361045279153964,0.462415741711128,-5.6665932259908525,-0.9616758765243903,-2.69317626953125,-12.777188929115852,-21.722188810022868,7.283280535442072,-11.550613821620765,-21.819704622634312,4.4172322144001885,18.848129251700684,-46.34706654456654,-9.740028331043955,27.82900530146464,34.993470512474914,38.276185341600026,1577397891.999,-27.69051495298396,-51.12835722456942,7.1605873
83519,1577397892.92,-1.7492270909751333,3.3482034289848506,12.32651804973323,-3.4892861414467418,2.740952134741806,17.65548538877906,-0.601878939298304,-15.810782207209892,9.280509586390052,0.0094902224657013,-8.905922494283537,-2.680894805163872,-7.940152796303353,-20.40137314214939,3.62396240234375,-22.558072718178355,-12.551656583460366,5.162308855754573,-11.077228009259256,-21.36322544642857,4.339736912393168,18.68703412989128,-46.51621642246642,-15.204710036057692,27.94881241201665,35.13723904513733,38.39599245215204,1577397891.999,-27.69051495298396,-51.12835722456942,7.1605873
83520,1577397892.93,-4.164976566072789,1.9882968860161008,14.000065010182448,-0.1326154139076781,-1.1496255630120995,18.94596008360328,-3.944184456876429,-6.370445061213796,2.5360435097298963,-8.3218086056593,4.064048208841464,0.1572399604611281,-2.263883265053354,4.5314881859756095,-4.61578369140625,-27.227262171303355,-19.082418302210368,-13.087202862995428,-11.077228009259256,-21.36322544642857,4.339736912393168,18.68703412989128,-46.51621642246642,-15.204710036057692,27.90088956779585,34.94554766825411,38.39599245215204,1577397891.999,-27.69051495298396,-51.12835722456942,7.1605873
83521,1577397892.94,-0.2384858434165396,-4.122902851532727,7.582407460133621,2.3046818761313834,-2.8519029433831937,0.3406189825290588,9.109002994295444,28.225768928044012,4.951792984827552,-28.7228095822218,-2.756630502096036,-0.2547473442263719,-5.712369593178353,1.4797303734756098,-0.77056884765625,3.290315953696646,-3.5794886147103657,5.833695574504573,-11.455936659148463,-21.91100045787546,4.494727516407204,20.29798534798535,-46.17791666666667,-15.204710036057692,27.70919819091263,34.993470512474914,38.39599245215204,1577397891.999,-27.69051495298396,-51.12835722456942,7.1605873
83522,1577397892.95,2.3831649744545538,5.541292149687976,11.974570405690262,-0.4654094446693978,1.1356399216070403,5.842494397568121,-5.858348684171351,-10.629729814631766,11.422122971399816,2.2067558474657014,-17.450844369283537,-4.725572539538872,-4.430631311928353,-6.790533298399391,-1.12152099609375,-15.828946741615852,-15.923848966272868,4.841874285442072,-10.887873684314654,-20.450267094017097,4.184746308379121,19.411962178033605,-46.43164148351648,-10.448412996508695,27.70919819091263,34.96950909036451,38.32410818582083,1577397891.999,-27.69051495298396,-51.12835722456942,7.1605873
83523,1577397892.96,1.722365316251429,0.8151380725395385,7.818236323659011,-0.4558326380287728,0.102541905249618,6.17528842832984,0.5688856725181022,4.422616022770579,11.17192889791349,7.211638659965701,-4.236733041158536,-1.216051055163872,-1.9587074838033536,-0.8396055640243902,-1.25885009765625,-17.309049280678355,-22.408834317835368,-1.582075909870427,-11.077228009259256,-21.36322544642857,4.339736912393168,17.55936827722542,-38.90447191697192,-10.549610805860803,27.90088956779585,34.993470512474914,38.30014676371043,1577397891.999,-27.69051495298396,-51.12835722456942,7.1605873
83524,1577397892.97,0.2882385218178353,0.9683669787895384,10.25792781535823,0.0062482823813834,1.0841645859136817,7.997275891708746,5.297433951326696,0.6685078196455793,6.757021036585365,-9.2373359494093,1.958335318216464,-0.8498401176638719,-6.048062952553353,-6.302252048399391,0.26702880859375,-13.341764124428352,-27.261129239710368,-5.549361066120427,-11.077228009259256,-21.36322544642857,4.339736912393168,17.55936827722542,-38.90447191697192,-10.549610805860803,27.852966723575044,35.08931620091653,38.39599245215204,1577397891.999,-27.69051495298396,-51.12835722456942,7.1605873
83525,1577397892.98,0.1852878504311165,1.310737816191882,9.230815303151198,1.2991171788657585,0.9524834946050876,12.41936635801734,-2.7590546350990857,12.701765363590887,6.486476248987708,-14.1201484494093,7.909263052591464,-0.6362170707888719,-15.722135218178352,0.7167909203506098,-2.99835205078125,-13.555387171303352,-18.319478849085368,11.784623308879572,-11.834645309037668,-20.99804210546398,3.719774496336995,17.55936827722542,-41.272570207570205,-13.787940705128204,28.092580944679067,35.233084733578934,38.15637823104801,1577397891.999,-27.69051495298396,-51.12835722456942,7.1605873
83526,1577397892.99,-1.3877026402915396,3.168638304473132,11.730361836354325,1.7588038976157585,-0.0458985976800685,17.162279846786873,-1.2411307825600228,-9.753452007014578,13.903712992151773,-11.8923652462843,-0.6661764005335366,-0.1174182426638719,-10.259488733803352,1.0830018578506098,-2.99835205078125,-21.032193811928355,-22.134176114710368,-1.429488019245427,-11.834645309037668,-20.99804210546398,3.409793288308909,17.237178033606607,-40.934270451770445,-12.978358230311354,28.044658100458264,35.13723904513733,38.15637823104801,1577397891.999,-27.69051495298396,-51.12835722456942,7.1605873
83527,1577397893.0,-2.4028441441977897,-3.693143653534679,11.167724446217605,0.0613149205649771,-1.4848137954339746,9.436191089462652,0.8657666783774771,9.278056989567451,17.212499686487707,-18.6367500119093,8.031333365091463,-1.643297148913872,-9.893277796303352,-3.4335997046493905,-1.86920166015625,1.6423667349466462,-29.580465177210368,2.2936565120045733,-10.509165034425452,-21.545817116910868,4.184746308379121,18.84812925170068,-41.272570207570205,-12.978358230311354,27.70919819091263,34.94554766825411,38.25222391948962,1577397892.999,-27.690493184888595,-51.12828633829286,7.4147873
83528,1577397893.01,-1.0596970128501333,1.885346214629382,13.4829174515887,-2.555547493985804,5.518226060523056,14.262901636337654,0.3941089513266959,-2.3003022389481704,9.797657144983802,-27.2121894650343,-10.370766244283535,0.8286266792111281,-10.961393030678352,0.9914491234756098,-1.96075439453125,-23.717740686928355,-45.81581673971037,-4.023482159870427,-10.698519359370051,-21.36322544642857,4.029755704365082,22.714412175126466,-41.272570207570205,-17.026270604395606,27.94881241201665,34.993470512474914,38.10845538682721,1577397892.999,-27.690493184888595,-51.12828633829286,7.4147873
83529,1577397893.02,1.3608408655678352,1.9188650378715693,15.022389119069167,5.955839407869664,-4.082522596703506,10.085019739364997,-1.521252376798304,4.793717280094798,9.512747147425207,-5.422638683784299,-14.582192025533535,-4.603502227038872,-4.308560999428353,0.7473084984756098,-2.20489501953125,-23.259977015053355,-31.319967130335368,11.113236590129572,-10.698519359370051,-21.36322544642857,4.029755704365082,22.392221931507645,-37.88957264957265,-17.026270604395606,27.90088956779585,34.993470512474914,38.15637823104801,1577397892.999,-27.690493184888595,-51.12828633829286,7.4147873
83530,1577397893.03,1.770249349454554,-0.4561830090034292,6.575645662037918,-1.4973103601967417,-0.2541941421136622,4.915938355087652,8.917466861482945,-7.083917155940358,8.200724637659583,-4.385041027534299,-6.189858041158536,0.2182751167111281,-4.491666468178353,-7.2177793921493905,-1.93023681640625,-16.271451624428355,-21.005025724085368,-6.373335675495427,-10.698519359370051,-21.36322544642857,4.029755704365082,22.55331705331705,-46.51621642246642,-16.823874985691393,27.94881241201665,35.08931620091653,38.39599245215204,1577397892.999,-27.690493184888595,-51.12828633829286,7.4147873
83531,1577397893.04,-0.6694421422446646,1.2963726062309446,14.23469677287776,-1.042412044767054,2.178314744605088,15.354657593368904,4.670153116365758,7.798440363590891,7.645269852503334,-10.0002754025343,3.056968130716464,-2.741929961413872,-3.423551233803354,2.853021389100609,-1.99127197265625,-11.052945765053352,-8.035055020960366,1.500199480754573,-10.698519359370051,-21.36322544642857,4.029755704365082,-2.255331705331705,-45.16301739926739,-13.585545086423991,27.852966723575044,35.13723904513733,38.30014676371043,1577397892.999,-27.690493184888595,-51.12828633829286,7.4147873
83532,1577397893.05,1.770249349454554,-0.5327974621284293,4.308336689869948,1.2488389440024772,1.2924601303472751,9.24704915831031,-1.8085565760170537,-8.336084624202076,9.041089420374428,4.678679675590701,7.756675161966464,0.7065563667111281,-11.907437952553352,8.04100967035061,-0.58746337890625,-9.862760218178352,-6.112447599085366,3.3617717463795733,-10.698519359370051,-21.36322544642857,4.029755704365082,-2.255331705331705,-45.16301739926739,-13.585545086423991,27.852966723575044,34.94554766825411,38.25222391948962,1577397892.999,-27.690493184888595,-51.12828633829286,7.4147873
83533,1577397893.06,-0.7915464269126333,-0.4741395214546016,10.389608906666824,0.6119813024009146,1.9604423935308688,13.18551088926734,-1.8037681726967412,-1.4216302296708268,11.291638980921302,-7.1926582150343,4.674399771341464,0.035169647961128,-3.728727015053354,-4.501714939024391,-2.47955322265625,-15.233853968178352,-28.451314786585368,1.347611590129573,-10.698519359370051,-21.36322544642857,4.029755704365082,-2.416426827141113,-35.52147435897436,-15.81189689217033,27.92485098990625,34.94554766825411,38.25222391948962,1577397892.999,-27.690493184888595,-51.12828633829286,7.4147873
83534,1577397893.07,-1.8761197789634143,-1.7227156872260854,13.662482576100418,0.0206134923423209,1.5462455063238376,13.93968441221656,1.0261781896079458,-3.119119206721608,11.763296707972083,-14.7305000119093,-10.920082650533535,-1.093980742663872,-6.658414515053353,1.2661073266006098,-0.16021728515625,-7.634977015053353,-22.073140958460368,0.4931194026295732,-10.698519359370051,-21.36322544642857,4.029755704365082,-3.060807314378743,-35.85977411477411,-12.573566992902933,28.044658100458264,34.993470512474914,38.30014676371043,1577397892.999,-27.690493184888595,-51.12828633829286,7.4147873
83535,1577397893.08,0.7120122156654916,0.6619091662895386,11.423904023854323,2.263980447908727,-0.4457302749261622,15.397753223251716,8.022035440584508,3.1153819163252665,6.666041373499428,-1.9436347775342984,0.5240091463414634,0.2182751167111281,-0.4633461556783537,1.1440370141006098,-0.37384033203125,-0.6769692025533537,-6.020894864710366,4.979203387004573,-10.698519359370051,-21.36322544642857,4.029755704365082,20.13689022617594,-35.85977411477411,-63.57726290636447,27.75712103513344,34.8017791355917,38.39599245215204,1577397892.999,-27.690493184888595,-51.12828633829286,7.4147873
83536,1577397893.09,0.4845630579506478,0.848656895781726,10.643394282643388,-0.5683601160561166,3.904534141577744,12.002775269150153,-1.2794380091225228,-11.69275535174114,9.07700244527677,-2.1572578244092986,-9.790932259908535,0.035169647961128,-2.813199671303354,-2.0603086890243905,-0.64849853515625,-0.8295570931783537,13.327249666539634,-4.786421612995427,-10.698519359370051,-21.36322544642857,4.029755704365082,21.264556078841792,-35.690624236874235,-61.35091110061813,28.092580944679067,35.13723904513733,38.39599245215204,1577397892.999,-27.690493184888595,-51.12828633829286,7.4147873
83537,1577397893.1,1.1740931360756477,0.7481004260551635,9.427139839284012,0.8130942418540397,-0.0135768752679591,7.257467578720465,1.5517054540122424,3.8946945567061255,6.487673349817787,9.7445976443407,6.078208365091464,0.065687226086128,0.3301108755716462,0.5031678734756098,1.25885009765625,6.235262242759148,10.733255525914634,-3.764082745807927,-11.834645309037668,-22.458775469322347,3.099812080280829,22.150579248793537,-35.77519917582417,-41.41494265825321,27.75712103513344,34.993470512474914,38.39599245215204,1577397892.999,-27.690493184888595,-51.12828633829286,7.4147873
83538,1577397893.11,1.4326669153725229,1.770424534941882,7.772746492116043,-1.2363423792397104,1.9843844101324315,11.84475795957984,1.2248969274009145,-2.5325397999833266,4.575903324183021,-1.3638007931592986,-3.8705221036585367,-0.7582873832888719,0.5742515005716463,-6.698980564024391,-0.86212158203125,-3.850797327553354,19.796976229039632,-0.2393024723704268,-11.266582334203862,-21.545817116910868,3.874765100351035,19.975795104366533,-35.01402472527472,-16.014292510874544,27.852966723575044,35.13723904513733,38.39599245215204,1577397892.999,-27.690493184888595,-51.12828633829286,7.4147873
83539,1577397893.12,-0.2624278600181021,0.0130805163871947,13.394331990162918,2.3645369176352897,-0.1919448989495997,8.313310510849371,2.517765823885289,-3.205310466487233,8.066649344690834,-0.8450019650342987,-1.2154928067835369,0.6150036323361281,1.9170249380716464,7.4306581078506095,-1.44195556640625,4.175325719321647,28.402933260289632,-2.7722614567454267,-10.130456384536249,-21.91100045787546,3.874765100351035,19.975795104366533,-35.690624236874235,-61.35091110061813,27.852966723575044,35.13723904513733,38.30014676371043,1577397892.999,-27.690493184888595,-51.12828633829286,7.4147873
83540,1577397893.13,1.682860988858851,0.6595149646293826,7.023361372487137,3.3365827916587265,1.4456890365972752,6.55836069395484,-2.842851693204554,5.579015424626047,5.315711637171303,-1.6079414181592986,1.4547952791539636,1.118543671398628,-4.339078577553353,4.5925233422256095,1.67083740234375,15.649935094321648,50.92490591653964,-3.901411847370426,-10.130456384536249,-21.91100045787546,3.874765100351035,17.55936827722542,-46.00876678876679,-9.740028331043955,27.996735256237457,34.94554766825411,38.30014676371043,1577397892.999,-27.690493184888595,-51.12828633829286,7.4147873
83541,1577397893.14,3.699975887540492,-0.8536204845893667,11.402356208912918,0.6000102941001334,0.5981416489019622,6.669691071152106,-0.3552761683022103,-0.4088829274247331,13.242913333948646,-2.9507148556592986,-3.4432760099085367,-0.8498401176638719,1.1083091177591462,1.4797303734756095,0.75531005859375,13.284822789634148,43.08188833841464,-4.420210675495428,-11.266582334203862,-20.81545043498169,3.874765100351035,17.398273155416014,-42.11831959706959,-13.180753849015568,27.94881241201665,35.065354778806125,38.25222391948962,1577397892.999,-27.690493184888595,-51.12828633829286,7.4147873
83542,1577397893.15,3.676033870938929,-0.1138121716010854,6.908439692799637,1.861754569002477,0.0618404770269617,10.207124024032966,-2.888341524747523,9.931674042790108,16.532546415003335,12.5216972537157,6.078208365091464,0.6455212104611281,-1.5924965463033538,-0.5039122046493902,2.34222412109375,6.738802281821647,6.125101229039634,-4.450728253620427,-12.781416933760685,-22.27618379884005,3.2548026842948694,17.881558520844237,-40.934270451770445,-10.549610805860803,27.94881241201665,35.13723904513733,38.10845538682721,1577397892.999,-27.690493184888595,-51.12828633829286,7.4147873
83543,1577397893.16,-0.7245087804282584,0.5757179065239135,12.439045527760571,-1.4374553186928352,0.734611143530869,14.272478442978278,2.5967744786704454,-4.8237907887528575,14.63873290181974,4.373503894340701,15.843833365091465,1.652601288586128,-1.3788734994283538,1.2966249047256098,1.51824951171875,14.520784703696648,-16.183248380335368,-2.8332966129954267,-11.834645309037668,-21.728408787393168,3.719774496336995,17.237178033606607,-46.34706654456654,-10.14481956845238,27.852966723575044,35.13723904513733,38.30014676371043,1577397892.999,-27.690493184888595,-51.12828633829286,7.4147873
83544,1577397893.17,0.7586991480385384,0.3051731189262577,10.789440583912915,1.9144270055259145,1.3654832809820403,11.584987079452889,3.540089932772008,5.910612354557688,7.263394687708412,-1.012848644721799,9.038413443216465,0.3403454292111281,-2.248624475990854,14.05297256097561,0.19073486328125,-3.5913979134908534,-18.594137052210368,4.445145769817072,-12.023999633982273,-23.371733821733827,3.874765100351035,18.687034129891277,-46.34706654456655,-16.014292510874544,27.90088956779585,34.993470512474914,38.204301075268816,1577397892.999,-27.690493184888595,-51.12828633829286,7.4147873
83545,1577397893.18,0.7000412073647103,0.4392484118950072,7.636276997487136,2.2974992711509143,2.065787266577744,7.255073377060309,-1.195640951017054,-1.3306505665848891,9.246990763147863,4.434539050590701,7.482016958841464,-1.338121367663872,-3.209928186928354,2.547845607850609,2.70843505859375,-8.428434046303353,-27.078023770960368,9.434769793254572,-11.455936659148463,-22.458775469322347,2.4798496642246635,17.398273155416014,-46.17791666666667,-16.823874985691393,27.75712103513344,35.13723904513733,38.30014676371043,1577397892.999,-27.690493184888595,-51.12828633829286,7.4147873
83546,1577397893.19,-2.0197718785727896,0.484738243437976,5.177431892506668,-1.952208675626429,3.6268067489996185,14.569359448837654,6.6477636876548205,1.2862118479658915,7.214313553675208,10.5380546755907,9.313071646341465,3.544691132336128,-0.0666176400533536,3.219232326600609,-1.68609619140625,-7.512906702553353,-23.873678067835368,1.500199480754573,-12.592062608816082,-21.36322544642857,3.719774496336995,17.398273155416014,-46.17791666666667,-16.823874985691393,28.044658100458264,34.993470512474914,38.30014676371043,1577397892.999,-27.690493184888595,-51.12828633829286,7.4147873
83547,1577397893.2,-0.0900453404868521,1.7800013415825071,9.065615388600415,6.0492132726157575,0.715457530249619,10.614138306259528,-6.484432418302211,6.536696088688547,5.322894242151771,-2.1267402462842986,-9.882484994283535,-2.009508086413872,1.0625327505716462,12.46605849847561,0.60272216796875,-0.7990395150533537,-4.037252286585366,9.831498308879572,-10.31981070948085,-21.36322544642857,4.649718120421247,20.45908046979476,-38.56617216117216,-17.026270604395606,27.70919819091263,35.13723904513733,38.30014676371043,1577397892.999,-27.690493184888595,-51.12828633829286,7.4147873
83548,1577397893.21,-1.2464447423423208,-0.7027857799995235,10.834930415455888,-1.4757625452553356,1.2014804672613375,14.259310333847418,3.3401740941489613,-6.510505858332937,10.3997988625131,-0.5245673947217986,5.467856802591464,2.751234101086128,2.512117711509146,-6.454839939024391,2.69317626953125,2.817293492759146,-2.2672327553353657,-4.816939191120428,-12.40270828387148,-22.64136713980464,3.564783892322956,17.47882071632072,-41.18799526862027,-13.6867428957761,27.80504387935424,34.96950909036451,38.37203103004164,1577397892.999,-27.690493184888595,-51.12828633829286,7.4147873
83549,1577397893.22,-1.210531717439977,1.1287784900200073,15.719101802174636,1.986253055330602,-1.8367614394769436,13.630832398056404,-5.447743099454554,15.550865339176823,13.736118875940834,-10.4275214962843,-3.8094869474085367,-0.4836291801638719,9.546419469321648,9.29223037347561,-1.59454345703125,10.278841344321648,-7.150045255335366,4.185746355754573,-12.40270828387148,-22.64136713980464,3.564783892322956,21.103460957032382,-41.272570207570205,-15.407105654761905,27.94881241201665,35.13723904513733,38.44391529637284,1577397892.999,-27.690493184888595,-51.12828633829286,7.4147873
83550,1577397893.23,-0.1666597936118521,-2.936575928925304,9.520513704030105,0.987870963045446,-2.5454451308831936,10.195153015732185,6.293421841951695,-8.652119243342701,14.969132730921302,3.3053886599657014,3.026450552591464,2.018812226086128,2.466341344321646,7.2780702172256095,0.87738037109375,-20.757535608803355,-7.912984708460366,-5.366255597370427,-10.31981070948085,-20.99804210546398,3.099812080280829,19.814699982557126,-40.59597069597069,-16.216688129578753,27.90088956779585,34.993470512474914,38.30014676371043,1577397892.999,-27.690493184888595,-51.12828633829286,7.4147873
83551,1577397893.24,0.7299687281166629,1.6183927295219602,11.798596583668775,0.7676044103110709,3.717786412085556,15.009892554306402,-6.920177120450648,11.514241340153388,9.225442948206458,16.6720878787157,-4.084145150533536,-0.1326770317263719,1.5813315786966462,3.8601014672256095,2.83050537109375,0.6352866568216463,-25.857320645960368,2.1715861995045733,-11.834645309037668,-21.545817116910868,3.719774496336995,21.264556078841792,-39.07362179487179,-16.823874985691393,27.805043879354244,35.13723904513733,38.44391529637284,1577397892.999,-27.690493184888595,-51.12828633829286,7.4147873
83552,1577397893.25,2.378376571134241,-0.3221077160346792,9.977806221119948,1.1853926000083366,0.3742837936773533,7.470551526474371,2.553678848787633,-3.577608824641532,8.274944889124427,12.1554863162157,-8.051430306783537,-0.6362170707888719,2.832552281821646,10.65026260003811,0.41961669921875,3.702303258384146,-7.577291349085366,7.786820574504572,-11.834645309037668,-21.36322544642857,3.719774496336995,22.07003168788883,-39.7502213064713,-17.026270604395606,27.852966723575044,34.921586246143704,38.18033965315841,1577397892.999,-27.690493184888595,-51.12828633829286,7.4147873
83553,1577397893.26,-0.5066364293540396,3.080052843047351,11.186878059498856,-3.1301558924233044,4.361826658667587,9.689976465439216,-0.6856759974037728,2.974124018376048,4.168889041956459,13.2541191287157,17.888511099466463,2.232435272961128,0.0249350943216463,-0.5039122046493902,5.48553466796875,15.131136266196648,6.064066072789634,-5.213667706745427,-11.834645309037668,-21.36322544642857,3.719774496336995,21.425651200651203,-38.2278724053724,-15.407105654761905,27.94881241201665,34.993470512474914,38.10845538682721,1577397892.999,-27.690493184888595,-51.12828633829286,7.4147873
83554,1577397893.27,0.783838265470179,1.4280536975395384,8.941116902272293,-0.9921338099037728,2.9061520492925874,9.58463159239234,0.1044105504477896,-1.9244125783036392,4.56393231588224,1.2607109255907014,0.7376321932164634,0.7065563667111281,10.095735875571648,14.14452529535061,-0.83160400390625,12.079378453696648,17.050394197789632,7.237504168254573,-12.213353958926874,-21.36322544642857,4.339736912393168,22.392221931507645,-37.88957264957265,-13.787940705128204,27.94881241201665,35.13723904513733,38.49183814059364,1577397892.999,-27.690493184888595,-51.12828633829286,7.4147873
83555,1577397893.28,-0.4886799169028678,1.1599031116020388,6.350590705983231,7.344476370760289,0.610112657202743,7.470551526474371,-4.7222999964272105,-6.032862627131765,7.662029264124428,11.2094413943407,2.065146841653964,0.4013805854611281,-4.491666468178353,12.09984756097561,3.16619873046875,8.783480016196647,18.698343416539632,-4.115034894245427,-11.929322471509971,-22.55007130456349,4.262241610386145,-3.060807314378743,-46.34706654456654,-12.168775755494504,27.805043879354244,34.993470512474914,38.25222391948962,1577397892.999,-27.690493184888595,-51.12828633829286,7.4147873
83556,1577397893.29,-1.1482824742759146,-1.7466577038276478,4.782388618580886,-0.6916615015541634,0.2689389206304783,12.18353749449195,4.21525480093607,0.3704297129561262,14.59324307027677,4.098845691215701,13.036216177591465,3.361585663586128,4.907747594321647,-2.670660251524391,1.73187255859375,8.630892125571647,4.507669588414634,-2.5738971989329267,-11.645290984093066,-21.91100045787546,3.564783892322956,-3.2219024361881505,-46.34706654456654,-14.597523179945057,27.94881241201665,35.065354778806125,38.37203103004164,1577397892.999,-27.690493184888595,-51.12828633829286,7.4147873
83557,1577397893.3,-1.7803517125571646,-0.1473309948432729,8.574804048268387,-4.011222103360804,4.191838340796494,10.429784778427496,-4.3655639490639295,2.4545822581221417,15.459944071253334,2.3898613162157014,4.399741568216464,2.842786835461128,-1.0736977181783538,9.23119521722561,2.86102294921875,0.6047690786966463,-19.051900724085368,-3.2910602848704267,-11.645290984093066,-21.91100045787546,3.564783892322956,-3.382997557997558,-46.34706654456654,-17.026270604395606,27.852966723575044,35.08931620091653,38.39599245215204,1577397892.999,-27.690493184888595,-51.12828633829286,7.4147873
83558,1577397893.31,-1.4044620519126334,7.459047679473132,17.960074556080887,0.9950535680259146,1.9580481918707129,16.772024976181402,-0.5516007044350228,2.277411335270579,10.00355848775724,9.6225273318407,-6.342445931783536,1.774671601086128,4.114290563071647,-1.7856504858993902,3.41033935546875,-5.346158655678353,-19.387594083460368,3.850052996379573,-11.455936659148463,-22.09359212835776,4.339736912393168,-3.382997557997558,-35.52147435897436,-17.026270604395606,27.70919819091263,35.13723904513733,38.39599245215204,1577397892.999,-27.690493184888595,-51.12828633829286,7.4147873
83559,1577397893.32,0.3708384790932259,0.0406138354789921,12.306167335621902,-0.0607893641029915,-0.3343998977288966,9.75701411192359,-1.4075277979408822,-2.214110979182545,8.514365055140052,-3.377960949409299,-2.192055306783536,1.896741913586128,2.466341344321646,0.7167909203506098,2.64739990234375,0.4064048208841466,-10.232320645960366,6.642411394817073,-11.361259496676162,-22.55007130456349,4.262241610386145,19.2508670562242,-40.84969551282051,-64.2856475718292,27.972773834127057,35.065354778806125,38.18033965315841,1577397892.999,-27.690493184888595,-51.12828633829286,7.4147873
83560,1577397893.33,-1.0189955846274772,-1.2175391369331168,12.1804717484637,-0.8915773401772102,-1.527909425316787,9.18240571348609,1.5433257482016958,15.277926349919014,14.557330045374426,1.0470878787157014,6.261313833841464,3.422620819836128,7.776399938071647,-0.2902891577743902,2.00653076171875,12.933870641196648,-0.9549768959603658,0.7982951838795732,-12.213353958926874,-23.189142151251527,5.269680536477413,22.392221931507645,-35.1831746031746,-62.36288919413919,27.90088956779585,34.993470512474914,38.30014676371043,1577397892.999,-27.690493184888595,-51.12828633829286,7.4147873
83561,1577397893.34,2.2730316980873666,0.0130805163871947,6.178208186451981,0.8274594518149772,1.32119055026915,9.96770385801734,1.131523062654821,-0.5142278004716081,7.029960025843177,14.1391288943407,6.627524771341464,2.873304413586128,0.5742515005716463,3.371820217225609,3.01361083984375,9.699007359946648,3.1954137290396343,7.847855730754573,-12.213353958926874,-23.189142151251527,5.269680536477413,22.392221931507645,-35.1831746031746,-17.026270604395606,27.852966723575044,34.89762482403331,38.15637823104801,1577397892.999,-27.690493184888595,-51.12828633829286,7.4147873
83562,1577397893.35,-0.0110366857016959,4.066463927031726,13.631357954518386,-1.0663540613686164,1.8886163437261811,9.09382025206031,8.71635392202982,-14.831553728205986,8.684353373011145,3.3664238162157014,-12.659584603658535,-0.0563830864138719,2.344271031821646,1.5712831078506098,3.71551513671875,0.0249350943216463,3.9888707602896334,-11.012007550495428,-11.455936659148463,-20.2676754235348,4.029755704365082,18.525939008081867,-43.97896825396825,-16.62147936698718,27.75712103513344,34.993470512474914,38.30014676371043,1577397892.999,-27.690493184888595,-51.12828633829286,7.4147873
83563,1577397893.36,0.2020472620522103,1.4208710925590702,6.115958943287918,1.7899285191977894,3.7836269577398527,7.718351398300543,-0.9909367090736948,4.925398371403391,3.352466275843177,6.4334404177782005,4.765952505716464,1.637342499523628,-2.614835413490854,4.9434754906631095,1.30462646484375,9.744783727134145,24.74082388528964,9.602616472942072,-10.793196521842356,-22.184887963598904,3.7972697983440185,17.398273155416014,-40.25767094017094,-36.25385438129578,27.996735256237457,34.89762482403331,38.10845538682722,1577397892.999,-27.690493184888595,-51.12828633829286,7.4147873
83564,1577397893.37,-2.9511163243735705,3.4248178821098505,7.870908760182449,-1.827710189298304,-1.077799513207412,3.3285826544040584,-3.2738079920326792,-12.85633735857708,3.47217635885099,11.3925468630907,2.416098990091464,1.438978241711128,1.3371909536966462,-2.4265196265243905,1.36566162109375,-1.8671547494283536,18.728860994664632,-16.779829816120426,-11.834645309037668,-22.09359212835776,4.959699328449327,19.975795104366533,-44.82471764346764,-10.347215187156593,27.90088956779585,34.993470512474914,38.39599245215204,1577397892.999,-27.690493184888595,-51.12828633829286,7.4147873
83565,1577397893.38,0.2116240686928353,0.8366858874809447,5.148701472584793,1.4643170934165397,0.8830516464605564,9.644486633896248,4.014141861482946,25.807625251286204,17.40882422262052,-3.2864082150342986,-1.5511861661585369,-0.3615588676638719,-1.1042152963033538,-3.3420469702743905,0.96893310546875,16.077181188071645,8.413919588414634,-0.6055134098704268,-11.834645309037668,-22.09359212835776,4.959699328449327,19.814699982557126,-38.90447191697192,-16.62147936698718,27.852966723575044,34.89762482403331,38.25222391948962,1577397892.999,-27.690493184888595,-51.12828633829286,7.4147873
83566,1577397893.39,0.4953369654213509,1.341862437773914,10.618255165211746,1.2751751622641958,0.5526518173589929,12.371482324814217,-7.715052071622523,-16.14357623797161,18.04568186422208,1.4895927615282014,-6.128822884908536,0.3098278510861281,-2.050260218178354,2.700433498475609,0.08392333984375,-2.355435999428354,-0.4361780678353658,-2.4365680973704267,-11.266582334203862,-21.545817116910868,4.029755704365078,17.55936827722542,-38.56617216117216,-10.14481956845238,27.92485098990625,35.08931620091653,38.25222391948962,1577397892.999,-27.690493184888595,-51.12828633829286,7.4147873
83567,1577397893.4,-0.5449436559165396,3.980272667266101,12.776627961842603,-3.014037111905726,1.901784452857041,11.369508930038826,3.841759341951696,11.162293696110424,7.968487076624427,0.6198417849657013,5.498374380716464,1.622083710461128,-1.3636147103658536,1.876458889100609,3.15093994140625,-3.1336342416158534,-18.060079435022868,4.231522722942072,-11.455936659148463,-21.36322544642857,3.719774496336995,19.170319495319497,-41.94916971916972,-10.549610805860803,27.852966723575044,35.065354778806125,38.276185341600026,1577397892.999,-27.690493184888595,-51.12828633829286,7.4147873
83568,1577397893.41,-0.2887640782798209,-0.2430990612495229,11.167724446217605,2.2496152379477894,-3.3666563003167878,4.657364575790777,-2.943408162931117,-14.180330876643485,10.254949662073646,-11.6482246212843,4.033530630716464,0.5539684760861281,3.626009313071646,-0.9311582983993902,-1.77764892578125,-8.428434046303353,-3.0606897865853657,10.563920183879572,-10.31981070948085,-23.91950883318071,2.7898308722527494,19.814699982557126,-46.6853663003663,-10.549610805860803,27.61335250247102,35.08931620091653,38.30014676371043,1577397892.999,-27.690493184888595,-51.12828633829286,7.4147873
83569,1577397893.42,-1.5600851598227896,-2.3332371105659293,9.829365718190262,-4.004039498380336,-0.6420548110589747,14.758501379989998,9.547141898104035,-5.776683049495046,11.890189395960364,-11.5871894650343,11.601890005716465,1.683118866711128,0.7573569693216463,-17.80737900152439,3.47137451171875,-7.329801233803353,-1.687398770960366,-5.457808331745427,-10.31981070948085,-23.91950883318071,2.7898308722527494,20.45908046979476,-46.6853663003663,-17.026270604395606,27.90088956779585,34.993470512474914,38.39599245215204,1577397892.999,-27.690493184888595,-51.12828633829286,7.4147873
83570,1577397893.43,-0.6502885289634146,0.500300554228992,7.95949422160823,-3.812503365567836,2.8439028061285248,11.81363333799781,-4.391900167325648,-5.446283220393483,9.043483622034584,0.0247490115282014,0.1730569979039634,0.8744030463986281,3.442903844321646,9.10912490472561,-0.46539306640625,-0.4328285775533537,3.5311070884146343,-8.601118878620428,-10.41448787195315,-23.097846316010383,2.867326174259769,18.525939008081867,-46.00876678876679,-17.026270604395606,27.92485098990625,34.993470512474914,38.10845538682721,1577397892.999,-27.690493184888595,-51.12828633829286,7.4147873
83571,1577397893.44,-0.5138190343345084,1.5142449573051633,8.639447493092606,-0.1793023462807259,1.3367528610601658,6.7247577093357,-0.0021314234291637,12.136733771794011,9.579784793909583,7.059050769340701,0.9817728182164634,0.4013805854611281,-2.6453529916158534,-3.8303282202743913,3.99017333984375,7.974764195884146,-6.753316739710366,5.436967058879572,-11.266582334203862,-21.18063377594628,3.564783892322956,20.45908046979476,-41.272570207570205,-16.62147936698718,27.94881241201665,35.20912331146853,38.46787671848324,1577397892.999,-27.690493184888595,-51.12828633829286,7.4147873
83572,1577397893.45,-1.217714322420446,4.420805772734851,11.270675117604323,-1.061565658048304,-0.1440608657464747,13.92053079893531,-3.283384798673304,-22.33737593279583,7.362754056604897,4.526091784965701,-7.227455697408536,0.7065563667111281,5.243440953696647,-6.119146579649391,-3.24249267578125,-13.372281702553352,-11.453023770960366,-1.612593487995427,-10.887873684314654,-21.91100045787546,3.564783892322956,21.103460957032382,-41.272570207570205,-16.62147936698718,27.852966723575044,34.993470512474914,38.30014676371043,1577397892.999,-27.690493184888595,-51.12828633829286,7.4147873
83573,1577397893.46,-0.9399869298423208,-2.263805262421398,7.612334980885574,0.1594771886313834,0.5526518173589929,4.89199633848609,2.3956615392173206,11.444809492008858,3.168112748011146,-9.4204414181593,5.437339224466464,1.591566132336128,1.0014975943216462,-0.1377012671493902,2.95257568359375,-15.142301233803352,-2.0230921303353657,-1.826216534870427,-10.887873684314654,-21.91100045787546,3.564783892322956,20.13689022617594,-45.67046703296703,-17.026270604395606,27.90088956779585,34.993470512474914,38.39599245215204,1577397892.999,-27.690493184888595,-51.12828633829286,7.4147873
83574,1577397893.47,-0.5593088658774771,0.8091525683891483,8.149833253590652,-0.3133776392494761,1.196692063941025,7.098253168320074,0.0361758031333365,-6.330940733821219,5.555131803186928,-1.928375988471799,-4.435097298971036,1.850965546398628,-5.102018030678353,-11.39868759527439,1.24359130859375,1.6423667349466462,31.11899771341464,6.016801043254574,-10.50916503442545,-21.728408787393164,3.564783892322956,19.895247543461828,-41.18799526862027,-15.913094701522436,27.900889567795847,34.873663401922904,38.34806960793124,1577397892.999,-27.690493184888595,-51.12828633829286,7.4147873
83575,1577397893.48,1.0759308680092414,3.599594603301257,14.136534504811356,-1.856440609220179,6.104805467261338,10.91341351377906,-2.052765145352992,10.04420152081745,11.736960489710365,0.1925956912157013,-18.518959603658537,-1.002428008288872,-11.052945765053352,4.6840760766006095,2.22015380859375,10.217806188071648,13.144144197789634,-21.296431378620422,-11.077228009259256,-22.823958810286936,3.719774496336995,-3.382997557997558,-41.272570207570205,-16.62147936698718,27.75712103513344,34.993470512474914,38.30014676371043,1577397892.999,-27.690493184888595,-51.12828633829286,7.4147873
83576,1577397893.49,1.760672542813929,3.621142418242663,6.6881731400652615,2.735638174959508,1.7952424789800876,5.327741040634527,4.440309756990758,21.782972260563547,16.810273807581456,17.4350273318407,-9.516274056783535,1.286390351086128,-1.3788734994283538,8.07152724847561,0.87738037109375,16.351839391196645,9.268411775914634,-3.3215778629954267,-11.266582334203862,-20.085083753052505,2.9448214762667897,-3.2219024361881505,-40.42682081807081,-15.609501273466115,27.852966723575044,34.993470512474914,38.30014676371043,1577397892.999,-27.690493184888595,-51.12828633829286,7.4147873
83577,1577397893.5,1.9091130457436165,1.2077871448051636,7.466288679616043,4.112304129549352,-2.732192860375381,11.739413086532966,-5.37352284798971,-12.885067778498954,19.077582779749427,1.6574394412157014,3.301108755716464,1.408460663586128,-5.163053186928353,-10.94092392339939,1.45721435546875,-6.200650843178353,-22.042623380335368,0.2184611995045732,-11.455936659148463,-21.36322544642857,3.719774496336995,-3.2219024361881505,-38.397022283272285,-12.775962611607142,27.852966723575044,35.13723904513733,38.39599245215204,1577397892.999,-27.690493184888595,-51.12828633829286,7.4147873
83578,1577397893.51,-0.194193112703649,-1.272605775116711,8.318624470631669,1.394885245272008,0.2473911056890718,13.60808748228492,-2.7291271143471323,7.757738935368233,11.095314444788489,-9.2831123165968,7.298911490091465,1.789930390148628,-5.910733850990853,1.6018006859756095,-1.50299072265625,-9.496549280678355,-30.587545255335364,11.891434832317072,-10.982550846786957,-21.819704622634312,4.262241610386141,22.553317053317052,-38.22787240537241,-15.407105654761905,27.996735256237457,35.01743193458532,38.32410818582083,1577397892.999,-27.690493184888595,-51.12828633829286,7.4147873
83579,1577397893.52,-0.2456684483970084,1.0665292468559446,12.046396455494948,0.3510133214438834,1.1535964340582128,7.192824133896246,-0.7407426355873665,-22.641439543635677,6.182412638147865,-4.598664074409299,-11.347328744283535,-0.0563830864138719,1.1235679068216462,-5.417242282774391,3.53240966796875,-20.177701624428355,-24.422994474085368,9.099076433879572,-11.455936659148463,-21.728408787393168,4.649718120421247,-3.060807314378743,-46.6853663003663,-16.62147936698718,28.044658100458264,34.993470512474914,38.25222391948962,1577397892.999,-27.690493184888595,-51.12828633829286,7.4147873
83580,1577397893.53,-1.4978359166587272,5.457495091582508,9.649800593678542,0.1451119786704459,3.315560533179306,13.271702149032963,1.0692738194907585,11.011458991520575,9.005176395472084,13.7424003787157,19.139731802591463,2.201917694836128,-3.942350061928354,2.456292873475609,-2.20489501953125,-7.757047327553353,-32.113424161585364,-5.610396222370427,-11.645290984093066,-23.371733821733827,4.184746308379121,-3.060807314378743,-46.6853663003663,-16.62147936698718,27.61335250247102,35.13723904513733,38.10845538682721,1577397892.999,-27.690493184888595,-51.12828633829286,7.4147873
83581,1577397893.54,-0.4731176061118521,-1.7454606029975697,10.515304493825028,-0.1374038172279906,-0.4744606948480372,8.497664038681403,-5.18198671517721,5.954905085270578,4.195225260218177,-7.421540050971799,-8.738075814596035,1.072767304211128,-0.1886879525533537,-0.1682188452743902,0.72479248046875,-5.559781702553353,-10.934224942835366,11.326859637004572,-12.592062608816082,-21.728408787393168,3.719774496336995,-0.8054756090470375,-35.85977411477411,-15.81189689217033,27.78108245724384,35.13723904513733,38.25222391948962,1577397892.999,-27.690493184888595,-51.12828633829286,7.4147873
83582,1577397893.55,1.0567772547279914,4.0520987170707885,11.625016963307448,2.827814938875524,1.3666803818121185,10.38309784605445,1.8414038548911489,-7.01927371111614,3.323735855921303,-0.0210273556592986,-1.4596334317835369,1.072767304211128,-3.682950647865854,-1.9382383765243905,1.38092041015625,-3.3472572884908534,8.001932283727134,-5.671431378620427,-10.509165034425452,-22.64136713980464,3.564783892322956,-0.4832853654282228,-35.85977411477411,-16.216688129578753,28.044658100458264,35.065354778806125,38.276185341600026,1577397892.999,-27.690493184888595,-51.12828633829286,7.4147873
83583,1577397893.56,0.735954232267054,1.7871839465629755,7.61472918254573,0.7939406285727896,-0.7258518691644434,4.283869116806402,2.522554227205602,1.5687276438643292,13.453603080042395,8.0966484255907,-4.694496713033536,-0.2394885551638719,0.3911460318216463,-0.1987364233993902,1.82342529296875,5.304476109946647,12.228616854039634,-6.007124737995427,-10.887873684314654,-21.545817116910868,2.9448214762667897,17.237178033606607,-35.85977411477411,-61.553306719322336,27.75712103513344,35.08931620091653,38.39599245215204,1577397892.999,-27.690493184888595,-51.12828633829286,7.4147873
83584,1577397893.57,0.8053860804115853,2.1151895740043822,7.791900105397293,2.7978874181235707,3.674690782202744,8.79933344786109,-1.035229439786585,8.933291950504952,12.67309333883146,0.3757011599657013,-7.044350228658536,0.1267223823361281,-0.5548988900533537,-6.576910251524391,-0.34332275390625,1.7644370474466462,-0.5887659584603658,0.4626018245045732,-10.509165034425452,-21.545817116910868,3.874765100351035,22.87550729693587,-33.660825702075705,-16.419083748282965,27.94881241201665,34.8017791355917,38.49183814059364,1577397892.999,-27.690493184888595,-51.12828633829286,7.4147873
83585,1577397893.58,-0.155885886141149,0.7576772326957883,9.018928456227371,1.1387056676352896,0.5023735824957117,18.428812525009526,0.4156567662681021,-4.838155998713796,6.232690873011146,-4.186676769721799,-0.8797994474085362,0.935438202648628,-2.599576624428354,-9.50659775152439,0.93841552734375,-7.451871546303353,6.369241854039634,5.711625262004573,-10.698519359370051,-21.728408787393168,3.099812080280829,23.036602418745275,-35.1831746031746,-15.81189689217033,27.733159613023037,34.94554766825411,38.10845538682721,1577397892.999,-27.690493184888595,-51.12828633829286,7.4147873
83586,1577397893.59,1.061565658048304,-2.924604920624523,10.971399910084791,0.9723086522544302,-3.4097519301996,6.138178302597418,3.513753714510289,4.341213166325266,6.604989231165443,-10.7937324337843,-4.114662728658536,0.6150036323361281,3.671785680259146,-3.586187595274391,-0.98419189453125,4.297396031821648,12.106546541539634,7.176469012004572,-11.266582334203862,-21.545817116910868,4.494727516407208,18.042653642653644,-35.183174603174606,-38.68260180574633,27.94881241201665,35.18516188935813,38.34806960793124,1577397892.999,-27.690493184888595,-51.12828633829286,7.4147873
83587,1577397893.6,-0.5138190343345084,-0.3245019176948355,10.657759492604324,-2.648921358731898,3.353867759741806,8.540759668564215,-1.741518929532679,-13.986400542170829,9.309240006311928,-3.1033027462842986,-1.5511861661585369,-0.0869006645388719,-6.688932093178353,-9.99487900152439,0.69427490234375,-7.940152796303353,7.803568025914634,-2.7722614567454267,-11.266582334203862,-21.545817116910868,3.874765100351035,18.525939008081867,-46.6853663003663,-9.740028331043955,27.90088956779585,35.13723904513733,38.44391529637284,1577397892.999,-27.690493184888595,-51.12828633829286,7.4147873
83588,1577397893.61,3.465344124845179,1.028222020293445,7.377703218190262,3.054066995760289,5.748069419898057,14.57654205381812,-0.0344531458412718,-5.855691704280202,9.713860086878334,-0.8450019650342987,-3.5043111661585367,-0.8498401176638719,-6.078580530678353,4.9892518578506095,-0.74005126953125,3.320833531821646,6.765970369664634,-11.835982159870428,-10.509165034425452,-22.64136713980464,4.804708724435287,19.170319495319497,-46.6853663003663,-10.549610805860803,27.852966723575044,34.993470512474914,38.44391529637284,1577397892.999,-27.690493184888595,-51.12828633829286,7.4147873
83589,1577397893.62,-0.222923532625524,1.981114281035632,12.289407924000807,1.3039055821860708,-0.4672780898675684,7.568713794540778,-4.4038711756264295,7.192707343571359,9.584573197229895,-2.965973644721799,3.285849966653964,0.7218151557736281,2.191683141196646,6.6982362328506095,2.37274169921875,9.882112828696648,14.517435213414634,-4.816939191120427,-11.834645309037668,-22.09359212835776,3.099812080280829,17.237178033606607,-46.6853663003663,-13.787940705128204,27.852966723575044,35.13723904513733,38.10845538682721,1577397892.999,-27.690493184888595,-51.12828633829286,7.4147873
83590,1577397893.63,1.9641796839272103,1.1311726916801634,9.5755803422137,-0.846087508634241,0.6843329086675877,7.177261823105231,0.3905176488364614,6.48282655133503,10.8977928078256,-6.124542980659299,-1.3985982755335369,0.004652069836128,2.344271031821646,-7.8586485327743905,0.74005126953125,0.9557212271341462,7.116922518102134,-2.7112263004954267,-11.834645309037668,-22.09359212835776,3.099812080280829,18.525939008081867,-38.56617216117216,-15.407105654761905,27.852966723575044,35.11327762302693,38.25222391948962,1577397892.999,-27.690493184888595,-51.12828633829286,7.4147873
83591,1577397893.64,-1.3086939855063833,0.4248832019340697,6.348196504323074,0.1546887853110709,0.1767621567144617,10.405842761825935,-6.453307796720179,-12.48523610125286,9.220654544886148,12.8879081912157,11.479819693216465,0.6760387885861281,0.5132163443216463,9.44481826410061,-3.08990478515625,-8.214810999428353,3.3480016196646343,6.962845965129573,-11.266582334203862,-22.64136713980464,3.564783892322956,-2.5775219489505203,-46.51621642246642,-16.823874985691393,27.90088956779585,34.993470512474914,38.39599245215204,1577397892.999,-27.690493184888595,-51.12828633829286,7.4147873
83592,1577397893.65,1.643356661466273,-1.5120259411323351,6.910833894459793,3.089980020662633,-4.8821859511956935,4.168947437118902,-1.3656292688881475,-4.603524236018483,12.055389310511146,-12.5027168087843,0.7681497713414634,-1.124498320788872,-2.660611780678354,6.4846131859756095,-0.03814697265625,-10.808805140053352,-6.905904630335366,-1.765181378620427,-10.698519359370051,-22.09359212835776,4.029755704365082,-2.738617070759928,-46.6853663003663,-17.026270604395606,27.852966723575044,34.89762482403331,38.15637823104801,1577397892.999,-27.690493184888595,-51.12828633829286,7.4147873
83593,1577397893.66,1.1417714136635386,2.5006560412895387,11.140191127125808,-0.9933309107338508,3.897351536597274,14.91651868956031,1.8581632665122425,6.867095917790109,8.210301444300208,2.3440849490282014,-0.8950582364710368,-0.422594023913872,-1.9434486947408536,-5.0052549780868905,0.49591064453125,2.771517125571646,3.2106725181021343,4.399369402629573,-10.319810709480848,-21.18063377594628,3.409793288308915,-3.3024499970928543,-46.60079136141636,-16.925072795043498,27.852966723575044,34.993470512474914,38.276185341600026,1577397892.999,-27.690493184888595,-51.12828633829286,7.4147873
83594,1577397893.67,1.1788815393959602,2.0337867175590696,12.795781575123854,6.83929982046732,-1.946894715844131,8.746661011337652,3.003788760897008,-6.049622038752858,9.943703446253334,0.9555351443407012,-15.650307259908535,-2.802965117663872,-0.1886879525533537,14.69384170160061,-4.31060791015625,-6.170133265053353,3.1343785727896343,-9.486128644245428,-9.75174773464704,-20.81545043498169,2.014877852182544,-3.2219024361881505,-46.51621642246642,-16.823874985691393,27.94881241201665,35.13723904513733,38.39599245215204,1577397892.999,-27.690493184888595,-51.12828633829286,7.4147873
83595,1577397893.68,-1.390096841951696,0.8917525256645384,9.230815303151198,-2.440625814298304,0.2797128281011805,4.549625501083746,4.818593619295445,7.908573639958078,15.067294998987707,7.913542956840701,18.559897818216463,1.500013397961128,-3.240445765053354,1.937494045350609,-1.62506103515625,5.487581578696647,10.336527010289634,-3.3520954411204267,-9.941102059591646,-20.2676754235348,3.719774496336995,18.20374876446305,-41.272570207570205,-16.62147936698718,27.75712103513344,35.13723904513733,38.39599245215204,1577397892.999,-27.690493184888595,-51.12828633829286,7.4147873
83596,1577397893.69,1.272255404142054,-3.0754396252143668,6.970688935963699,1.1171578526938837,1.2230282822027438,9.73786049864234,-6.4317599817787725,-7.797389250666921,3.5607618202767712,-29.2568671994093,6.322348990091464,-1.399156523913872,0.9404624380716464,5.9658143578506095,-0.98419189453125,5.029817906821647,6.338724275914634,-0.3308552067454268,-11.077228009259256,-22.09359212835776,4.959699328449327,18.84812925170068,-40.934270451770445,-16.62147936698718,27.852966723575044,35.08931620091653,38.44391529637284,1577397892.999,-27.690493184888595,-51.12828633829286,7.4147873
83597,1577397893.7,1.3057742273842414,-0.5016728405463985,9.264334126393386,2.098780533357945,1.9496684860601656,7.15212270567359,1.9156241063559925,6.979623395817453,5.767018650110756,0.1620781130907005,1.836265005716465,-0.0563830864138719,-2.5690590463033534,2.898797756288109,0.48065185546875,3.931185094321647,27.27378286966464,5.848954363567073,-10.41448787195315,-21.271929611187424,2.402354362217644,20.297985347985342,-44.82471764346764,-7.918467762706045,27.852966723575044,34.96950909036451,38.37203103004164,1577397892.999,-27.690493184888595,-51.12828633829286,7.4147873
83598,1577397893.71,-0.2432742467368521,4.935559129668445,11.684872004811355,1.859360367342321,1.596523741187119,10.341199317001715,-1.6577218714272102,-22.078802153498952,11.916525614222085,19.0219413943407,-5.915199838033536,-1.216051055163872,-3.148893030678354,2.639398342225609,-0.80108642578125,1.1540854849466462,39.38926138528964,-11.378218487995428,-10.509165034425452,-21.91100045787546,2.324859060210624,21.58674632246061,-41.103420329670335,-16.823874985691393,27.70919819091263,35.08931620091653,38.49183814059364,1577397892.999,-27.690493184888595,-51.12828633829286,7.4147873
83599,1577397893.72,-0.7484507970298209,3.108783262969226,8.443122956959792,-1.406330697110804,5.008261106909775,11.040306201767342,4.782680594393102,8.653170356266672,5.34923046041349,11.3315117068407,4.033530630716464,-0.3920764457888719,-5.529264124428353,10.36034560785061,-2.57110595703125,15.344759313071648,36.21543326028964,-19.709517316120422,-10.130456384536249,-22.27618379884005,3.564783892322956,-3.060807314378743,-40.934270451770445,-17.026270604395606,27.852966723575044,35.13723904513733,38.30014676371043,1577397892.999,-27.690493184888595,-51.12828633829286,7.4147873
83600,1577397893.73,0.4857601587807259,-1.0523392223823351,9.4714325699969,0.0756801305259146,0.763341563452744,3.824182398056402,-7.552246358731898,9.646764045231514,10.154393192347085,-7.452057629096799,9.633506216653965,-0.2852649223513719,1.0320151724466462,5.0808045922256095,1.82342529296875,12.415071813071648,32.00400747903964,0.9203654963795732,-11.550613821620765,-21.819704622634312,3.797269798344015,-2.5775219489505203,-37.720422771672766,-11.966380136790292,27.852966723575044,34.94554766825411,38.10845538682721,1577397892.999,-27.690493184888595,-51.12828633829286,7.4147873
83601,1577397893.74,2.031217330411585,-1.037974012421398,7.545297334401199,1.6331083104575552,-0.7928895156488187,12.630056104111093,1.3793229344809923,1.1114351267744829,15.293547055872471,-3.3169257931592986,8.031333365091463,-0.8498401176638719,-4.155973108803353,1.1287782250381098,-0.05340576171875,-0.2039467416158538,7.834085604039634,-5.915572003620428,-10.887873684314654,-21.18063377594628,3.2548026842948694,21.747841444270016,-46.6853663003663,-12.573566992902933,27.90088956779585,35.04139335669572,38.30014676371043,1577397892.999,-27.690493184888595,-51.12828633829286,7.4147873
83602,1577397893.75,0.7790498621498665,0.6307845447075072,12.106251496998857,2.6901483434165394,0.7609473617925877,10.401054358505622,-4.966508565763148,3.4194455271651103,7.515982962854896,0.4672538943407013,2.232993521341464,0.1267223823361281,-2.050260218178354,11.06224990472561,-2.02178955078125,5.029817906821647,15.951761385289634,17.094681902629574,-10.887873684314654,-21.18063377594628,3.2548026842948694,20.78127071341357,-46.00876678876679,-16.216688129578753,27.61335250247102,34.993470512474914,38.15637823104801,1577397892.999,-27.690493184888595,-51.12828633829286,7.4147873
83603,1577397893.76,-0.9112565099204458,2.325879320098132,10.861266633717603,-4.458937813810023,3.633989353980087,2.105145606064215,3.9327390050376327,-9.640924528987236,0.9462936073861457,-8.1692207150343,10.838950552591465,0.4013805854611281,-0.4023109994283537,3.188714748475609,1.06048583984375,-5.376676233803353,24.405130525914632,-1.734663800495427,-9.941102059591646,-21.728408787393168,3.409793288308909,-3.382997557997558,-46.6853663003663,-17.026270604395606,27.75712103513344,34.94554766825411,38.25222391948962,1577397892.999,-27.690493184888595,-51.12828633829286,7.4147873
83604,1577397893.77,-0.2672162633384146,2.145117094756336,6.627120997731277,0.9974477696860709,3.5286444809332123,11.133680066513437,-2.6728633753334603,1.3245190745283917,10.187912015589273,7.6694023318407005,-0.8187642911585362,-1.490709258288872,1.7339194693216462,-0.9616758765243902,-0.83160400390625,9.668489781821648,40.33530630716464,-13.972212628620428,-10.982550846786957,-21.45452128166972,3.9522604023580574,-3.382997557997558,-46.6853663003663,-17.026270604395606,27.900889567795847,35.233084733578934,38.44391529637284,1577397892.999,-27.690493184888595,-51.12828633829286,7.4147873
83605,1577397893.78,1.262678597501429,-1.5910345959174916,2.448041999928542,0.1307467687095084,-0.2434202346429596,5.465407636093512,2.973861240145055,4.15925384015339,7.499223551233802,-2.4929511837842986,7.787192740091464,-0.0869006645388719,-2.6148354134908534,9.81102920160061,-1.70135498046875,18.83902200838415,50.92490591653964,-6.647993878620428,-11.266582334203862,-21.18063377594628,4.804708724435287,-3.382997557997558,-35.85977411477411,-15.407105654761905,27.852966723575044,35.065354778806125,38.56372240692485,1577397892.999,-27.690493184888595,-51.12828633829286,7.4147873
83606,1577397893.79,-0.6838073522056022,0.685851182891101,10.48777117473323,-2.0838897669350227,4.27084699558165,6.314152124618903,-6.743006197599085,-5.491773051936452,9.278115384729896,-0.3262031369092987,-13.330971322408535,-0.7277698051638719,0.8794272818216463,2.181634670350609,-0.74005126953125,10.248323766196648,41.89170279153964,-4.969527081745427,-11.266582334203862,-21.18063377594628,4.804708724435287,-3.382997557997558,-35.85977411477411,-17.026270604395606,27.94881241201665,35.08931620091653,38.30014676371043,1577397892.999,-27.690493184888595,-51.12828633829286,7.4147873
83607,1577397893.8,2.1796578333412726,2.2803894885551634,8.13187674113948,1.804293729158727,-1.1879327895745997,4.506529871200933,3.6406464024985694,2.7299154490401105,11.04503620992521,4.800749988090701,-16.901527963033537,-3.474351836413872,-0.9516274056783536,9.93309951410061,-0.80108642578125,8.966585484946647,24.557718416539632,-4.847456769245427,-11.645290984093066,-22.27618379884005,3.2548026842948694,22.392221931507645,-35.1831746031746,-16.62147936698718,27.94881241201665,34.993470512474914,38.39599245215204,1577397892.999,-27.690493184888595,-51.12828633829286,7.4147873
83608,1577397893.81,1.462594436124476,1.085682860137195,11.022875245778152,-2.854822701505336,3.857847209204697,7.93742085020484,-1.6852551905190072,-2.4930354725907504,14.21735340963224,0.1163017459032014,7.543052115091464,0.3403454292111281,-2.248624475990854,-5.4019834937118905,0.87738037109375,-4.5832192025533525,5.697855135289634,-1.7804401676829271,-11.455936659148469,-22.458775469322347,3.564783892322956,22.55331705331705,-35.52147435897436,-11.966380136790292,27.82900530146464,34.96950909036451,38.25222391948962,1577397892.999,-27.690493184888595,-51.12828633829286,7.4147873
83609,1577397893.82,0.7598962488686165,2.7352878039848507,12.513265779225415,-2.052765145352992,-1.9253469009027249,5.028465833114996,4.016536063143102,9.44565110577839,2.543226114710365,-10.0613105587843,3.179038443216464,-3.047105742663872,-0.0055824838033536,13.32055068597561,0.23651123046875,3.534456578696646,9.634622713414634,-0.3918903629954268,-9.941102059591646,-22.09359212835776,4.649718120421247,21.103460957032382,-35.1831746031746,-10.14481956845238,27.90088956779585,34.993470512474914,38.15637823104801,1577397892.999,-27.690493184888595,-51.12828633829286,7.4147873
83610,1577397893.83,-1.0980042394126333,-2.0866343395698355,13.075903169362135,-0.170922640470179,-4.056186378441788,2.4882178716892147,-6.00559208627096,-0.2604424244950447,15.426425248011146,-12.4111640744093,16.881431021341463,1.194837616711128,0.4521811880716463,4.2263124047256095,-0.55694580078125,2.222200719321646,14.731058260289634,8.275101824504572,-9.941102059591646,-22.09359212835776,4.649718120421247,22.392221931507645,-33.829975579975574,-12.978358230311354,27.852966723575044,35.13723904513733,38.30014676371043,1577397892.999,-27.690493184888595,-51.12828633829286,7.4147873
83611,1577397893.84,-0.6239523107016959,1.5525521838676632,8.292288252369948,-5.131708480313929,4.527026573218368,6.862424304794684,-0.7886266687904916,-12.920980803401298,9.189529923304114,-7.925080090034299,13.921225943216465,-0.7582873832888719,-6.170133265053353,-10.66626572027439,4.05120849609375,-12.914518030678352,-12.917867520960366,-8.845259503620428,-9.941102059591646,-22.09359212835776,4.649718120421247,20.45908046979476,-45.67046703296703,-8.525654618818681,28.044658100458264,35.233084733578934,38.25222391948962,1577397892.999,-27.690493184888595,-51.12828633829286,7.4147873
83612,1577397893.85,-0.4982567235434927,0.4165034961235233,6.932381709401199,-4.256627773526819,0.1384549301519627,9.026782605575937,-1.3009858240639294,10.12081597394245,15.849001841028723,3.610564441215701,0.4629739900914634,-1.124498320788872,-0.3107582650533537,3.8753602562881095,-0.49591064453125,-10.305265100990852,-64.18739877096037,3.132889910442073,-10.98255084678696,-22.73266297504579,4.417232214400184,21.103460957032382,-46.6853663003663,-11.359193280677657,27.852966723575044,34.96950909036451,38.32410818582083,1577397892.999,-27.690493184888595,-51.12828633829286,7.4147873
83613,1577397893.86,-1.399673648592321,4.825425853301257,9.003366145436354,-1.435061117032679,1.2589413071050877,14.739347766708748,-2.323309932950648,-0.9380014943192644,11.73935469137052,8.6459648318407,1.958335318216464,-1.643297148913872,-4.857877405678353,-2.6706602515243905,2.70843505859375,-31.682828577553355,-80.23964486471037,18.49849049637957,-9.941102059591646,-21.36322544642857,4.029755704365082,22.392221931507645,-46.6853663003663,-10.549610805860803,27.70919819091263,34.993470512474914,38.0605325426064,1577397892.999,-27.690493184888595,-51.12828633829286,7.4147873
83614,1577397893.87,-2.180183389803258,1.135961095000476,8.965058918873854,-3.5922368128334603,-1.3507385024652248,10.49203402159156,3.6861362340415393,-7.874003703791921,3.120228714808021,-0.9060371212842988,4.033530630716464,0.1877575385861281,-2.355435999428354,6.0573670922256095,-2.32696533203125,-30.462125452553355,-73.83095345846037,15.629838152629572,-10.698519359370051,-21.36322544642857,4.339736912393168,20.45908046979476,-36.87467338217338,-10.14481956845238,27.94881241201665,35.233084733578934,38.25222391948962,1577397892.999,-27.690493184888595,-51.12828633829286,7.4147873
83615,1577397893.88,-2.3585514134848986,0.1435645068657108,10.45544945232112,-2.364011361173304,-0.251799940453506,8.631739331650152,2.331018094393102,-1.2660071217606703,2.358872586878333,-9.0237129025343,2.644980826028964,0.6150036323361281,-2.233365686928354,-4.898443454649391,0.66375732421875,-28.722623499428355,-37.17934213033536,11.967728777629572,-10.982550846786957,-21.819704622634312,3.797269798344019,19.814699982557126,-36.53637362637362,-10.14481956845238,27.58939108036062,34.993470512474914,38.44391529637284,1577397892.999,-27.690493184888595,-51.12828633829286,7.4147873
83616,1577397893.89,-3.2360263219321643,-0.0228325085151479,11.206031672780105,-3.708355593351039,2.290842222632431,13.937290210556403,2.5967744786704454,5.425786518376047,13.40691614766935,-16.7751777462843,6.810630240091464,2.690198944836128,-4.003385218178353,-6.9583799780868905,-0.14495849609375,-1.5314613900533534,-9.179464200647866,-3.2452839176829267,-10.887873684314654,-20.81545043498169,4.494727516407208,19.975795104366533,-39.58107142857142,-16.62147936698718,27.90088956779585,35.04139335669572,38.204301075268816,1577397892.999,-27.690493184888595,-51.12828633829286,7.4147873
83617,1577397893.9,0.9346729700600228,1.4974855456840697,10.0352670609637,1.315876590486852,0.6939097153082127,11.392253845810307,4.124275137850133,-11.886685686213797,10.939691336878331,-9.6950996212843,-16.047035775533537,-0.1479358207888719,1.5202964224466462,3.036126857850609,0.72479248046875,2.283235875571646,-3.4574183022103657,-0.2393024723704268,-11.834645309037668,-20.99804210546398,4.029755704365082,19.814699982557126,-39.91937118437118,-16.62147936698718,27.852966723575044,34.8017791355917,38.30014676371043,1577397892.999,-27.690493184888595,-51.12828633829286,7.4147873
83618,1577397893.91,1.3225336390053353,-0.0348035168159292,9.381650007741042,0.1259583653891959,-2.4592538711175687,4.755526843857183,-9.824343734220175,4.355578376286204,7.568655399378334,13.3761894412157,1.1953958650914631,1.591566132336128,-2.782682093178354,1.6018006859756098,2.70843505859375,0.0249350943216463,-5.288472989710366,-3.5352009098704267,-12.40270828387148,-23.00655048076923,4.184746308379121,21.103460957032382,-41.272570207570205,-16.62147936698718,27.852966723575044,35.13723904513733,38.25222391948962,1577397892.999,-27.690493184888595,-51.12828633829286,7.4147873
83619,1577397893.92,1.1070554895912728,1.3119349170219607,9.200887782399246,0.6167697057212271,0.734611143530869,6.709195398544684,4.617480679842321,14.466291987126043,7.123333890589271,0.8029472537157014,-7.242714486471036,-0.3005237114138719,-4.217008265053353,-7.034673923399391,1.09100341796875,-0.7074867806783537,4.324564119664634,12.242386980754572,-12.118676796454574,-22.55007130456349,3.642279194329975,19.331414617128907,-43.47151862026863,-16.419083748282965,27.92485098990625,35.233084733578934,38.30014676371043,1577397892.999,-27.690493184888595,-51.12828633829286,7.4147873
83620,1577397893.93,1.770249349454554,-0.0276209118354604,9.336160176198074,0.5521262608970081,2.7936245712652434,10.149663184189215,2.697330948397008,-3.054475761897391,11.835122757776771,-1.7605293087842986,-0.1778951505335365,0.4929333198361281,-5.8802162728658525,2.929315334413109,-0.02288818359375,-5.178311975990853,4.843362947789634,2.1715861995045733,-9.183684759813232,-20.99804210546398,4.339736912393168,18.284296325367755,-45.92419184981685,-13.484347277071889,28.044658100458264,35.13723904513733,38.32410818582083,1577397892.999,-27.690493184888595,-51.12828633829286,7.4147873
83621,1577397893.94,-1.7396502843345083,2.222928648711413,11.55319091350276,-2.8667937098061165,-0.2829245620355373,9.668428650497807,-5.644067635587367,-11.994424760920827,17.04490557027677,-8.4743964962843,4.979575552591464,1.011732147961128,-0.8905922494283537,2.242669826600609,0.26702880859375,-7.360318811928353,-12.917867520960366,-2.4365680973704267,-10.509165034425452,-23.00655048076923,3.564783892322956,20.942365835222976,-43.80981837606838,-16.823874985691393,27.94881241201665,34.8017791355917,38.30014676371043,1577397892.999,-27.690493184888595,-51.12828633829286,7.4147873
83622,1577397893.95,-1.964705240389196,0.0873007678520385,12.949010481373854,-0.7814440638100227,-4.3770094009027245,8.875947900986091,-2.2921853113686166,-0.8661754445145768,26.24582255025724,-12.6858222775343,12.761557974466465,1.011732147961128,-3.209928186928354,-0.3818418921493902,2.58636474609375,-27.410367640053355,-44.25942025533536,-15.650679425495428,-10.887873684314654,-21.91100045787546,4.494727516407208,21.264556078841792,-41.103420329670335,-16.823874985691393,27.90088956779585,34.993470512474914,38.0605325426064,1577397892.999,-27.690493184888595,-51.12828633829286,7.4147873
83623,1577397893.96,-0.5856450841391959,-1.1648667004096798,10.080756892506669,-2.390347579435023,0.2102809799566492,14.49992760069312,3.2934871617759143,16.769513984196358,20.1956749550424,-6.3686836056593,1.6684183260289631,1.103284882336128,-0.1581703744283537,-4.196539157774391,1.06048583984375,-9.923795374428352,-75.17372689596037,10.716508074504572,-10.50916503442545,-22.641367139804643,4.339736912393164,-3.2219024361881505,-40.42682081807081,-16.823874985691393,27.92485098990625,35.233084733578934,38.39599245215204,1577397892.999,-27.690493184888595,-51.12828633829286,7.4147873
83624,1577397893.97,-0.7077493688071647,3.041745616484851,13.516436274830886,1.1279317601645864,-0.0554754043206934,14.74293906919898,-2.5148460657631477,-2.374522490413016,11.908145908411536,5.441619128715701,-6.861244759908536,0.1877575385861281,-1.1652504525533536,2.700433498475609,-0.28228759765625,-23.42782369474085,-86.87721810689787,16.98787037919207,-10.887873684314654,-20.81545043498169,3.874765100351035,9.504612186755043,-38.2278724053724,-15.81189689217033,27.852966723575044,35.113277623026924,38.49183814059365,1577397892.999,-27.690493184888595,-51.12828633829286,7.4147873
83625,1577397893.98,-2.043713895174352,-0.0371977184760854,9.659377400319167,-3.664062862638148,0.7322169418707127,11.303668384384528,9.453768033357944,18.2227943919112,5.437815921839271,-8.1997382931593,-4.938637338033536,0.7981091010861281,-3.393033655678354,-10.36108993902439,3.10516357421875,-28.356412561928355,-57.44301400533536,29.72895924637957,-11.266582334203862,-21.545817116910868,3.2548026842948694,23.036602418745275,-46.6853663003663,-17.026270604395606,27.70919819091263,35.08931620091653,38.15637823104801,1577397892.999,-27.690493184888595,-51.12828633829286,7.4147873
83626,1577397893.99,-0.6646537389243521,0.8821757190239135,10.892391255299636,-0.4893514612709603,3.5023082626714936,11.698711658310309,6.95422150015482,-26.70918816424114,3.555973416956459,-2.1267402462842986,-2.3446431974085367,2.323988007336128,-1.8671547494283536,-3.2199766577743905,-2.29644775390625,-22.558072718178355,-15.878072599085366,4.674027605754573,-11.266582334203862,-21.91100045787546,3.874765100351035,21.103460957032382,-45.67046703296703,-16.216688129578753,27.94881241201665,34.94554766825411,38.39599245215204,1577397892.999,-27.690493184888595,-51.12828633829286,7.4147873
83627,1577397894.0,0.1158560022865853,1.2041958423149297,8.781902491871902,2.134693558260289,0.5071619858160249,7.397528375839607,3.1594118688071644,3.120170319645579,-1.7423948569693222,7.9898369021532,-7.929359994283537,-0.1937121879763719,-3.942350061928354,4.1347596703506095,0.48065185546875,13.116976109946648,34.56748404153964,-5.976607159870426,-11.455936659148463,-21.728408787393168,3.099812080280829,-0.4832853654282228,-46.6853663003663,-16.62147936698718,27.733159613023037,35.065354778806125,38.276185341600026,1577397893.999,-27.69046927279893,-51.12821368820626,7.5818377
83628,1577397894.01,1.243524984220179,-3.1496598766792103,9.424745637623856,-1.9378434656654917,-0.835985145531631,6.534418677353278,-2.943408162931117,-2.7408353444169204,12.25171384664396,-20.1931464962843,-10.981117806783535,0.6150036323361281,-2.446988733803354,-13.44336532964939,2.79998779296875,19.281526891196645,49.03281607278964,-7.197310284870427,-11.455936659148463,-20.632858764499392,4.959699328449327,-0.4832853654282228,-46.6853663003663,-16.62147936698718,27.852966723575044,35.13723904513733,38.25222391948962,1577397893.999,-27.69046927279893,-51.12821368820626,7.5818377
83629,1577397894.02,-0.1906018102134146,3.494249730254382,9.252363118092603,-4.212335042813929,9.890038291968368,13.707446851181404,5.122657230135289,16.922742890446358,8.705901187952552,4.404021472465701,-15.406166634908535,-0.0563830864138719,-2.111295374428354,2.547845607850609,0.35858154296875,21.997591344321645,40.85410513528964,-5.457808331745427,-10.130456384536249,-22.64136713980464,4.494727516407208,22.55331705331705,-35.690624236874235,-68.23236213656136,28.092580944679067,34.993470512474914,38.30014676371043,1577397893.999,-27.69046927279893,-51.12821368820626,7.5818377
83630,1577397894.03,0.9514323816811164,3.3386266223442256,9.9203453812762,4.129063541170446,0.600535850562118,6.242326074814215,-4.286555294278773,-7.33770253191692,7.4202148964486465,13.8644706912157,2.232993521341464,1.469495819836128,1.7034018911966462,13.83934951410061,-2.35748291015625,1.3371909536966462,39.20615591653964,4.582474871379573,-11.077228009259256,-21.36322544642857,3.409793288308909,22.392221931507645,-46.34706654456654,-68.02996651785715,27.90088956779585,35.08931620091653,38.15637823104801,1577397893.999,-27.69046927279893,-51.12821368820626,7.5818377
83631,1577397894.04,1.5799103174721318,-1.518011445282726,9.321794966237135,2.072444315096227,-0.998790858422256,4.851294910263434,4.095544717928258,3.851598926823313,10.576969785364662,-0.9823310665967986,1.531089224466465,1.988294647961128,-6.658414515053353,-0.5039122046493907,4.21905517578125,7.105013219321648,27.334818025914632,-7.151533917682928,-11.645290984093066,-22.64136713980464,3.874765100351035,22.392221931507645,-46.34706654456654,-38.88499742445055,27.733159613023037,35.08931620091653,38.204301075268816,1577397893.999,-27.69046927279893,-51.12821368820626,7.5818377
83632,1577397894.05,2.012063717130335,1.674656468535632,10.054420674244948,0.0277960973227896,3.3945691879644624,17.128761023544683,-0.7287716272865853,-11.944146526057548,9.021935807093175,-11.4040839962843,0.2188333650914634,0.5539684760861281,-3.728727015053354,8.13256240472561,-0.09918212890625,-3.270963343178354,17.843851229039632,2.0189983088795733,-11.455936659148463,-22.09359212835776,4.339736912393168,21.103460957032382,-35.1831746031746,-15.407105654761905,27.61335250247102,34.993470512474914,38.10845538682721,1577397893.999,-27.69046927279893,-51.12821368820626,7.5818377
83633,1577397894.06,1.3560524622475227,0.676274376250476,10.205255378834792,4.512135806795445,0.5406808090582117,7.235919763779059,3.386861026522008,11.612403608219797,23.74388181539396,-0.0210273556592986,-2.8939596036585367,0.3098278510861281,-1.1347328744283538,7.6442811547256095,1.09100341796875,-12.029508265053352,-7.699361661585366,-5.671431378620427,-9.562393409702436,-22.458775469322347,4.029755704365082,20.942365835222976,-35.35232448107448,-61.35091110061813,27.852966723575044,35.13723904513733,38.15637823104801,1577397893.999,-27.69046927279893,-51.12821368820626,7.5818377
83634,1577397894.07,-0.6251494115317741,3.4966439319145386,11.627411164967604,0.5569146642173208,2.6834912948980563,5.2295787725681215,-3.9800974817787727,1.4633827708174545,8.820822867640052,1.3522636599657014,7.329429068216465,1.149061249523628,-5.315641077553353,-3.0368711890243905,3.62396240234375,9.699007359946648,2.0357457602896343,0.4626018245045732,-11.26658233420386,-21.545817116910868,3.874765100351039,20.13689022617594,-45.33216727716727,-64.79163661858975,27.94881241201665,35.08931620091653,38.44391529637284,1577397893.999,-27.69046927279893,-51.12821368820626,7.5818377
83635,1577397894.08,-0.3605901280845084,-5.194308094452648,5.256440547291824,-0.7096180140053354,-2.0630134963617093,13.725403363632577,2.8613337621177104,7.8798432200362045,10.62245961690763,-9.7866523556593,19.322837271341463,2.568128632336128,1.4745200552591462,1.1898133812881095,1.19781494140625,-6.749967249428354,-11.758199552210366,2.522538347942073,-11.645290984093066,-21.545817116910868,4.184746308379121,18.525939008081867,-46.516216422466414,-13.38314946771978,27.75712103513344,35.065354778806125,38.34806960793124,1577397893.999,-27.69046927279893,-51.12821368820626,7.5818377
83636,1577397894.09,-0.0062482823813834,-4.052273902558117,7.712891450612137,2.5680440587485704,1.8981931503668064,7.501676148056402,-4.130932186368617,-9.19081461687786,5.686812894495521,-19.8269355587843,-2.1920553067835367,2.262952851086128,-5.529264124428353,4.5314881859756095,5.33294677734375,-7.024625452553353,-8.859029630335366,15.111039324504572,-10.887873684314654,-22.27618379884005,3.874765100351035,17.398273155416014,-46.51621642246642,-10.347215187156593,27.90088956779585,34.993470512474914,38.15637823104801,1577397893.999,-27.69046927279893,-51.12821368820626,7.5818377
83637,1577397894.1,-0.7915464269126333,5.088788035918445,9.980200422780104,-1.2124003626381477,1.7066570175543063,13.853493152450934,-1.6289914515053352,-4.012156425959889,4.762651053675209,7.181121081840701,-14.093910775533535,1.408460663586128,3.351351109946646,-3.4946348608993905,-0.31280517578125,-6.963590296303353,-7.760396817835366,1.164506121379573,-10.130456384536249,-20.450267094017097,4.494727516407208,19.814699982557126,-37.21297313797314,-15.407105654761905,27.852966723575044,34.993470512474914,38.44391529637284,1577397893.999,-27.69046927279893,-51.12821368820626,7.5818377
83638,1577397894.11,1.347672756436976,0.1076514819633671,13.39193778850276,0.0493439122641959,-0.922176405297256,4.473011047958746,9.477710049959509,2.5647155344893293,5.404297098597084,1.428557605278201,-9.699379525533535,-0.3768176567263719,5.609651891196647,5.6301209984756095,3.28826904296875,10.004183141196648,6.216653963414634,-2.8332966129954267,-10.41448787195315,-21.271929611187428,3.1773073822878493,19.814699982557126,-37.88957264957265,-15.00231441735348,27.80504387935424,34.94554766825411,38.30014676371043,1577397893.999,-27.69046927279893,-51.12821368820626,7.5818377
83639,1577397894.12,-2.359748514314977,0.0561761462700072,14.680018281666824,2.265177548738805,1.9281206711187595,11.23902493956031,3.335385690828649,5.565847315495188,11.820757547815834,-8.6880195431593,8.824790396341463,4.551771210461128,-2.6606117806783534,-0.7785704077743902,1.96075439453125,9.409090367759148,8.551248689977134,3.1786662776295733,-10.509165034425452,-20.81545043498169,3.2548026842948694,19.814699982557126,-37.88957264957265,-15.00231441735348,27.70919819091263,35.01743193458532,38.37203103004164,1577397893.999,-27.69046927279893,-51.12821368820626,7.5818377
83640,1577397894.13,2.6752575769936167,4.155049388457507,7.241233723561355,2.012589273592321,3.65793137058165,11.550271155380624,-4.28176689095846,-2.103977702815358,7.583020609339271,12.2470390505907,1.6226419588414631,1.164320038586128,6.952425328696647,8.46825576410061,3.10516357421875,1.8254722036966464,-2.2367151772103657,-0.4834430973704268,-12.40270828387148,-21.545817116910868,5.114689932463367,-3.382997557997558,-39.58107142857143,-17.026270604395606,27.852966723575044,34.993470512474914,38.49183814059364,1577397893.999,-27.69046927279893,-51.12821368820626,7.5818377
83641,1577397894.14,-0.6694421422446646,0.0753297595512572,11.735150239674637,0.5353668492759146,-4.992319227562881,6.364430359482184,-2.220359261563929,-4.608312639338795,17.33220976949552,7.333708972465701,-0.2389303067835365,0.3403454292111281,6.555696813071647,-1.2363340796493902,4.50897216796875,0.4521811880716463,-13.009420255335366,-9.852339581745428,-11.455936659148463,-22.09359212835776,4.649718120421247,20.29798534798535,-41.103420329670335,-14.799918798649268,28.23634947734148,35.13723904513733,38.15637823104801,1577397893.999,-27.69046927279893,-51.12821368820626,7.5818377
83642,1577397894.15,-1.1027926427329455,0.9516075671684452,8.327004176442214,1.2871461705649772,2.5554015060796966,15.808358807968512,2.8876699803794303,6.432548316471749,11.838714060267003,-0.8755195431592986,8.107627310403965,3.682020233898628,-1.2262856088033538,0.3810975609756097,1.99127197265625,0.8641684927591484,-28.954854825647868,5.604813738567074,-10.793196521842354,-21.637112952152016,3.797269798344015,20.78127071341357,-40.59597069597069,-12.37117137419872,27.972773834127057,35.065354778806125,38.34806960793124,1577397893.999,-27.69046927279893,-51.12821368820626,7.5818377
83643,1577397894.16,-0.4731176061118521,-0.8703798962104604,8.440728755299636,3.192930692049352,-4.199838478051162,9.75701411192359,-0.2619023035561165,-5.980190190608327,9.19192412496427,5.227996081840701,2.416098990091464,2.232435272961128,-0.4633461556783537,3.158197170350609,2.28118896484375,-13.463834436928352,-17.831197599085368,18.59004323075457,-10.509165034425452,-21.545817116910868,3.874765100351035,21.103460957032382,-45.33216727716727,-17.026270604395606,27.90088956779585,35.13723904513733,38.30014676371043,1577397893.999,-27.69046927279893,-51.12821368820626,7.5818377
83644,1577397894.17,-2.498612210604039,-2.1536719860542104,11.071956379811356,-3.606602022794398,1.5223034897222751,8.854400086044684,7.131392423006383,-1.864557536799733,9.316422611292396,-18.1179511837843,-11.072670541158535,1.896741913586128,3.198763219321646,-5.966558689024391,3.83758544921875,-16.454557093178355,-12.276998380335366,4.796097918254573,-12.213353958926874,-23.189142151251527,4.029755704365082,18.525939008081867,-41.272570207570205,-17.026270604395606,27.852966723575044,34.993470512474914,38.25222391948962,1577397893.999,-27.69046927279893,-51.12821368820626,7.5818377
83645,1577397894.18,-3.006182962557164,4.377710142852038,8.35453749553401,-1.1597279261147102,1.7713004623785251,10.556677466415778,2.398055740877477,10.467975214665108,9.610909415491614,1.6269218630907014,13.402427115091465,2.537611054211128,4.144808141196647,-4.562750095274391,3.07464599609375,6.952425328696647,-4.647603849085366,-1.734663800495427,-11.266582334203862,-21.18063377594628,3.564783892322956,-3.382997557997558,-40.59597069597069,-16.62147936698718,28.044658100458264,35.13723904513733,38.15637823104801,1577397893.999,-27.69046927279893,-51.12821368820626,7.5818377
83646,1577397894.19,-0.2660191625083365,1.848236088896961,13.189627748219555,0.3342539098227896,1.28288332370665,9.670822852157968,1.9575226354087276,2.45577935895222,6.0519286476693495,-0.2041328244092985,-8.814369759908535,1.164320038586128,2.145906774009146,-3.937139743711891,1.24359130859375,10.049959508384148,3.0275670493521343,-0.6818073551829269,-9.65707057217474,-22.3674796340812,3.9522604023580574,-3.382997557997558,-40.25767094017094,-17.026270604395606,27.92485098990625,35.113277623026924,38.204301075268816,1577397893.999,-27.69046927279893,-51.12821368820626,7.5818377
83647,1577397894.2,1.8540464075600227,0.0106863147270385,8.44551715861995,3.049278592439977,-3.158360755883193,5.801792969345465,-2.8739763147865856,-5.530080278498952,8.203118839319739,3.5495292849657014,-11.469399056783535,0.7065563667111281,9.180208531821648,-0.9311582983993902,0.57220458984375,2.008577672446646,12.564310213414634,0.9203654963795732,-9.941102059591646,-20.2676754235348,4.339736912393168,23.68098290598291,-39.58107142857143,-17.026270604395606,27.70919819091263,35.233084733578934,38.25222391948962,1577397893.999,-27.69046927279893,-51.12821368820626,7.5818377
83648,1577397894.21,-0.5760682774985709,-2.378726942108898,4.037791902272293,-2.2802143030678352,-2.320390174828506,-0.8971832757717213,3.829788333650914,-3.585988530452077,14.700982144983804,8.8901054568407,4.674399771341464,3.941419647961128,0.1775229849466463,2.486810451600609,-0.74005126953125,-5.437711390053353,-3.1827600990853657,-12.263228253620428,-9.941102059591646,-20.2676754235348,4.339736912393168,20.45908046979476,-37.88957264957265,-17.026270604395606,27.90088956779585,35.13723904513733,38.30014676371043,1577397893.999,-27.69046927279893,-51.12821368820626,7.5818377
83649,1577397894.22,-0.5042422276938834,1.2628537829887572,8.745989466969558,-1.413513302091273,3.150360618628525,13.858281555771248,-1.760672542813929,13.108779645817451,11.827940152796302,8.7527763552782,-5.411659798971036,-0.0563830864138719,-1.9892250619283536,-19.08911728277439,3.77655029296875,8.264681188071647,-12.399068692835366,-2.6501911442454267,-10.793196521842356,-22.3674796340812,3.9522604023580574,22.392221931507645,-37.55127289377289,-17.026270604395606,27.996735256237457,34.993470512474914,38.30014676371043,1577397893.999,-27.69046927279893,-51.12821368820626,7.5818377
83650,1577397894.23,0.2930269251381478,4.011397288848132,11.390385200612137,-0.4474529322182259,1.6887005051031343,14.229382813095466,1.47030259756693,-0.9212420826981708,15.626341086634191,-13.5708320431593,-14.551674447408535,-1.338121367663872,2.878328649009146,0.3505799828506091,-0.40435791015625,-6.536344202553353,-26.650777677210364,5.818436785442072,-8.99433043486863,-21.91100045787546,2.63484026823871,22.392221931507645,-36.53637362637362,-17.026270604395606,27.90088956779585,35.16120046724773,38.41995387426245,1577397893.999,-27.69046927279893,-51.12821368820626,7.5818377
83651,1577397894.24,-0.5617030675376334,1.2676421863090697,13.509253669850418,1.9240038121665397,-1.2645472426995996,12.77610240538062,0.3749553380454459,9.80956975812214,7.563866996058021,4.251433581840701,-1.2765279630335369,1.377943085461128,3.168245641196646,-2.5180723608993905,-1.22833251953125,-6.902555140053353,-23.843160489710368,9.526322527629572,-10.31981070948085,-22.09359212835776,4.959699328449327,-0.4832853654282228,-35.85977411477411,-17.026270604395606,27.852966723575044,34.993470512474914,38.44391529637284,1577397893.999,-27.69046927279893,-51.12821368820626,7.5818377
83652,1577397894.25,-0.0732859288657584,-2.0100198864448355,9.95147000285823,-0.4749862513100228,0.1432433334722742,11.150439478134528,-2.2538780848061166,-14.288069951350517,9.36430664449552,-4.659699230659299,2.202475943216464,0.6150036323361281,-1.9892250619283536,-9.41504501714939,0.41961669921875,-12.822965296303352,-15.817037442835366,5.620072527629573,-10.31981070948085,-22.09359212835776,4.959699328449327,-1.9331414617128904,-46.17791666666667,-68.63715337396978,27.94881241201665,35.13723904513733,38.15637823104801,1577397893.999,-27.69046927279893,-51.12821368820626,7.5818377
83653,1577397894.26,-0.9328043248618522,-1.0319885082710074,12.099068892018384,-2.201205648282679,1.2685181137457129,11.490416113876716,0.3558017247641959,0.3452905955244855,2.4163334267220837,-8.2912910275343,-2.9702535489710367,0.7523327338986281,1.5202964224466462,3.402337795350609,1.09100341796875,-1.1957680306783538,-10.445943692835366,-1.307417706745427,-11.834645309037668,-22.09359212835776,4.184746308379121,19.170319495319497,-35.85977411477411,-68.43475775526557,27.68523676880223,34.94554766825411,38.39599245215204,1577397893.999,-27.69046927279893,-51.12821368820626,7.5818377
83654,1577397894.27,0.9250961634193978,1.088077061797351,8.139059346119948,0.5832508824790397,1.4875875656500095,8.591037903427496,1.192575204988805,2.7454777598311244,8.762164926966225,0.4367363162157013,-11.805092416158535,1.072767304211128,-0.0361000619283538,-5.3104307593368905,0.37384033203125,4.373689977134147,4.126199861852134,6.245682879192072,-11.834645309037668,-21.728408787393168,4.649718120421247,18.68703412989128,-35.690624236874235,-62.16049357543498,27.852966723575044,34.993470512474914,38.34806960793124,1577397893.999,-27.69046927279893,-51.12821368820626,7.5818377
83655,1577397894.28,-2.0078008702720083,12.482082762480946,10.044843867604325,-3.3432398401772105,5.657089756812119,14.325150879501717,2.668600528475133,2.4713416697432358,9.721042691858802,35.9591972537157,-14.551674447408535,1.286390351086128,1.5813315786966462,-3.3725645483993905,-1.53350830078125,-6.078580530678353,-12.978902677210366,-10.981489972370428,-10.130456384536249,-21.91100045787546,3.2548026842948694,19.170319495319497,-35.52147435897436,-60.743724244505486,27.90088956779585,35.13723904513733,38.25222391948962,1577397893.999,-27.69046927279893,-51.12821368820626,7.5818377
83656,1577397894.29,-4.488193790193883,-1.916646021698741,7.1765902787371365,-1.035229439786585,-6.594040138207411,7.082690857529059,-1.2267655725990854,0.7475164744307355,14.001875260218178,11.4230644412157,1.7141946932164631,0.6150036323361281,8.752962438071647,-4.806890720274391,-1.65557861328125,-2.599576624428354,-14.565816739710366,2.5683147151295733,-10.130456384536249,-21.91100045787546,3.2548026842948694,19.00922437351009,-35.35232448107448,-65.39882347470238,27.90088956779585,35.28100757779974,38.30014676371043,1577397893.999,-27.69046927279893,-51.12821368820626,7.5818377
83657,1577397894.3,-0.5257900426352895,-1.7729939220893676,9.073995094410964,-1.94502607064596,-3.675508314476944,1.9926181280368715,2.8745018712485706,-7.275453288752859,11.059401419886148,-20.8645332150343,-7.166420541158536,0.2182751167111281,-1.2873207650533538,-20.37085556402439,1.48773193359375,-7.512906702553353,-17.434469083460368,-4.847456769245427,-10.698519359370051,-22.09359212835776,3.719774496336996,20.45908046979476,-35.85977411477411,-67.22038404304028,27.92485098990625,34.89762482403331,38.15637823104801,1577397893.999,-27.69046927279893,-51.12821368820626,7.5818377
