,timestamp,acc_x_dashboard,acc_y_dashboard,acc_z_dashboard,acc_x_above_suspension,acc_y_above_suspension,acc_z_above_suspension,acc_x_below_suspension,acc_y_below_suspension,acc_z_below_suspension,gyro_x_dashboard,gyro_y_dashboard,gyro_z_dashboard,gyro_x_above_suspension,gyro_y_above_suspension,gyro_z_above_suspension,gyro_x_below_suspension,gyro_y_below_suspension,gyro_z_below_suspension,mag_x_dashboard,mag_y_dashboard,mag_z_dashboard,mag_x_above_suspension,mag_y_above_suspension,mag_z_above_suspension,temp_dashboard,temp_above_suspension,temp_below_suspension,timestamp_gps,latitude,longitude,speed
74160,1577396172.02,1.2069170568847656,-0.3120841864013671,6.097612643127441,-1.296255815906059,1.911273666754001,9.826737935880336,1.526531577555338,-11.731189101155598,19.379466304524737,-4.4002532958984375,-10.062217712402344,-2.654266357421875,5.605930235327744,-5.373140660727897,1.0850487685785062,-11.747632707868304,103.58610607328868,-11.093502952938987,21.921072706228955,-6.83611165620094,2.371788194444441,60.80767332995953,1.7122993050563151,-71.87386039886043,32.118099859226646,37.10207565819032,37.9646868541648,1577396172.0,-27.68992647284053,-51.12754452291687,7.6233134
74161,1577396172.03,-2.756683791503906,2.389772387084961,13.852431820373534,-2.05521774217559,4.073237765875095,11.868991951993616,-8.466866151936848,-5.685829909261067,4.39415811360677,-1.4858245849609375,-6.766319274902344,-3.020477294921875,-2.908474061547256,-8.058687535727897,-6.666416075171494,-10.984693254743304,100.22917247953868,4.867190406436012,21.51958785812953,-7.120949641875984,2.463010817307693,60.80767332995953,1.7122993050563151,4.570014245014226,32.357714080330666,37.341689879294336,37.772995477281576,1577396172.0,-27.68992647284053,-51.12754452291687,7.6233134
74162,1577396172.04,0.5628768103027343,0.7317877374267577,8.125501449279785,0.0085840888790967,1.080485690679783,11.958774514249477,0.8070739786783853,16.02359364420573,0.9261570088704432,-3.8814544677734375,-9.634971618652344,-3.081512451171875,-2.984768006859756,-11.827608434165397,-2.043002989233994,-4.469190325055804,54.86479259672619,-9.430294945126487,22.2422605847085,-6.83611165620094,3.101569177350434,68.73470886752139,2.2830657400750862,-1.6618233618233766,32.16602270344745,37.341689879294336,37.91676400994399,1577396172.0,-27.68992647284053,-51.12754452291687,7.6233134
74163,1577396172.05,3.1749508215332027,2.544198394165039,10.301830758361817,3.844095148449408,-2.5994022609803733,17.160177620938928,-4.458972572835286,-20.917740871175127,1.547452339680989,-8.001327514648438,-8.963584899902344,-3.752899169921875,-5.166774842797256,-12.544771520102897,2.488857362328506,-5.155835832868304,0.4672095889136905,-14.114743187313987,22.2422605847085,-6.83611165620094,3.101569177350434,67.76799721659921,2.0384515536384704,-8.724572649572671,32.45355976877228,37.24584419085272,37.91676400994399,1577396172.0,-27.68992647284053,-51.12754452291687,7.6233134
74164,1577396172.06,0.6179434484863281,-3.991972138061523,13.550762411193846,-1.1956993461794965,-0.9474031154725602,7.937712826017054,-0.7216237813313795,19.4508933207194,-1.3638968790690098,-10.107040405273438,-4.538536071777344,-2.318572998046875,-5.014186952172256,-18.25155862947789,-1.4479102157964938,-1.1580330984933034,-23.76374744233631,6.270999000186012,21.921072706228955,-6.83611165620094,3.101569177350434,67.76799721659921,1.7122993050563151,-8.724572649572671,32.30979123610986,37.341689879294336,37.772995477281576,1577396172.0,-27.68992647284053,-51.12754452291687,7.6233134
74165,1577396172.07,0.367749375,0.4612429498291017,11.568363436584471,-0.9060009453005902,-0.9785277370545914,7.990385262540491,10.243819822184244,35.73625301310222,11.607887715657554,1.1692047119140625,-5.682945251464844,-2.074432373046875,2.920383360327744,-1.8941367544778964,-6.025546934546494,2.1683829171316966,-29.89778064546131,-21.713620140438987,21.84077573660907,-7.500733622776034,3.37523704594017,67.76799721659921,1.7122993050563151,-8.724572649572671,32.40563692455147,37.53338125617755,37.91676400994399,1577396172.0,-27.68992647284053,-51.12754452291687,7.6233134
74166,1577396172.08,0.8765172277832032,10.0763568170166,16.50520725982666,0.3234216071896434,7.316183914556736,5.343595327237757,-5.144911348470052,-9.78230894978841,13.961387947591144,10.248184204101562,-6.186485290527344,-5.889129638671875,-5.517726991234756,-8.440157262290395,-2.073520567358994,-3.767286028180804,-22.95503162202381,4.760378882998513,21.43929088850964,-6.646219665750918,1.824452457264953,65.25454692420155,2.119989615784008,-38.63739316239318,32.26186839188906,37.46149698984635,37.79695689939198,1577396172.0,-27.68992647284053,-51.12754452291687,7.6233134
74167,1577396172.09,0.7161057165527344,-3.0295030706787105,10.670537814025876,4.516865814953315,-5.304850136956936,12.87455664925924,-0.0536415181477858,8.597977195231119,18.462487068684894,-17.065048217773438,-1.6393661499023438,-5.095672607421875,-4.129177186547256,11.014798792397103,-5.079502012671494,-6.742749895368304,20.70036388578869,8.224124000186013,21.43929088850964,-6.646219665750918,1.824452457264953,66.99462789586147,1.875375429347392,-68.55021367521368,32.50148261299308,37.53338125617755,37.86884116572318,1577396172.0,-27.68992647284053,-51.12754452291687,7.6233134
74168,1577396172.1,2.7344177160644527,-0.2282871282958984,6.926006417541503,0.8752850898556587,-1.21555370141006,15.898433346036583,-7.312860951741536,5.614801926676432,18.582197151692707,-18.46885681152344,29.397010803222656,-4.485321044921875,-2.237087342797256,-29.90927347322789,-0.4713477157964938,-8.482251848493304,53.11003185453869,7.094973609561012,21.43929088850964,-7.785571608451073,2.5542334401709463,66.99462789586147,1.875375429347392,-68.55021367521368,32.50148261299308,37.38961272351514,37.9646868541648,1577396172.0,-27.68992647284053,-51.12754452291687,7.6233134
74169,1577396172.11,2.4471135168457026,0.1248576165771483,10.446679958801267,-9.460483477038872,-1.2107652980897476,9.90574659066549,4.0404433207194,24.41167916056315,11.454658809407556,-7.696151733398437,-4.279136657714844,-3.661346435546875,4.842990782202744,14.951566370522103,-2.607578184546494,-0.2119881766183033,54.78849865141369,-19.028073265438987,22.563448463188045,-8.54513957025118,2.189342948717949,68.15468187696808,3.832288920840324,-88.49209401709405,32.14206128133705,37.341689879294336,37.725072633060776,1577396172.0,-27.68992647284053,-51.12754452291687,7.6233134
74170,1577396172.12,3.433524600830077,1.9863494073486327,4.340268624572753,9.228654682140816,2.661855887212985,15.57521612191549,-3.052379097493489,-9.056865846761063,5.962360201009115,-2.721786499023437,-2.341270446777344,-4.088592529296875,-11.255031678734756,-11.369844762290397,-1.3716162704839938,-3.477369035993304,23.69108654203869,-17.135983421688987,21.11810301003009,-7.405787627551021,3.2840144230769246,60.034304009221785,3.8322889208403215,-43.62286324786326,32.16602270344745,37.413574145625546,37.94072543205439,1577396172.0,-27.68992647284053,-51.12754452291687,7.6233134
74171,1577396172.13,1.537316885986328,4.284783001098633,13.026432247619628,-1.813403374499809,2.0788677829649385,11.318325570157675,-0.9299193257649732,-3.497529591878255,3.697445430501302,8.813858032226562,8.858680725097656,-5.187225341796875,14.517063047827744,39.4876991830221,-0.1051367782964938,-2.3177010672433034,-8.99323962983631,6.972903297061012,21.11810301003009,-7.405787627551021,3.2840144230769246,59.454277018668485,3.261522485821553,4.985470085470055,32.30979123610986,37.43753556773595,37.772995477281576,1577396172.0,-27.68992647284053,-51.12754452291687,7.6233134
74172,1577396172.14,0.7735665563964844,-2.337578790893555,9.29626606109619,2.53446684034394,-9.104448171624904,11.84026153207174,-5.459748866780599,12.397575229899088,15.699578352864586,-8.245468139648438,3.365516662597656,-3.722381591796875,-6.753688905297256,-12.727876988852897,-1.9361914657964936,-1.1885506766183034,2.2067115420386907,-5.264645531063988,22.563448463188045,-6.07654369440084,2.736678685897437,59.454277018668485,3.261522485821553,4.985470085470055,32.50148261299308,37.38961272351514,37.91676400994399,1577396172.0,-27.68992647284053,-51.12754452291687,7.6233134
74173,1577396172.15,1.6354791540527345,-0.2953247747802733,11.324154867248534,6.498067688732613,2.0238011447813458,10.97356053109518,2.22085005900065,2.382629685465496,14.054761812337242,-2.920150756835937,1.351356506347656,-4.790496826171875,-3.152614686547256,11.304715784584602,-3.645175840796494,-2.5618416922433034,26.19352794828869,4.470461890811012,21.51958785812953,-7.500733622776037,3.3752370459401737,67.86466838169143,1.7530683361290844,11.00957977207976,32.237906969778656,37.269805612963125,38.08449396471681,1577396172.0,-27.68992647284053,-51.12754452291687,7.6233134
74174,1577396172.16,1.853351505126953,-0.3527856146240234,11.74792856109619,-6.020015691394341,5.186541537847751,9.106083236173305,-4.288984254964192,5.293978904215495,6.975107503255209,-1.0433197021484375,4.586219787597656,-3.722381591796875,-2.664333436547256,-27.25424417635289,-2.119296934546494,-2.0125252859933034,38.12590099516369,-16.708737327938987,22.88463634166759,-7.595679618001046,3.101569177350434,67.76799721659921,1.7122993050563151,11.217307692307685,31.926408482343422,37.341689879294336,38.0605325426064,1577396172.0,-27.68992647284053,-51.12754452291687,7.6233134
74175,1577396172.17,-0.3780444421386708,5.1251477838134765,14.381550387268064,0.4251751777462838,0.7644510715391575,13.406069417813928,-1.3608756245930984,0.7593609598795567,0.4700615926106767,8.478164672851562,7.882118225097656,-4.180145263671875,-2.084499452172256,30.912259729897105,-5.659335997046494,1.6495840890066966,6.021408807663691,-23.422604515438987,22.88463634166759,-7.595679618001046,3.101569177350434,63.12778129217276,1.7122993050563151,4.570014245014226,32.16602270344745,37.341689879294336,37.91676400994399,1577396172.0,-27.68992647284053,-51.12754452291687,7.6233134
74176,1577396172.18,0.3186682409667968,-1.2170924139404298,7.321049691467285,-0.645032964343559,-4.220276784906154,7.935318624356897,0.5353320902506506,-9.933143654378254,-0.063845377604166,-1.5316009521484375,1.900672912597656,-3.325653076171875,5.361789610327744,-17.030855504477895,-0.5323828720464938,2.5651114327566966,-29.62312244233631,-14.694577171688987,21.11810301003009,-8.165355589351128,2.9191239316239352,66.41460090530815,-1.6307612429107747,5.816381766381765,32.30979123610986,37.53338125617755,37.772995477281576,1577396172.0,-27.68992647284053,-51.12754452291687,7.6233134
74177,1577396172.19,-0.7838616235351562,-0.6819883428955078,8.612721487121581,0.1917405158810497,2.356595175543064,10.736534566739708,-2.645364815266927,-5.36500688680013,9.321425130208333,-1.0890960693359375,0.2374649047851562,-2.791595458984375,4.247898008765244,10.969022425209603,-2.241367247046494,2.1683829171316966,-61.92597888764881,12.694949195498513,22.08166664546873,-8.165355589351126,3.101569177350434,65.25454692420155,0.4892283728732332,-3.739102564102575,32.237906969778656,37.31772845718393,37.55734267828797,1577396172.0,-27.68992647284053,-51.12754452291687,7.6233134
74178,1577396172.2,-2.348472408447265,1.2776657159423828,3.9643789639282216,0.6981141670040961,-2.30730965844131,5.387888057950648,3.396403074137369,11.255541038004557,19.2884866414388,5.7315826416015625,1.900672912597656,-1.830291748046875,8.047336485327744,-25.57577737947789,-5.018466856421494,2.5040762765066966,-15.27986072358631,17.165774390811013,21.43929088850964,-7.405787627551021,2.5542334401709463,63.51446595254163,2.364603802220625,-88.49209401709405,32.16602270344745,37.24584419085272,37.91676400994399,1577396172.0,-27.68992647284053,-51.12754452291687,7.6233134
74179,1577396172.21,0.0050278234863281,1.5721525201416011,12.69363821685791,-1.99775690233184,4.449127426519627,5.000027389005336,0.1283178080240881,17.762981150309244,19.374677901204425,6.5555572509765625,0.7104873657226562,-2.715301513671875,-0.772243592797256,-12.575289098227897,-5.933994200171494,3.9078848702566966,15.11564708891369,-13.809567406063987,22.08166664546873,-8.924923551151231,3.2840144230769246,67.76799721659921,2.364603802220625,-88.49209401709405,32.16602270344745,37.38961272351514,38.0605325426064,1577396172.0,-27.68992647284053,-51.12754452291687,7.6233134
74180,1577396172.22,2.755965531005859,0.6072892510986327,5.5804650845336905,-4.961778557605278,-0.9665567287538102,16.113911495450647,1.4570997294108068,-5.455986549886068,11.940681746419274,6.0062408447265625,1.7480850219726562,-2.227020263671875,6.551975157202744,12.662748011147103,-2.912753965796494,4.213060651506696,19.14396740141369,-16.464596702938987,22.08166664546873,-8.924923551151231,3.2840144230769246,68.54136653733694,2.69075605080278,-7.8936609686609795,32.50148261299308,37.24584419085272,37.86884116572318,1577396172.0,-27.68992647284053,-51.12754452291687,7.6233134
74181,1577396172.23,-0.3074154931640624,0.5354632012939452,11.65335759552002,1.6534006294064405,0.6303757785704079,11.17706767220846,1.0369173380533854,3.845486899820964,7.473101448567708,2.0084381103515625,-3.806114196777344,-2.089691162109375,2.950900938452744,-11.415621129477897,-1.7988623642339938,4.319872174944196,15.35978771391369,-8.621579124813987,22.242260584708504,-7.026003646650969,2.919123931623932,80.14190634840307,3.1799844236760126,-78.52115384615387,32.237906969778656,37.341689879294336,37.91676400994399,1577396172.0,-27.68992647284053,-51.12754452291687,7.6233134
74182,1577396172.24,-1.357272921142578,-2.773323493041992,7.665814730529784,-0.4582852348513715,2.2919517307188446,9.398175838712367,-4.715152150472004,-7.711324513753255,11.39480376790365,5.1517486572265625,-4.324913024902344,-0.487518310546875,12.991184141577744,29.050687464272105,-3.797763731421494,5.738939557756696,-17.50764392671131,14.510745093936013,21.599884827749413,-8.735031560701206,3.101569177350434,80.52859100877194,3.1799844236760126,-85.1684472934473,32.45355976877228,37.341689879294336,37.9646868541648,1577396172.0,-27.68992647284053,-51.12754452291687,7.6233134
74183,1577396172.25,-1.3907917443847655,0.6862979058837889,9.075999508361816,1.6462180244259712,-8.383793471917873,7.379863839200648,-3.0559703999837238,21.447657505289712,13.573527278645836,4.1141510009765625,-1.975059509277344,-2.013397216796875,-4.190212342797256,-6.197115270102897,-4.408115293921494,7.325853620256696,-4.446120489211309,8.437747047061013,22.402854523948275,-7.026003646650973,2.18934294871795,67.76799721659921,3.0169082993849345,-7.8936609686609795,32.16602270344745,37.53338125617755,37.91676400994399,1577396172.0,-27.68992647284053,-51.12754452291687,7.6233134
74184,1577396172.26,-1.7930176232910155,2.450824529418945,13.024038045959472,-3.482161931628715,6.180135226812595,11.184250277188928,3.930310044352213,-5.51823579305013,10.619082430013025,12.750625610351562,-2.982139587402344,-1.891326904296875,5.758518125952744,-31.92343362947789,-2.546543028296494,5.525316510881696,-9.23738025483631,-2.518063499813988,22.402854523948275,-7.026003646650973,2.18934294871795,68.54136653733694,3.0169082993849345,-7.8936609686609795,32.26186839188906,37.341689879294336,37.91676400994399,1577396172.0,-27.68992647284053,-51.12754452291687,7.6233134
74185,1577396172.27,-2.83090404296875,0.5653907220458984,10.432314748840332,-1.4315282097048871,1.2827957309629865,9.87342486825338,-2.1342027608235674,20.03866982828776,7.61316224568685,4.9381256103515625,-7.391929626464844,-2.379608154296875,9.786838438452744,4.331449183022104,-3.202670957983994,9.843553815569196,-17.08039783296131,-11.124020531063987,22.88463634166759,-7.595679618001048,2.371788194444448,69.79809168353577,1.7530683361290844,-5.193198005698012,32.33375265822026,37.34168987929434,37.86884116572318,1577396172.0,-27.68992647284053,-51.12754452291687,7.6233134
74186,1577396172.28,-2.018072579345703,3.243305278930664,12.542803512268064,2.6589653266720648,2.9862702121641576,4.298526302579554,-0.7719020161946608,-21.698250612386065,11.282276289876306,7.867813110351562,-6.125450134277344,-2.104949951171875,2.096408750952744,-6.715914098227897,-6.910556700171494,6.318773542131696,-25.32014392671131,1.723879859561012,23.68760603786645,-7.405787627551021,1.824452457264953,64.86786226383268,1.7938373672018535,-8.309116809116826,32.26186839188906,37.341689879294336,37.91676400994399,1577396172.0,-27.68992647284053,-51.12754452291687,7.6233134
74187,1577396172.29,0.4144363073730468,-1.6935385443115234,9.090364718322752,1.5887571845822213,3.64228146704697,9.103689034513147,-1.5356523457845046,14.066333787027997,11.765905025227868,-0.3108978271484375,-9.757041931152344,-3.539276123046875,11.404270079077744,-1.7110312857278964,-4.591220762671494,7.264818464006696,-19.30818103608631,-1.877194359188988,23.366418159386907,-6.266435684850866,3.2840144230769246,67.96133954678365,1.7938373672018535,9.97094017094016,32.30979123610986,37.43753556773595,37.725072633060776,1577396172.0,-27.68992647284053,-51.12754452291687,7.6233134
74188,1577396172.3,1.9802441931152344,0.360686480102539,6.873333981018066,0.4970012275509716,-1.6345389919374038,9.486761300138149,-0.9167512166341144,-0.2689486531575522,13.824918452962242,5.1517486572265625,-7.620811462402344,-2.410125732421875,2.630466368140244,-7.631441441977897,-5.155795957983994,6.715502057756696,-3.5611107235863098,-1.953488304501488,23.366418159386907,-6.266435684850866,3.2840144230769246,67.96133954678365,2.119989615784009,-6.647293447293474,32.30979123610986,37.31772845718393,37.772995477281576,1577396172.0,-27.68992647284053,-51.12754452291687,7.6233134
74189,1577396172.31,0.8729259252929688,1.9827581048583984,12.18127906158447,-0.4463142265505903,4.635875156011814,6.42697157845846,6.331694309488932,10.190121299235026,19.640434285481767,7.532119750976562,-5.469322204589844,-2.791595458984375,9.786838438452744,-13.612886754477897,-3.156894590796494,5.098070417131696,21.76847912016369,5.599612281436012,22.48315149356816,-7.880517603676087,3.5576822916666684,80.14190634840307,3.0169082993849345,31.990099715099703,32.21394554766826,37.341689879294336,37.725072633060776,1577396172.0,-27.68992647284053,-51.12754452291687,7.6233134
74190,1577396172.32,-0.1170764611816396,2.122818901977539,14.60181694000244,2.5799566718869085,2.66544718970322,13.339031771329552,-7.207516078694661,3.172716233317057,15.587050874837242,8.600234985351562,-2.982139587402344,-4.119110107421875,2.371066954077744,-6.349703160727897,-6.330722715796494,1.6190665108816966,42.21525646391369,-8.499508812313987,22.88463634166759,-7.215895637100995,3.466459668803423,80.14190634840307,3.6692127965492456,-75.19750712250713,31.97433132656424,37.341689879294336,37.725072633060776,1577396172.0,-27.68992647284053,-51.12754452291687,7.6233134
74191,1577396172.33,1.1662156286621093,0.9209296685791014,14.216350472717284,5.54158412550019,-4.244218801507717,11.983913631681116,-0.994562770589192,5.777607639567057,12.615846614583337,7.623672485351562,-2.799034118652344,-3.630828857421875,10.122531797827744,2.591947229897104,-3.370517637671494,3.1754629952566966,60.67839122953869,-7.004147484188988,22.563448463188045,-7.975463598901102,3.101569177350434,67.76799721659921,1.7122993050563151,-88.49209401709405,32.16602270344745,37.43753556773595,37.91676400994399,1577396172.0,-27.68992647284053,-51.12754452291687,7.6233134
74192,1577396172.34,1.625902347412109,0.9317035760498046,10.440694454650878,-1.411177495593559,2.1937894626524383,4.6863869715248665,1.469070737711588,2.581348423258464,10.147424702962242,1.8253326416015625,-3.973960876464844,-4.363250732421875,3.072971250952744,-12.056490270102897,-4.621738340796494,5.891527448381696,48.44084240141369,-16.373043968563987,22.161963615088617,-7.880517603676087,2.82790130876069,56.36079973571752,2.119989615784009,3.3236467236467035,32.118099859226646,37.19792134663192,37.772995477281576,1577396172.0,-27.68992647284053,-51.12754452291687,7.6233134
74193,1577396172.35,0.8190563879394531,1.203445464477539,11.407951925354002,1.2715254646115182,1.2468827060606418,14.631900667813929,0.6670131815592447,0.6659870951334637,-0.3858655008951821,3.0765533447265625,0.1306533813476562,-4.363250732421875,8.932346250952744,1.1728798470846034,-4.316562559546494,5.555834089006696,1.9473121279761896,-4.745846702938988,22.563448463188045,-8.355247579801153,3.101569177350434,69.31473585807468,3.1799844236760126,18.28005698005696,32.30979123610986,37.31772845718393,37.86884116572319,1577396172.0,-27.68992647284053,-51.12754452291687,7.6233134
74194,1577396172.36,2.0975600744628906,-0.7430404852294922,7.364145321350096,-6.905870305652153,3.25920920142197,-0.3534075231040386,-0.5420586568196608,0.7641493631998691,-11.036471586100255,3.1986236572265625,-0.5102157592773438,-3.234100341796875,8.596652891577744,-3.999849645102896,-4.743808653296494,8.943285260881696,-80.83161853608631,-10.544186546688987,21.921072706228955,-9.494599522501307,2.371788194444441,60.80767332995953,3.3430605479670907,17.864601139601124,32.30979123610986,37.341689879294336,37.91676400994399,1577396172.0,-27.68992647284053,-51.12754452291687,7.6233134
74195,1577396172.37,-0.0524330163574208,6.36773844543457,10.06241059234619,6.8655776435665965,1.9160620700743136,9.623230794767055,-1.052023610432942,-12.588313295491536,-3.956817277018228,8.478164672851562,-2.341270446777344,-4.607391357421875,-2.053981874047256,3.263333948647104,-3.614658262671494,9.126390729631696,-137.8994896298363,5.050295875186012,22.88463634166759,-9.114815541601256,2.736678685897437,64.09449294309493,2.119989615784009,9.97094017094016,32.16602270344745,37.341689879294336,37.62922694461916,1577396172.0,-27.68992647284053,-51.12754452291687,7.6233134
74196,1577396172.38,-0.1134851586914062,0.1547851373291014,4.862204586486816,-1.928325054187309,2.418844418707126,9.410146847013149,-3.55635854695638,-2.669135817464192,15.381149532063803,2.1457672119140625,-2.539634704589844,-3.173065185546875,9.390109922827744,-13.490816441977897,-5.354160215796494,7.081712995256696,-143.6978294735863,9.353274390811013,22.40285452394827,-7.7855716084510735,3.466459668803419,65.25454692420155,2.77229411294832,19.110968660968645,32.30979123610986,37.341689879294336,37.91676400994399,1577396172.0,-27.68992647284053,-51.12754452291687,7.6233134
74197,1577396172.39,2.200510745849609,-1.624106696166992,10.182120675354003,1.0548502143673777,-4.958887997064357,8.810399331144007,1.3086592264811194,5.703387388102213,30.380822932942703,-0.2498626708984375,-4.385948181152344,-4.149627685546875,-0.3297387099847562,2.988675745522104,-3.629917051733994,1.9700186593191964,-43.82905505952381,5.477541968936013,23.045230280907365,-8.545139570251179,3.2840144230769246,67.28464139113811,0.1223070932183084,8.101388888888877,32.30979123610986,37.22188276874232,37.84487974361278,1577396172.0,-27.68992647284053,-51.12754452291687,7.6233134
74198,1577396172.4,4.494155936279296,-4.037461969604491,8.870098165588377,-0.041694145984184,7.135421689214939,6.9393307337318975,6.726737583414713,14.686432017008464,29.624255208333327,7.0133209228515625,-3.561973571777344,-1.616668701171875,-7.882839295922256,-12.178560582602897,-7.581943418921494,2.3209708077566966,87.74748302641369,-14.511471702938987,23.205824220147136,-7.595679618001046,4.196240651709401,66.41460090530815,-1.6307612429107747,5.816381766381765,32.30979123610986,37.341689879294336,37.91676400994399,1577396172.0,-27.68992647284053,-51.12754452291687,7.6233134
74199,1577396172.41,2.7200525061035155,8.196908513793945,17.127699691467285,10.600532233410346,7.45385051001572,20.327706417325647,0.8106652811686195,-8.939549965413411,25.884512215169263,12.506484985351562,2.388954162597656,-3.050994873046875,-7.241970155297256,4.514554651772103,-3.065341856421494,-0.5476815359933034,135.1412818545387,-15.793209984188987,23.205824220147136,-7.595679618001046,3.831350160256412,66.41460090530815,-1.6307612429107747,5.816381766381765,32.45355976877228,37.53338125617755,37.86884116572318,1577396172.0,-27.68992647284053,-51.12754452291687,7.6233134
74200,1577396172.42,2.566823599853515,1.5889119317626954,11.788629989318846,-0.2152737663455125,1.0314045566465797,10.833499733976035,-2.1988462056477864,3.8287274881998696,3.109668922932943,6.540298461914063,-3.790855407714844,-2.318572998046875,13.311618711890244,7.123807581459604,-2.714389707983994,1.3444083077566966,129.6328590029762,-4.120236351376488,23.446715129006797,-7.880517603676087,3.740127537393163,64.86786226383266,2.0384515536384704,-73.53568376068378,32.21394554766825,37.341689879294336,37.91676400994399,1577396172.0,-27.68992647284053,-51.12754452291687,7.6233134
74201,1577396172.43,2.7607539343261718,0.475608159790039,11.637795284729004,6.860789240246284,-0.8444524440858414,15.067645369962364,-4.7319115620930985,8.231664341227212,-11.055625199381506,2.2830963134765625,2.327919006347656,-4.058074951171875,-6.479030702172256,-20.96762308260289,-5.842441465796494,6.013597760881696,42.27629162016369,-8.285885765438987,20.95750907079032,-7.975463598901102,3.831350160256412,68.15468187696808,2.0384515536384704,-75.19750712250713,32.30979123610986,37.43753556773595,37.725072633060776,1577396172.0,-27.68992647284053,-51.12754452291687,7.6233134
74202,1577396172.44,3.656185355224609,-2.940917609252929,9.363303707580563,-2.031275725574028,4.700518600836032,13.12355362191549,-5.040763576253255,2.4736093485514323,-10.799445621744788,3.2291412353515625,3.518104553222656,-1.891326904296875,17.080539610327744,21.207669886147105,-5.476230528296494,9.645189557756696,-42.50154041108631,-14.297848656063987,22.563448463188045,-7.595679618001046,2.736678685897437,80.14190634840307,1.875375429347392,-69.38112535612538,32.16602270344745,37.43753556773595,37.91676400994399,1577396172.0,-27.68992647284053,-51.12754452291687,7.6233134
74203,1577396172.45,3.349727542724609,6.477871721801757,3.0043040982055653,4.995706146984565,-8.711799099359279,7.487602913907679,1.296688218180338,-15.71274646199544,4.710192732747395,5.3043365478515625,1.5954971313476562,-4.454803466796875,12.411350157202744,21.940091761147105,-1.0816992782964938,7.478441510881696,-80.06867908296131,2.639407203311012,23.045230280907365,-7.405787627551021,4.743576388888888,70.86147449955017,2.5276799265117016,-83.50662393162395,32.07017701500584,37.38961272351514,37.772995477281576,1577396172.0,-27.68992647284053,-51.12754452291687,7.6233134
74204,1577396172.46,3.637031741943359,2.9392416680908204,0.7920617642211909,1.7503657966427686,6.849314590826268,6.470067208341272,-2.6034662862141924,9.2228638285319,8.023767830403646,12.99476623535156,-12.946128845214844,-2.928924560546875,-4.022365663109756,-0.7039512076028931,-3.355258848608994,3.434862409319196,-73.64472888764881,4.821414039248513,23.045230280907365,-7.405787627551021,4.743576388888888,67.86466838169143,2.242296709002317,-6.024109686609705,32.30979123610986,37.38961272351514,37.86884116572319,1577396172.0,-27.68992647284053,-51.12754452291687,7.6233134
74205,1577396172.47,1.862928311767578,4.157890313110352,11.036850668029784,7.540742511730659,1.34384787329697,8.134037362149867,6.420279770914713,-2.187901283772786,12.175313509114586,14.459609985351562,22.774696350097656,-2.623748779296875,-1.626735780297256,14.127591761147103,-0.4103125595464938,1.3749258858816966,-31.69831775483631,0.2285185314360119,21.760478766989184,-7.785571608451073,3.6489049145299135,67.76799721659921,1.875375429347392,-8.724572649572671,32.30979123610986,37.43753556773595,37.725072633060776,1577396172.0,-27.68992647284053,-51.12754452291687,7.6233134
74206,1577396172.48,-3.8903382775878903,-1.81085442565918,11.202050582580563,-7.842003154773247,-3.631303176507717,-0.88252608999857,8.385919333902994,5.5956483133951815,19.18793017171224,-4.7359466552734375,38.613319396972656,-3.783416748046875,9.969943907202744,1.2186562142721036,-5.262607481421494,2.7176993233816966,-8.47444080171131,-0.6870088123139881,22.88463634166759,-7.595679618001046,4.196240651709401,67.76799721659921,1.875375429347392,-8.724572649572671,32.07017701500584,37.24584419085272,37.9646868541648,1577396172.0,-27.68992647284053,-51.12754452291687,7.6233134
74207,1577396172.49,0.5688623144531251,0.9496600885009766,8.928756106262206,0.14026518018769,3.900855246343845,14.612747054532678,-7.145266835530599,-10.85491129353841,4.872998445638021,-5.8956146240234375,6.752967834472656,-4.683685302734375,-6.173854920922256,-4.121919957602897,-11.244052793921494,-1.7989022391183034,-21.47492908296131,-11.062985374813987,23.205824220147136,-8.355247579801153,4.196240651709401,63.12778129217276,2.0384515536384704,-5.400925925925935,32.118099859226646,37.10207565819032,37.91676400994399,1577396172.0,-27.68992647284053,-51.12754452291687,7.6233134
74208,1577396172.5,0.7400477331542968,2.8817808282470705,11.963406710510252,2.454261084728705,3.9355711704161114,8.507532821134241,1.0010043131510415,5.5980425150553375,4.17748286336263,-0.9212493896484376,0.9241104125976562,-5.034637451171875,1.0740698837652438,2.469876917397104,-3.523105528296494,3.923143659319196,-31.74409412202381,-3.357296898251488,23.205824220147136,-8.355247579801153,4.196240651709401,66.12458741003151,1.9161444604201607,-8.516844729344749,31.97433132656424,37.48545841195676,37.82091832150238,1577396172.0,-27.68992647284053,-51.12754452291687,7.6233134
74209,1577396172.51,-1.2184092248535154,5.096417363891601,10.761517477111816,0.44672299268769,2.447574838629001,5.92897763314596,-4.260253835042317,-4.692236220296223,15.002865669759116,-1.1043548583984375,3.579139709472656,-5.156707763671875,-5.166774842797256,1.0050331673971036,-5.354160215796494,1.0392325265066966,-32.24763416108631,14.785403297061013,21.43929088850964,-8.924923551151231,2.9191239316239352,67.76799721659921,3.0169082993849345,-7.062749287749304,32.30979123610986,37.341689879294336,37.772995477281576,1577396172.0,-27.68992647284053,-51.12754452291687,7.6233134
74210,1577396172.52,-0.1889025109863271,1.3375207574462888,9.210074801330563,-5.50286813280059,-1.1485160549256852,13.975889412931116,-3.67128022664388,-0.5406905415852861,18.54628412679036,-4.3087005615234375,1.2598037719726562,-4.576873779296875,-2.267604920922256,9.214261683022103,-3.675693418921494,0.0016348702566966,-10.91584705171131,4.165286109561012,23.527012098626685,-7.975463598901102,3.101569177350434,69.31473585807468,1.7122993050563151,-66.88839031339033,32.16602270344745,37.341689879294336,37.772995477281576,1577396172.0,-27.68992647284053,-51.12754452291687,7.6233134
74211,1577396172.53,0.5616797094726568,-2.574604755249023,6.073670626525878,-3.961002263659965,-9.22176405297256,-0.4156567662681011,9.865535959879557,17.911421653238932,13.370020137532554,-2.431869506835937,-1.700401306152344,-4.149627685546875,3.072971250952744,4.758695276772103,-3.462070372046494,1.5885489327566966,13.31510997953869,-16.189938499813987,22.08166664546873,-8.165355589351128,2.9191239316239352,63.90115061291049,2.364603802220625,-71.87386039886043,32.30979123610986,37.53338125617755,37.62922694461916,1577396172.0,-27.68992647284053,-51.12754452291687,7.6233134
74212,1577396172.54,-1.1226411584472655,7.742010198364258,11.46062436187744,1.7910672248654247,7.571166391363376,7.140443673185024,-0.8784439900716144,-6.292760030110677,7.252834895833333,6.7081451416015625,2.663612365722656,-4.271697998046875,-1.2452660537347562,-5.037447301352896,-3.340000059546494,-1.6005379813058034,26.01042247953869,-5.920773460751487,22.08166664546873,-8.165355589351128,2.9191239316239352,64.28783527327937,2.8538321750938582,-98.04757834757837,32.16602270344745,37.38961272351514,37.82091832150238,1577396172.0,-27.68992647284053,-51.12754452291687,7.6233134
74213,1577396172.55,0.6706158850097657,-0.4054580511474609,14.446193832092284,0.29349408643769,-6.631237856683498,0.2331718836342415,3.9063680277506494,12.043233384195965,4.738923152669271,5.7315826416015625,3.731727600097656,-6.652069091796875,12.655490782202744,11.533597620522103,-7.154697325171494,-0.2119881766183033,2.5729224795386907,-10.605221702938987,21.760478766989184,-8.165355589351128,3.2840144230769246,66.22125857512373,2.0384515536384704,-7.8936609686609795,32.16602270344745,37.43753556773595,37.9646868541648,1577396172.0,-27.68992647284053,-51.12754452291687,7.6233134
74214,1577396172.56,0.0313640417480468,-0.6592434271240235,4.421671481018065,-1.4734267387576214,2.05253156470322,11.550563131192831,-3.5276281270345047,-2.5159069112141923,2.160367964680989,-8.916854858398438,-2.371788024902344,-4.973602294921875,-20.578151795922256,-13.094087926352897,-8.650058653296494,-2.3177010672433034,-15.76814197358631,-13.046627952938987,21.43929088850964,-8.545139570251179,3.6489049145299135,59.26093468848404,2.0384515536384704,5.400925925925918,32.26186839188906,37.341689879294336,37.86884116572318,1577396172.0,-27.68992647284053,-51.12754452291687,7.6233134
74215,1577396172.57,-0.169748897705078,4.461953923950195,9.241199422912596,-3.713202391833793,4.641860660162204,9.557390249112755,-1.408759657796224,-3.3443006856282547,15.502056715901697,1.489639282226562,0.5884170532226562,-6.850433349609375,0.295871641577744,5.948880823647104,-3.629917051733994,-4.576001848493304,2.87809826078869,7.857913062686013,22.72404240242782,-8.355247579801151,4.013795405982906,64.67451993364824,2.935370237239396,6.647293447293441,32.285829813999456,37.389612723515135,37.820918321502376,1577396172.0,-27.68992647284053,-51.12754452291687,7.6233134
74216,1577396172.58,2.064041251220703,0.0422576593017578,7.9243885098266595,2.477006000500189,-4.390265102777248,2.677651778653773,0.2049322611490881,11.952253721110026,12.03884401448568,-13.586044311523438,7.027626037597656,-5.919647216796875,-13.406520936547256,-7.356783238852897,-2.454990293921494,-5.338941301618304,36.17277599516369,-6.760006859188988,23.366418159386907,-7.785571608451073,3.2840144230769246,62.741096631803885,3.0169082993849345,14.540954415954404,32.16602270344745,37.43753556773595,37.62922694461916,1577396172.0,-27.68992647284053,-51.12754452291687,7.6233134
74217,1577396172.59,0.1223437048339843,0.0973242974853515,17.826806576232908,-0.587572124499809,6.218442453375095,10.815543221524866,-2.332921498616536,12.974577829996743,7.980672200520833,3.7174224853515625,10.872840881347656,-5.248260498046875,-2.969509217797256,-13.673921910727897,-4.804843809546494,-4.423413957868304,34.52482677641369,-20.248776390438987,23.205824220147136,-7.975463598901102,2.371788194444441,65.0612045940171,3.0169082993849345,14.540954415954404,32.26186839188906,37.24584419085272,37.725072633060776,1577396172.0,-27.68992647284053,-51.12754452291687,7.6233134
74218,1577396172.6,-0.0931344445800771,2.151549321899414,10.411964034729005,2.3477191108517523,2.2680097141172824,23.0116064783608,-1.1597626851399732,-12.593101698811848,4.940036092122396,-1.3790130615234375,1.7175674438476562,-6.468963623046875,0.265354063452744,19.346097620522105,-4.896396543921494,-3.874097551618304,16.12272716703869,-19.394284202938987,23.366418159386907,-7.785571608451073,1.824452457264953,64.67451993364823,3.0169082993849345,9.555484330484315,32.07017701500584,37.43753556773595,37.772995477281576,1577396172.0,-27.68992647284053,-51.12754452291687,7.6233134
74219,1577396172.61,1.3050793249511716,1.1890802545166017,12.190855868225096,2.116678650646674,-0.0531687954042013,6.552667165616663,-3.0595617024739576,0.0698308817545571,2.482388087972005,-3.591537475585937,4.311561584472656,-7.048797607421875,-2.725368592797256,-2.8859580435403966,-4.560703184546494,-3.645215715680804,-23.16865466889881,-4.410153343563988,22.322557554328387,-8.070409594126113,3.922572783119657,73.7616094523167,0.1630761242910774,4.570014245014234,32.237906969778656,37.341689879294336,37.94072543205439,1577396172.0,-27.68992647284053,-51.12754452291687,7.6233134
74220,1577396172.62,-0.974200655517578,0.4492719415283203,8.144655062561034,-0.5277170829959027,4.118727597418063,3.846022188810023,0.8800971293131507,-7.311492836507162,16.159265071614588,-5.8956146240234375,1.7480850219726562,-6.468963623046875,-9.286647889672256,15.989164026772103,-5.354160215796494,-2.7449471609933034,-22.57356189546131,9.017581031436013,23.366418159386907,-7.785571608451073,4.013795405982902,80.14190634840307,1.875375429347392,1.2463675213675056,32.30979123610986,37.24584419085272,37.9646868541648,1577396172.0,-27.68992647284053,-51.12754452291687,7.6233134
74221,1577396172.63,-1.0268730920410154,3.66707897277832,9.133460348205563,-3.4845561332888715,-3.202741079339748,13.695767818692834,5.773845322672526,11.58594086710612,13.549585262044271,-8.214950561523438,1.839637756347656,-5.919647216796875,-4.007106874047256,-3.481050816977896,-3.767246153296494,-6.590162004743304,-14.70002673921131,0.5031767345610119,22.2422605847085,-7.975463598901102,4.56113114316239,66.22125857512373,3.5061366722581675,-2.908190883190908,32.30979123610986,37.38961272351514,37.86884116572318,1577396172.0,-27.68992647284053,-51.12754452291687,7.6233134
74222,1577396172.64,-0.5288791467285145,0.5151124871826172,10.022906264953612,-0.1111259941287152,0.6782598117735325,7.487602913907679,-4.909082484944661,-3.957216310628255,7.269594307454427,-4.2476654052734375,1.152992248535156,-4.912567138671875,-4.556423280297256,-3.999849645102896,-1.3258399032964938,-7.200513567243304,-4.873366582961309,-9.720211937313987,22.161963615088617,-8.640085565476191,3.3752370459401737,68.54136653733694,3.0169082993849345,-75.19750712250713,32.38167550244107,37.341689879294336,37.9646868541648,1577396172.0,-27.68992647284053,-51.12754452291687,7.6233134
74223,1577396172.65,-2.231156527099609,-2.205897699584961,10.711239242248537,0.1630100959591744,0.97394371680283,10.14875805917135,2.032905228678385,5.451996213785808,13.62141131184896,-10.198593139648438,-3.684043884277344,-4.790496826171875,-2.618557069359756,-0.3835166372903966,-0.9291113876714938,-3.523145403180804,16.19902111235119,-8.743649437313987,23.205824220147136,-9.114815541601256,4.196240651709401,66.31792974021593,3.0576773304577047,-74.15886752136754,32.30979123610986,37.36565130140474,37.82091832150238,1577396172.0,-27.68992647284053,-51.12754452291687,7.6233134
74224,1577396172.66,-1.491348214111328,2.637572258911133,10.265917733459473,-0.2116824638552777,4.6765765842344695,7.604918795255335,-2.919500905354817,-4.931656386311849,12.7930175374349,-1.9283294677734373,-3.165245056152344,-3.630828857421875,-2.603298280297256,1.3407265267721036,-4.865878965796494,-5.308423723493304,27.23112560453869,-1.846676781063988,23.205824220147136,-9.114815541601256,4.196240651709401,62.35441197143501,2.0384515536384704,-86.83027065527065,32.26186839188906,37.341689879294336,37.9646868541648,1577396172.0,-27.68992647284053,-51.12754452291687,7.6233134
74225,1577396172.67,-1.357272921142578,3.319919732055664,12.128606625061034,2.409968354015815,-1.44539706078506,10.834696834806117,0.0421265482584631,-0.4736528951009111,7.492255061848958,-0.3108978271484375,-2.280235290527344,-5.339813232421875,-3.671413514672256,-2.046724645102896,-5.811923887671494,-6.284986223493304,25.94938732328869,-3.311520531063988,23.045230280907365,-5.886651703950815,3.6489049145299135,68.92805119770581,3.0169082993849345,-8.724572649572671,32.30979123610986,37.341689879294336,37.772995477281576,1577396172.0,-27.68992647284053,-51.12754452291687,7.6233134
74226,1577396172.68,2.9235596472167966,-2.0167557684326165,5.879740292053222,0.4419345893673775,-3.5666597316834983,8.960036934903775,0.0564917582194006,0.9221666727701816,3.594494759114583,-9.450912475585938,-3.729820251464844,-5.065155029296875,-4.647976014672256,-5.342623082602897,-2.241367247046494,-5.338941301618304,20.02897716703869,-2.975827171688988,23.205824220147136,-8.735031560701206,3.2840144230769246,68.15468187696808,2.5276799265117016,-1.2463675213675387,32.33375265822026,37.24584419085272,37.725072633060776,1577396172.0,-27.68992647284053,-51.12754452291687,7.6233134
74227,1577396172.69,-0.2942473840332021,2.168308733520508,14.137341817932128,-1.040076238269341,2.979087607183689,12.170661361173302,-1.1154699544270827,8.059281821695963,7.348602962239584,2.0694732666015625,0.0391006469726562,-3.661346435546875,-4.159694764672256,0.6845985970846034,-3.919834043921494,-3.370557512555804,1.4285132998511898,-5.005246117001488,23.045230280907365,-9.304707532051282,3.2840144230769246,69.70142051844357,2.119989615784009,-5.816381766381782,32.30979123610986,37.31772845718393,37.84487974361278,1577396172.0,-27.68992647284053,-51.12754452291687,7.6233134
74228,1577396172.7,0.2276885778808593,3.5808877130126957,14.304935934143066,4.899938080578314,1.5832680393125949,4.4421784021889295,-6.132519533284505,-13.65133883260091,5.828284908040365,3.2901763916015625,1.809120178222656,-4.119110107421875,-10.415798280297256,-4.335543004477897,-2.271884825171494,-4.881177629743304,-15.15779041108631,-2.579098656063988,23.045230280907365,-9.304707532051282,3.2840144230769246,69.50807818825913,1.7938373672018535,-3.323646723646737,32.30979123610986,37.38961272351514,37.86884116572318,1577396172.0,-27.68992647284053,-51.12754452291687,7.6233134
74229,1577396172.71,0.9794678991699218,0.6408080743408202,5.015433492736816,-1.7727019462771527,3.12513390845322,8.861874666837368,0.0469149515787756,7.896476108805338,16.120957845052086,-7.970809936523437,-0.3881454467773437,-3.630828857421875,-5.990749452172256,-2.290865270102896,-4.377597715796494,-4.240308489118304,-11.43464587983631,9.170168922061013,22.08166664546873,-7.405787627551021,3.2840144230769246,68.15468187696808,-3.179984423676012,-8.724572649572671,32.30979123610986,37.341689879294336,37.91676400994399,1577396172.0,-27.68992647284053,-51.12754452291687,7.6233134
74230,1577396172.72,0.2719813085937505,-1.2925097662353515,8.352950606994629,0.0037956855587841,-4.565041823968654,9.06897311044088,-0.6557832356770832,0.5498683146158857,4.488729079182942,-9.008407592773438,-0.952720642089844,-4.180145263671875,-2.755886170922256,2.668241175209604,-0.1814307236089938,-4.804883684430804,-15.35615466889881,0.4726591564360118,22.161963615088617,-7.690625613226061,3.192791800213679,67.86466838169143,-2.160758646856777,-7.685933048433073,32.237906969778656,37.31772845718393,37.86884116572319,1577396172.0,-27.68992647284053,-51.12754452291687,7.6233134
74231,1577396172.73,-0.8425195642089842,-0.9992200628662108,8.211692709045408,0.61910551221894,0.6279815769102512,9.067776009610805,6.769833213297526,10.93471801554362,13.34847232259115,-7.513046264648437,-1.4562606811523438,-2.318572998046875,-5.288845155297256,-8.455416051352897,-2.699130918921494,-1.1275155203683034,-18.88093494233631,-3.189450218563988,22.72404240242782,-7.785571608451073,2.9191239316239352,67.76799721659921,-2.2015276779295467,-8.724572649572671,32.357714080330666,37.38961272351514,37.9646868541648,1577396172.0,-27.68992647284053,-51.12754452291687,7.6233134
74232,1577396172.74,1.3002909216308594,1.9935320123291012,6.471108102111816,2.582350873547065,0.9200741794493136,3.776590340665492,2.07480375773112,-5.90130805867513,17.990829341634115,-3.7593841552734375,-3.195762634277344,-4.729461669921875,-5.868679139672256,5.369046839272103,1.5122948623285062,-6.407056535993304,0.0399634951636905,2.883547828311012,22.72404240242782,-7.785571608451073,2.9191239316239352,66.80128556567702,1.9569134914929305,-70.6274928774929,32.16602270344745,37.19792134663192,37.91676400994399,1577396172.0,-27.68992647284053,-51.12754452291687,7.6233134
74233,1577396172.75,2.834974185791016,-4.240969110717773,5.156691390686034,0.9686589546017524,-0.9330379055116228,14.337413863614708,-3.5252339253743483,-1.7377913716634108,13.164118794759116,-6.1702728271484375,-2.493858337402344,-1.280975341796875,-2.572780702172256,3.263333948647104,-5.232089903296494,-4.057203020368304,13.31510997953869,6.667727515811012,21.921072706228955,-8.355247579801153,3.101569177350434,65.25454692420155,3.750750858694784,-81.42934472934473,32.30979123610986,37.341689879294336,37.9646868541648,1577396172.0,-27.68992647284053,-51.12754452291687,7.6233134
74234,1577396172.76,0.4527435339355474,0.2828749261474608,10.620259579162596,0.4862273200802686,1.5700999301817358,10.35226520028463,-1.0232931905110676,4.400941684977214,12.672110353597008,-1.0433197021484375,2.831459045410156,-3.874969482421875,-5.807643983422256,-2.3976767935403966,1.3139306045160062,-2.897535051618304,38.88884044828869,-7.294064476376488,22.402854523948275,-8.735031560701206,3.6489049145299175,55.394088084795335,3.0169082993849345,-88.49209401709405,32.26186839188906,37.22188276874232,38.22826249737922,1577396172.0,-27.68992647284053,-51.12754452291687,7.6233134
74235,1577396172.77,0.6059724401855469,-3.479612982788085,10.019314962463378,0.4778476142697212,0.702201828375095,3.975309078458461,-0.697681764729817,-4.160723451741536,10.578381001790367,-3.454208374023437,1.1072158813476562,-2.043914794921875,0.112766172827744,1.1881386361471036,-1.8751563095464936,-4.240308489118304,37.11882091703869,2.822512672061012,22.2422605847085,-9.874383503401363,3.831350160256412,55.394088084795335,3.0169082993849345,-88.49209401709405,32.45355976877228,37.43753556773595,37.9646868541648,1577396172.0,-27.68992647284053,-51.12754452291687,7.6233134
74236,1577396172.78,-0.0811634362792959,-0.4222174627685546,15.16445433013916,1.1027342475705024,0.185054269781345,10.394163729337365,-5.193992482503255,5.67944537150065,2.016715865071614,0.2384185791015625,-2.921104431152344,-2.257537841796875,-18.350368592797256,-4.701753941977897,-3.736728575171494,-2.0735604422433034,36.63053966703869,-0.5039033435639881,23.68760603786645,-8.924923551151231,2.9191239316239352,68.15468187696808,3.0169082993849345,4.570014245014226,32.45355976877228,37.58130410039836,37.9646868541648,1577396172.0,-27.68992647284053,-51.12754452291687,7.6233134
74237,1577396172.79,-0.4283226770019521,2.9919141046142577,9.454283370666502,-4.051981926745903,2.227308285894626,9.896169784024863,-0.2523602559407546,2.638809263102213,2.847503841145833,-0.1277923583984375,1.1682510375976562,-2.288055419921875,5.636447813452744,-3.633638707602896,-2.973789122046494,0.6730215890066966,-1.7605736142113095,-2.640133812313988,23.68760603786645,-8.924923551151231,2.9191239316239352,68.15468187696808,2.0384515536384704,5.400925925925918,32.16602270344745,37.341689879294336,37.725072633060776,1577396172.0,-27.68992647284053,-51.12754452291687,7.6233134
74238,1577396172.8,-0.8640673791503906,1.435683025512695,9.107124129943848,1.830571552258003,-2.7382659572694354,2.4466113184486957,-0.8664729817708328,-6.236496291097004,-4.91330084025065,1.4286041259765625,6.173133850097656,-3.142547607421875,-2.008205506859756,4.346707972084603,-1.5852393173589938,-3.797803606305804,-52.34345935639881,6.820315406436013,22.563448463188045,-10.254167484301416,2.736678685897437,67.96133954678365,3.261522485821553,6.647293447293441,32.357714080330666,37.173959924521526,37.89280258783359,1577396172.0,-27.68992647284053,-51.12754452291687,7.6233134
74239,1577396172.81,1.872505118408203,-4.851490534057617,1.407371590881347,-3.0105042045779338,-2.8962832668397485,9.041439791349086,4.380419956461588,14.126188828531902,4.497108784993489,-10.442733764648438,-1.624107360839844,-2.974700927734375,-1.626735780297256,-17.152925816977895,-0.2272070907964938,2.7787344796316966,-85.07356189546131,-11.154538109188987,21.921072706228955,-7.7855716084510735,2.736678685897437,68.54136653733694,1.7122993050563151,6.231837606837594,32.21394554766826,37.19792134663192,37.772995477281576,1577396172.0,-27.68992647284053,-51.12754452291687,7.6233134
74240,1577396172.82,0.9076418493652344,2.0629638604736327,11.549209823303222,-4.4685730156130905,3.438774325933689,8.41894735970846,-0.084766139729817,-3.988340932210286,13.317347701009115,3.2596588134765625,2.205848693847656,-3.722381591796875,-5.502468202172256,12.204984339272103,-0.6239356064214938,0.8256094796316966,-83.88337634858631,-18.814450218563987,22.88463634166759,-7.215895637100995,3.466459668803423,63.90115061291049,1.7122993050563151,5.400925925925918,32.16602270344745,37.58130410039836,37.91676400994399,1577396172.0,-27.68992647284053,-51.12754452291687,7.6233134
74241,1577396172.83,-0.5983109948730458,2.4556129327392577,13.136565523986816,5.340471186047065,2.3637777805235323,13.317483956388148,-2.632196706136067,-6.689000404866537,18.646840596516924,0.2994537353515625,1.1682510375976562,-2.806854248046875,-6.784206483422256,4.972318323647103,-1.9667090439214936,-2.1956307547433034,-63.43659900483631,-6.790524437313988,22.88463634166759,-7.215895637100995,3.466459668803423,66.80128556567702,-2.9353702372393955,-0.8309116809117091,32.16602270344745,37.43753556773595,37.772995477281576,1577396172.0,-27.68992647284053,-51.12754452291687,7.6233134
74242,1577396172.84,-1.042435402832031,1.8223465936279295,14.769411056213375,-1.0915515739626995,4.428776712408298,7.006368380216272,1.3505577555338544,5.432842600504556,20.161173146565755,1.5354156494140625,-1.517295837402344,-3.569793701171875,-5.761867616234756,-2.7333701529153966,-0.0135840439214935,-4.102979387555804,-8.68806384858631,2.4257841564360123,22.804339372047707,-8.450193575026166,3.3752370459401737,63.51446595254163,2.853832175093858,-8.724572649572671,32.30979123610987,37.413574145625546,37.74903405517118,1577396172.0,-27.68992647284053,-51.12754452291687,7.6233134
74243,1577396172.85,0.1726219396972656,0.8993818536376952,12.933058382873536,9.499199469738471,1.652699887457126,5.754200911954554,5.694836667887369,-4.282827736409505,13.492124422200524,-4.0645599365234375,0.1916885375976562,-4.241180419921875,-7.455593202172256,8.695462854897103,-1.4173926376714938,-10.954175676618304,38.58366466703869,11.550540015811013,22.2422605847085,-7.975463598901102,3.466459668803423,67.76799721659921,3.1799844236760126,-81.84480056980057,32.26186839188906,37.24584419085272,37.91676400994399,1577396172.0,-27.68992647284053,-51.12754452291687,7.6233134
74244,1577396172.86,-0.6414066247558593,-8.758827643432616,3.2844256924438464,-1.7391831230349653,-4.737424343499905,7.597736190274866,-7.755788258870442,-4.227761098225911,17.543113631184898,-12.243270874023438,-4.111289978027344,-4.149627685546875,9.390109922827744,-19.65536722322789,1.3597069717035062,-8.940015520368304,68.61296154203869,7.644290015811012,23.045230280907365,-8.165355589351128,4.013795405982902,67.96133954678365,2.4461418643661634,-4.985470085470089,32.16602270344745,37.24584419085272,37.86884116572318,1577396172.0,-27.68992647284053,-51.12754452291687,7.6233134
74245,1577396172.87,1.568441507568359,-3.400604328002929,2.26688998687744,-11.943270598620902,0.84585392798447,7.626466610196742,4.627022727457682,10.39841684366862,12.769075520833336,-11.053085327148438,-4.355430603027344,-4.088592529296875,4.873508360327744,-8.974214879477897,-6.178134825171494,-4.331861223493304,84.81779552641369,-8.163815452938987,23.045230280907365,-8.165355589351128,4.013795405982902,68.54136653733694,1.7122993050563151,-86.83027065527065,32.30979123610986,37.24584419085272,37.772995477281576,1577396172.0,-27.68992647284053,-51.12754452291687,7.6233134
74246,1577396172.88,2.544078684082031,2.803969274291992,8.145852163391112,3.1809012885861283,1.01225094336533,15.688940700772912,-0.3517196248372394,0.4792393656412758,0.7884904134114584,10.751724243164062,2.266883850097656,-3.905487060546875,-6.402736756859756,-2.1840537466653966,-3.263706114233994,-2.7907235281808034,69.02494884672619,-20.050412132626487,22.242260584708504,-8.54513957025118,2.736678685897441,68.73470886752138,2.364603802220625,-85.1684472934473,32.14206128133705,37.46149698984635,37.94072543205439,1577396172.0,-27.68992647284053,-51.12754452291687,7.6233134
74247,1577396172.89,1.1255142004394532,3.6407427545166016,13.476542159729002,-3.257106975574028,9.2279539401915,3.9777032801186167,-1.2866553731282546,-7.823851991780598,-2.903368546549478,-0.3719329833984375,-6.918907165527344,-4.485321044921875,-15.756374452172256,25.602201136147105,-6.361240293921494,-3.2942635672433034,-3.927321661086309,-18.814450218563987,22.72404240242782,-8.545139570251179,4.3786858974359,69.31473585807468,3.0169082993849345,-69.38112535612538,32.07017701500584,37.43753556773595,37.9646868541648,1577396172.0,-27.68992647284053,-51.12754452291687,7.6233134
74248,1577396172.9,2.2603657873535155,-0.5467159490966796,8.783906905822754,0.5089722358517524,-2.075072097406154,8.090941732267053,2.347742746988932,-4.25409731648763,4.971160713704427,-9.099960327148438,8.950233459472656,-6.346893310546875,2.065891172827744,31.797269495522105,-1.9667090439214936,-3.3858163016183034,-49.39851306733631,-1.816159202938988,22.2422605847085,-8.355247579801153,2.736678685897437,68.15468187696808,2.5276799265117016,7.893660968660963,32.26186839188906,37.19792134663192,37.772995477281576,1577396172.0,-27.68992647284053,-51.12754452291687,7.6233134
74249,1577396172.91,-0.4426878869628896,-4.322371967163085,6.437589278869628,6.120980927258002,-2.5323646144959984,15.347766964200646,-1.624237807210286,0.5917668436686191,8.775547151692708,-14.410018920898438,39.376258850097656,-1.921844482421875,-10.659938905297256,-13.429781285727897,-3.706210997046494,-2.9890877859933034,-57.54670642671131,-0.2902802966889881,22.2422605847085,-8.355247579801153,2.736678685897437,67.76799721659921,1.875375429347392,-8.724572649572671,32.26186839188906,37.38961272351514,37.772995477281576,1577396172.0,-27.68992647284053,-51.12754452291687,7.6233134
74250,1577396172.92,-0.3983951562499999,-0.1397016668701171,10.156981557922364,-1.5775745109744188,1.9579605991270488,7.974822951749474,5.9857321695963535,-5.5876676411946615,16.1365201558431,-5.7430267333984375,-0.8459091186523438,-4.790496826171875,-1.0469017959222562,1.6153847298971034,-5.476230528296494,-2.958570207868304,-38.10700916108631,4.912966773623513,22.08166664546873,-9.114815541601256,2.5542334401709423,70.08810517881243,1.7122993050563151,-7.8936609686609795,32.237906969778656,37.46149698984635,37.82091832150238,1577396172.0,-27.68992647284053,-51.12754452291687,7.6233134
74251,1577396172.93,-0.7587225061035155,3.714963005981445,11.570757638244627,3.743538678722846,0.99908283423447,12.39571631722799,-7.209910280354817,23.23612614542643,14.638947017415369,4.4193267822265625,-0.9679794311523438,-5.339813232421875,-11.880642030297256,-14.162203160727897,-3.401035215796494,-2.2871834891183034,0.3451392764136905,6.911868140811012,23.205824220147136,-9.114815541601256,3.466459668803423,68.15468187696808,1.7122993050563151,2.0772792022791817,32.30979123610986,37.341689879294336,37.86884116572318,1577396172.0,-27.68992647284053,-51.12754452291687,7.6233134
74252,1577396172.94,-0.5911283898925771,-3.065416095581054,13.28021762359619,0.1761782050900337,4.125910202398533,3.9489728601967418,4.488159031168619,7.218917038981119,10.896809822591148,-1.8367767333984373,-4.630088806152344,-5.248260498046875,0.997775938452744,6.101468714272103,-4.011386778296494,-0.7002694266183034,3.70207287016369,-17.868405296688987,22.88463634166759,-9.114815541601256,2.371788194444441,66.99462789586147,2.364603802220625,-1.2463675213675387,32.16602270344745,37.58130410039836,37.9646868541648,1577396172.0,-27.68992647284053,-51.12754452291687,7.6233134
74253,1577396172.95,0.5257666845703125,0.6443993768310546,8.2942926663208,-0.7910792656130902,-5.67834559594131,17.30622392220846,4.241556260172525,-23.58488152058919,6.347826668294271,-7.1468353271484375,-3.378868103027344,-5.355072021484375,4.354709532202744,6.711820276772103,-4.774326231421494,-7.017408098493304,-3.3169700985863093,-8.560543968563987,22.804339372047707,-9.399653527276296,2.4630108173076937,64.67451993364823,1.875375429347392,-8.724572649572671,32.285829813999456,37.341689879294336,37.725072633060776,1577396172.0,-27.68992647284053,-51.12754452291687,7.6233134
74254,1577396172.96,-0.0428562097167958,-3.3431434881591797,3.679468966369628,-2.292243706531059,-1.463353573236232,3.898694625333461,-2.844083553059896,0.8503406229654946,4.663505800374349,-7.0552825927734375,-6.155967712402344,-4.912567138671875,-4.358059022484756,-5.724092809165394,-2.882236387671494,-1.1580330984933034,-8.35237048921131,-13.397580101376487,21.921072706228955,-9.114815541601256,3.831350160256412,65.44788925438598,3.3430605479670907,-83.50662393162395,32.357714080330666,37.38961272351514,37.820918321502376,1577396172.0,-27.68992647284053,-51.12754452291687,7.6233134
74255,1577396172.97,2.8277915808105467,1.5290568902587889,2.626020235900878,7.346812177258003,1.315117453375095,11.538592122892052,-0.5755774800618483,-7.962715688069661,15.96533473714193,-5.9566497802734375,-10.153770446777344,-5.370330810546875,-9.561306092797256,-1.2532676138528964,-3.980869200171494,-4.637037004743304,12.61320568266369,4.684084937686012,22.88463634166759,-7.975463598901102,1.6420072115384623,59.454277018668485,3.0984463615304745,-88.07663817663818,32.07017701500584,37.341689879294336,37.9646868541648,1577396172.0,-27.68992647284053,-51.12754452291687,7.6233134
74256,1577396172.98,-1.4171279626464843,0.0494402642822265,11.84369662750244,1.57678617628144,2.866560129156345,2.320915731290492,-7.727057838948567,4.508680759684244,9.948705965169276,-0.2193450927734375,-3.165245056152344,-4.576873779296875,1.791232969702744,-12.605806676352897,-2.973789122046494,-6.834302629743304,26.98698497953869,3.097170875186012,22.2422605847085,-9.114815541601256,3.101569177350434,66.41460090530815,1.9569134914929305,-7.47820512820515,32.16602270344745,37.341689879294336,37.14999850241112,1577396172.0,-27.68992647284053,-51.12754452291687,7.6233134
74257,1577396172.99,-0.1098938562011718,-0.3982754461669922,12.791800484924316,-9.692721038074028,-0.533206228265529,10.79399540658346,9.013200168863932,-3.866236647542317,16.58303876546224,0.1163482666015625,-2.921104431152344,-4.729461669921875,-2.084499452172256,-8.241793004477897,-3.675693418921494,-4.606519426618304,25.52214122953869,-8.072262718563987,22.72404240242782,-9.49459952250131,2.5542334401709423,66.41460090530815,1.9569134914929305,-7.47820512820515,32.30979123610986,37.53338125617755,37.772995477281576,1577396172.0,-27.68992647284053,-51.12754452291687,7.6233134
74258,1577396173.0,-0.2655169641113271,-2.852332147827148,11.577940243225097,4.325329682140815,-0.978527737054592,17.058424050382285,-4.755853578694662,0.1991177714029944,15.07588882039388,-10.808944702148438,-6.400108337402344,-5.889129638671875,-6.494289491234756,-14.497896520102898,-5.033725645483994,-6.834302629743304,41.43705822172619,2.547854468936012,23.205824220147136,-9.114815541601256,3.466459668803423,67.28464139113811,2.3238347711478555,-3.115918803418822,32.16602270344745,37.38961272351514,37.91676400994399,1577396173.0,-27.68987409771127,-51.12760442230989,8.298311
74259,1577396173.01,1.5301342810058594,1.0861295831298827,11.676102511291504,-6.060717119616997,6.632639340582126,4.581042098477991,1.6222996439615882,7.554105271402994,8.629500850423177,-5.8956146240234375,-9.573936462402344,-5.675506591796875,-8.645778749047256,14.524320276772103,-5.293125059546494,-4.057203020368304,50.91276622953869,-12.192135765438987,21.760478766989184,-7.785571608451073,3.2840144230769246,67.96133954678365,2.119989615784009,1.6618233618233518,32.30979123610986,37.38961272351514,38.49183814059364,1577396173.0,-27.68987409771127,-51.12760442230989,8.298311
74260,1577396173.02,1.5492878942871091,0.398993706665039,14.743074837951658,11.337946344738471,-4.366323086175686,17.236792074063928,4.871231296793619,0.8359754130045566,14.373190633138025,-4.7054290771484375,-3.653526306152344,-5.217742919921875,-12.643581483422256,14.066556604897103,-8.741611387671494,-2.1345955984933034,59.12199474516369,-10.483151390438987,22.402854523948275,-9.304707532051282,3.2840144230769246,67.96133954678365,3.0984463615304745,-1.661823361823385,32.30979123610986,37.24584419085272,37.725072633060776,1577396173.0,-27.68987409771127,-51.12760442230989,8.298311
74261,1577396173.03,3.401202878417968,-0.3037044805908203,9.674549923400878,-0.4367374199099657,2.364974881353611,6.814832247403773,-1.1573684834798172,-0.6196991963704419,-1.03828545328776,-3.438949584960937,-3.775596618652344,-6.331634521484375,-2.313381288109756,-10.088106481040398,-3.660434629858994,-2.1651131766183034,15.92436290922619,-21.011715843563987,22.402854523948275,-9.304707532051282,3.2840144230769246,63.32112362235719,1.9569134914929305,18.28005698005697,32.118099859226646,37.14999850241112,37.53338125617756,1577396173.0,-27.68987409771127,-51.12760442230989,8.298311
74262,1577396173.04,1.3577517614746093,-4.73417465270996,9.830173031311034,9.228654682140816,-4.270555019769436,9.750123482755336,2.4530876200358067,-8.807868874104818,3.5011208943684893,-7.238388061523437,6.569862365722656,-6.529998779296875,-6.662136170922256,11.625150354897103,-4.804843809546494,6.257738385881696,-22.26838611421131,-4.532223656063988,21.760478766989184,-8.545139570251179,3.2840144230769246,68.54136653733694,-2.038451553638469,2.908190883190874,32.16602270344745,37.341689879294336,37.91676400994399,1577396173.0,-27.68987409771127,-51.12760442230989,8.298311
74263,1577396173.05,-0.2056619226074209,1.7541118463134764,11.144589742736816,1.82578314893769,-4.062259475335842,0.3433051600014291,-3.597059975179036,-5.53738940633138,6.630342464192708,-0.6465911865234375,0.7104873657226562,-6.713104248046875,-3.854518983422256,-12.758394566977897,-2.210849668921494,-5.888257707868304,-38.25959705171131,2.181643531436012,23.205824220147136,-8.735031560701206,2.371788194444441,80.91527566914081,1.7122993050563151,-8.724572649572671,32.07017701500584,37.24584419085272,37.772995477281576,1577396173.0,-27.68987409771127,-51.12760442230989,8.298311
74264,1577396173.06,0.7639897497558594,0.5570110162353515,7.117542550354003,-7.815666936511528,7.420331686773533,8.608089290860804,-7.408629018147786,7.549316868082681,16.504030110677085,-5.3768157958984375,0.4663467407226562,-6.743621826171875,-3.824001405297256,-11.140962926352897,-5.903476622046494,-4.148755754743304,-19.30818103608631,-1.480465843563988,21.921072706228955,-9.114815541601256,3.831350160256412,80.91527566914081,1.7122993050563151,-8.724572649572671,32.16602270344745,37.24584419085272,37.772995477281576,1577396173.0,-27.68987409771127,-51.12760442230989,8.298311
74265,1577396173.07,-2.1952435021972656,1.155561431274414,13.051571365051268,2.168153986340034,-4.087398592767483,13.122356521085417,0.8525638102213541,-4.216987190755208,21.871830232747392,-3.8051605224609375,-2.203941345214844,-6.362152099609375,-4.358059022484756,4.545072229897103,-3.050083067358994,-10.191236223493304,40.14006115141369,17.562502906436013,21.921072706228955,-9.114815541601256,3.831350160256412,74.2449652777778,1.916144460420162,-46.73878205128207,32.14206128133705,37.341689879294336,37.86884116572319,1577396173.0,-27.68987409771127,-51.12760442230989,8.298311
74266,1577396173.08,-1.4602235925292968,-6.520249091186523,12.071145785217285,-7.329643999499809,-1.182034878167873,6.345568722013148,2.146629807535807,23.96635765177409,20.693883015950515,-10.900497436523438,-2.646446228027344,-3.691864013671875,-11.392360780297256,-4.671236363852897,-3.828281309546494,-6.376538957868304,85.45866466703869,-7.187252952938988,22.402854523948275,-8.924923551151231,2.5542334401709463,69.31473585807468,2.364603802220625,2.908190883190874,32.30979123610986,37.53338125617755,37.9646868541648,1577396173.0,-27.68987409771127,-51.12760442230989,8.298311
74267,1577396173.09,-0.8042123376464843,-2.5315091253662105,12.21479788482666,-3.441460503406059,3.8673364231016576,13.94715899300924,-3.142161659749348,-7.155869728597005,13.834495259602868,-8.428573608398438,-2.676963806152344,-4.546356201171875,-4.586940858422256,-4.640718785727897,-3.095859434546494,-1.6463143484933034,119.27214122953868,-22.995358421688987,22.72404240242782,-9.304707532051282,4.013795405982902,69.70142051844356,3.0169082993849345,-88.49209401709405,32.30979123610986,37.341689879294336,37.725072633060776,1577396173.0,-27.68987409771127,-51.12760442230989,8.298311
74268,1577396173.1,-0.3708618371582021,-1.928170307006836,11.903551669006346,4.344483295422065,-1.5651071437928727,16.14982452035299,0.4539292338053381,-3.4448571553548173,8.227274971516927,0.0553131103515625,-4.202842712402344,-4.058074951171875,-7.028347108422256,4.941800745522103,-8.283847715796494,-1.4021737234933034,99.37468029203868,-17.959958031063987,22.88463634166759,-7.975463598901102,1.2771167200854732,57.32751138663969,1.7122993050563151,-88.49209401709405,32.357714080330666,37.38961272351514,38.0605325426064,1577396173.0,-27.68987409771127,-51.12760442230989,8.298311
74269,1577396173.11,3.186921829833984,0.9185354669189454,9.529700722961424,4.667700519543159,-0.8420582424256852,16.386850484708457,-2.0527999043782548,12.14857825724284,-2.6471889689127592,4.556655883789063,-5.927085876464844,-5.126190185546875,3.042453672827744,-14.558931676352897,-3.645175840796494,1.9242422921316968,59.54924083891369,-14.938717796688987,22.88463634166759,-8.355247579801153,3.466459668803423,57.32751138663969,1.7122993050563151,-78.52115384615387,32.21394554766826,37.38961272351514,37.725072633060776,1577396173.0,-27.68987409771127,-51.12760442230989,8.298311
74270,1577396173.12,5.44944239868164,-2.1939266912841795,3.2844256924438464,1.211670423107612,-0.4051164394471704,8.120869253019007,-0.0536415181477863,-6.262832509358724,1.931721706136068,-5.7735443115234375,1.5344619750976562,-5.858612060546875,-6.585842225609756,4.941800745522103,-5.979770567358994,1.4359610421316966,1.3827369326636898,-1.8924531482514872,22.88463634166759,-8.355247579801153,3.466459668803423,68.73470886752138,4.484593418004632,-35.31374643874646,32.50148261299308,37.413574145625546,37.91676400994399,1577396173.0,-27.68987409771127,-51.12760442230989,8.298311
74271,1577396173.13,0.1630451330566406,-2.2226571112060545,6.892487594299316,2.244768439465034,-0.3488527004334977,7.183539303067835,-0.1158907613118483,11.523691623942057,6.733293135579427,3.8700103759765625,4.189491271972656,-4.332733154296875,2.554172422827744,-12.544771520102897,-6.788486387671494,1.8021719796316968,-25.74739002046131,-2.090817406063988,23.205824220147136,-7.595679618001046,2.736678685897437,67.76799721659921,1.875375429347392,-61.90292022792025,32.45355976877228,37.38961272351514,38.0605325426064,1577396173.0,-27.68987409771127,-51.12760442230989,8.298311
74272,1577396173.14,-0.0715866296386708,0.169150347290039,8.573217159729003,-3.460614116687309,2.560102316656345,12.539368416837364,2.0939573710123693,-5.020241847737631,16.820064729817712,6.7691802978515625,2.083778381347656,-5.126190185546875,5.758518125952744,2.775052698647104,-6.147617247046494,4.579271589006696,-20.58991931733631,-5.203610374813988,22.88463634166759,-9.114815541601256,2.371788194444441,70.86147449955017,-2.8538321750938573,-6.231837606837628,32.30979123610986,37.43753556773595,37.772995477281576,1577396173.0,-27.68987409771127,-51.12760442230989,8.298311
74273,1577396173.15,-2.7925968164062502,0.2697068170166015,16.40704499176025,2.110693146496284,1.3007522434141574,10.228963814786583,-4.315320473225911,-9.590772816975912,15.436216170247398,12.140274047851562,2.953529357910156,-4.225921630859375,-3.366237733422256,-0.1241172232278963,-6.544345762671494,2.1683829171316966,-16.22590564546131,8.346194312686013,22.402854523948275,-7.405787627551021,2.9191239316239352,82.26867198043186,1.7938373672018535,0.0,32.237906969778656,37.43753556773595,37.9646868541648,1577396173.0,-27.68987409771127,-51.12760442230989,8.298311
74274,1577396173.16,0.2659958044433593,-5.545809015502929,8.93234740875244,-0.5301112846560595,-3.676793008050686,10.904128682950647,2.716449802652994,10.440315372721354,14.486915211995443,-10.747909545898438,-6.827354431152344,-5.461883544921875,0.6010474228277438,-1.9551719107278969,-4.957431700171494,5.433763776506696,-7.070632207961309,-16.846066429501487,22.402854523948275,-7.405787627551021,2.9191239316239352,81.68864498987855,1.875375429347392,-0.4154558404558628,32.30979123610986,37.62922694461916,37.725072633060776,1577396173.0,-27.68987409771127,-51.12760442230989,8.298311
74275,1577396173.17,0.2659958044433593,-0.7861361151123047,11.621035873107909,2.302229279308784,1.4037029148008762,12.24248741097799,-6.2881426411946615,-9.734424916585288,11.938287544759117,-5.8956146240234375,-3.775596618652344,-4.759979248046875,-0.4975853896722559,4.056790979897103,-4.682773497046494,6.623949323381696,-9.48152087983631,-4.043942406063988,22.563448463188045,-8.735031560701206,3.466459668803423,80.14190634840307,2.0384515536384704,-65.22656695156695,32.16602270344745,37.53338125617755,37.91676400994399,1577396173.0,-27.68987409771127,-51.12760442230989,8.298311
74276,1577396173.18,-1.692461153564453,5.44836500793457,15.928204659729005,1.758745502453315,5.090773471441501,12.795547994474084,-2.251518642171223,7.32665611368815,9.115523787434896,6.3419342041015625,-2.676963806152344,-3.936004638671875,4.019016172827744,-12.453218785727897,-6.361240293921494,6.654466901506696,-10.97688220796131,-6.210690452938988,22.72404240242782,-8.545139570251179,3.6489049145299135,80.33524867858752,2.119989615784009,-74.7820512820513,32.26186839188906,37.341689879294336,37.772995477281576,1577396173.0,-27.68987409771127,-51.12760442230989,8.298311
74277,1577396173.19,2.994188596191406,-0.4222174627685547,8.538501235656737,0.5317171516232372,-0.1285861476991235,10.096085622647912,0.4575205362955725,-6.709351118977865,6.796739479573568,5.0296783447265625,-2.799034118652344,-4.241180419921875,9.573215391577744,1.6001259408346036,-5.064243223608994,6.303514753069196,-14.54743884858631,3.5091581798735123,21.921072706228955,-9.114815541601256,3.101569177350434,74.53497877305445,2.446141864366164,-93.89301994301997,32.237906969778656,37.341689879294336,37.82091832150238,1577396173.0,-27.68987409771127,-51.12760442230989,8.298311
74278,1577396173.2,1.6235081457519531,-2.8307843328857416,0.0163404263305654,-4.241123857898247,-0.628974294671779,-1.3302418004477885,3.379643662516276,12.129424643961588,6.400499104817708,1.5506744384765625,7.302284240722656,-4.393768310546875,-5.716091249047256,-0.1851523794778963,-6.910556700171494,7.722582135881696,-15.92072986421131,-1.419430687313988,21.921072706228955,-9.114815541601256,3.101569177350434,56.36079973571752,-1.7938373672018528,-8.309116809116826,32.357714080330666,37.341689879294336,37.9646868541648,1577396173.0,-27.68987409771127,-51.12760442230989,8.298311
74279,1577396173.21,0.9339780676269532,-2.4141932440185547,3.523845858459472,6.681224115734565,-4.864317031488186,16.822595186856898,1.093181077067057,-10.194111635335284,11.832942671712242,9.912490844726562,-4.477500915527344,-1.799774169921875,3.622287657202744,6.376126917397103,-3.889316465796494,4.090990339006696,-2.4624779110863093,-3.525143577938988,22.563448463188045,-8.735031560701206,3.831350160256412,67.96133954678365,2.119989615784009,19.110968660968645,32.45355976877228,37.341689879294336,37.86884116572318,1577396173.0,-27.68987409771127,-51.12760442230989,8.298311
74280,1577396173.22,2.7966669592285154,0.705451519165039,10.58674075592041,0.7436039985470649,2.047743161382907,11.964760018399865,1.7707401468912756,-0.4952007100423173,16.511212715657553,13.635635375976562,-1.5478134155273438,-3.752899169921875,6.124729063452744,-14.345308629477897,-4.926914122046494,4.945482526506696,9.13420177641369,9.597415015811013,21.760478766989184,-8.924923551151231,3.6489049145299135,69.31473585807468,3.0169082993849345,2.0772792022791817,32.357714080330666,37.341689879294336,37.91676400994399,1577396173.0,-27.68987409771127,-51.12760442230989,8.298311
74281,1577396173.23,0.6730100866699219,1.363856975708008,15.765398946838378,2.281878565197456,1.4815144687559545,19.250315670255333,1.8293980875651037,12.706427244059242,8.782729756673177,13.483047485351562,7.363319396972656,-4.973602294921875,4.064792540015244,3.583768518959604,-7.368320372046494,7.905687604631696,-1.8673851376488095,-16.800290062313987,22.643745432807933,-9.589545517726322,3.740127537393163,69.31473585807468,3.832288920840324,7.893660968660963,32.237906969778656,37.55734267828795,37.9646868541648,1577396173.0,-27.68987409771127,-51.12760442230989,8.298311
74282,1577396173.24,2.4806323400878902,-3.3742681097412106,10.651384200744628,-0.5756011161990278,-2.393500918206935,1.7080001062904917,-4.444607362874348,-6.047354359944661,1.317608980305989,-3.6983489990234375,-0.3881454467773437,-4.729461669921875,11.129611875952744,-4.060884801352897,-4.438632872046494,10.743822370256696,-44.51570056733631,-15.213375999813987,22.72404240242782,-9.304707532051282,3.6489049145299135,68.15468187696808,3.6692127965492456,4.570014245014226,32.30979123610986,37.05415281396951,37.9646868541648,1577396173.0,-27.68987409771127,-51.12760442230989,8.298311
74283,1577396173.25,-0.5767631799316396,-1.2458228338623047,8.436747665100096,1.0093603828244089,1.6670650974180636,3.817291768888148,1.0213550272623697,8.870916184488932,2.160367964680989,-0.6160736083984375,-3.470420837402344,-3.936004638671875,-1.931911561547256,8.481839808022103,-8.802646543921494,13.154711042131696,-76.83381580171131,-14.816647484188987,22.88463634166759,-10.254167484301416,3.466459668803423,66.22125857512373,1.7122993050563151,5.400925925925918,32.118099859226646,37.341689879294336,37.91676400994399,1577396173.0,-27.68987409771127,-51.12760442230989,8.298311
74284,1577396173.26,-0.1577778894042968,1.0394426507568362,8.976640139465331,0.2910998847775337,2.7636094577696264,10.78681280160299,1.4379461161295568,-14.017651686604816,0.4652731892903642,7.3947906494140625,-1.746177673339844,-4.515838623046875,2.126926329077744,-6.197115270102897,-8.711093809546494,11.293138776506696,-102.86530994233632,-10.300045921688987,23.04523028090736,-9.304707532051284,2.919123931623932,67.76799721659921,1.7122993050563151,0.4154558404558297,32.16602270344745,37.341689879294336,37.91676400994399,1577396173.0,-27.68987409771127,-51.12760442230989,8.298311
74285,1577396173.27,-0.0620098229980458,4.615182830200196,2.7672781338500965,-2.613066728991997,2.06569967383408,0.1218415064369766,2.991782993570964,1.91935166422526,3.66033530476888,19.34242248535156,-16.654014587402344,-6.377410888671875,8.062595274390244,-1.6499961294778966,-5.552524473608994,10.530199323381696,-119.93989490327382,10.665530250186013,22.72404240242782,-8.545139570251179,2.9191239316239352,75.01833459851554,-0.5299974039460016,5.608653846153825,32.16602270344745,37.29376703507353,37.46149698984635,1577396173.0,-27.68987409771127,-51.12760442230989,8.298311
74286,1577396173.28,-0.6438008264160155,0.3918111016845703,5.953960543518066,3.698048847179877,2.2919517307188446,2.919466146329554,3.767504331461588,-15.403894447835285,19.080191097005205,0.8792877197265625,-8.444786071777344,-5.675506591796875,-2.725368592797256,-13.765474645102897,-4.926914122046494,2.5040762765066966,-73.87361072358631,6.301516578311012,22.72404240242782,-8.545139570251179,2.9191239316239352,82.65535664080073,2.4461418643661634,-7.47820512820515,32.26186839188906,37.24584419085272,37.91676400994399,1577396173.0,-27.68987409771127,-51.12760442230989,8.298311
74287,1577396173.29,1.3074735266113282,-0.903451996459961,6.574058773498535,-1.7870671562380902,-0.7103771511170914,4.480485628751429,-6.144490541585286,1.511140281168619,21.73057233479817,-3.026962280273437,-5.606651306152344,-4.576873779296875,3.835910704077744,-4.396578160727897,-4.499668028296494,1.3444083077566966,-16.25642322358631,20.644778297061013,22.2422605847085,-9.114815541601256,4.56113114316239,69.31473585807468,3.6692127965492456,-8.724572649572671,32.16602270344745,37.43753556773595,37.91676400994399,1577396173.0,-27.68987409771127,-51.12760442230989,8.298311
74288,1577396173.3,1.909615244140625,-2.7398046697998044,12.087905196838378,-0.9514907768435588,-4.581801235589748,13.67900840707174,12.03228846232096,12.929087998453776,27.423983882649736,0.9250640869140626,6.127357482910156,-4.149627685546875,-3.335720155297256,2.439359339272104,-7.826084043921494,3.2975333077566966,45.14494396391369,-10.544186546688987,23.205824220147136,-8.54513957025118,2.736678685897437,68.15468187696808,3.6692127965492456,-8.724572649572671,32.285829813999456,37.341689879294336,37.91676400994399,1577396173.0,-27.68987409771127,-51.12760442230989,8.298311
74289,1577396173.31,5.724775589599608,2.9200880548095705,9.770317989807127,4.222379010754096,0.7824075839903295,17.112293587735802,1.4570997294108072,-0.9321425130208336,12.570356783040369,5.3043365478515625,0.9241104125976562,-5.217742919921875,1.4402808212652438,-8.974214879477895,-5.781406309546494,2.824510846819196,66.33940197172619,-22.415524437313987,22.402854523948275,-8.165355589351128,4.3786858974359,67.96133954678365,2.69075605080278,-46.94650997150998,32.30979123610986,37.24584419085272,37.82091832150238,1577396173.0,-27.68987409771127,-51.12760442230989,8.298311
74290,1577396173.32,3.761530228271484,1.473990252075195,11.060792684631346,2.472217597179877,4.666999777593845,8.569782064298304,-3.8795757710774734,2.471215146891276,-2.312000736490885,4.6634674072265625,0.3442764282226562,-5.431365966796875,-4.495388124047256,5.491117151772103,-5.598300840796494,3.5416739327566966,34.21965099516369,-18.661862327938987,22.402854523948275,-8.165355589351128,4.3786858974359,68.15468187696808,2.69075605080278,-8.724572649572671,32.16602270344745,37.341689879294336,37.19792134663192,1577396173.0,-27.68987409771127,-51.12760442230989,8.298311
74291,1577396173.33,2.988203092041015,1.3997700006103515,8.865309762268065,7.282168732433783,1.0996393039610324,16.305447628263146,-5.253847524007162,-3.691459926350911,1.4540784749348954,-0.5245208740234375,-1.6698837280273438,-5.492401123046875,4.476779844702744,6.498197229897103,-5.476230528296494,5.159105573381696,-5.544753301711309,-7.980709984188988,23.366418159386907,-8.545139570251179,4.013795405982902,67.76799721659921,1.7122993050563151,-8.724572649572671,32.30979123610986,37.341689879294336,37.86884116572318,1577396173.0,-27.68987409771127,-51.12760442230989,8.298311
74292,1577396173.34,1.8449717993164056,-2.2813150518798824,6.275980666809081,-0.0213434318728563,-2.254637221917873,0.8137657862221328,4.500130039469401,-1.6994841451009115,4.341485677083334,1.3980865478515625,0.2679824829101559,-6.148529052734375,4.232639219702744,6.818631800209603,-7.795566465796494,9.278978620256696,-32.09504627046131,0.991457984561012,23.286121189767023,-9.779437508176349,4.469908520299144,74.9216634334233,1.875375429347392,-6.647293447293458,32.357714080330666,37.24584419085272,37.86884116572318,1577396173.0,-27.68987409771127,-51.12760442230989,8.298311
74293,1577396173.35,-0.4115632653808583,-0.0606930120849599,7.050504903869628,0.092381146984565,0.3813788059141574,8.430918368009241,1.3972446879069007,-0.4712586934407549,7.726886824544271,1.5506744384765625,-1.2426376342773438,-5.828094482421875,-1.016384217797256,-25.36215433260289,-9.321445372046494,4.243578229631696,-29.53156970796131,-3.189450218563988,21.921072706228955,-8.735031560701206,3.831350160256412,81.49530265969412,1.9569134914929305,-8.309116809116826,32.16602270344745,37.58130410039836,37.91676400994399,1577396173.0,-27.68987409771127,-51.12760442230989,8.298311
74294,1577396173.36,2.128684696044922,3.968748381958008,5.71454037750244,-5.284995781726372,3.7715683566954072,6.429365780118617,0.8489725077311194,-5.915673268636068,7.449159431966145,6.6165924072265625,-0.2660751342773437,-7.506561279296875,13.723606016577744,3.995755823647104,-2.790683653296494,1.0392325265066966,-18.63679431733631,1.754397437686012,21.921072706228955,-8.735031560701206,3.831350160256412,70.86147449955017,-2.5276799265117016,-8.724572649572671,32.30979123610986,37.341689879294336,37.91676400994399,1577396173.0,-27.68987409771127,-51.12760442230989,8.298311
74295,1577396173.37,0.4766855505371093,-0.9202114080810548,6.954736837463378,-1.468638335437309,-4.167604348382717,5.723076290372523,-4.145332155354817,12.92669379679362,11.315795113118492,4.5108795166015625,-5.454063415527344,-6.194305419921875,-1.535183045922256,4.728177698647103,-7.795566465796494,1.9547598702566968,-5.300612676711309,-11.764889671688987,22.88463634166759,-9.874383503401363,3.831350160256412,80.14190634840307,-2.5276799265117016,-8.724572649572671,32.357714080330666,37.58130410039836,37.91676400994399,1577396173.0,-27.68987409771127,-51.12760442230989,8.298311
74296,1577396173.38,1.0919953771972657,0.0889445916748046,10.698071133117674,2.698469654064644,0.9476074985411104,8.989964455655727,-0.624658614095052,-7.398881197102863,8.300298122151693,-2.447128295898437,4.540443420410156,-6.697845458984375,-6.372219178734756,1.1118446908346034,-5.735629942358994,-2.4245125906808034,0.0552222842261904,-5.874997093563987,23.36641815938691,-9.304707532051284,2.189342948717946,73.37492479194783,-0.1630761242910769,-4.985470085470105,32.21394554766826,37.29376703507353,37.74903405517118,1577396173.0,-27.68987409771127,-51.12760442230989,8.298311
74297,1577396173.39,1.4056357946777345,1.6966510064697264,8.010579769592285,-2.0384583305544965,-1.8595939479920915,13.05412177377096,-2.10068393758138,9.323420298258462,3.3981702229817703,0.0553131103515625,2.297401428222656,-6.529998779296875,-1.840358827172256,-6.502291051352897,-10.053867247046494,1.7411368233816966,-19.76594470796131,-29.068356468563987,22.72404240242782,-8.924923551151231,3.6489049145299135,66.22125857512373,2.2015276779295467,-73.53568376068378,32.30979123610986,37.43753556773595,37.86884116572318,1577396173.0,-27.68987409771127,-51.12760442230989,8.298311
74298,1577396173.4,0.7232883215332031,1.94325377746582,13.459782748107909,1.1147052558712836,5.6510166599180645,12.90089286752096,0.5089958719889319,-22.184273549397783,13.178484004720056,0.0553131103515625,5.471229553222656,-7.079315185546875,-9.774929139672256,-3.755709020102896,-4.560703184546494,-1.0054452078683034,-30.14192127046131,-5.874997093563988,22.72404240242782,-8.924923551151231,3.6489049145299135,66.22125857512373,1.875375429347392,-72.70477207977208,32.357714080330666,37.0062299697487,37.772995477281576,1577396173.0,-27.68987409771127,-51.12760442230989,8.298311
74299,1577396173.41,1.1745953344726563,1.4141352105712892,7.516177126770018,5.8911375678830025,-0.7702321926209977,5.541116964200648,3.501747947184244,-10.309033315022786,11.48338922932943,-6.2923431396484375,0.3747940063476562,-7.796478271484376,7.559055235327744,12.754300745522103,-3.340000059546494,-5.552564348493304,-25.56428455171131,18.935793922061013,22.48315149356816,-9.589545517726322,4.28746327457265,64.67451993364823,2.2015276779295467,-77.69024216524217,32.21394554766825,37.341689879294336,38.0605325426064,1577396173.0,-27.68987409771127,-51.12760442230989,8.298311
74300,1577396173.42,0.8573636145019531,-1.0135852728271484,6.372945834045409,-0.8066415764041063,0.027036960211033,5.645264736417444,-0.3804500447591146,4.434460508219401,10.075598653157552,-4.4918060302734375,1.2292861938476562,-8.238983154296875,-11.163478944359756,1.4017616830221036,-6.849521543921494,-2.8059823172433034,-22.37519763764881,-9.277707054501487,22.72404240242782,-9.684491512951334,2.9191239316239352,61.58104265069726,2.2830657400750862,-42.79195156695158,32.30979123610986,37.31772845718393,37.86884116572319,1577396173.0,-27.68987409771127,-51.12760442230989,8.298311
74301,1577396173.43,1.508586466064453,-1.3272256903076172,8.08958842437744,5.551160932140815,-5.568212319574123,7.624072408536585,3.1426176981608065,7.590018296305337,3.309584761555989,-6.0482025146484375,-0.7238388061523438,-8.055877685546875,2.279514219702744,13.517240198647103,-5.598300840796494,-1.7683846609933034,-18.88093494233631,-6.698971702938988,22.88463634166759,-10.254167484301416,3.101569177350434,61.38770032051284,1.7938373672018535,2.492735042735028,32.45355976877228,37.341689879294336,37.725072633060776,1577396173.0,-27.68987409771127,-51.12760442230989,8.298311
74302,1577396173.44,2.030522427978516,-1.6743849310302734,1.4552556240844716,-0.6833401909060589,1.6838245090391573,0.3840065882240853,1.8928444315592443,-5.51823579305013,14.658100630696618,-6.8721771240234375,1.931190490722656,-7.567596435546875,-13.223415467797256,-20.05209573885289,-2.912753965796494,-5.064283098493304,-5.300612676711309,-17.319088890438987,22.88463634166759,-10.254167484301416,3.101569177350434,68.15468187696808,2.364603802220625,17.864601139601124,32.26186839188906,37.24584419085272,37.725072633060776,1577396173.0,-27.68987409771127,-51.12760442230989,8.298311
74303,1577396173.45,0.0493205541992188,2.113242095336914,11.045230373840331,0.1474477851681587,4.276744906988376,9.259312142423305,-4.528404420979817,-20.374257094319656,10.307836214192712,-2.019882202148437,-1.532554626464844,-7.399749755859375,-10.049587342797256,9.122708948647103,-4.408115293921494,-9.763990129743304,14.53581310453869,7.613772437686012,22.88463634166759,-9.684491512951336,3.2840144230769246,61.96772731106615,1.7122993050563151,18.6955128205128,32.16602270344745,37.341689879294336,37.725072633060776,1577396173.0,-27.68987409771127,-51.12760442230989,8.298311
74304,1577396173.46,0.3497928625488281,-3.628053485717773,7.831014645080565,-1.0053603141970753,-1.5818665554139666,8.90975870004049,5.008897892252604,11.8169813273112,10.996169191487631,-8.550643920898438,-1.2426376342773438,-7.262420654296875,-7.287746522484756,-4.030367223227897,-5.247348692358994,-8.222852434430804,29.84037853422619,-12.390500023251487,23.205824220147136,-9.114815541601256,4.926021634615379,63.32112362235719,2.7722941129483187,5.400925925925918,32.30979123610986,37.29376703507353,37.725072633060776,1577396173.0,-27.68987409771127,-51.12760442230989,8.298311
74305,1577396173.47,-1.4314931726074218,2.438853521118164,10.009738155822753,4.744314972668159,3.92958566626572,8.928912313321742,-8.234628590901693,-27.98302997029622,18.49840009358724,-9.344100952148438,-0.9069442749023438,-8.330535888671875,-19.296413514672256,-1.0396445669778964,-5.232089903296494,-12.327466692243304,62.08219982328869,-2.548581077938988,22.88463634166759,-9.874383503401363,2.736678685897437,62.54775430161945,2.9353702372393964,5.816381766381765,32.50148261299308,37.341689879294336,37.9646868541648,1577396173.0,-27.68987409771127,-51.12760442230989,8.298311
74306,1577396173.48,1.448731424560547,3.1044415826416016,17.75498052642822,-0.2212592704959027,2.7276964328672824,9.228187520841274,3.654976853434244,4.8630226053873695,21.15356973470052,-3.7899017333984375,-1.2426376342773438,-8.788299560546875,-13.620143983422256,4.697660120522103,-4.438632872046494,-16.264234270368302,94.46135021391368,20.034426734561013,22.88463634166759,-9.874383503401363,2.736678685897437,62.54775430161945,1.9569134914929305,-0.8309116809117091,32.45355976877228,37.10207565819032,37.86884116572318,1577396173.0,-27.68987409771127,-51.12760442230989,8.298311
74307,1577396173.49,1.9670760839843748,-2.3208193792724607,7.974666744689941,0.1354767768673778,-2.187599575433498,15.07003957162252,0.1618366312662761,13.556368833414714,13.645353328450524,-10.457992553710938,2.419471740722656,-7.338714599609375,-9.561306092797256,-4.366060582602897,-3.675693418921494,-9.229932512555804,118.50920177641368,-24.71960158575149,22.804339372047707,-8.829977555926218,3.3752370459401737,81.10861799932525,-0.8153806214553871,-1.6618233618233769,32.285829813999456,37.29376703507353,37.725072633060776,1577396173.0,-27.68987409771127,-51.12760442230989,8.298311
74308,1577396173.5,1.4200010046386715,1.5290568902587889,13.869191231994629,2.390814740734565,2.160270639410251,17.17933123422018,-5.332856178792317,-11.961032460530598,1.633643599446614,-0.8602142333984375,1.6565322875976562,-7.079315185546875,-4.831081483422256,11.594632776772103,-4.499668028296494,-7.383619035993304,66.84294201078869,-18.539792015438987,23.68760603786645,-8.165355589351128,4.013795405982902,80.52859100877194,3.0169082993849345,-85.1684472934473,32.30979123610986,37.24584419085272,37.725072633060776,1577396173.0,-27.68987409771127,-51.12760442230989,8.298311
74309,1577396173.51,1.7623718420410155,-3.903386676635742,12.58350494049072,7.947756793957221,-3.65524519310928,12.343043880704553,2.1705718241373693,7.412847373453776,-10.09555033365885,-5.5599212646484375,5.837440490722656,-6.896209716796875,-9.958034608422256,28.714994104897105,-4.072421934546494,-5.338941301618304,13.55925060453869,-11.642819359188987,21.599884827749413,-10.254167484301416,3.466459668803423,67.76799721659921,1.7122993050563151,-88.49209401709405,32.16602270344745,37.24584419085272,37.772995477281576,1577396173.0,-27.68987409771127,-51.12760442230989,8.298311
74310,1577396173.52,5.174109207763672,-2.586575763549804,7.385693136291503,4.184071784191596,-6.008745425042872,13.16904345345846,-5.469325673421224,3.347492954508464,4.58569424641927,-13.769149780273438,8.400917053222656,-9.551239013671877,0.051731016577744,-10.774751988852897,-4.835361387671494,-4.301343645368304,-21.68855212983631,-18.600827171688987,21.599884827749413,-10.254167484301416,3.466459668803423,63.51446595254163,1.7122993050563151,-88.49209401709405,32.357714080330666,37.24584419085272,37.91676400994399,1577396173.0,-27.68987409771127,-51.12760442230989,8.298311
74311,1577396173.53,1.9993978063964843,2.1635203302001957,4.339071523742675,-1.7439715263552782,1.57369123267197,9.610062685636194,-1.211238020833333,-16.51600111897786,14.612610799153648,-5.422592163085937,5.394935607910156,-8.116912841796875,-5.899196717797256,9.015897425209603,-3.767246153296494,-9.153638567243304,-3.04231189546131,10.741824195498513,23.12552725052725,-9.019869546376244,4.10501802884616,71.92485731556457,2.405372833293395,-86.62254273504277,32.237906969778656,37.341689879294336,37.74903405517118,1577396173.0,-27.68987409771127,-51.12760442230989,8.298311
74312,1577396173.54,2.274730997314453,-1.3703213201904296,7.328232296447753,11.055430548840034,-2.23069520531631,16.60232863412252,0.2384510843912756,7.254830063883463,16.987658846028648,-4.4002532958984375,-1.822471618652344,-6.529998779296875,-13.803249452172256,1.0355507455221036,-7.765048887671494,-8.055005754743304,43.37492443266369,-2.334958031063988,22.2422605847085,-9.494599522501307,3.466459668803423,58.4875653677463,3.0169082993849345,-85.1684472934473,32.50148261299308,37.341689879294336,37.91676400994399,1577396173.0,-27.68987409771127,-51.12760442230989,8.298311
74313,1577396173.55,-0.9813832604980468,0.4349067315673828,18.29846430328369,-2.5987015190310587,3.287939621343845,7.217058126310023,3.130646689860025,2.0618066630045564,13.652535933430991,4.8770904541015625,8.370399475097656,-5.889129638671875,-0.1313744521722559,3.080228479897104,-4.926914122046494,-6.010328020368304,43.16130138578869,-6.698971702938988,23.205824220147136,-9.494599522501307,2.371788194444441,67.76799721659921,1.7122993050563151,-106.77215099715102,32.26186839188906,37.38961272351514,37.772995477281576,1577396173.0,-27.68987409771127,-51.12760442230989,8.298311
74314,1577396173.56,-2.16651308227539,-3.626856384887695,14.447390932922362,-2.680104375476372,-7.756512636956935,6.4126063684975225,2.845736692301432,16.427016623942055,8.99820790608724,-9.237289428710938,2.495765686035156,-6.743621826171875,-13.406520936547256,12.967923792397103,-6.208652403296494,-3.5994393484933034,37.91227794828869,-9.231930687313987,22.72404240242782,-9.494599522501307,3.1015691773504264,68.3480242071525,1.7938373672018535,-6.647293447293474,32.118099859226646,37.341689879294336,37.86884116572318,1577396173.0,-27.68987409771127,-51.12760442230989,8.298311
74315,1577396173.57,-0.667742843017578,-1.633683502807617,13.550762411193846,-0.5995431328005901,-0.368006313714748,13.835828615811977,-3.0835037190755203,-5.749276253255207,7.872933125813802,-4.3087005615234375,-0.4796981811523437,-7.170867919921875,-0.1161156631097561,-7.021089879477897,-6.056064512671494,0.8256094796316966,-0.3415062313988102,-25.36047072637649,24.008793916346,-8.924923551151231,1.4595619658119638,80.3352486785875,1.7122993050563151,-6.231837606837619,32.30979123610986,37.38961272351514,37.74903405517118,1577396173.0,-27.68987409771127,-51.12760442230989,8.298311
74316,1577396173.58,-3.519237020263672,2.541804192504883,13.727933334045408,3.4442634712033144,0.874584347906345,6.666391744474085,2.9965713968912757,2.4927629618326823,15.318900288899744,2.5882720947265625,0.2832412719726562,-7.018280029296875,-7.730251405297256,15.928128870522103,-6.605380918921494,2.4430411202566966,-14.51692127046131,-6.851559593563988,23.045230280907365,-8.924923551151231,1.824452457264953,68.15468187696808,-3.5061366722581666,-1.2463675213675387,32.30979123610986,37.43753556773595,37.9646868541648,1577396173.0,-27.68987409771127,-51.12760442230989,8.298311
74317,1577396173.59,-0.5264849450683583,-3.312018866577148,5.470331808166503,-0.8581169120974651,-0.5930612697694352,9.611259786466274,-6.822049611409505,-8.293115517171223,15.745068184407554,4.3582916259765625,-2.158164978027344,-6.621551513671875,-9.256130311547256,-11.842867223227897,-8.863681700171494,-0.2730233328683034,-3.866286504836309,-5.630856468563988,22.72404240242782,-9.684491512951334,3.2840144230769246,67.96133954678365,-3.4245986101126284,-0.8309116809117091,32.357714080330666,37.53338125617755,37.91676400994399,1577396173.0,-27.68987409771127,-51.12760442230989,8.298311
74318,1577396173.6,1.0453084448242187,-1.4840458990478516,16.48365944488525,-3.125425884265434,2.9551455905821262,17.148206612638145,-6.005626845296224,-8.599573329671223,11.519302254231771,4.465103149414063,1.046180725097656,-5.873870849609375,-1.260524842797256,9.855130823647103,-3.309482481421494,-1.2190682547433034,11.11784435453869,17.898196265811013,22.643745432807933,-9.399653527276296,3.7401275373931626,67.96133954678365,-3.4245986101126284,-0.8309116809117091,32.237906969778656,37.10207565819032,37.91676400994399,1577396173.0,-27.68987409771127,-51.12760442230989,8.298311
74319,1577396173.61,2.267548392333984,-2.727833661499023,6.758412301330566,2.494962512951361,-3.578630739984279,15.78470876717916,2.5153368631998694,16.665239689127603,13.671689546712242,4.0531158447265625,2.846717834472656,-5.980682373046875,2.813571836890244,-4.152437535727897,-5.186313536108994,1.985277448381696,22.69926525297619,-1.4194306873139872,22.08166664546873,-9.304707532051282,4.013795405982902,68.73470886752139,-0.2446141864366158,-33.236467236467256,32.45355976877228,37.38961272351514,37.43753556773595,1577396173.0,-27.68987409771127,-51.12760442230989,8.298311
74320,1577396173.62,1.412818399658203,1.394981597290039,17.185160531311034,2.728397174816596,5.382866073980564,15.656618978360802,-1.787043520100911,-3.957216310628255,5.086082393391927,7.0133209228515625,2.602577209472656,-5.858612060546875,7.894748594702744,10.221341761147103,-5.110019590796494,5.708421979631696,-11.80085681733631,-23.575192406063987,22.72404240242782,-8.545139570251179,3.6489049145299135,70.86147449955017,-1.8753754293473912,-68.55021367521368,32.118099859226646,37.24584419085272,37.9646868541648,1577396173.0,-27.68987409771127,-51.12760442230989,8.298311
74321,1577396173.63,1.0153809240722655,2.0318392388916013,16.004819112854,-1.5308875786013716,-1.739883864984279,13.61436496224752,1.9191806498209631,-5.649916884358724,8.143477913411457,4.1751861572265625,2.694129943847656,-7.201385498046875,2.310031797827744,15.409330042397103,-5.781406309546494,5.891527448381696,-31.91194080171131,-17.868405296688987,22.88463634166759,-9.494599522501307,3.831350160256412,69.894762848628,-3.261522485821551,-68.13475783475786,32.357714080330666,37.341689879294336,37.725072633060776,1577396173.0,-27.68987409771127,-51.12760442230989,8.298311
74322,1577396173.64,-0.3780444421386718,-3.149213153686523,9.568007949523924,4.7275555610470645,-0.8707886623475602,8.76371239877096,0.1043757914225256,-8.041724342854817,10.485007137044274,-0.6465911865234373,0.6647109985351562,-6.041717529296875,-1.748806092797256,-11.263033238852897,-6.056064512671494,4.731859479631696,-26.35774158296131,-14.999752952938987,22.88463634166759,-9.494599522501307,3.831350160256412,67.96133954678365,2.609217988657241,-100.5403133903134,32.09413843711624,37.38961272351514,37.9646868541648,1577396173.0,-27.68987409771127,-51.12760442230989,8.298311
74323,1577396173.65,1.0608707556152344,-1.413416950073242,11.352885287170407,2.230403229504096,-1.1676696682069352,15.867308724454553,4.3876025614420575,-16.47170838826497,23.167093330891923,9.973526000976562,-1.822471618652344,-5.034637451171875,5.819553282202744,4.178861292397103,-8.375400450171494,3.160204206194196,16.53471447172619,18.386477515811013,22.2422605847085,-9.494599522501307,1.2771167200854732,62.06439847615836,2.405372833293395,-40.50694444444446,32.30979123610986,37.36565130140474,37.725072633060776,1577396173.0,-27.68987409771127,-51.12760442230989,8.298311
74324,1577396173.66,-0.6916848596191405,2.4987085626220704,9.69849194000244,-0.1015491874880902,-0.743895974359279,13.25044630990377,-3.1445558614095046,15.471730161539714,13.209608626302089,12.079238891601562,5.227088928222656,-5.156707763671875,2.462619688452744,-11.690279332602897,-7.642978575171494,0.0321524483816966,55.49040294828869,5.904788062686012,23.68760603786645,-9.304707532051282,1.824452457264953,67.76799721659921,3.6692127965492456,7.893660968660963,32.26186839188906,37.38961272351514,37.91676400994399,1577396173.0,-27.68987409771127,-51.12760442230989,8.298311
74325,1577396173.67,1.3912705847167968,-1.3775039251708985,8.542092538146973,-0.8245980888552776,-2.1564749538514665,16.097152083829553,0.2264800760904944,11.135830954996743,6.276000618489583,3.0460357666015625,2.388954162597656,-7.262420654296875,-2.481227967797256,12.845853479897103,-9.596103575171494,10.774339948381696,49.84465099516369,-14.725094749813987,21.921072706228955,-10.633951465201466,3.466459668803423,67.76799721659921,3.6692127965492456,7.893660968660963,32.30979123610986,37.43753556773595,37.91676400994399,1577396173.0,-27.68987409771127,-51.12760442230989,8.298311
74326,1577396173.68,1.5253458776855469,-1.3715184210205078,5.981493862609862,9.27653871534394,-4.258584011468654,12.163478756192834,-2.06237671101888,37.280513083903,9.41958739827474,4.495620727539063,4.174232482910156,-5.095672607421875,17.385715391577744,11.564115198647103,-3.156894590796494,15.870775495256696,28.17717052641369,-26.077633812313987,21.921072706228955,-10.633951465201466,3.466459668803423,69.50807818825913,1.7938373672018535,6.647293447293441,32.33375265822026,37.43753556773595,37.86884116572318,1577396173.0,-27.68987409771127,-51.12760442230989,8.298311
74327,1577396173.69,5.126225174560546,0.025498247680664,4.519833749084471,2.374055329113472,2.0824590854551737,9.5933032740151,-2.217999818929036,-14.376781935628252,7.991446107991536,7.959365844726562,4.891395568847656,-5.065155029296875,9.145969297827744,-8.318086949790393,-6.513828184546494,10.316576276506696,-0.2194359188988102,-26.45910353887649,23.84819997710623,-10.254167484301416,2.371788194444441,68.25135304206029,1.916144460420162,9.76321225071224,32.30979123610986,37.341689879294336,37.79695689939198,1577396173.0,-27.68987409771127,-51.12760442230989,8.298311
74328,1577396173.7,1.479856046142578,6.394074663696289,8.194933297424315,3.2024491035275333,8.121832773199314,14.921599068692831,-4.73669996541341,14.820507309977213,-2.857878715006509,18.88465881347656,7.699012756347656,-5.156707763671875,-2.053981874047256,8.542874964272103,-7.185214903296494,12.086595807756696,-30.78279041108631,5.111331031436012,22.402854523948275,-10.064275493851389,5.108466880341885,67.76799721659921,-2.5276799265117016,12.879131054131037,32.118099859226646,37.341689879294336,37.91676400994399,1577396173.0,-27.68987409771127,-51.12760442230989,8.298311
74329,1577396173.71,0.5317521887207031,0.638413872680664,7.835803048400878,1.97901205518769,-2.728689150628811,6.194734017423304,2.0676211527506507,6.634731833902994,7.810683882649739,12.384414672851562,8.461952209472656,-6.316375732421875,12.991184141577744,10.007718714272103,-11.457675840796494,13.154711042131696,-58.24861072358631,-18.783932640438987,22.402854523948275,-11.203627436551546,2.5542334401709463,67.76799721659921,-2.5276799265117016,12.879131054131037,32.357714080330666,37.58130410039836,37.772995477281576,1577396173.0,-27.68987409771127,-51.12760442230989,8.298311
74330,1577396173.72,2.831382883300781,-0.6329072088623047,6.824252846984862,-2.597504418200981,2.843815213384861,5.343595327237757,-0.3038355916341149,-6.3813454915364565,6.781177168782552,2.695083618164062,10.079383850097656,-5.294036865234375,2.447360899390244,3.690580042397104,-9.062045957983994,8.943285260881696,-72.33247302827381,18.249148414248516,23.045230280907365,-8.924923551151231,3.2840144230769246,73.66493828722449,-0.2853832175093851,8.932300569800553,32.16602270344745,37.36565130140474,37.70111121095037,1577396173.0,-27.68987409771127,-51.12760442230989,8.298311
74331,1577396173.73,-0.9382876306152342,-0.3479972113037109,12.89714535797119,2.7451565864376897,-1.7255186550233417,11.562534139493614,11.8551175394694,10.767123899332685,9.484230843098958,13.666152954101562,2.816200256347656,-6.011199951171875,4.232639219702744,27.982572229897105,-9.412998106421494,7.844652448381696,-43.26447986421131,-15.060788109188987,23.045230280907365,-8.924923551151231,3.2840144230769246,69.70142051844356,3.1799844236760126,-75.19750712250713,32.26186839188906,37.38961272351514,38.0605325426064,1577396173.0,-27.68987409771127,-51.12760442230989,8.298311
74332,1577396173.74,0.6849810949707031,-4.372650202026367,11.51808520172119,0.4251751777462838,-10.509844546136623,8.713434163907678,2.608710727945963,-24.43721731160481,18.74500286458333,9.454727172851562,2.816200256347656,-5.736541748046875,21.536106016577744,-12.025972691977897,-9.321445372046494,8.577074323381696,-23.42805408296131,1.205081031436012,22.402854523948275,-8.924923551151231,3.6489049145299135,69.70142051844356,3.1799844236760126,-75.19750712250713,32.30979123610986,37.38961272351514,37.91676400994399,1577396173.0,-27.68987409771127,-51.12760442230989,8.298311
74333,1577396173.75,-0.1098938562011709,-2.3016657659912108,11.285847640686034,-9.568222551745905,5.526518173589939,0.640186165860804,-6.484467177327474,30.555200620524086,7.3725449788411455,5.9452056884765625,4.677772521972656,-4.882049560546875,6.521457579077744,-6.837984410727897,-9.443515684546494,12.513841901506696,-18.20954822358631,-6.576901390438988,22.563448463188045,-10.254167484301416,2.371788194444441,68.15468187696808,3.6692127965492456,-78.52115384615387,32.64525114565549,37.53338125617755,37.772995477281576,1577396173.0,-27.68987409771127,-51.12760442230989,8.298311
74334,1577396173.76,0.9950302099609376,1.3482946649169922,3.702213882141112,5.119007532482612,0.4472193515684544,9.594500374845175,-0.4834007161458332,-18.71986374715169,2.2669099385579434,6.631851196289063,2.358436584472656,-6.758880615234375,0.7688941025152438,7.734159143959604,-9.565585997046494,10.408129010881696,-37.95442127046131,-31.99804396856399,23.68760603786645,-10.823843455651492,4.013795405982902,67.57465488641476,2.2015276779295467,-4.570014245014251,32.21394554766826,37.43753556773594,37.82091832150238,1577396173.0,-27.68987409771127,-51.12760442230989,8.298311
74335,1577396173.77,0.0265756384277343,7.519349443969726,10.11987143218994,-7.109377446765434,9.86720578345322,-1.564873563143101,5.6445584330240886,-1.8311652364095048,3.4723904744466143,21.35658264160156,-9.818077087402344,-7.628631591796875,5.392307188452744,-10.683199254477897,-8.711093809546494,7.203783307756696,-55.07478259858631,11.703127906436013,22.563448463188045,-8.735031560701206,3.466459668803423,68.3480242071525,1.9569134914929305,-8.309116809116826,32.357714080330666,37.24584419085272,37.9646868541648,1577396173.0,-27.68987409771127,-51.12760442230989,8.298311
74336,1577396173.78,0.8813056311035157,3.827490484008789,8.264365145568847,-1.3704760673709029,-2.1516865505311538,1.6888464930092415,2.620681736246744,7.934783335367838,4.906517268880209,15.344619750976562,-25.595664978027344,-7.140350341796875,-7.425075624047256,19.437650354897105,-8.283847715796494,5.586351667131696,-51.26008533296131,-4.043942406063988,23.84819997710623,-10.633951465201466,5.290912126068384,68.3480242071525,1.9569134914929305,-8.309116809116826,32.30979123610986,37.38961272351514,37.725072633060776,1577396173.0,-27.68987409771127,-51.12760442230989,8.298311
74337,1577396173.79,3.762727329101562,-3.657981006469726,5.266824667053222,3.906344391613471,-9.437242202386622,14.399663106778773,-4.578682655843099,-19.395028615315752,10.446699910481774,-5.7125091552734375,12.276649475097656,-5.156707763671875,7.040256407202744,-2.473970738852896,-6.483310606421494,2.4430411202566966,-36.91682361421131,18.905276343936013,22.242260584708504,-9.49459952250131,4.926021634615379,69.70142051844356,2.364603802220625,-5.400925925925935,32.26186839188906,37.19792134663192,37.62922694461916,1577396173.0,-27.68987409771127,-51.12760442230989,8.298311
74338,1577396173.8,1.3242329382324218,-0.5826289739990234,7.155849776916504,0.990206769543159,1.0254190524961886,6.629281618741663,2.8720729105631504,17.37512048136393,12.081939644368491,11.377334594726562,16.396522521972656,-6.682586669921875,2.737277891577744,10.251859339272103,-6.147617247046494,4.594530378069196,-13.52509998139881,-7.553463890438987,22.88463634166759,-9.114815541601256,4.926021634615379,68.92805119770583,2.03845155363847,-7.062749287749304,32.30979123610986,37.221882768742326,37.84487974361279,1577396173.0,-27.68987409771127,-51.12760442230989,8.298311
74339,1577396173.81,0.1702277380371093,4.0932468682861325,14.374367782287596,2.635023310070502,-0.3440642971131852,11.347055990079552,4.837712473551432,-26.05090923055013,13.72436198323568,8.020401000976562,6.997108459472656,-6.346893310546875,1.119846250952744,-1.8331015982278964,-8.650058653296494,1.7411368233816966,-4.018874395461309,-2.243405296688988,23.045230280907365,-10.823843455651492,5.473357371794874,67.76799721659921,2.364603802220625,-5.400925925925935,32.16602270344745,37.341689879294336,37.91676400994399,1577396173.0,-27.68987409771127,-51.12760442230989,8.298311
74340,1577396173.82,0.3043030310058593,-0.1564610784912109,10.359291598205566,-1.909171440906059,-0.7510785793397478,8.82117323861471,5.82891196085612,18.521943076578776,6.975107503255209,11.957168579101562,-11.374473571777344,-8.238983154296875,2.004856016577744,12.571195276772103,-7.185214903296494,0.3068106515066966,-0.9976341610863096,-10.025387718563987,23.366418159386907,-10.44405947475144,3.2840144230769246,67.76799721659921,2.364603802220625,-5.400925925925935,32.26186839188906,37.341689879294336,37.772995477281576,1577396173.0,-27.68987409771127,-51.12760442230989,8.298311
74341,1577396173.83,0.3976768957519531,1.8307262994384768,10.57357264678955,2.0675975166134712,0.78839308814072,11.466766073087364,-1.988156459554036,6.187016123453775,0.759759993489583,-2.447128295898437,6.936073303222656,-8.116912841796875,-5.471950624047256,-0.8260215201028964,-8.802646543921494,3.6637442452566966,-10.54963611421131,-30.624752952938987,23.286121189767023,-9.969329498626376,3.5576822916666684,68.54136653733694,-3.8322889208403215,-8.724572649572671,32.21394554766826,37.24584419085272,37.86884116572318,1577396173.0,-27.68987409771127,-51.12760442230989,8.298311
74342,1577396173.84,0.8621520178222656,1.0334571466064453,1.517504867248534,-0.5684185112185589,-0.6636902187440451,4.846798482755335,1.5432909891764324,-7.651469472249348,1.5917450703938807,-8.703231811523438,3.853797912597656,-8.696746826171875,2.371066954077744,6.040433558022103,-6.147617247046494,0.6119864327566966,-26.76972888764881,-8.118039085751487,22.563448463188045,-10.254167484301416,3.101569177350434,67.96133954678365,-3.8322889208403215,-5.400925925925943,32.45355976877228,37.36565130140474,37.89280258783359,1577396173.0,-27.68987409771127,-51.12760442230989,8.298311
74343,1577396173.85,2.3058556188964845,1.86663932434082,-5.064155496520996,-1.1502095146365277,-3.0303585598084983,2.3592229578529915,-3.388764430745442,-9.535706178792315,5.62717196858724,-5.2242279052734375,4.799842834472656,-7.170867919921875,-11.270290467797256,-10.683199254477897,-3.706210997046494,0.2762930733816966,-49.64265369233631,-11.185055687313987,22.72404240242782,-8.924923551151231,4.013795405982902,68.15468187696808,-3.8322889208403215,-6.231837606837628,32.30979123610986,37.341689879294336,37.772995477281576,1577396173.0,-27.68987409771127,-51.12760442230989,8.298311
74344,1577396173.86,2.964261075439453,1.4093468072509765,-0.1728015048217773,-1.9019888359255903,5.665381869879002,7.911376607755336,-0.7503542012532546,-16.737464772542317,8.51936757405599,-3.9424896240234375,1.0461807250976562,-7.506561279296875,-4.098659608422256,9.397367151772103,-5.018466856421494,-2.0430428641183034,-50.10041736421131,21.102541968936013,22.72404240242782,-10.44405947475144,4.743576388888888,67.76799721659921,1.7122993050563151,-75.19750712250713,32.357714080330666,37.38961272351514,37.91676400994399,1577396173.0,-27.68987409771127,-51.12760442230989,8.298311
74345,1577396173.87,-0.7778761193847651,0.523492192993164,3.5106777493286128,1.2559631538205032,-2.66524280663467,4.85637528939596,2.5201252665201817,3.923298453776041,11.847307881673178,1.3065338134765625,8.126258850097656,-6.423187255859375,-6.189113709984756,1.3102089486471042,-3.538364317358994,-3.355298723493304,-24.22151111421131,0.7625761486235119,23.045230280907365,-10.064275493851389,3.831350160256412,65.83457391475486,0.1630761242910778,-40.29921652421653,32.30979123610986,37.36565130140474,37.91676400994399,1577396173.0,-27.68987409771127,-51.12760442230989,8.298311
74346,1577396173.88,-2.065956612548828,-2.11731223815918,10.945871004943848,-3.352875041980277,-3.3080859523866235,12.800336397794396,0.5018132670084631,0.4576915506998691,12.986947871907557,-15.508651733398438,-5.942344665527344,-7.933807373046875,-7.760768983422256,12.052396448647103,-5.750888731421494,-5.644117082868304,11.48405529203869,-3.219967796688988,23.527012098626685,-9.114815541601256,4.196240651709401,66.22125857512373,-2.038451553638469,-5.400925925925935,32.16602270344745,37.43753556773595,37.86884116572318,1577396173.0,-27.68987409771127,-51.12760442230989,8.298311
74347,1577396173.89,-3.713167354736328,-2.438135260620117,9.087970516662596,-0.6570039726443402,3.544119198980564,9.14678466439596,-1.2914437764485671,9.651425925699868,7.032568343098959,-8.367538452148438,0.0696182250976562,-6.926727294921875,-10.507351014672256,-7.204195348227897,-5.659335997046494,-3.965650285993304,1.6573951357886905,-17.135983421688987,22.563448463188045,-9.874383503401363,4.926021634615379,66.22125857512373,-2.038451553638469,-5.400925925925935,32.30979123610986,37.24584419085272,37.86884116572318,1577396173.0,-27.68987409771127,-51.12760442230989,8.298311
74348,1577396173.9,-2.571133162841797,1.979166802368164,14.077486776428222,-0.1135201957888714,2.617563156500095,5.469290914395961,-1.0472352071126294,-3.729767152913411,12.007719392903647,-2.416610717773437,-1.7919540405273438,-6.835174560546875,-5.471950624047256,-4.427095738852897,-4.957431700171494,-5.857740129743304,21.86003185453869,-21.133786156063987,22.563448463188045,-11.01373544610152,3.831350160256412,63.12778129217276,2.364603802220625,-2.0772792022792146,32.357714080330666,37.341689879294336,37.725072633060776,1577396173.0,-27.68987409771127,-51.12760442230989,8.298311
74349,1577396173.91,0.4671087438964844,-0.2857479681396484,14.928625466613768,0.9339430305294868,-1.246678322992092,10.458807174161583,3.680115970865885,-2.301625862630208,16.2131346089681,-5.3615570068359375,-4.813194274902344,-5.889129638671875,-5.105739686547256,-0.4445517935403962,-4.972690489233994,-7.993970598493304,45.02287365141369,2.029055640811012,22.643745432807933,-10.72889746042648,3.922572783119657,65.06120459401711,2.364603802220625,2.0772792022791897,32.16602270344745,37.341689879294336,38.22826249737922,1577396173.0,-27.68987409771127,-51.12760442230989,8.298311
74350,1577396173.92,-0.5025429284667958,1.4165294122314451,8.697715646057128,-1.6242614433474651,3.6781944919493137,12.814701607755334,-3.810143922932942,-10.143833400472005,8.33980244954427,-4.9495697021484375,-3.500938415527344,-5.919647216796875,-7.974392030297256,-13.826509801352897,-5.201572325171494,-10.435376848493304,61.83805919828869,-12.131100609188987,22.88463634166759,-11.393519427001571,3.831350160256412,67.76799721659921,1.7122993050563151,5.400925925925918,32.07017701500584,37.43753556773595,37.772995477281576,1577396173.0,-27.68987409771127,-51.12760442230989,8.298311
74351,1577396173.93,2.7056872961425777,2.1156362969970703,8.661802621154784,0.4634824043087837,2.8019166843321264,9.987149447110802,0.3318249491373694,2.98596850382487,5.871380537923177,-5.7125091552734375,-7.224082946777344,-7.170867919921875,-6.936794374047256,6.131986292397103,-5.811923887671494,-9.275708879743304,61.86857677641369,6.789797828311012,22.2422605847085,-10.254167484301416,3.101569177350434,67.76799721659921,1.7122993050563151,5.400925925925918,32.26186839188906,37.341689879294336,37.725072633060776,1577396173.0,-27.68987409771127,-51.12760442230989,8.298311
74352,1577396173.94,-1.2447454431152345,-0.9645041387939453,9.126277743225096,-0.0847897758669964,0.3406773776915012,4.312891512540491,-2.447843178304036,19.88424382120768,0.4676673909505205,-3.9882659912109375,-0.7085800170898442,-7.277679443359375,-8.249050233422256,-11.842867223227897,-5.689853575171494,-7.627759660993304,41.39128185453869,-11.307125999813987,21.921072706228955,-9.494599522501307,3.2840144230769246,67.76799721659921,1.7122993050563151,5.400925925925918,32.285829813999456,37.341689879294336,37.9646868541648,1577396173.0,-27.68987409771127,-51.12760442230989,8.298311
74353,1577396173.95,0.9363722692871094,-3.879444660034179,7.933965316467284,-0.6857343925662153,-2.8256543178651383,8.621257399991663,-0.9526642415364582,-9.941523360188802,5.9839080159505205,-12.609481811523438,-2.707481384277344,-8.269500732421875,-12.033229920922256,-0.4140342154153962,-6.056064512671494,-6.773267473493304,0.3756568545386898,-15.625363304501487,21.921072706228955,-11.01373544610152,2.006897702991451,74.72832110323887,-2.119989615784008,-1.2463675213675387,32.30979123610986,37.413574145625546,37.43753556773595,1577396173.0,-27.68987409771127,-51.12760442230989,8.298311
74354,1577396173.96,-2.966176436767578,-1.4182053533935546,10.830949325256348,-4.787001836413872,-1.182034878167873,10.796389608243617,-0.5229050435384108,12.54362153116862,13.001313081868492,-5.5294036865234375,-5.484580993652344,-7.262420654296875,-8.035427186547256,-6.593843785727897,-5.872959043921494,-5.033765520368304,-8.01667712983631,-6.607418968563988,21.921072706228955,-11.01373544610152,2.006897702991451,80.91527566914081,-1.5492231807652364,-7.062749287749304,32.30979123610986,37.24584419085272,38.53976098481445,1577396173.0,-27.68987409771127,-51.12760442230989,8.298311
74355,1577396173.97,-1.6589423303222657,-0.5179855291748047,14.819689291076658,0.0468913154415962,-1.0742958034608414,14.052503866056115,-3.5012919087727856,1.939702378336588,16.187995491536462,-4.6443939208984375,-2.341270446777344,-7.048797607421875,-7.699733827172256,-7.539888707602897,-5.781406309546494,-8.268628801618304,0.5587623232886905,-23.025875999813987,22.08166664546873,-10.44405947475144,2.18934294871795,64.28783527327937,3.6692127965492456,-80.18297720797722,32.16602270344745,37.43753556773595,37.91676400994399,1577396173.0,-27.68987409771127,-51.12760442230989,8.298311
74356,1577396173.98,-0.3912125512695312,2.6411635614013678,15.095022481994627,0.3629259345822213,0.9679582126524388,10.331914486173302,-4.995273744710286,-23.37419177449544,22.23096048177083,-6.5059661865234375,-4.355430603027344,-7.018280029296875,-7.577663514672256,0.9745155892721036,-4.225009825171494,-8.390699114118304,26.01042247953869,4.195803687686012,22.08166664546873,-9.684491512951336,3.6489049145299135,63.12778129217276,3.3430605479670907,-81.84480056980057,32.21394554766826,37.38961272351514,37.14999850241112,1577396173.0,-27.68987409771127,-51.12760442230989,8.298311
74357,1577396173.99,-0.0739808312988271,-1.2889184637451172,11.972983517150878,0.9435198371701118,0.2652600253965793,7.402608754972132,-2.341301204427083,17.70192900797526,18.97364912312825,-10.808944702148438,-3.653526306152344,-6.163787841796875,-10.431057069359756,-5.891939488852897,-2.744907286108994,-12.968335832868304,78.43962169828868,10.833376929873513,23.366418159386907,-10.064275493851389,3.6489049145299135,68.54136653733696,1.8753754293473928,-85.16844729344731,32.357714080330666,37.48545841195676,37.84487974361278,1577396173.0,-27.68987409771127,-51.12760442230989,8.298311
74358,1577396174.0,2.339374442138672,0.1667561456298828,6.681797848205566,-4.190845623034965,0.0366137668516575,13.202562276700649,0.2288742777506506,-2.539848927815755,14.306152986653649,-8.031845092773438,-3.073692321777344,-6.987762451171875,-5.960231874047256,-6.258150426352897,-5.110019590796494,-11.717115129743304,121.01164318266368,-8.957272484188987,23.366418159386907,-10.064275493851389,3.6489049145299135,67.76799721659921,1.7122993050563151,-88.49209401709405,32.16602270344745,37.19792134663192,37.772995477281576,1577396174.0,-27.689818641513675,-51.12765705860062,8.028031
74359,1577396174.01,-0.4809951135253896,-0.3982754461669922,8.673773629455566,0.1258999702267525,-4.234641994867092,15.32621914925924,1.890450229899088,2.535858591715495,5.785189278157552,-6.8111419677734375,-0.5102157592773438,-5.400848388671875,-0.589138124047256,4.361966761147103,-2.851718809546494,-6.956372942243304,106.14958263578868,-10.605221702938987,23.366418159386907,-10.064275493851389,3.6489049145299135,57.52085371682413,2.4461418643661634,-84.75299145299148,32.30979123610986,37.43753556773595,37.772995477281576,1577396174.0,-27.689818641513675,-51.12765705860062,8.028031
74360,1577396174.02,5.208825131835937,-2.0107702642822263,5.697780965881347,3.4466576728634712,0.5621410312559548,13.368959292081506,0.5077987711588541,11.705650950113933,-3.003925016276041,-3.316879272460937,4.265785217285156,-6.804656982421875,-6.097560975609756,0.4099403939596033,-1.5242041611089938,-1.5700204031808034,25.47636486235119,-38.02526564825149,22.48315149356816,-10.1592214890764,3.0103465544871844,74.92166343342332,5.136897915168943,2.4927350427350285,32.237906969778656,37.269805612963125,37.725072633060776,1577396174.0,-27.689818641513675,-51.12765705860062,8.028031
74361,1577396174.03,2.913982840576172,2.6734852838134766,9.27711244781494,6.674041510754096,6.338152536382908,15.168201839688928,-6.48686137898763,-40.49991624959309,2.4309127522786453,-0.0057220458984375,4.128456115722656,-6.163787841796875,-4.739528749047256,2.256253870522104,-3.187412168921494,-4.667554582868304,-38.19856189546131,-7.095700218563988,24.008793916346,-9.304707532051282,3.2840144230769246,68.92805119770581,1.7122993050563151,-7.062749287749304,32.26186839188906,37.38961272351514,37.62922694461916,1577396174.0,-27.689818641513675,-51.12765705860062,8.028031
74362,1577396174.04,1.1470620153808593,-1.394263336791992,6.722499276428222,0.1857550117306587,-4.627291067132717,9.472396090177211,4.169730210367837,5.799155454508463,11.21523864339193,-6.6890716552734375,0.7410049438476562,-6.652069091796875,7.131809141577744,14.707425745522103,-4.225009825171494,0.7035391671316966,-45.24812244233631,10.940188453311013,24.008793916346,-9.304707532051282,3.2840144230769246,68.92805119770581,1.7122993050563151,-60.241096866096896,32.26186839188906,37.43753556773595,37.58130410039836,1577396174.0,-27.689818641513675,-51.12765705860062,8.028031
