,timestamp,acc_x_dashboard,acc_y_dashboard,acc_z_dashboard,acc_x_above_suspension,acc_y_above_suspension,acc_z_above_suspension,acc_x_below_suspension,acc_y_below_suspension,acc_z_below_suspension,gyro_x_dashboard,gyro_y_dashboard,gyro_z_dashboard,gyro_x_above_suspension,gyro_y_above_suspension,gyro_z_above_suspension,gyro_x_below_suspension,gyro_y_below_suspension,gyro_z_below_suspension,mag_x_dashboard,mag_y_dashboard,mag_z_dashboard,mag_x_above_suspension,mag_y_above_suspension,mag_z_above_suspension,temp_dashboard,temp_above_suspension,temp_below_suspension,timestamp_gps,latitude,longitude,speed
106041,1577396490.83,-0.3198886998618521,1.0305578267911577,8.929963426245713,-0.6647413316680157,0.7004207759205878,8.55550444708103,-2.708863992979468,1.7247887154928063,9.532659897818217,0.7474945812690548,0.4841874285442072,2.942899378334604,-1.358218309355945,-1.2620135051448171,2.914056545350609,1.7889999761814028,6.9980156130907005,2.1496284298780486,-2.061518860283982,-26.29320054945055,3.3655102585906094,-13.565960775335776,-38.41571618037136,-25.84500563539025,28.18842663312068,38.46787671848324,44.02692664809656,1577396490.0,-27.688433978216832,-51.12087606024235,12.825519
106042,1577396490.84,-0.4659350011313833,0.9036651388028764,9.222056028784776,-0.1847038988066876,1.393542156535822,9.188770786192356,-0.2871290137314208,-0.2013465201028955,9.956433591665872,-2.014346239043445,-2.308170969893293,2.210477503334604,-0.6257964343559451,-0.6821795207698171,2.257928615663109,3.116514624618903,4.526091784965701,2.3327338986280486,-1.5667543338158256,-26.475792219932845,3.8969066152101823,-13.508171805046809,-38.87304613489958,-102.35982495069037,28.23634947734148,38.39599245215204,44.67388504507743,1577396490.0,-27.688433978216832,-51.12087606024235,12.825519
106043,1577396490.85,-0.3103118932212271,0.9012709371427202,9.456687791480087,-0.5390457445098127,0.567542583781916,8.736266672422827,0.2252301415420157,-0.1127610586771143,10.593291233267436,-0.0917388171684451,2.177913014481707,2.759793909584604,-1.7549468249809452,0.4774884479801829,3.570184475038109,1.5906357183689026,2.6340019412157014,1.2646186642530486,-2.061518860283982,-24.832467185592183,3.3655102585906094,-17.784555606430608,-33.68997331691297,-113.24193258664414,28.044658100458264,38.39599245215204,43.71542816066133,1577396490.0,-27.688433978216832,-51.12087606024235,12.825519
106044,1577396490.86,-1.4319953710044302,1.0078129110196732,9.698502159155868,-1.5422162401152812,0.299391997844416,9.97406893072361,-3.2272086524032964,1.6158525399556969,9.599697544302591,-1.831240770293445,2.757746998856707,3.293851526772104,-2.578921434355945,3.407175947980183,3.173455959413109,-3.810975609756097,6.784392566215701,1.4477241330030486,-1.2369113161703895,-25.01505885607448,4.074038734083374,-17.784555606430608,-33.08020004420866,-25.504939771766697,28.044658100458264,38.44391529637284,44.72180788929823,1577396490.0,-27.688433978216832,-51.12087606024235,12.825519
106045,1577396490.87,-0.5784624791587272,0.6522739644864701,10.01693097995665,-1.1531584703398907,0.4430440974537915,9.709509647276343,-0.5229578772568119,0.6569747750631191,9.830738004507667,-3.174014207793445,-2.735417063643293,2.210477503334604,-1.877017137480945,-0.3464861613948171,3.020868068788109,-2.361390648818597,0.7266533084032012,3.5381782345655486,-0.412303772056797,-24.832467185592183,3.3655102585906094,-18.44912876475377,-33.00397838512062,-63.42228356579318,28.092580944679067,38.44391529637284,44.050888070206966,1577396490.0,-27.688433978216832,-51.12087606024235,12.825519
106046,1577396490.88,-1.1291288609946646,1.1359026998380326,10.079180223120712,-1.4464481737090311,0.1222210749928535,9.15525196295017,-0.8186417822861083,-0.2516247549661768,11.285215513052592,0.9153412609565548,2.513606373856707,2.698758753334604,-1.2056304187309452,-3.154103348894817,3.356561428163109,-3.078553734756097,-4.568146496284299,3.4008491330030486,-0.412303772056797,-24.832467185592183,3.3655102585906094,-19.576013685388688,-40.85480927118858,-25.164873908143136,28.092580944679067,38.30014676371043,44.09881091442777,1577396490.0,-27.688433978216832,-51.12087606024235,12.825519
106047,1577396490.89,-0.7532392003501334,1.0209810201505327,9.301064683569932,-1.0394338914824688,1.247495855266291,11.18553497076267,-0.710902707579077,0.9550528817525722,9.652369980826029,-2.380557176543445,1.842219655106708,2.698758753334604,-0.3816558093559451,0.9657696979801828,1.952752834413109,-0.9728408441310974,-7.619904308784299,3.3092963986280486,-0.7421467897022332,-25.92801720848596,3.3655102585906094,-18.24686736874237,-38.56815949854744,-20.74401768103691,28.284272321562284,38.25222391948962,43.95504238176535,1577396490.0,-27.688433978216832,-51.12087606024235,12.825519
106048,1577396490.9,-0.9016797032798208,0.6774130819181112,8.859334477271103,-0.7138224657012189,-0.2847932072337079,7.960545334532203,-1.4650762305282958,1.0196963265767909,8.716237131704936,-0.335879442168445,2.086360280106707,2.714017542397104,-1.8159819812309448,2.522166182355183,3.112420803163109,-2.956483422256097,-6.429718761909299,4.804657726753049,-0.9070682985249532,-25.19765052655677,3.7197744963369903,-16.975510022385023,-38.26327286219527,-23.46454459002536,28.044658100458264,38.44391529637284,43.85919669332375,1577396490.0,-27.688433978216832,-51.12087606024235,12.825519
106049,1577396490.91,-1.2320795323813831,0.97788539026772,9.787087620581651,-1.2213932176543438,0.4897310298268384,10.150042752745092,-0.5828129187607182,1.1094788888326508,9.056213767447122,-4.150576707793445,-1.9419600323932928,2.485135706459604,-2.105898973418445,-1.3840838176448171,2.532586818788109,-3.002259789443597,-8.6575019650343,3.7975776486280486,-0.9070682985249532,-24.64987551510989,3.8969066152101823,-17.033298992673995,-40.54992263483643,-24.654775112707803,28.14050378889987,38.37203103004164,43.95504238176535,1577396490.0,-27.688433978216832,-51.12087606024235,12.825519
106050,1577396490.92,-1.3206649938071646,0.6714275777677202,9.676954344214463,-1.8031842210723128,0.9218844294850408,10.59895556402439,-1.7858992529892332,-0.0313582022318018,9.250144101919778,-1.9227935046684448,-0.1109053448932926,2.607206018959604,-1.8464995593559448,0.1723126667301829,2.563104396913109,0.8582138433689026,-8.0776679806593,3.3703315548780486,-0.9070682985249532,-24.64987551510989,3.8969066152101823,-17.553399725274726,-42.83657240747758,-26.185071499013805,28.14050378889987,38.39599245215204,44.050888070206966,1577396490.0,-27.688433978216832,-51.12087606024235,12.825519
106051,1577396490.93,-1.2919345738852896,1.370534462533346,10.43112786716368,-1.1208367479277814,-0.9599580753977704,9.758590781309543,-1.189743039610327,1.000542713295541,10.107268296255716,-1.3124419421684452,1.2623856707317074,2.607206018959604,-1.7854644031059452,2.613718916730183,2.593621975038109,-4.055116234756097,-6.490753918159299,1.0509956173780486,-1.2369113161703893,-26.110608878968257,5.668227803942081,-17.437821784696787,-42.53168577112543,-26.185071499013805,28.044658100458264,38.30014676371043,44.050888070206966,1577396490.0,-27.688433978216832,-51.12087606024235,12.825519
106052,1577396490.94,-1.2404592381919302,-0.4873660257479038,9.431548674048448,-0.6132659959746564,-0.1387469059641767,10.970056821348608,0.7902617333388907,1.5727569100728844,9.84390611363853,-3.204531785918445,0.7588456316692074,2.698758753334604,-2.456851121855945,1.3930157917301829,1.952752834413109,0.5835556402439026,-10.7021796994093,2.1191108517530486,-1.1544505617590295,-25.83672137324481,3.808340555773588,-17.437821784696787,-42.53168577112543,-26.185071499013805,28.092580944679067,38.30014676371043,43.85919669332375,1577396490.0,-27.688433978216832,-51.12087606024235,12.825519
106053,1577396490.95,-1.124340457674352,0.9659143819669388,10.440704673804309,-1.2501236375762188,-0.1124106877024584,10.242219516661107,-1.2328386694931397,0.0859576791158534,8.877845743765482,-1.7091704577934452,-1.6062666730182926,2.179959925209604,-2.029605028105945,-0.5295916301448171,2.990350490663109,-4.085633812881097,-4.1103828244093,1.3714301876905486,-0.5772252808795152,-25.38024219703907,4.605435090702943,-13.30591040903541,-40.32125765757232,-21.5941823400958,28.38011801000389,38.49183814059365,43.667505316440526,1577396490.0,-27.688433978216832,-51.12087606024235,12.825519
106054,1577396490.96,-1.3254533971274771,0.5277754781583451,10.402397447241809,-1.1902685960723125,-0.1411411076243329,10.230248508360328,-0.2919174170517333,0.1338417123189784,8.179935959829935,0.4880951672065549,1.6591141863567074,3.156522425209604,-1.6939116687309452,-0.3770037395198171,2.105340725038109,2.017881812118903,1.1081230349657012,0.1659858517530487,-0.5772252808795152,-25.38024219703907,4.605435090702943,-13.392593864468866,-38.26327286219527,-23.46454459002536,27.94881241201665,38.58768382903526,44.050888070206966,1577396490.0,-27.688433978216832,-51.12087606024235,12.825519
106055,1577396490.97,-1.2488389440024772,0.2069524556974076,9.35373712009337,-1.1016831346465314,0.5244469538991036,7.965333737852515,-0.5169723731064209,0.2631286019674159,8.548643015493997,-3.753848192168445,-0.6602217511432926,2.698758753334604,-0.9004546374809451,1.2404279011051829,2.685174709413109,1.4075302496189026,6.082488269340701,0.7153022580030487,-2.886126404397574,-26.84097556089744,4.251170852956559,-13.565960775335776,-35.366849816849815,-20.40395181741336,28.092580944679067,38.58768382903526,44.050888070206966,1577396490.0,-27.688433978216832,-51.12087606024235,12.825519
106056,1577396490.98,-0.5856450841391959,0.3314509420255326,8.242827549780868,-0.8048021287871564,-0.8833436222727704,8.642892807676734,-0.9000446387314214,-0.124732066977896,8.73299654332603,-0.488467332793445,1.3997147722942074,2.668241175209604,-2.334780809355945,-0.6821795207698171,2.593621975038109,-0.8660293206935973,2.7255546755907014,0.9594428830030486,-1.7316758426385457,-25.56283386752137,4.428302971829755,-13.24812143874644,-37.57727793040293,-112.39176792758524,28.092580944679067,38.276185341600026,43.90711953754455,1577396490.0,-27.688433978216832,-51.12087606024235,12.825519
106057,1577396490.99,-1.3589722203696646,-0.2192154398104038,9.214873423804308,-1.338709099002,0.7518961116139472,9.763379184629857,-0.6462592627548583,0.3301662484517909,10.030653843130716,-4.333682176543445,-1.9724776105182928,2.057889612709604,-2.578921434355945,-0.3770037395198171,2.074823146913109,1.0413193121189026,-1.8215644650342988,0.0439155392530487,-0.5772252808795152,-24.64987551510989,4.605435090702943,-13.392593864468866,-36.7388396804345,-111.88166913214992,28.044658100458264,38.44391529637284,43.95504238176535,1577396490.0,-27.688433978216832,-51.12087606024235,12.825519
106058,1577396491.0,-1.0118129796470083,0.9347897603849076,10.172554087866809,-0.3762400316191877,-1.0772739567454266,9.995616745665014,-0.3326188452743895,-0.1678276968607081,10.459215940298686,-0.1832915515434451,0.6215165301067074,2.363065393959604,-2.334780809355945,-1.3230486613948171,2.837762600038109,-2.224061547256097,-2.6150214962842986,0.4101264767530487,-0.5772252808795152,-24.64987551510989,4.605435090702943,-17.611188695563698,-33.53752999873689,-104.74028599605522,28.14050378889987,38.58768382903526,44.19465660286938,1577396491.0,-27.688497304245463,-51.12076042808958,13.208171
106059,1577396491.01,-1.276372263094274,0.0573148519376425,10.149809172095322,-0.9436658250762188,-0.5697032047923017,10.187152878477514,-0.8689200171493895,-0.0002335806497714,11.029035935415871,-3.586001512480945,0.5757401629192074,2.134183558022104,-2.426333543730945,-1.2009783488948171,1.7391297875381098,-2.498719750381097,-0.9060371212842988,0.6847846798780487,-0.9070682985249524,-25.197650526556775,4.07403873408337,-13.277015923890923,-31.86065349880005,-24.14467631727247,27.972773834127054,38.39599245215204,43.95504238176535,1577396491.0,-27.688497304245463,-51.12076042808958,13.208171
106060,1577396491.02,-1.0477260045493522,-0.1090821634432163,9.64104131931212,-1.2046338060332502,0.0480008235280102,10.009981955625951,-0.3182536353134521,1.4494555245748375,9.246552799429544,-2.319522020293445,1.964289967606708,2.485135706459604,-1.602358934355945,-0.6364031535823169,2.227411037538109,-2.086732445693597,-4.751251965034299,2.3785102658155486,-3.3808909308657284,-23.73691716269841,4.074038734083371,-15.906414072039071,-35.74795811229001,-17.513391976613132,28.044658100458264,38.37203103004164,43.97900380387576,1577396491.0,-27.688497304245463,-51.12076042808958,13.208171
106061,1577396491.03,-1.3470012120688832,-0.2838588846346226,10.275504759253526,-0.7042456590605939,-1.1538884098704263,9.916608090879858,-0.8976504370712646,-0.330633409751333,9.11606880895103,-2.807803270293445,0.4384110613567073,2.485135706459604,-1.4192534656059452,-0.8347674113948171,1.6475770531631098,-0.0267959222560973,0.5282890505907012,4.224823742378049,-2.391361877929418,-25.92801720848596,4.074038734083371,-18.24686736874237,-33.68997331691297,-22.10428113553113,28.044658100458264,38.44391529637284,43.2841225626741,1577396491.0,-27.688497304245463,-51.12076042808958,13.208171
106062,1577396491.04,-1.0932158360923208,0.0656945577481889,9.121499559058211,-1.2668830491973126,1.0918727473561347,8.844005747129858,-0.2344565772079833,0.2655228036275722,8.603709653677592,-1.1598540515434452,-0.3855635480182927,2.332547815834604,-2.395815965605945,-3.032033036394817,1.891717678163109,0.7056259527439026,3.5800468630907014,4.468964367378049,-2.391361877929418,-25.92801720848596,4.074038734083371,-18.24686736874237,-33.68997331691297,-22.10428113553113,28.092580944679067,38.39599245215204,43.90711953754455,1577396491.0,-27.688497304245463,-51.12076042808958,13.208171
106063,1577396491.05,-0.6119813024009146,0.4188393026212357,8.697725865210556,-0.2421647386504376,0.5747251887623848,7.967727939512671,-1.7835050513290769,-0.5413231558450831,9.003541330923685,-0.1985503406059452,0.3163407488567072,2.500394495522104,-4.104800340605945,2.491648604230183,2.379998928163109,-3.719422875381097,8.1576835818407,3.0956733517530486,-1.5667543338158256,-25.380242197039077,4.428302971829755,-18.24686736874237,-33.68997331691297,-22.10428113553113,28.116542366789467,38.25222391948962,43.95504238176535,1577396491.0,-27.688497304245463,-51.12076042808958,13.208171
106064,1577396491.06,-0.4611465978110708,-0.3413197244783726,9.13586476901915,0.213930677609327,0.3113630061451978,9.416219943907205,-0.7755461524032964,-0.5449144583353174,9.456045444693215,-6.439395067168445,-3.071110423018293,1.874784143959604,-3.082461473418445,2.201731612042683,1.6475770531631095,-1.6900039300685972,4.999114245903201,1.9665229611280488,0.082460754411359,-25.01505885607448,4.605435090702943,-13.62374974562475,-42.6841290893015,-24.484742180896028,27.94881241201665,38.41995387426245,43.76335100488214,1577396491.0,-27.688497304245463,-51.12076042808958,13.208171
106065,1577396491.07,-0.6167697057212271,0.3266625387052201,9.533302244605087,-0.6970630540801251,0.3520644343678535,9.306086667540011,-1.3118473242782958,0.4139633065572596,10.77525055943931,-0.8241606921684451,0.5299637957317074,2.332547815834604,-4.043765184355945,0.5690411823551829,2.441034084413109,-1.7052627191310974,0.0094902224657012,0.2880561642530487,-1.2369113161703893,-25.38024219703907,2.8341139019710444,-13.62374974562475,-43.446345680181885,-26.185071499013805,28.044658100458264,38.49183814059364,43.76335100488214,1577396491.0,-27.688497304245463,-51.12076042808958,13.208171
106066,1577396491.08,-1.153070877596227,0.0656945577481889,10.627452403296491,-0.5127095262480938,-0.8713726139719891,10.838375730040015,-0.7276621192001708,0.7563341439596034,11.261273496451029,-3.967471239043445,2.483088795731707,2.393582972084604,-4.654116746855945,2.552683760480183,2.227411037538109,-1.0338760003810974,-5.453156261909299,-0.0476371951219513,-1.2369113161703893,-25.38024219703907,2.8341139019710444,-13.62374974562475,-40.39747931666035,-26.185071499013805,28.14050378889987,38.49183814059364,43.76335100488214,1577396491.0,-27.688497304245463,-51.12076042808958,13.208171
106067,1577396491.09,-1.335030203768102,0.0405554403165482,10.344936607398056,-1.2070280076934063,0.8332989680592597,10.44572665777439,-0.5409143897079833,1.156165821205697,11.105650388540871,-3.265566942168445,0.8656571551067075,2.118924768959604,-2.395815965605945,-1.0483904582698171,1.8001649437881098,-1.0949111566310974,-8.4438789181593,1.3561713986280486,-1.0719898073476712,-25.56283386752137,3.188378139717421,-13.161437983312986,-38.56815949854744,-22.10428113553113,27.972773834127057,38.10845538682721,44.050888070206966,1577396491.0,-27.688497304245463,-51.12076042808958,13.208171
106068,1577396491.1,-0.9974477696860709,-0.2000618265291538,9.79427022556212,-1.1483700670195782,-0.702581396930974,9.862738553526343,-0.929972159483374,0.106308393227182,11.42647341100181,-0.8241606921684451,3.154475514481707,2.607206018959604,-1.907534715605945,-1.9028826457698167,2.669915920350609,-5.962464867568597,-11.1141670040968,2.8667915158155486,-0.7421467897022332,-26.29320054945055,3.0112460208442324,-13.334804894179896,-35.51929313502589,-24.484742180896028,28.044658100458264,38.22826249737922,44.050888070206966,1577396491.0,-27.688497304245463,-51.12076042808958,13.208171
106069,1577396491.11,-1.2368679357016958,-0.4227225809236851,9.511754429663682,-1.0657701097441876,0.5244469538991036,10.38826581793064,-0.0453146460556395,1.4698062386861657,9.22380788365806,-2.990908739043445,-1.0569502667682926,2.210477503334604,-1.4192534656059452,-1.4756365520198171,1.4034364281631098,-3.963563500381097,-15.6460273556593,5.872772961128049,-1.2369113161703893,-25.01505885607448,3.8969066152101823,-13.450382834757836,-36.58639636225843,-25.164873908143136,28.23634947734148,38.44391529637284,43.85919669332375,1577396491.0,-27.688497304245463,-51.12076042808958,13.208171
106070,1577396491.12,-1.3062997838462271,-0.1713314066072788,9.925951316870712,-1.6331959032012189,0.1437688899342598,9.016388266661108,-0.385291281797827,0.8137949838033535,7.928544785513529,-1.6481353015434452,0.7741044207317074,2.271512659584604,-0.6563140124809451,-4.893605302019817,3.081903225038109,-5.489442406631097,-9.9697578244093,6.177948742378049,-1.2369113161703893,-25.38024219703907,2.47984966422466,-13.161437983312986,-37.65349958949097,-107.80087876866725,28.092580944679067,38.30014676371043,43.71542816066133,1577396491.0,-27.688497304245463,-51.12076042808958,13.208171
106071,1577396491.13,-1.3661548253501334,0.3769407735685013,9.279516868628528,-1.0956976304961408,-0.2129671574290209,9.972871829893531,-0.2081203589462645,-0.4802710135110987,8.49597057897056,-1.800723192168445,-0.2634932355182928,2.302030237709604,-2.212710496855945,-1.9028826457698167,1.891717678163109,-2.864930687881097,-4.064606457221799,2.9736030392530486,-0.6596860352908741,-25.106354691315627,3.099812080280823,-13.305910409035413,-34.52841156688139,-109.6712410185968,27.996735256237457,38.44391529637284,44.00296522598616,1577396491.0,-27.688497304245463,-51.12076042808958,13.208171
106072,1577396491.14,-1.5385373448813833,0.3170857320645951,9.540484849585557,-1.7648769945098126,0.356852837688166,9.028359274961888,-1.1921372412704834,-0.6323028189310206,9.635610569204934,-3.601260301543445,0.0111649676067073,2.485135706459604,-2.304263231230945,-1.3230486613948171,2.624139553163109,-4.116151391006097,-3.2558906369092986,1.5087592892530486,-0.082460754411359,-25.19765052655677,4.782567209576139,-13.62374974562475,-32.47042677150436,-105.0803518596788,28.092580944679067,38.39599245215204,44.09881091442777,1577396491.0,-27.688497304245463,-51.12076042808958,13.208171
106073,1577396491.15,-1.021389786287633,-0.0875343485018101,9.190931407202743,-0.4600370897246564,-1.6973721867258953,10.316439768125951,-0.8306127905868895,1.0556093514791347,10.57174341832603,-3.082461473418445,-1.4231612042682926,2.332547815834604,-1.9075347156059448,-4.374806473894817,2.318963771913109,-0.0267959222560973,-5.636261730659299,1.0509956173780486,-1.7316758426385437,-25.56283386752137,5.136831447322516,-13.277015923890923,-32.47042677150436,-107.80087876866725,27.94881241201665,38.58768382903526,43.2841225626741,1577396491.0,-27.688497304245463,-51.12076042808958,13.208171
106074,1577396491.16,-1.5409315465415396,-0.6453833353182163,10.912362400855088,-1.28124825915825,0.4550151057545722,12.404183615782202,-0.0764392676376708,0.9358992684713222,10.191065354361186,-3.051943895293445,-2.613346751143293,2.271512659584604,-1.2361479968559452,-2.940480302019817,1.0372254906631098,-0.4235244378810974,-11.0378730587843,2.6684272580030486,-0.7421467897022332,-25.56283386752137,5.136831447322516,-18.01571148758649,-34.90951986232159,-110.52140567765568,28.044658100458264,38.49183814059364,43.90711953754455,1577396491.0,-27.688497304245463,-51.12076042808958,13.208171
106075,1577396491.17,-1.1877868016684927,-0.4203283792635289,9.797861528052351,-1.2345613267852031,-0.916862445514958,10.15243695440525,-0.6809751868271239,-0.0493147146829742,10.455624637808452,0.2286957531440548,-0.7975508527057926,2.820829065834604,-1.388735887480945,-0.1786394817073172,2.563104396913109,-3.978822289443597,-6.887482433784299,3.9349067501905486,-1.6492150882271857,-26.01931304372711,4.516869031266349,-17.062193477818482,-38.339494521283314,-24.654775112707803,28.044658100458264,38.41995387426245,43.85919669332375,1577396491.0,-27.688497304245463,-51.12076042808958,13.208171
106076,1577396491.18,-1.402067850252477,-0.1138705667635288,10.311417784155868,-0.9676078416777814,0.337699224406916,9.90942548589939,-0.5361259863876708,0.5863458260885096,8.826370408072123,-2.411074754668445,-4.535954173018292,2.485135706459604,-0.3816558093559451,-3.520314286394817,1.1898133812881098,-2.346131859756097,-5.849884777534299,5.384491711128049,-1.5667543338158256,-24.284692174145302,2.8341139019710444,-17.148876933251934,-40.24503599848427,-24.484742180896028,28.14050378889987,38.30014676371043,43.90711953754455,1577396491.0,-27.688497304245463,-51.12076042808958,13.208171
106077,1577396491.19,-1.263204153963415,0.4248248067716264,9.095163340796494,-1.384198930544969,0.376006450969416,9.241443222715796,-0.7156911108993895,-0.9100302115091456,9.448862839712747,1.1594818859565548,-2.064030344893293,2.698758753334604,-0.6563140124809451,-3.032033036394817,2.441034084413109,-3.048036156631097,-2.1572578244092986,4.835175304878049,-0.2473822632340788,-24.64987551510989,4.605435090702943,-17.206665903540905,-41.00725258936466,-26.185071499013805,28.14050378889987,38.30014676371043,44.050888070206966,1577396491.0,-27.688497304245463,-51.12076042808958,13.208171
106078,1577396491.2,-0.9172420140708364,-0.0743662393709512,9.50098052219298,-0.3235675950957501,-0.6415292545969892,10.203912290098607,-0.2153029639267333,-1.106354747641958,8.524700998892436,-0.9462310046684452,-2.155583079268293,2.622464808022104,-2.334780809355945,0.0807599323551829,2.410516506288109,-3.536317406631097,-0.7534492306592988,1.6003120236280486,-0.412303772056797,-25.56283386752137,3.0112460208442324,-17.66897766585267,-43.446345680181885,-26.185071499013805,28.18842663312068,38.30014676371043,43.71542816066133,1577396491.0,-27.688497304245463,-51.12076042808958,13.208171
106079,1577396491.21,-1.370943228670446,-0.6046819070955601,8.4654883041754,-1.3303293931914533,0.0216646052662915,9.376715616514623,-0.9575054785751708,0.4570589364400726,9.483578763785014,0.5186127453315549,-0.0803877667682926,2.790311487709604,-0.351138231230945,-2.772633622332317,1.7849061547256095,-0.0267959222560973,-5.682038097846799,3.4466255001905486,-0.7421467897022332,-25.56283386752137,4.428302971829755,-15.64636370573871,-40.85480927118858,-25.84500563539025,27.94881241201665,38.39599245215204,44.00296522598616,1577396491.0,-27.688497304245463,-51.12076042808958,13.208171
106080,1577396491.22,-0.7029609654868522,0.6211493429044389,10.165371482886338,-1.2525178392363752,-0.5744916081126142,9.409037338926732,-0.950322873594702,1.2854527108541345,9.331546958365092,1.4341400890815548,-4.230778391768292,2.179959925209604,-1.6633940906059452,-3.337208817644817,2.624139553163109,-3.353211937881097,-6.948517590034299,1.2035835080030486,-0.412303772056797,-24.467283844627595,3.3655102585906094,-13.62374974562475,-38.56815949854744,-22.10428113553113,28.23634947734148,38.44391529637284,43.667505316440526,1577396491.0,-27.688497304245463,-51.12076042808958,13.208171
106081,1577396491.23,-0.987870963045446,-0.1641488016268101,11.482182395972275,-0.7593122972441876,-0.600827826374333,10.43854405279392,-0.078833469297827,1.3860091805806969,9.123251413931497,-1.6481353015434452,-5.146305735518292,2.210477503334604,0.6559418468940549,-2.269093583269817,1.4034364281631098,0.2478622808689026,-0.6924140744092988,3.4924018673780486,-0.412303772056797,-25.19765052655677,5.136831447322516,-12.872493131868136,-38.41571618037136,-23.1244787264018,28.428040854224697,38.39599245215204,43.85919669332375,1577396491.0,-27.688497304245463,-51.12076042808958,13.208171
106082,1577396491.24,-0.701763864656774,-0.4490587991854038,10.123472953833604,-1.7265697679473129,0.3975542659108222,8.489663901426734,-0.9670822852157958,-0.953125841391958,10.009106028189311,0.7322357922065548,0.6672928972942074,2.805570276772104,0.7474945812690549,-1.9944353801448167,3.173455959413109,1.0413193121189026,-0.4177558712842988,3.0956733517530486,-0.412303772056797,-24.832467185592183,3.7197744963369854,-12.872493131868136,-38.41571618037136,-23.1244787264018,28.14050378889987,38.30014676371043,43.85919669332375,1577396491.0,-27.688497304245463,-51.12076042808958,13.208171
106083,1577396491.25,-0.6239523107016959,-0.4322993875643101,10.127064256323838,-0.7760717088652814,-0.9108769413645672,9.792109604551731,-0.9096214453720458,0.7611225472799164,9.286057126822122,0.1524018078315548,-1.7893721417682926,2.454618128334604,1.4493988781440548,-1.7655535442073171,2.471551662538109,2.353575171493903,2.725554675590701,2.9278266720655486,-0.412303772056797,-24.832467185592183,3.7197744963369854,-12.872493131868136,-33.53752999873689,-23.1244787264018,28.14050378889987,38.39599245215204,43.95504238176535,1577396491.0,-27.688497304245463,-51.12076042808958,13.208171
106084,1577396491.26,-0.5353668492759146,-0.1809082132479038,9.035308299292588,-1.578129265017625,0.9027308162037908,8.444174069883765,-0.3709260718368896,-0.8525693716653955,9.125645615591653,1.6172455578315548,-0.9348799542682926,3.034452112709604,-0.2290679187309451,-0.8652849895198171,3.173455959413109,1.6821884527439026,2.3288261599657014,1.6918647580030486,-0.7421467897022332,-26.29320054945055,3.7197744963369854,-13.565960775335776,-32.62287008968043,-23.1244787264018,28.23634947734148,38.39599245215204,43.85919669332375,1577396491.0,-27.688497304245463,-51.12076042808958,13.208171
106085,1577396491.27,0.0033285242592406,0.6331203512052201,9.890038291968368,0.3037132398651863,-0.7133553044016766,9.478469187071264,-1.2639632910751708,-0.2228943350443018,9.812781492056498,3.1431244640815548,1.2318680926067074,3.217557581459604,-0.6868315906059451,2.064402510480183,3.387079006288109,3.726866187118903,3.4274589724657014,0.3796088986280487,-2.061518860283982,-27.023567231379733,4.074038734083371,-13.392593864468866,-32.77531340785651,-23.46454459002536,28.23634947734148,38.25222391948962,43.90711953754455,1577396491.0,-27.688497304245463,-51.12076042808958,13.208171
106086,1577396491.28,-1.094412936922399,-0.0468329202791543,8.295499986304307,-1.384198930544969,0.1772877131764478,9.52635322027439,-0.3386043494247802,0.1673605355611663,9.690677207388529,0.0608490734565548,1.5370438738567074,2.942899378334604,0.5338715343940548,-1.5214129192073171,2.700433498475609,1.8805527105564028,-1.3485420040967986,0.1354682736280487,-1.0719898073476712,-24.832467185592183,4.074038734083374,-13.392593864468866,-32.77531340785651,-66.99297513384053,28.21238805523108,38.276185341600026,43.90711953754455,1577396491.0,-27.688497304245463,-51.12076042808958,13.208171
106087,1577396491.29,-1.150676675936071,0.3865175802091263,9.818212242163682,-0.1344256639434063,-1.2472622746165205,10.108144223692358,-2.324594626524389,-1.3768995352396145,9.161558640493997,1.7087982922065548,-1.0264326886432926,3.187040003334604,-0.5037261218559451,-2.299611161394817,2.624139553163109,2.262022437118903,0.0705253787157012,1.2951362423780486,-1.2369113161703893,-24.284692174145302,3.188378139717421,-13.565960775335776,-40.85480927118858,-19.72382009016624,28.092580944679067,38.25222391948962,43.95504238176535,1577396491.0,-27.688497304245463,-51.12076042808958,13.208171
106088,1577396491.3,-1.9958298619712271,-0.1114763651033726,10.89799719089415,-1.415323552127,-0.3829554753001142,10.206306491758763,0.8070211449599844,-1.6498385244974267,10.001923423208842,-2.380557176543445,-6.428044016768292,2.302030237709604,1.1442230968940548,-0.4380388957698171,1.3729188500381098,1.2244247808689026,7.333708972465701,-2.3974907107469514,-0.412303772056797,-26.29320054945055,4.074038734083371,-13.62374974562475,-37.95838622584312,-18.703622499295577,28.044658100458264,38.39599245215204,43.85919669332375,1577396491.0,-27.688497304245463,-51.12076042808958,13.208171
106089,1577396491.31,-1.1650418858970084,-0.2551284647127476,9.518937034644152,-2.5142621141387185,0.8045685481373847,9.399460532286108,-0.9024388403915772,-0.9866446646341456,9.341123765005715,0.9763764172065548,1.2929032488567074,3.003934534584604,-1.0225249499809452,-0.8347674113948171,3.448114162538109,-1.1864638910060974,-2.4319160275342986,-6.151152820121951,-2.2264403691067,-23.189142151251527,4.605435090702943,-13.565960775335776,-39.02548945307566,-25.84500563539025,28.044658100458264,38.30014676371043,44.050888070206966,1577396491.0,-27.688497304245463,-51.12076042808958,13.208171
106090,1577396491.32,-1.335030203768102,-0.5795427896639194,8.927569224585556,-0.6515732225371564,-1.2472622746165205,8.796121713926734,-0.5205636755966552,-0.0852277395853179,8.829961710562358,0.2439545422065547,-0.4160811261432927,3.141263636147104,0.4880951672065548,-1.8723650676448167,1.922235256288109,-1.1559463128810974,-3.759430675971799,-1.8481743044969516,0.0824607544113582,-23.919508833180707,4.782567209576139,-15.126262973137976,-41.00725258936466,-19.38375422654269,27.996735256237457,38.32410818582083,44.07484949231737,1577396491.0,-27.688497304245463,-51.12076042808958,13.208171
106091,1577396491.33,-1.0692738194907585,-0.8512846780916538,8.786311326636337,-1.0753469163848126,-0.6822306828196454,8.67641163091892,-1.563238498594702,2.123423291908822,7.162400254263529,-0.9462310046684452,-1.0264326886432926,3.248075159584604,-0.8394194812309451,-3.276173661394817,3.509149318788109,-2.773377953506097,-1.0891425900342988,0.8984077267530487,-0.412303772056797,-23.371733821733823,4.782567209576139,-13.62374974562475,-41.00725258936466,-20.74401768103691,28.044658100458264,38.58768382903526,44.050888070206966,1577396491.0,-27.688497304245463,-51.12076042808958,13.208171
106092,1577396491.34,-0.4635407994712271,-0.6358065286775912,7.902850914038681,0.2797712232636238,-1.4675288273508953,9.169617172911108,-0.0740450659775145,-0.1989523184427393,8.907773264517434,2.6243256359565548,-2.765934641768293,3.034452112709604,-1.3887358874809452,-2.787892411394817,1.861200100038109,0.0342392339939026,2.1457206912157014,4.621552258003049,-0.2473822632340788,-26.84097556089744,4.605435090702943,-13.450382834757836,-35.976623089554124,-2.720526908988449,27.90088956779585,38.44391529637284,43.90711953754455,1577396491.0,-27.688497304245463,-51.12076042808958,13.208171
106093,1577396491.35,-1.0932158360923208,-0.297026993765482,8.920386619605088,-1.0107034715605938,-0.2464859806712079,8.90625499029392,-0.8617374121689207,-0.7448302969583643,8.632440073599467,-1.571841356230945,-3.757755930830792,2.714017542397104,0.1371430187690548,-0.6516619426448171,1.8001649437881098,1.0413193121189026,-3.7746894650342986,4.987763195503049,-1.0719898073476712,-25.56283386752137,4.074038734083371,-13.450382834757836,-35.976623089554124,-2.720526908988449,27.996735256237457,38.30014676371043,43.76335100488214,1577396491.0,-27.688497304245463,-51.12076042808958,13.208171
106094,1577396491.36,-0.6478943273032584,-0.5711630838533727,10.033690391577744,-0.3331444017363756,-1.2352912663157392,9.502411203672828,-0.9994040076279052,-1.634276213706411,10.177897245230326,-2.289004442168445,-4.291813548018292,2.637723597084604,-1.4192534656059452,-2.650563309832317,2.364740139100609,-0.2251601800685974,-0.4635322384717988,2.7142036251905486,-1.7316758426385437,-24.832467185592183,3.7197744963369854,-12.814704161579163,-34.29974658961728,-26.185071499013805,28.092580944679067,38.37203103004164,43.97900380387576,1577396491.0,-27.688497304245463,-51.12076042808958,13.208171
106095,1577396491.37,-1.2751751622641958,-0.4179341776033726,10.792652317847274,-0.9795788499785626,0.0264530085866035,10.227854306700172,-1.122705393125952,0.4067807015767908,9.321970151724466,-1.8922759265434448,-3.162663157393293,2.424100550209604,1.0526703625190548,-5.229298661394817,1.8001649437881098,-0.2099013910060974,-1.8215644650342988,2.0275581173780486,-1.7316758426385437,-24.832467185592183,3.7197744963369854,-13.103649013024016,-43.29390236200581,-25.84500563539025,27.94881241201665,38.30014676371043,43.95504238176535,1577396491.0,-27.688497304245463,-51.12076042808958,13.208171
106096,1577396491.38,-0.6862015538657584,-0.978177366079935,9.5763978744879,-1.444053972048875,-0.8210943791087079,8.034765585997047,-1.7763224463486085,1.941463965736947,9.276480320181497,-3.021426317168445,-2.064030344893293,2.454618128334604,-0.5952788562309451,-3.184620927019817,3.203973537538109,-0.8812881097560974,-1.5469062619092988,3.9196479611280486,-0.2473822632340788,-26.84097556089744,4.251170852956559,-13.565960775335776,-33.53752999873689,-25.84500563539025,28.14050378889987,38.39599245215204,44.050888070206966,1577396491.0,-27.688497304245463,-51.12076042808958,13.208171
106097,1577396491.39,-0.7819696202720083,-0.441876194204935,9.814620939673446,0.5670754224823739,-2.1379052921946453,8.997234653379858,-0.3709260718368896,-0.8836939932474268,8.780880576529155,-1.205630418730945,-1.5147139386432928,2.607206018959604,-1.5108061999809452,-2.208058427019817,1.6780946312881098,-0.4845595941310974,-0.2956855587842988,5.872772961128049,-0.9070682985249532,-26.11060887896825,4.074038734083374,-13.161437983312986,-33.68997331691297,-110.52140567765568,28.092580944679067,38.44391529637284,43.85919669332375,1577396491.0,-27.688497304245463,-51.12076042808958,13.208171
106098,1577396491.4,-0.5832508824790397,0.5014392598966264,8.824618553198837,-1.3710308214141094,1.0128640925709784,9.656837210752906,-0.5899955237411865,-0.3294363089212554,9.643990275015485,1.1899994640815548,-0.3855635480182927,2.729276331459604,-3.082461473418445,-1.3840838176448171,2.288446193788109,-1.5068984613185972,-0.9823310665967988,5.903290539253049,-0.412303772056797,-24.832467185592183,4.428302971829755,-13.62374974562475,-33.08020004420867,-108.48101049591436,28.044658100458264,38.276185341600026,43.88315811543415,1577396491.0,-27.688497304245463,-51.12076042808958,13.208171
106099,1577396491.41,-0.5138190343345084,0.3697581685880326,9.164595188941028,0.3300494581269051,-1.3813375675852704,9.27735624761814,-0.184178342344702,-1.3026792837747705,9.992346616568216,-1.6176177234184452,-0.1719405011432926,2.393582972084604,-2.395815965605945,0.9352521198551828,2.105340725038109,-2.590272484756097,0.5282890505907012,4.621552258003049,-0.412303772056797,-24.832467185592183,4.428302971829755,-13.450382834757836,-3.963526272577997,-105.42041772330234,27.94881241201665,38.39599245215204,43.90711953754455,1577396491.0,-27.688497304245463,-51.12076042808958,13.208171
106100,1577396491.42,-1.4643170934165397,0.0489351461270951,9.559638462866808,-0.7090340623809064,0.8069627497975409,9.207924399473608,0.0983374535537344,1.0436383431783534,9.211836875357278,-2.716250535918445,1.872737233231708,2.454618128334604,-2.334780809355945,-1.5977068645198171,1.2203309594131098,-0.4235244378810974,-1.2417304806592988,4.560517101753049,-0.412303772056797,-24.832467185592183,4.428302971829755,-19.63380265567766,-32.47042677150436,-22.10428113553113,28.092580944679067,38.44391529637284,44.050888070206966,1577396491.0,-27.688497304245463,-51.12076042808958,13.208171
106101,1577396491.43,-1.0106158788169302,-0.2958298929354038,8.828209855689073,-1.412929350466844,0.1054616633717598,8.834428940489232,-0.1123522925400145,0.0955344857564784,9.788839475454935,-2.823062059355945,-3.1321455792682924,2.118924768959604,-1.8464995593559448,-5.137745927019817,2.624139553163109,-3.658387719131097,-2.0657050900342986,4.529999523628049,-0.989529052936312,-25.28894636179793,4.516869031266349,-19.113701923076928,-32.31798345332828,-25.84500563539025,27.996735256237457,38.44391529637284,43.76335100488214,1577396491.0,-27.688497304245463,-51.12076042808958,13.208171
106102,1577396491.44,-1.160253482576696,0.1470974141935014,11.15896517185118,-0.7832543138457502,-0.3326772404368334,11.043079971983374,-0.4702854407333744,-0.2851435782083649,10.011500229849467,-4.211611864043445,-5.207340891768292,1.996854456459604,-2.044863817168445,-2.635304520769817,1.4492127953506095,-0.7287002191310974,-2.4471748165967986,4.301117687690549,-2.2264403691067,-25.38024219703907,4.959699328449328,-15.386313339438342,-35.443071475937856,-26.015038567202023,28.092580944679067,38.276185341600026,43.95504238176535,1577396491.0,-27.688497304245463,-51.12076042808958,13.208171
106103,1577396491.45,-0.8202768468345084,-0.1713314066072788,10.625058201636335,-0.7233992723418439,0.4645919123951973,9.770561789610326,-0.8713142188095457,1.3237599374166344,9.970798801626811,-2.807803270293445,-1.8809248761432928,2.302030237709604,-1.8770171374809448,-5.626027177019817,2.593621975038109,-2.834413109756097,-1.8215644650342988,5.994843273628049,-0.7421467897022332,-25.19765052655677,4.428302971829755,-15.93530855718356,-37.34861295313882,-26.185071499013805,28.14050378889987,38.44391529637284,43.95504238176535,1577396491.0,-27.688497304245463,-51.12076042808958,13.208171
106104,1577396491.46,-0.8442188634360709,0.4272190084317826,10.670548033179308,-0.0123213792754376,-0.3207062321360517,10.314045566465795,-1.1562242163681395,-1.2643720572122703,8.70666032506431,-1.9533110827934448,-0.8128096417682926,2.942899378334604,-2.914614793730945,-3.215138505144817,2.471551662538109,-0.6676650628810974,1.4438163943407012,3.5839546017530486,-0.7421467897022332,-25.19765052655677,4.428302971829755,-15.93530855718356,-37.34861295313882,-26.185071499013805,27.94881241201665,38.15637823104801,43.95504238176535,1577396491.0,-27.688497304245463,-51.12076042808958,13.208171
106105,1577396491.47,-0.5365639501059928,-0.1701343057772012,9.550061656226182,-0.5917181810332501,0.194047124797541,8.775770999815405,-0.9634909827255614,-0.3509841238626612,8.954460196890482,-2.487368699980945,-2.155583079268293,2.454618128334604,-1.4192534656059452,-1.5061541301448171,1.922235256288109,-1.2627578363185972,1.9320976443407012,3.3550727658155486,0.0,-24.558579679868743,3.808340555773584,-14.779529151404155,-37.04372631678666,-12.582436954071568,28.04465810045826,38.276185341600026,43.83523527121334,1577396491.0,-27.688497304245463,-51.12076042808958,13.208171
106106,1577396491.48,-0.5593088658774771,-0.2240038431307163,9.011366282691029,0.1887915601776863,-0.995871100300114,9.693947336485326,-0.835401193907202,-0.723282482016958,10.10487409459556,-3.082461473418445,-1.5147139386432926,2.546170862709604,-3.677554246855945,-1.7808123332698171,2.135858303163109,-0.8812881097560974,-0.5703437619092988,1.4782417111280486,-1.7316758426385437,-24.467283844627595,4.074038734083371,-13.62374974562475,-43.446345680181885,-26.185071499013805,28.092580944679067,38.39599245215204,43.95504238176535,1577396491.0,-27.688497304245463,-51.12076042808958,13.208171
106107,1577396491.49,0.0224821375404906,-0.3604733377596226,9.674560142554308,-0.7808601121855939,1.247495855266291,10.201518088438451,-0.931169260313452,1.271087500893197,9.07776158238853,0.6101654797065549,-0.8738447980182926,2.607206018959604,-0.5342436999809451,-1.5671892863948171,1.7391297875381098,-1.1864638910060974,-2.4929511837842986,1.6613471798780486,-0.412303772056797,-24.832467185592183,3.3655102585906094,-13.62374974562475,-39.78770604395604,-25.504939771766697,28.044658100458264,38.39599245215204,43.90711953754455,1577396491.0,-27.688497304245463,-51.12076042808958,13.208171
106108,1577396491.5,-0.2815814732993521,0.0130221212247514,10.85250735935118,-0.0482344041777813,-0.7085669010813641,7.977304746153296,-1.477047238829077,0.0524388558736659,9.171135447134622,-1.2819243640434452,-1.6367842511432926,2.027372034584604,-2.121157762480945,1.7897443073551829,2.837762600038109,-2.987001000381097,2.9086601443407014,2.5768745236280486,-1.5667543338158256,-25.01505885607448,4.251170852956559,-13.62374974562475,-37.34861295313882,-24.14467631727247,28.23634947734148,38.49183814059364,43.95504238176535,1577396491.0,-27.688497304245463,-51.12076042808958,13.208171
106109,1577396491.51,-0.1666597936118526,-0.2443545572420444,10.119881651343368,-0.5163008287383287,-0.4104887943919115,10.181167374327124,-1.2017140479111084,-0.1702218985208648,9.58174103185142,-0.854678270293445,-0.0956465558307926,2.302030237709604,-0.4426909656059452,-2.375905106707317,1.830682521913109,0.9650253668064026,4.556609363090701,0.9136665158155486,-1.0719898073476704,-25.380242197039077,4.074038734083371,-13.479277319902325,-38.4919378394594,-22.61437993096647,28.044658100458264,38.32410818582083,44.00296522598616,1577396491.0,-27.688497304245463,-51.12076042808958,13.208171
106110,1577396491.52,-0.5377610509360709,-0.4993370340486851,9.823000645483994,-0.1870981004668439,-0.7612393376048017,7.730701975157203,-2.0923570654892334,-0.6251202139505518,10.248526194204937,-0.8851958484184451,3.795344655106707,2.424100550209604,-2.090640184355945,2.674754072980183,3.081903225038109,-0.3624892816310974,9.5004570193407,0.1965034298780487,-1.7316758426385437,-25.19765052655677,4.428302971829755,-13.62374974562475,-33.38508668056082,-20.74401768103691,28.14050378889987,38.49183814059364,43.90711953754455,1577396491.0,-27.688497304245463,-51.12076042808958,13.208171
106111,1577396491.53,-0.8370362584556021,-0.6429891336580601,8.568438975562119,-0.1272430589629376,-1.6399113468821451,10.026741367247046,-0.500212961485327,-2.195716503013052,11.907707944693216,-0.8546782702934451,3.490168873856707,2.363065393959604,0.1371430187690548,-1.2314959270198171,1.891717678163109,-0.8812881097560974,2.1152031130907014,-4.075957507621951,-1.0719898073476712,-24.832467185592183,5.845359922815277,-13.62374974562475,-33.68997331691297,-104.40022013243168,28.044658100458264,38.25222391948962,44.050888070206966,1577396491.0,-27.688497304245463,-51.12076042808958,13.208171
106112,1577396491.54,-0.7963348302329458,-1.33251921178306,9.171777793921494,-0.8862049852324688,-1.896090924518864,10.63726279058689,0.3281808129287344,3.902315125404916,10.464004343618996,-0.1527739734184451,2.025325123856707,2.729276331459604,-0.3816558093559451,0.2028302448551829,1.861200100038109,4.947569312118903,-9.4814765744093,-2.0007621951219514,-0.5772252808795152,-26.110608878968257,4.605435090702943,-13.508171805046809,-33.38508668056082,-104.40022013243168,28.092580944679067,38.25222391948962,43.76335100488214,1577396491.0,-27.688497304245463,-51.12076042808958,13.208171
106113,1577396491.55,-0.9651260472739616,-0.8045977457186069,10.56520316013243,-0.9484542283965314,-0.4835119450266767,8.978081040098608,-2.0564440405868893,0.2511575936666346,9.717013425650247,-1.0683013171684452,-0.4923750714557926,2.256253870522104,-0.1680327624809451,3.193552901105183,2.837762600038109,-5.977723656631097,-2.4013984494092986,1.9970405392530488,-0.7421467897022342,-25.197650526556775,4.251170852956562,-13.62374974562475,-32.77531340785651,-105.0803518596788,27.972773834127057,38.25222391948962,44.050888070206966,1577396491.0,-27.688497304245463,-51.12076042808958,13.208171
106114,1577396491.56,-0.6143755040610709,-1.0715512308260289,10.58435677341368,0.7909332777069833,-0.7648306400950365,10.742607663633764,-0.0656653601669682,0.4726212472310882,10.270074009146342,-0.1832915515434451,0.2858231707317073,2.393582972084604,-2.426333543730945,2.262766768292683,1.937494045350609,-0.3014541253810971,-4.568146496284299,3.5992133908155486,-0.9070682985249532,-24.64987551510989,4.605435090702943,-13.277015923890923,-33.53752999873689,-104.40022013243168,28.092580944679067,38.30014676371043,44.050888070206966,1577396491.0,-27.688497304245463,-51.12076042808958,13.208171
106115,1577396491.57,-0.7364797887290396,-0.0492271219393101,10.0743918198004,-1.3434975023223126,0.8021743464772284,9.701129941465796,0.1581924950576407,-0.675398448813833,9.144799228872904,1.4036225109565548,1.872737233231708,2.332547815834604,1.4188813000190548,-1.6587420207698171,2.837762600038109,-2.376649437881097,-1.6994941525342988,5.659149914253049,-1.2369113161703893,-24.284692174145302,4.605435090702943,-19.402646774521777,-38.56815949854744,-107.12074704142012,28.044658100458264,38.0605325426064,44.19465660286938,1577396491.0,-27.688497304245463,-51.12076042808958,13.208171
106116,1577396491.58,-0.4970596227134146,-0.2000618265291538,9.720049974097275,0.2342813917206551,-1.580056305378239,9.89745447759861,0.6705516503310782,-4.235576317466177,10.404149302115092,0.7627533703315549,3.917414967606707,3.003934534584604,-1.4802886218559452,1.2709454792301829,2.502069240663109,-2.071473656631097,3.0002128787157014,0.9594428830030488,-0.412303772056797,-24.467283844627595,4.782567209576139,-19.402646774521777,-38.56815949854744,-107.12074704142012,28.044658100458264,38.44391529637284,43.85919669332375,1577396491.0,-27.688497304245463,-51.12076042808958,13.208171
106117,1577396491.59,-0.8885115941489615,-0.9817686685701694,9.392044346655869,-0.9209209093047344,-0.3350714420969897,9.312072171690405,-0.8018823706650146,1.5751511117330412,11.661105173697123,-0.6257964343559451,0.7741044207317074,2.469876917397104,-1.2208892077934452,-0.9263201457698172,2.761468654725609,-1.3390517816310972,-9.2525947384718,1.6460883908155486,-0.6596860352908751,-24.74117135035104,4.516869031266349,-16.33983134920635,-39.17793277125174,-24.484742180896028,27.972773834127054,38.41995387426245,43.93108095965495,1577396491.0,-27.688497304245463,-51.12076042808958,13.208171
106118,1577396491.6,-1.1578592809165396,-0.8608614847322787,10.385638035620712,-1.0154918748809063,-1.7452562199290202,10.42657304449314,-1.4554994238876708,0.0213142342916346,10.559772410025248,0.0608490734565548,0.1637528582317073,2.820829065834604,-0.3206206531059451,-0.5295916301448171,2.776727443788109,-3.536317406631097,-8.6269843869093,5.353974133003049,-2.391361877929418,-26.65838389041514,5.136831447322516,-16.39762031949532,-40.7023659530125,-9.861910045083125,27.90088956779585,38.0605325426064,43.85919669332375,1577396491.0,-27.688497304245463,-51.12076042808958,13.208171
106119,1577396491.61,-1.3326360021079455,0.1949814473966264,10.866872569312118,-0.4791907030059064,-0.3494366520579267,10.682752622129858,0.5795719872451407,0.9071688485494472,8.888619651236185,0.7932709484565549,-0.9653975323932926,2.149442347084604,0.2592133312690549,0.2638654011051829,2.013787990663109,0.9802841558689026,-6.948517590034299,6.513642101753049,-0.2473822632340788,-24.284692174145302,5.313963566195704,-16.975510022385023,-41.00725258936466,-20.74401768103691,27.90088956779585,38.44391529637284,43.85919669332375,1577396491.0,-27.688497304245463,-51.12076042808958,13.208171
106120,1577396491.62,-1.2739780614341176,-0.6190471170564975,9.55724426120665,-1.645166911502,-0.3326772404368329,9.86393565435642,-1.256780686094702,0.8401312020650722,7.827988315786967,0.8543061047065548,1.2471268816692074,2.561429651772104,-0.4732085437309451,-0.041310380144817,3.356561428163109,1.4685654058689026,-2.2793281369092986,7.154511242378049,-0.9070682985249532,-25.01505885607448,4.251170852956559,-18.940335012210014,-35.21440649867374,-9.861910045083125,28.18842663312068,38.39599245215204,43.90711953754455,1577396491.0,-27.688497304245463,-51.12076042808958,13.208171
106121,1577396491.63,-0.8298536534751334,-0.7219977884432163,9.035308299292588,-0.5258776353789533,-0.9420015629465984,9.14926645879978,-1.5213399695419676,-1.87130217806188,8.938897886099467,-0.3053618640434451,-2.308170969893293,2.118924768959604,1.1747406750190548,-2.269093583269817,1.922235256288109,2.628233374618903,5.548430652153201,4.713104992378049,-0.412303772056797,-26.29320054945055,5.136831447322516,-15.15515745828246,-39.40659774851586,-12.072338158636237,28.044658100458264,38.41995387426245,43.93108095965495,1577396491.0,-27.688497304245463,-51.12076042808958,13.208171
106122,1577396491.64,-0.6526827306235709,0.1806162374356889,9.631464512671494,-1.8127610277129376,0.2443253596608223,8.444174069883765,-0.6390766577743896,0.3038300301900721,10.198247959341654,3.5093354015815548,-2.582829173018293,2.424100550209604,1.5714691906440548,-2.085988114519817,3.7838075219131095,1.7127060308689026,5.960417956840701,1.0204780392530486,-1.0719898073476712,-24.102100503663006,3.3655102585906094,-13.62374974562475,-38.26327286219527,-25.504939771766697,28.092580944679067,38.44391529637284,43.95504238176535,1577396491.0,-27.688497304245463,-51.12076042808958,13.208171
106123,1577396491.65,-0.3198886998618521,0.1087901876310013,10.536472740210556,-0.3163849901152814,-1.0126305119212078,9.36594170904392,-0.4930303565048583,0.5600096078267909,9.784051072134622,0.5796479015815549,-0.2940108136432927,2.637723597084604,1.3273285656440548,-0.193898270769817,2.227411037538109,4.886534155868903,4.678679675590701,2.6684272580030486,-1.4018328249931091,-25.56283386752137,4.074038734083371,-13.161437983312986,-38.26327286219527,-25.504939771766697,28.14050378889987,38.10845538682721,43.76335100488214,1577396491.0,-27.688497304245463,-51.12076042808958,13.208171
106124,1577396491.66,-0.3809408421958365,-0.593907999624857,10.16417438205626,-0.0649938157988751,0.040818218547541,9.2629910376572,-1.4531052222275145,-2.0305165884622705,9.815175693716654,0.6712006359565548,1.8269608660442072,2.317289026772104,1.6019867687690548,3.071482588605183,1.6475770531631098,5.985166968368903,0.5282890505907012,1.6003120236280486,-0.082460754411359,-25.56283386752137,4.074038734083371,-13.045860042735043,-34.90951986232159,-22.10428113553113,28.02069667834786,38.49183814059364,43.85919669332375,1577396491.0,-27.688497304245463,-51.12076042808958,13.208171
106125,1577396491.67,-0.4156567662681021,-0.96860055943931,10.385638035620712,-0.1056952440215319,-0.3506337528880053,9.90942548589939,-0.720479514219702,1.202852753578744,10.8853838358065,-0.2138091296684451,2.879817311356707,2.881864222084604,-0.2290679187309451,0.6300763386051829,3.6464784203506095,2.002623023056403,-2.1267402462842986,2.0275581173780486,-0.082460754411359,-25.56283386752137,4.074038734083371,-13.62374974562475,-33.08020004420866,-103.03995667793744,28.14050378889987,38.44391529637284,44.122772336538176,1577396491.0,-27.688497304245463,-51.12076042808958,13.208171
106126,1577396491.68,-0.9543521398032584,0.7887434591153765,11.554008445776962,-1.4703901903105938,0.4885339289967598,10.907807578184546,-0.4571173316025145,-2.382464232505239,9.187894858755715,3.0210541515815548,1.4149735613567074,2.729276331459604,1.8461273937690548,-0.7126970988948171,2.471551662538109,2.078916968368903,-3.4695136837842986,3.0346381955030486,0.412303772056797,-24.64987551510989,4.605435090702943,-13.62374974562475,-32.47042677150436,-106.44061531417302,28.044658100458264,38.25222391948962,43.90711953754455,1577396491.0,-27.688497304245463,-51.12076042808958,13.208171
106127,1577396491.69,-0.9567463414634146,0.4559494283536576,9.94031652683165,-2.8183257249785623,0.8332989680592597,9.670005319883764,0.4598619042373282,2.0324436288228847,9.56857292272056,-1.3124419421684452,0.1332352801067073,2.698758753334604,1.6630219250190548,-2.238576005144817,4.4246766625381095,0.7361435308689026,1.4743339724657012,3.0651557736280486,0.7421467897022316,-25.745425538003666,3.8969066152101823,-13.62374974562475,-32.47042677150436,-106.44061531417302,28.092580944679067,38.30014676371043,43.85919669332375,1577396491.0,-27.688497304245463,-51.12076042808958,13.208171
106128,1577396491.7,-0.9340014256919302,0.3134944295743607,9.854125267066024,-0.5510167528105939,-1.6949779850657392,9.310875070860329,-0.9000446387314208,-1.477456004966177,9.324364353384622,1.7698334484565548,2.147395436356707,3.171781214272104,1.6019867687690548,-1.1094256145198171,2.715692287538109,2.750303687118903,2.3288261599657014,4.377411633003049,-1.8965973514612635,-26.110608878968257,4.428302971829755,-13.62374974562475,-31.555766862447896,-113.24193258664414,28.092580944679067,38.39599245215204,43.76335100488214,1577396491.0,-27.688497304245463,-51.12076042808958,13.208171
106129,1577396491.71,-0.8154884435141959,-0.6884789652010288,8.609140403784775,-1.9576102281523904,0.2395369563405102,9.330028684141576,-0.169813132383765,-0.3186624014505523,9.07776158238853,1.3731049328315548,1.6896317644817074,2.973416956459604,0.8085297375190548,0.3706769245426828,3.600702053163109,3.497984351181403,-0.1736152462842988,2.2716987423780486,-2.391361877929418,-26.29320054945055,4.782567209576139,-19.113701923076924,-37.34861295313881,-26.185071499013805,28.092580944679067,38.41995387426244,43.88315811543416,1577396491.0,-27.688497304245463,-51.12076042808958,13.208171
106130,1577396491.72,-0.6766247472251333,-0.2263980447908726,8.85574317478087,-0.2277995286895001,-2.145087897175114,8.45375087652439,-1.1825604346298582,-0.8405983633646142,10.365842075552592,4.730038526581555,0.5909989519817074,3.248075159584604,1.9681977062690548,-0.193898270769817,2.746209865663109,2.017881812118903,3.3969413943407014,2.7294624142530486,-0.5772252808795152,-25.745425538003666,4.959699328449328,-16.744354141229145,-38.56815949854744,-25.504939771766697,28.14050378889987,38.44391529637284,43.667505316440526,1577396491.0,-27.688497304245463,-51.12076042808958,13.208171
106131,1577396491.73,-1.3589722203696646,-1.4522292947908726,10.92912181247618,-0.6204486009551251,-0.3494366520579267,9.60296767339939,0.3808532494521719,-0.4623145010599268,10.126421909536967,-3.051943895293445,-1.0874678448932926,3.370145472084604,1.7545746593940548,-1.6282244426448171,2.959832912538109,2.780821265243903,1.8100273318407007,1.9054878048780488,-1.5667543338158256,-25.38024219703907,5.313963566195704,-16.744354141229145,-38.56815949854744,-25.504939771766697,27.852966723575044,38.30014676371043,43.85919669332375,1577396491.0,-27.688497304245463,-51.12076042808958,13.208171
106132,1577396491.74,-0.7424652928794302,0.258427791390767,9.848139762915634,-0.6635442308379382,-0.5098481632883959,9.929776200010718,-0.1171406958603275,-0.416824669516958,9.120857212271344,2.7769135265815548,1.0029862566692074,3.263333948647104,0.0150727062690548,1.0268048542301829,3.570184475038109,1.5753769293064028,3.869963855278201,2.2564399533155486,-0.8246075441135924,-25.28894636179792,3.808340555773588,-16.68656517094017,-39.78770604395605,-17.683424908424907,28.18842663312068,38.39599245215204,43.97900380387576,1577396491.0,-27.688497304245463,-51.12076042808958,13.208171
106133,1577396491.75,-0.8753434850181021,-0.6358065286775912,10.311417784155868,0.0475336622284676,-0.3997148869212079,8.25024373541111,1.245160048768578,-0.9483374380716456,9.295633933462748,-0.9767485827934452,1.1708329363567074,2.973416956459604,2.9752777843940548,0.6300763386051829,3.142938381288109,4.489805640243903,2.3593437380907014,2.6684272580030486,0.412303772056797,-25.38024219703907,3.188378139717421,-18.478023249898254,-43.446345680181885,-24.824808044519585,28.092580944679067,38.39599245215204,43.90711953754455,1577396491.0,-27.688497304245463,-51.12076042808958,13.208171
106134,1577396491.76,-0.0684975255454459,0.1877988424161576,8.393662254370712,-0.5055269212676251,0.0623660334889473,8.738660874082983,-1.1825604346298582,-1.0057982779153956,8.38823150426353,2.7158783703315548,3.032405201981707,3.339627893959604,0.0455902843940548,-3.550831864519817,4.6688172875381095,-0.6676650628810974,5.746794909965701,2.3022163205030486,-0.9070682985249532,-25.745425538003666,4.959699328449328,-13.565960775335776,-42.68412908930151,-4.08079036348267,28.14050378889987,38.30014676371043,43.71542816066133,1577396491.0,-27.688497304245463,-51.12076042808958,13.208171
106135,1577396491.77,-0.4635407994712271,-0.4682124124666538,8.769551915015244,0.1433017286347176,-1.4124621891673017,9.48086338873142,-1.0604561499618894,-1.748000792563833,8.675535703482279,-0.6105376452934451,0.3773759051067073,3.156522425209604,0.3507660656440549,1.3014630573551829,2.257928615663109,2.658750952743903,3.824187488090701,2.3022163205030486,-1.0719898073476712,-25.19765052655677,4.782567209576139,-13.565960775335776,-42.68412908930151,-4.08079036348267,28.044658100458264,38.39599245215204,43.90711953754455,1577396491.0,-27.688497304245463,-51.12076042808958,13.208171
106136,1577396491.78,-0.7735899144614615,-0.3018153970857945,9.718852873267195,-0.4396863756133283,-0.7636335392649579,7.618174497129859,-1.4806385413193115,-0.6095579031595367,9.129236918081888,0.3202484875190548,0.3315995379192073,2.927640589272104,0.2897309093940548,-0.2396746379573172,3.539666896913109,1.8347763433689028,7.9135429568407005,3.1109321408155486,-0.247382263234078,-25.19765052655677,4.428302971829755,-13.161437983312986,-41.92191249842112,-14.96289799943646,28.092580944679067,38.324108185820826,43.97900380387576,1577396491.0,-27.688497304245463,-51.12076042808958,13.208171
106137,1577396491.79,-0.4252335729087271,-0.2958298929354038,9.413592161597276,-1.2237874193145002,-0.5050597599680829,10.46488027105564,-0.4259927100204833,-0.8836939932474268,10.92129686070884,1.5256928234565548,1.0792802019817074,2.698758753334604,-0.9614897937309452,0.5080060261051829,2.105340725038109,2.414610327743903,0.4062187380907012,0.3796088986280487,-0.412303772056797,-25.19765052655677,4.074038734083371,-13.161437983312986,-41.00725258936466,-19.38375422654269,28.284272321562284,38.58768382903526,44.050888070206966,1577396491.0,-27.688497304245463,-51.12076042808958,13.208171
106138,1577396491.8,-1.2129259191001334,0.0369641378263139,9.566821067847275,-1.9779609422637188,0.2730557795826973,9.267779440977511,0.7040704735732657,3.1625068124166344,10.095297287954937,0.6712006359565549,2.361018483231707,2.607206018959604,1.0526703625190548,3.407175947980183,3.142938381288109,0.6140732183689026,0.1620781130907012,2.5463569455030486,-0.7421467897022332,-25.92801720848596,4.782567209576139,-13.219226953601956,-38.41571618037136,-106.10054945054944,28.044658100458264,38.10845538682721,43.95504238176535,1577396491.0,-27.688497304245463,-51.12076042808958,13.208171
106139,1577396491.81,-0.8669637792075553,0.0561177511075643,9.66618043674376,-0.0889358324004376,-0.0070658146555829,8.810486923887671,-1.726044211485327,-0.6107550039896144,8.10092730504478,0.4423188000190547,2.513606373856708,2.729276331459604,-2.304263231230945,4.444773604230183,4.0279481469131095,1.7737411871189026,7.150603503715701,4.102753429878049,-0.7421467897022341,-25.56283386752137,3.3655102585906094,-13.219226953601956,-38.41571618037136,-106.10054945054944,27.972773834127057,38.39599245215204,43.90711953754455,1577396491.0,-27.688497304245463,-51.12076042808958,13.208171
106140,1577396491.82,-0.8202768468345084,-0.5017312357088414,7.989042173804306,-0.6455877183867663,-0.4918916508372241,8.209542307188453,-1.2112908545517334,-1.222473528159536,10.537027494253763,-1.1598540515434452,0.8351395769817074,2.240995081459604,-0.3511382312309452,0.7674054401676829,2.471551662538109,1.5448593511814028,4.907561511528201,2.8973090939405486,-1.5667543338158256,-26.110608878968257,5.313963566195704,-13.334804894179896,-33.53752999873689,-111.88166913214992,28.044658100458264,38.276185341600026,43.90711953754455,1577396491.0,-27.688497304245463,-51.12076042808958,13.208171
106141,1577396491.83,-0.8968912999595083,0.0920307760099076,8.5421027573004,-1.0370396898223126,-0.7995465641673016,9.169617172911108,-0.2751580054306395,0.5264907845846034,10.89735484410728,-1.5871001452934452,4.375178639481708,3.095487268959604,-1.8159819812309448,-1.3230486613948171,3.8448426781631095,-0.6371474847560974,0.8944999880907012,2.2106635861280486,-1.5667543338158256,-26.110608878968257,5.313963566195704,-13.508171805046809,-32.47042677150436,-105.76048358692589,28.044658100458264,38.25222391948962,43.85919669332375,1577396491.0,-27.688497304245463,-51.12076042808958,13.208171
106142,1577396491.84,-0.9758999547446646,-0.3245603128572789,10.35451341403868,-0.2541357469512189,-0.5098481632883954,10.510370102598609,-0.4834535498642333,-1.6498385244974267,9.515900486197122,-3.509707567168445,-2.277653391768293,2.149442347084604,0.1371430187690548,0.4469708698551829,1.7696473656631098,-0.5150771722560974,2.2067558474657014,3.9501655392530486,-1.5667543338158256,-26.110608878968257,5.313963566195704,-13.62374974562475,-32.165540135152206,-18.703622499295577,27.94881241201665,38.39599245215204,44.09881091442777,1577396491.0,-27.688497304245463,-51.12076042808958,13.208171
106143,1577396491.85,-0.8238681493247427,-0.1809082132479043,9.625479008521102,-1.4368713670684063,-0.7756045475657392,8.585431967832983,-1.1921372412704834,-0.3042971914896143,11.440838620962747,0.8085297375190548,0.1942704363567073,2.149442347084604,-0.6868315906059451,4.597361494855183,3.142938381288109,-2.040956078506097,2.2983085818407014,2.7904975705030486,-0.6596860352908742,-25.28894636179792,5.402529625632303,-13.62374974562475,-33.38508668056082,-18.703622499295577,28.044658100458264,38.25222391948962,43.76335100488214,1577396491.0,-27.688497304245463,-51.12076042808958,13.208171
106144,1577396491.86,-1.2248969274009145,-0.9422643411775912,10.536472740210556,-1.3027960740996565,-1.2316999638255046,10.316439768125951,-0.1961493506454838,0.2248213754049158,9.764897458853373,-1.1293364734184452,3.246028248856707,2.759793909584604,-0.6868315906059452,-2.009694169207317,2.593621975038109,0.4920029058689026,0.5588066287157012,3.3550727658155486,-0.412303772056797,-25.56283386752137,3.7197744963369854,-15.81973061660562,-35.67173645320197,-26.185071499013805,28.14050378889987,38.39599245215204,43.90711953754455,1577396491.0,-27.688497304245463,-51.12076042808958,13.208171
106145,1577396491.87,-1.2608099523032583,0.8749347188810014,9.899615098608994,-1.9372595140410624,0.031241411906916,9.64127489996189,-1.314241525938452,-1.029740294516958,10.485552158560404,0.9763764172065548,1.5675614519817074,2.515653284584604,-0.6257964343559451,3.803904463605183,2.685174709413109,-3.780458031631097,1.4743339724657012,3.0041206173780486,-1.2369113161703893,-25.38024219703907,4.959699328449328,-16.339831349206353,-38.11082954401919,1.3602634544942245,28.092580944679067,38.44391529637284,44.050888070206966,1577396491.0,-27.688497304245463,-51.12076042808958,13.208171
106146,1577396491.88,-0.7556334020102896,-0.2718878763338413,9.4231689682379,0.2917422315644051,-2.085232855671208,7.546348447325172,-0.6462592627548583,-0.2468363516458643,10.672299888052592,-0.8546782702934451,0.1332352801067073,2.271512659584604,-0.5647612781059451,-1.3230486613948171,2.685174709413109,0.3394150152439026,-2.1877754025342986,2.0275581173780486,-1.2369113161703893,-25.38024219703907,4.959699328449328,-16.802143111518113,-40.54992263483643,-13.602634544942235,28.14050378889987,38.49183814059364,43.95504238176535,1577396491.0,-27.688497304245463,-51.12076042808958,13.208171
106147,1577396491.89,-1.131523062654821,0.4906653524259232,9.1933256088629,-2.059363798709031,0.2778441829030098,9.82084002447361,-0.3182536353134521,0.5408559945455409,8.946080491079934,0.0455902843940549,2.605159108231707,2.302030237709604,-0.7783843249809451,-3.032033036394817,2.074823146913109,2.262022437118903,-4.415558605659299,2.5768745236280486,-1.319372070581749,-26.01931304372711,3.808340555773588,-16.802143111518113,-40.54992263483643,-13.602634544942235,28.092580944679064,38.58768382903526,43.85919669332375,1577396491.0,-27.688497304245463,-51.12076042808958,13.208171
106148,1577396491.9,-0.4467813878501334,-0.6429891336580601,8.508583934058212,-0.9975353624297352,-0.7349031193430834,9.331225784971656,-0.9479286719345458,0.0500446542135101,8.589344443716655,1.8308686047065548,3.520686451981707,2.393582972084604,-1.663394090605945,2.644236494855183,2.288446193788109,-1.5068984613185972,2.6034843630907014,2.3632514767530486,0.5772252808795135,-25.56283386752137,4.074038734083371,-13.565960775335776,-42.68412908930151,-19.383754226542685,28.092580944679067,38.25222391948962,43.83523527121334,1577396491.0,-27.688497304245463,-51.12076042808958,13.208171
106149,1577396491.91,-0.9208333165610708,-0.6477775369783726,8.391268052710556,-1.4009583421660623,-0.2967642155344892,8.939773813536107,-0.2081203589462645,-1.1614213858255518,9.879819138540872,-1.8922759265434448,-1.0264326886432926,1.844266565834604,-1.4497710437309452,0.9962872761051828,2.044305568788109,0.3699325933689026,2.9391777224657014,3.1872260861280486,-1.0719898073476712,-25.56283386752137,4.428302971829755,-13.450382834757836,-42.68412908930151,-8.161580726965344,28.092580944679067,38.30014676371043,43.85919669332375,1577396491.0,-27.688497304245463,-51.12076042808958,13.208171
106150,1577396491.92,-0.6526827306235709,-0.2407632547518101,9.245998045386338,-2.193439091677781,0.050395025188166,9.380306919004855,-1.7116790015243897,-2.020939781821645,10.490340561880716,0.0608490734565548,3.795344655106707,2.424100550209604,-2.212710496855945,-2.330128739519817,2.990350490663109,-4.360292016006097,3.0612480349657014,0.1049506955030487,-1.0719898073476712,-25.56283386752137,4.428302971829755,-12.988071072446076,-41.46458254389289,-25.84500563539025,27.94881241201665,38.58768382903526,43.95504238176535,1577396491.0,-27.688497304245463,-51.12076042808958,13.208171
106151,1577396491.93,-0.9842796605552114,-0.2060473306795449,11.264310044898057,-1.2010425035430157,-1.1826188297923017,11.283697238829076,-0.6845664893173589,0.963432587563119,10.089311783804543,-2.395815965605945,-0.1566817120807926,1.844266565834604,-0.1222563952934451,-1.384083817644817,1.7391297875381095,0.4004501714939027,-5.025910168159299,1.0357368283155486,-0.329843017645438,-26.01931304372711,3.808340555773584,-13.219226953601956,-39.78770604395604,-25.504939771766693,28.092580944679067,38.30014676371043,44.31446371342139,1577396491.0,-27.688497304245463,-51.12076042808958,13.208171
106152,1577396491.94,-0.7388739903891959,-0.5831340921541539,9.97862375339415,-1.0370396898223126,-0.4835119450266767,10.057865988829075,-1.5488732886337644,-1.0057982779153956,9.853482920279154,0.8848236828315549,5.382258717606708,2.454618128334604,-2.975649949980945,-0.7432146770198171,2.624139553163109,-4.757020531631097,-3.2864082150342986,1.5392768673780486,-0.412303772056797,-25.92801720848596,3.7197744963369854,-13.277015923890923,-33.08020004420866,-24.824808044519585,28.044658100458264,38.49183814059364,43.90711953754455,1577396491.0,-27.688497304245463,-51.12076042808958,13.208171
106153,1577396491.95,-1.0118129796470083,-0.8656498880525912,9.370496531714464,0.7155159254120613,-1.347818744343083,10.857529343321264,-0.5265491797470458,1.5320554818502283,9.81756989537681,-2.319522020293445,0.7741044207317074,2.393582972084604,-2.762026903105945,2.308543135480183,2.074823146913109,0.7056259527439026,-5.331085949409299,4.011200695503049,-1.896597351461262,-26.110608878968257,3.542642377463798,-13.277015923890923,-33.68997331691297,-111.88166913214992,28.044658100458264,38.30014676371043,43.76335100488214,1577396491.0,-27.688497304245463,-51.12076042808958,13.208171
106154,1577396491.96,-0.9866738622153676,-0.3784298502107944,9.57041237033751,-1.642772709841844,0.4286788874928535,10.002799350645484,-0.5600680029892333,-0.6730042471536768,8.407385117544779,-0.5495024890434452,2.010066334794207,2.454618128334604,-0.6868315906059451,-0.193898270769817,2.227411037538109,-0.6981826410060974,-0.1125800900342987,3.8891303830030486,-0.8246075441135924,-26.201904714209405,3.808340555773584,-12.699126221001222,-33.08020004420866,-109.84127395040856,28.092580944679067,38.39599245215204,43.95504238176535,1577396491.0,-27.688497304245463,-51.12076042808958,13.208171
106155,1577396491.97,-0.6478943273032584,0.3769407735685013,9.358525523413682,0.2055509717987806,-0.4452047184641766,8.307704575254858,-0.7252679175400145,-1.7779283133157862,8.527095200552592,-0.7936431140434451,-2.765934641768293,1.844266565834604,-2.823062059355945,2.247507979230183,2.013787990663109,-0.3319717035060974,3.2290947146532014,1.4172065548780486,-1.5667543338158256,-26.110608878968257,4.605435090702943,-13.045860042735043,-33.68997331691297,-104.74028599605523,28.044658100458264,38.32410818582083,44.00296522598616,1577396491.0,-27.688497304245463,-51.12076042808958,13.208171
106156,1577396491.98,-0.7891522252524771,-0.3389255228182163,8.90602140964415,-1.949230522341844,-0.4140800968821455,9.01399406500095,-1.6709775733017331,-1.652232726157583,10.978757700552592,-1.7396880359184452,2.055842701981707,2.088407190834604,-0.1375151843559451,-3.825490067644817,3.081903225038109,-5.611512719131097,-0.8450019650342988,0.8068549923780487,-1.0719898073476712,-25.19765052655677,4.428302971829755,-13.62374974562475,-31.250880226095745,-111.2015374049028,27.90088956779585,38.30014676371043,43.90711953754455,1577396491.0,-27.688497304245463,-51.12076042808958,13.208171
106157,1577396491.99,-0.7747870152915396,-1.2990003885408723,9.667377537573838,-1.156749772830125,-1.2568390812571453,9.875906662657204,-2.089962863829077,0.2152445687642909,9.089732590689309,-4.760928270293445,2.727229420731707,2.637723597084604,-2.212710496855945,-0.6821795207698171,3.265008693788109,-1.8578506097560967,-1.6689765744092988,0.4406440548780487,-0.5772252808795152,-25.745425538003666,3.542642377463798,-13.565960775335776,-33.232643362384735,-20.40395181741336,28.044658100458264,38.39599245215204,43.76335100488214,1577396491.0,-27.688497304245463,-51.12076042808958,13.208171
106158,1577396492.0,-1.455937387605993,-0.0408474161287637,11.591118571509384,-0.9963382615996564,-0.7492683293040203,9.854358847715796,-0.3350130469345458,3.2989763070455407,10.559772410025248,-0.4121733874809452,-0.8738447980182927,2.027372034584604,-0.2595854968559451,-2.055470536394817,1.0372254906631098,1.5906357183689026,-3.5610664181592986,4.102753429878049,-0.8246075441135932,-26.201904714209405,4.162604793519968,-13.450382834757836,-42.07435581659719,-23.1244787264018,28.044658100458264,38.39599245215204,44.09881091442777,1577396492.0,-27.68855322522552,-51.12064610637836,12.807234
106159,1577396492.01,-0.7245087804282584,-0.7555166116854037,10.25395694431212,-1.7169929613066877,-0.918059546345036,10.75816997442478,-1.0017982092880613,-1.23923293978063,10.953618583120951,0.3355072765815549,-0.7212569073932926,2.210477503334604,-0.930972215605945,-2.192799637957317,3.066644435975609,-0.1030898675685974,0.6198417849657012,4.301117687690549,-0.5772252808795152,-25.01505885607448,3.542642377463798,-20.44284823972324,-33.68997331691297,-23.46454459002536,27.94881241201665,38.34806960793124,43.90711953754455,1577396492.0,-27.68855322522552,-51.12064610637836,12.807234
106160,1577396492.02,-0.8418246617759146,-0.2838588846346226,10.933910215796494,-0.7497354906035626,-0.6343466496165204,9.435373557188452,0.1653751000381094,0.5647980111471034,10.198247959341654,-0.5495024890434451,0.4384110613567073,2.179959925209604,0.6864594250190549,-1.0178728801448171,1.5560243187881098,1.7737411871189026,-4.751251965034299,3.9196479611280486,-0.412303772056797,-26.65838389041514,4.074038734083371,-15.93530855718356,-41.00725258936466,-3.0605927726120044,28.044658100458264,38.25222391948962,43.90711953754455,1577396492.0,-27.68855322522552,-51.12064610637836,12.807234
106161,1577396492.03,-0.3797437413657584,-0.5065196390291539,9.676954344214463,-0.3738458299590314,-0.8570074040110516,8.44656827154392,-1.857725302793921,-1.3242270987161768,9.973193003286967,-0.8546782702934451,-0.2329756573932926,2.179959925209604,0.0150727062690548,-0.6211443645198171,2.685174709413109,-3.017518578506097,-5.483673840034299,1.9665229611280488,-1.5667543338158256,-25.38024219703907,4.959699328449328,-16.859932081807084,-43.446345680181885,-16.663227317554238,28.044658100458264,38.44391529637284,44.050888070206966,1577396492.0,-27.68855322522552,-51.12064610637836,12.807234
106162,1577396492.04,-0.9794912572348988,-0.0276793069979043,9.79307312473204,0.2294929884003426,-0.8713726139719891,10.65641640386814,-0.2967058203720458,-0.3952768545755518,9.489564267935403,0.1676605968940548,1.5217850847942074,2.225736292397104,0.2592133312690549,-3.123585770769817,2.044305568788109,-0.7897353753810974,-8.3523261837843,2.9736030392530486,-1.5667543338158256,-25.38024219703907,4.959699328449328,-18.70917913105413,-43.14145904382973,-18.023490772048465,28.02069667834786,38.25222391948962,43.95504238176535,1577396492.0,-27.68855322522552,-51.12064610637836,12.807234
106163,1577396492.05,-0.9328043248618522,-0.2527342630525913,7.2947236923589935,-0.7892398179961407,-0.1698715275462084,10.000405148985328,-0.6725954810165771,0.2954503243795252,8.665958896841655,0.2134369640815548,2.055842701981707,2.179959925209604,-0.2901030749809452,-0.9263201457698172,2.227411037538109,-2.788636742568597,-7.7419746212842995,3.0041206173780486,-0.9070682985249532,-26.475792219932845,4.959699328449328,-13.219226953601954,-43.29390236200581,-3.0605927726120044,28.092580944679067,38.276185341600026,43.83523527121335,1577396492.0,-27.68855322522552,-51.12064610637836,12.807234
106164,1577396492.06,-1.5145953282798208,-0.6070761087557164,10.1510062729254,-0.1440024705840313,-1.580056305378239,11.60691446295017,-1.3788849707626707,-0.0026277823099268,10.42330291539634,-1.5871001452934452,-3.040592844893293,2.057889612709604,0.0761078625190548,-2.147023270769817,1.2508485375381098,1.1328720464939026,-0.7839668087842988,3.4618842892530486,-0.082460754411359,-26.29320054945055,4.428302971829755,-13.565960775335776,-42.68412908930151,-6.121185545224005,28.044658100458264,38.10845538682721,44.050888070206966,1577396492.0,-27.68855322522552,-51.12064610637836,12.807234
106165,1577396492.07,-1.631911209627477,-0.805794846548685,10.704066856421491,-2.550175139041062,-0.2345149723704266,11.202294382383764,0.2850851830459219,1.7930234628072594,9.42731502477134,0.4270600109565549,-1.2400557355182926,2.363065393959604,0.4118012218940549,-2.482716630144817,2.532586818788109,1.8958114996189024,-2.5845039181592986,4.163788586128049,-0.7421467897022332,-26.29320054945055,4.428302971829755,-13.045860042735043,-38.56815949854744,-19.38375422654269,28.092580944679067,38.10845538682721,44.050888070206966,1577396492.0,-27.68855322522552,-51.12064610637836,12.807234
106166,1577396492.08,-1.142296970125524,-0.1090821634432168,11.231988322485948,-1.318358384890672,-0.6654712711985517,9.854358847715796,-0.8018823706650146,0.1697547372213226,10.643569468130718,1.4799164562690543,-2.613346751143293,2.393582972084604,1.5409516125190548,-1.4451189738948171,2.944574123475609,1.2702011480564028,1.1233818240282014,2.4090278439405486,-0.5772252808795152,-26.84097556089744,2.8341139019710444,-13.565960775335778,-37.04372631678666,-24.824808044519585,28.068619522568667,38.41995387426245,43.93108095965495,1577396492.0,-27.68855322522552,-51.12064610637836,12.807234
106167,1577396492.09,-0.5832508824790397,-0.4538472025057163,8.642659227026963,-1.7936074144316876,-0.4954829533274579,7.769009201719703,-0.4666941382431395,0.8808326302877284,10.557378208365092,2.7158783703315548,3.917414967606707,3.003934534584604,1.3883637218940548,-2.299611161394817,3.265008693788109,0.4309677496189026,-0.9365546994092988,1.6308296017530486,-0.2473822632340788,-25.745425538003666,3.8969066152101823,-13.62374974562475,-36.7388396804345,-26.185071499013805,28.428040854224697,38.15637823104801,44.050888070206966,1577396492.0,-27.68855322522552,-51.12064610637836,12.807234
106168,1577396492.1,-0.6263465123618521,0.3913059835294388,9.107134349097276,-1.1112599412871564,-0.7444799259837078,8.597402976133765,-0.7061143042587645,-0.9507316397318016,8.57976763707603,1.2510346203315548,1.2013505144817074,2.637723597084604,0.8390473156440549,-4.496876786394817,3.356561428163109,0.7666611089939026,-2.2182929806592986,0.7763374142530487,0.412303772056797,-25.745425538003666,3.8969066152101823,-13.508171805046809,-37.95838622584312,-107.80087876866725,28.092580944679067,38.25222391948962,44.050888070206966,1577396492.0,-27.68855322522552,-51.12064610637836,12.807234
106169,1577396492.11,-0.5006509252036491,-0.7303774942537632,8.455911497534775,-0.4696138963652814,-0.6223756413157391,9.880695065977514,0.0360882103896719,-0.5269579458841456,8.843129819693216,2.0597504406440548,-0.3397871808307926,2.622464808022104,3.4330414562690548,-2.391163895769817,1.2203309594131098,3.269102515243903,-2.1267402462842986,1.6003120236280486,-0.9895290529363112,-25.836721373244814,4.33973691239316,-13.508171805046809,-33.08020004420866,-107.80087876866725,28.14050378889987,38.58768382903526,43.95504238176535,1577396492.0,-27.68855322522552,-51.12064610637836,12.807234
106170,1577396492.12,-0.3318597081626334,-0.2599168680330601,9.787087620581651,-0.3714516282988754,-1.1730420231516765,8.39030453253025,-0.3158594336532958,-0.3928826529153961,8.418159025015482,2.1360443859565548,0.1332352801067073,2.729276331459604,-0.335879442168445,0.0807599323551828,3.097162014100609,2.536680640243903,2.2220146365282014,3.0193794064405486,-1.5667543338158256,-24.64987551510989,3.8969066152101823,-13.450382834757836,-33.38508668056082,-109.84127395040858,28.092580944679067,38.44391529637284,43.88315811543416,1577396492.0,-27.68855322522552,-51.12064610637836,12.807234
106171,1577396492.13,-0.987870963045446,-0.3054066995760288,9.82539484714415,-1.3698337205840314,0.634580230266291,10.78330909185642,0.5556299706435782,-0.5820245840677393,8.788063181509623,-0.4274321765434451,-1.8809248761432928,2.393582972084604,1.6630219250190548,0.1417950886051829,1.861200100038109,3.147032202743903,2.4203788943407014,2.3937690548780486,-1.4018328249931091,-26.29320054945055,4.782567209576139,-13.62374974562475,-32.77531340785651,-112.56180085939702,27.94881241201665,38.44391529637284,43.76335100488214,1577396492.0,-27.68855322522552,-51.12064610637836,12.807234
106172,1577396492.14,-0.6407117223227896,-0.2287922464510288,10.098333836401965,-0.7736775072051252,-0.8282769840891766,9.394672128965794,-1.046090940000952,0.5001545663228846,9.20465427037681,0.1829193859565548,-1.0569502667682926,2.485135706459604,1.2052582531440548,-0.071827958269817,3.6922547875381095,0.4920029058689026,3.1528007693407014,1.5087592892530486,-0.2473822632340788,-25.745425538003666,4.251170852956559,-13.565960775335776,-33.232643362384735,-25.164873908143136,28.38011801000389,38.44391529637284,43.95504238176535,1577396492.0,-27.68855322522552,-51.12064610637836,12.807234
106173,1577396492.15,-0.8921028966391958,-0.4191312784334506,11.079956517066025,-0.2828661668730938,-0.9503812687571452,10.749790268614234,-0.088410275938452,-1.144661974204458,9.98995241490806,-0.3206206531059452,0.4231522722942071,2.469876917397104,0.7474945812690549,-2.543751786394817,2.563104396913109,3.940489233993903,2.1152031130907014,1.2341010861280486,-1.2369113161703886,-25.745425538003666,5.136831447322512,-13.62374974562475,-33.08020004420866,-20.0638859537898,27.996735256237457,38.44391529637284,44.050888070206966,1577396492.0,-27.68855322522552,-51.12064610637836,12.807234
106174,1577396492.16,-0.4922712193931021,-0.5424326639314976,9.796664427222275,-0.3522980150176256,-0.2009961491282397,10.411010733702124,-0.3374072485947025,0.6821138924947601,10.100085691275249,3.5093354015815548,1.5370438738567074,3.003934534584604,0.6101654797065549,0.8742169636051829,2.868280178163109,1.7432236089939024,2.0389091677782014,2.5768745236280486,-0.5772252808795152,-25.745425538003666,4.251170852956559,-14.98179054741555,-37.72972124857901,-18.873655431107352,28.044658100458264,38.30014676371043,43.69146673855093,1577396492.0,-27.68855322522552,-51.12064610637836,12.807234
106175,1577396492.17,-0.7580276036704459,0.0896365743497513,9.911586106909777,0.5838348341034676,-0.6678654728587079,9.830416831114231,-0.3398014502548583,-0.4287956778177393,8.900590659536967,0.8848236828315549,0.6825516863567074,2.363065393959604,2.1207855968940548,-1.8418474895198167,1.5255067406631098,2.628233374618903,2.1457206912157014,3.1261909298780486,0.412303772056797,-26.84097556089744,5.313963566195704,-13.334804894179896,-38.11082954401919,-11.5622393632009,28.092580944679067,38.49183814059364,43.95504238176535,1577396492.0,-27.68855322522552,-51.12064610637836,12.807234
106176,1577396492.18,-0.4180509679282584,-0.7674876199861851,8.477459312476181,-0.7784659105254377,0.1389804866139473,8.62613339605564,-0.710902707579077,-0.2109233267435205,8.967628306021341,-0.3053618640434451,0.9877274676067074,2.393582972084604,0.2897309093940549,1.3930157917301829,2.959832912538109,-0.1183486566310974,3.4579765505907014,3.5229194455030486,-1.0719898073476712,-27.023567231379733,3.7197744963369854,-13.334804894179896,-40.85480927118858,-17.0032931811778,28.044658100458264,38.44391529637284,43.90711953754455,1577396492.0,-27.68855322522552,-51.12064610637836,12.807234
106177,1577396492.19,-0.5820537816489615,0.0022482137540487,9.58836888278868,1.1009823926972175,-1.2688100895579266,9.028359274961888,-0.5840100195907958,-2.018545580161489,9.898972751822123,0.6712006359565548,-0.4160811261432926,2.408841761147104,-0.9614897937309452,2.216990401105183,3.265008693788109,2.658750952743903,2.1457206912157014,2.1801460080030486,-0.3298430176454371,-25.106354691315627,4.516869031266349,-13.62374974562475,-42.83657240747758,-25.504939771766697,27.996735256237457,38.30014676371043,43.85919669332375,1577396492.0,-27.68855322522552,-51.12064610637836,12.807234
106178,1577396492.2,-0.5066364293540396,-0.0133140970369663,9.286699473608994,-0.542637047000047,0.3113630061451973,9.491637296202123,0.0241172020888911,0.3014358285299163,9.368657084097514,1.1594818859565548,1.5980790301067074,2.302030237709604,0.2592133312690549,-1.3230486613948171,2.471551662538109,1.4075302496189028,3.854705066215701,2.0428169064405486,-0.082460754411359,-24.832467185592183,4.428302971829755,-15.530785765160768,-41.76946918024504,-16.663227317554238,27.94881241201665,38.34806960793124,44.00296522598616,1577396492.0,-27.68855322522552,-51.12064610637836,12.807234
106179,1577396492.21,-0.7005667638266959,0.2907495138028764,10.3425424057379,-0.1128778490020001,-0.9647464787180828,9.066666501524388,-1.208896652891577,-0.4718913077005518,8.831158811392436,-0.5495024890434451,-0.1719405011432926,2.424100550209604,0.1676605968940548,0.5080060261051829,2.349481350038109,5.832579077743903,4.312468738090701,0.8373725705030487,-1.2369113161703893,-25.01505885607448,3.188378139717421,-13.62374974562475,-41.92191249842112,-26.185071499013805,28.044658100458264,38.25222391948962,44.050888070206966,1577396492.0,-27.68855322522552,-51.12064610637836,12.807234
106180,1577396492.22,-0.5114248326743521,-0.4490587991854038,10.206072911108992,-0.3786342332793439,-0.3398598454173017,9.157646164610329,-0.1243233008407958,2.458611524330697,9.800810483755717,-1.7702056140434452,-0.8738447980182926,1.7527138314596038,0.9000824718940549,1.7287091511051829,1.7086122094131098,5.191709937118903,5.075408191215701,3.6449897580030486,0.412303772056797,-25.01505885607448,2.8341139019710444,-13.62374974562475,-41.00725258936466,-25.504939771766697,28.092580944679067,38.39599245215204,43.85919669332375,1577396492.0,-27.68855322522552,-51.12064610637836,12.807234
106181,1577396492.23,-0.682610251375524,0.0118250203946737,10.558020555151964,-0.9987324632598126,-0.4092916935618328,10.184758676817358,-0.8545548071884529,0.1122938973775726,11.33669084874595,1.2052582531440548,1.842219655106708,2.820829065834604,-0.1832915515434451,-0.5601092082698171,3.066644435975609,2.002623023056403,2.2372734255907014,1.9665229611280488,-0.6596860352908742,-25.471538032280225,4.33973691239316,-13.392593864468868,-38.56815949854743,-25.504939771766697,28.068619522568667,38.32410818582083,43.85919669332375,1577396492.0,-27.68855322522552,-51.12064610637836,12.807234
106182,1577396492.24,-1.0836390294516958,-0.3820211527010289,9.413592161597276,-1.5637640550566876,0.0001167903248857,9.392277927305638,0.2850851830459219,0.2008793588033534,8.608498056997904,2.1360443859565548,2.666194264481707,2.820829065834604,1.1442230968940548,3.620798994855183,2.379998928163109,0.8887314214939026,-1.6384589962842988,3.0956733517530486,-0.7421467897022332,-25.19765052655677,4.782567209576139,-13.161437983312986,-33.38508668056082,-106.44061531417302,27.94881241201665,38.49183814059364,43.85919669332375,1577396492.0,-27.68855322522552,-51.12064610637836,12.807234
106183,1577396492.25,-1.3302418004477896,0.1303380025724076,9.164595188941028,-0.6922746507598126,-0.600827826374333,7.95575693121189,-1.611122531797827,-1.2524010489114892,8.163176548208842,1.1899994640815548,1.4149735613567074,2.790311487709604,0.9916352062690548,0.2943829792301829,3.509149318788109,0.2478622808689026,4.220916003715701,2.3937690548780486,-0.7421467897022332,-25.19765052655677,4.782567209576139,-13.161437983312986,-33.38508668056082,-106.44061531417302,28.14050378889987,38.39599245215204,43.90711953754455,1577396492.0,-27.68855322522552,-51.12064610637836,12.807234
106184,1577396492.26,-0.385729245516149,-0.2479458597322789,8.475065110816026,0.9214172681854989,-0.7588451359446454,9.32763448248142,-0.3757144751572021,-2.0113629751810205,7.856718735708842,0.5033539562690548,-0.6297041730182926,2.240995081459604,1.4799164562690548,-1.7502947551448171,1.6170594750381098,4.337217749618903,3.4579765505907014,2.7599799923780486,-0.5772252808795152,-25.745425538003666,4.605435090702939,-12.699126221001222,-32.47042677150436,-113.24193258664414,28.04465810045826,38.30014676371043,43.85919669332375,1577396492.0,-27.68855322522552,-51.12064610637836,12.807234
106185,1577396492.27,-0.5305784459556021,0.2620190938810013,9.69850215915587,-0.3044139818145001,-0.2393033756907396,9.07265200567478,-1.560844296934546,-2.2735280569681304,10.200642161001811,0.2744721203315549,0.8656571551067074,2.790311487709604,-0.7326079577934451,-0.6211443645198171,2.868280178163109,-0.1641250238185974,7.4862968630907005,2.0733344845655486,-1.2369113161703893,-26.110608878968257,6.022492041688465,-13.277015923890923,-33.08020004420867,-104.06015426880812,27.94881241201665,38.49183814059365,43.90711953754455,1577396492.0,-27.68855322522552,-51.12064610637836,12.807234
106186,1577396492.28,-0.2815814732993521,-0.2886472879549351,10.071997618140244,-0.7760717088652814,0.749501909953791,11.389042111875952,0.3353634179092032,1.5368438851705408,10.605262241568218,-0.7020903796684451,0.2553055926067073,2.424100550209604,0.2897309093940549,-0.163380692644817,1.4949891625381098,7.785704077743903,-4.140900402534299,-1.909209460746952,-0.5772252808795152,-26.84097556089744,4.959699328449328,-13.219226953601956,-33.53752999873689,-19.72382009016624,28.044658100458264,37.9646868541648,43.76335100488214,1577396492.0,-27.68855322522552,-51.12064610637836,12.807234
106187,1577396492.29,-0.8705550816977896,-0.3820211527010289,10.493377110327744,-1.2453352342559063,-0.0477672428782392,11.09694950933689,-1.2543864844345458,2.2239797616353845,8.991570322622904,-0.4884673327934451,0.5909989519817074,2.118924768959604,-0.4121733874809451,2.155955244855183,3.478631740663109,0.8276962652439026,-2.7370918087842986,2.7294624142530486,-0.5772252808795152,-26.84097556089744,4.959699328449328,-13.62374974562475,-33.68997331691297,-19.38375422654269,28.092580944679067,38.0605325426064,43.85919669332375,1577396492.0,-27.68855322522552,-51.12064610637836,12.807234
106188,1577396492.3,-1.0094187779868522,-0.6262297220369663,10.365287321509385,0.8783216383026863,-1.7644098332102702,9.52635322027439,-0.289523215391577,-3.361692711509145,9.870242331900249,-1.159854051543445,2.299983326981708,2.485135706459604,-0.8699370593559451,2.247507979230183,2.563104396913109,2.170469702743903,1.7489921755907012,3.3398139767530486,-1.0719898073476712,-25.56283386752137,4.428302971829755,-17.784555606430608,-41.00725258936466,5.78111968160045,28.02069667834786,38.30014676371043,43.90711953754455,1577396492.0,-27.68855322522552,-51.12064610637836,12.807234
106189,1577396492.31,-0.6814131505454458,-0.3461081277986851,9.73680938571837,-1.4165206529570782,0.1916529231373848,9.480863388731422,-0.4176130042099364,0.6162733468404628,10.292818924917826,1.3731049328315548,1.3539384051067074,2.393582972084604,-1.144595262480945,-0.071827958269817,2.593621975038109,0.1257919683689026,1.657439441215701,3.6602485470655486,-0.412303772056797,-27.023567231379733,4.074038734083371,-17.06219347781848,-39.55904106669193,-1.8703622499295576,28.044658100458264,38.39599245215204,43.88315811543416,1577396492.0,-27.68855322522552,-51.12064610637836,12.807234
106190,1577396492.32,-1.0357549962485708,0.7384652242520952,11.180512986792587,-0.2708951585723126,-0.6942016911204266,9.11694473638767,-0.3805028784775146,-1.297890880454458,8.53427780553306,1.0068939953315548,0.5604813738567074,1.874784143959604,0.6559418468940549,-0.224415848894817,1.6780946312881098,4.428770483993903,0.9860527224657012,2.6073921017530486,-0.412303772056797,-26.29320054945055,4.428302971829755,-17.322243844118844,-41.92191249842112,-7.821514863341785,28.044658100458264,38.30014676371043,43.95504238176535,1577396492.0,-27.68855322522552,-51.12064610637836,12.807234
106191,1577396492.33,-0.1570829869712271,-0.1689372049471226,9.46865879978087,-0.4456718797637189,-0.4452047184641767,7.520012229063452,-0.3230420386337645,1.0867339730611658,8.373866294302593,-1.0072661609184452,2.116877858231707,1.874784143959604,1.5714691906440548,0.1723126667301829,2.685174709413109,-2.651307641006097,6.448699206840701,1.4172065548780486,-0.412303772056797,-26.29320054945055,4.428302971829755,-13.565960775335776,-42.37924245294935,-9.521844181459564,28.092580944679067,38.39599245215204,43.85919669332375,1577396492.0,-27.68855322522552,-51.12064610637836,12.807234
106192,1577396492.34,-0.131943869539587,-0.3640646402498574,8.716879478491807,0.5096145826386238,-1.1562826115305829,7.816893234922827,-1.113128586485327,-1.700116759360708,7.933333188833842,0.3355072765815548,2.376277272294207,2.225736292397104,-1.8464995593559448,1.6981915729801829,1.952752834413109,3.421690405868903,4.465056628715701,1.6613471798780486,0.2473822632340772,-26.475792219932845,4.605435090702944,-13.334804894179896,-42.37924245294935,-8.161580726965344,28.068619522568667,38.25222391948962,43.85919669332375,1577396492.0,-27.68855322522552,-51.12064610637836,12.807234
106193,1577396492.35,-0.7676044103110709,-0.2694936746736851,9.310641490210555,-0.7605093980742658,0.3772035517994941,9.45572427129978,0.0181316979385005,0.3924154916158534,9.295633933462748,-1.3429595202934452,2.299983326981707,2.088407190834604,-1.648135301543445,3.925974776105183,2.288446193788109,0.7971786871189027,8.2034599490282,1.1425483517530486,-1.0719898073476712,-25.92801720848596,3.7197744963369854,-12.872493131868136,-42.83657240747758,-6.121185545224007,28.284272321562284,38.44391529637284,43.619582472219726,1577396492.0,-27.68855322522552,-51.12064610637836,12.807234
106194,1577396492.36,-0.6646537389243521,0.1566742208341263,9.444716783179308,-0.3738458299590314,-1.2855695011790202,9.033147678282202,-1.0532735449814208,-0.7544071035989893,10.993122910513527,-0.2138091296684451,3.917414967606707,2.637723597084604,0.0150727062690548,-0.8347674113948171,2.135858303163109,2.811338843368903,1.6574394412157012,0.3185737423780487,-0.2473822632340788,-26.110608878968257,4.959699328449328,-13.103649013024016,-38.41571618037136,-12.242371090448014,28.044658100458264,38.30014676371043,43.71542816066133,1577396492.0,-27.68855322522552,-51.12064610637836,12.807234
106195,1577396492.37,-1.0620912145102896,0.1686452291349076,10.790258116187118,-0.7210050706816876,0.4262846858326973,10.543888925840797,0.8261747582412344,2.525649170815072,9.496746872915873,-2.624697801543445,-2.460758860518293,0.9287392220846036,-1.5413237781059452,1.8202618854801829,1.3424012719131098,0.4920029058689026,4.068328113090701,2.1496284298780486,-0.2473822632340788,-26.110608878968257,4.959699328449328,-13.392593864468866,-33.38508668056082,-24.14467631727247,28.044658100458264,38.30014676371043,43.85919669332375,1577396492.0,-27.68855322522552,-51.12064610637836,12.807234
106196,1577396492.38,-0.740071091219274,-0.7854441324373569,10.183327995337509,-0.6563616258574694,-0.9515783695872236,10.219474600889624,-1.363322659971655,-1.8138413382181304,10.139590018667826,0.1981781750190548,3.352839772294208,2.134183558022104,0.7474945812690548,0.5690411823551829,2.273187404725609,4.062559546493903,7.1963798709032005,4.575775890815549,-0.7421467897022341,-26.475792219932845,5.136831447322516,-13.594855260480262,-38.49193783945939,-26.015038567202023,28.068619522568667,38.44391529637284,43.97900380387576,1577396492.0,-27.68855322522552,-51.12064610637836,12.807234
106197,1577396492.39,-0.2863698766196647,-0.4418761942049351,8.865319981421495,-0.7760717088652814,0.5316295588795723,8.516000119688453,-1.168195224668921,1.5129018685689783,9.69546561070884,0.5491303234565549,2.879817311356707,1.996854456459604,-1.8159819812309448,5.695994307355183,2.959832912538109,-2.407167016006097,5.807830066215701,1.2035835080030486,-0.5772252808795152,-25.745425538003666,4.251170852956559,-13.565960775335776,-37.805942907667045,-106.10054945054944,27.94881241201665,38.39599245215204,43.90711953754455,1577396492.0,-27.68855322522552,-51.12064610637836,12.807234
106198,1577396492.4,-0.6191639073813834,0.7288884176114702,8.956299644507432,-0.3211733934355939,-0.4787235417063642,8.889495578672827,-1.4171921973251709,-1.7408181875833642,8.855100827993997,2.3496674328315548,6.725032155106708,2.607206018959604,-2.060122606230945,1.4540509479801829,2.929315334413109,1.8652939214939024,3.0002128787157014,1.3256538205030486,-1.0719898073476712,-25.92801720848596,2.6569817830978484,-13.450382834757836,-36.58639636225843,-112.90186672302058,27.94881241201665,38.44391529637284,43.90711953754455,1577396492.0,-27.68855322522552,-51.12064610637836,12.807234
106199,1577396492.41,-0.3629843297446646,0.0920307760099081,7.977071165503525,-0.3259617967559064,0.3927658625905098,8.269397348692358,0.8213863549209219,-1.3816879385599268,7.557443528189311,0.7322357922065548,2.986628834794207,2.256253870522104,-0.7173491687309451,2.857859541730183,1.5255067406631098,1.6211532964939026,2.5119316287157014,-0.7190239138719513,-1.0719898073476712,-25.92801720848596,2.6569817830978484,-13.62374974562475,-33.68997331691297,-101.6796932234432,27.972773834127057,38.30014676371043,43.90711953754455,1577396492.0,-27.68855322522552,-51.12064610637836,12.807234
106200,1577396492.42,-0.8059116368735709,-0.5735572855135289,9.4997834213629,0.2546321058319837,-0.6918074894602709,8.924211502745093,-0.1458711157822025,0.6462008675924164,8.856297928824077,-4.821963426543445,0.0111649676067073,1.6611610970846038,-1.4345122546684452,-0.2244158488948171,2.425775295350609,0.2936386480564028,4.098845691215701,1.2798774533155486,-0.9070682985249532,-26.110608878968257,4.605435090702943,-13.62374974562475,-32.77531340785651,-63.93238236122853,28.14050378889987,38.34806960793124,43.95504238176535,1577396492.0,-27.68855322522552,-51.12064610637836,12.807234
106201,1577396492.43,-0.4970596227134146,-0.6860847635408726,9.502177623023057,-1.0777411180449687,0.404736870891291,10.40023682623142,0.4359198876357656,1.472200440346322,11.29239811803306,-1.8617583484184448,1.903254811356708,1.7527138314596038,-1.6023589343559452,-0.010792802019817,1.2203309594131098,-5.611512719131097,3.702117175590701,1.9360053830030488,-0.2473822632340788,-26.84097556089744,4.605435090702943,-13.62374974562475,-32.77531340785651,-25.504939771766697,28.284272321562284,38.15637823104801,44.09881091442777,1577396492.0,-27.68855322522552,-51.12064610637836,12.807234
106202,1577396492.44,-1.3062997838462271,0.1399148092130326,10.723220469702744,-1.106471537966844,-0.2512743839915204,10.78330909185642,-1.3262125342392332,1.125041199623666,10.011500229849467,-1.4955474109184452,2.116877858231707,2.057889612709604,-2.975649949980945,2.339060713605183,3.417596584413109,0.7666611089939026,4.465056628715701,3.9501655392530486,0.2473822632340772,-25.92801720848596,4.428302971829755,-13.62374974562475,-32.77531340785651,-25.504939771766697,28.044658100458264,38.44391529637284,43.71542816066133,1577396492.0,-27.68855322522552,-51.12064610637836,12.807234
106203,1577396492.45,-1.5133982274497426,-0.0420445169588418,10.745965385474229,-0.4744022996855939,-0.7851813542063641,11.353129086973608,0.0241172020888906,-0.6682158438333643,10.64117526647056,-1.800723192168445,1.5217850847942072,2.118924768959604,-1.4192534656059452,-0.4990740520198171,1.952752834413109,4.856016577743903,0.6503593630907012,5.079315929878049,0.2473822632340772,-25.92801720848596,4.428302971829755,-13.62374974562475,-38.56815949854744,-25.504939771766697,28.068619522568667,38.30014676371043,43.95504238176535,1577396492.0,-27.68855322522552,-51.12064610637836,12.807234
106204,1577396492.46,-0.5784624791587272,-0.2910414896150913,9.387255943335555,-1.2836424608184065,-0.1722657292063642,8.99603755254978,-1.140661905577124,-0.6263173147806305,9.83672350865806,-1.5871001452934452,0.2553055926067073,2.118924768959604,-0.6868315906059452,0.3554181354801829,2.349481350038109,-2.605531273818597,1.4590751834032012,1.0357368283155486,-0.9070682985249532,-25.38024219703907,4.959699328449328,-16.859932081807084,-38.41571618037136,-25.504939771766697,28.14050378889987,38.39599245215204,43.95504238176535,1577396492.0,-27.68855322522552,-51.12064610637836,12.807234
106205,1577396492.47,-0.6071928990806021,-0.1497835916658726,9.791876023901963,0.1241481153534676,-0.6151930363352703,7.800133823301734,-0.155447922422827,-0.9842504629739892,7.859112937368998,0.2439545422065548,-0.2940108136432927,1.966336878334604,-0.0459624499809451,-0.3464861613948171,0.8846376000381098,0.4614853277439026,1.1691581912157012,1.0204780392530486,-0.2473822632340788,-25.01505885607448,4.251170852956559,-17.322243844118844,-40.7023659530125,-24.824808044519585,27.94881241201665,38.49183814059364,43.85919669332375,1577396492.0,-27.68855322522552,-51.12064610637836,12.807234
106206,1577396492.48,0.0248763392006468,-0.2958298929354038,8.819830149878525,-0.0649938157988751,-0.4595699284251142,8.056313400938452,-0.2296681738876708,0.1936967538228846,8.95565729772056,-0.7631255359184451,1.3234208269817074,1.4475380502096038,-2.548403856230945,1.6066388386051829,2.868280178163109,-4.055116234756097,2.4203788943407014,-0.4138481326219513,-0.9070682985249532,-24.284692174145302,4.959699328449328,-13.565960775335776,-42.68412908930151,-12.922502817695126,28.044658100458264,38.39599245215204,43.95504238176535,1577396492.0,-27.68855322522552,-51.12064610637836,12.807234
106207,1577396492.49,-0.5832508824790397,-0.3030124979158726,9.1550183823004,0.1193597120331551,-0.9240450504954266,9.18158818121189,0.0504534203506094,-0.0361466055521143,8.95565729772056,-0.808901903105945,3.398616139481708,2.073148401772104,-2.914614793730945,0.6911114948551829,2.105340725038109,2.933409155868903,0.5893242068407012,2.3632514767530486,0.9070682985249514,-27.38875057234432,4.782567209576139,-13.62374974562475,-43.446345680181885,1.0201975908706693,28.164465211010278,38.39599245215204,43.76335100488214,1577396492.0,-27.68855322522552,-51.12064610637836,12.807234
106208,1577396492.5,-1.1267346593345084,0.0920307760099076,9.624281907691026,-0.9843672532988752,-0.5768858097727709,9.401854733946266,-0.2572014929794681,0.2164416695943695,10.187474051870952,0.0303314953315548,3.032405201981707,1.935819300209604,-2.121157762480945,2.125437666730183,1.876458889100609,-2.620790062881097,3.7173759646532014,2.3327338986280486,0.082460754411359,-26.475792219932845,4.251170852956559,-13.161437983312984,-41.15969590754074,-26.185071499013805,28.044658100458264,38.18033965315841,44.00296522598616,1577396492.0,-27.68855322522552,-51.12064610637836,12.807234
106209,1577396492.51,-0.8274594518149772,-1.3013945902010289,9.760751402319933,-0.5773529710723126,-1.0509377384837078,9.303692465879855,-1.0149663184189208,0.1434185189596034,9.355488974966653,-3.021426317168445,1.1097977801067074,1.7221962533346038,-1.1445952624809452,-2.452199052019817,1.983270412538109,4.398252905868903,0.1925956912157012,4.072235851753049,0.412303772056797,-24.284692174145302,4.251170852956559,-13.62374974562475,-41.31213922571681,-23.46454459002536,28.044658100458264,38.25222391948962,43.85919669332375,1577396492.0,-27.68855322522552,-51.12064610637836,12.807234
106210,1577396492.52,-0.8705550816977896,-0.1809082132479038,9.442322581519152,-2.329908586306688,0.2946035945241035,10.290103549864234,-0.4235985083603271,0.5719806161275721,11.04340114537681,0.9153412609565548,1.1708329363567074,1.6306435189596038,-2.395815965605945,2.857859541730183,2.257928615663109,-5.977723656631097,3.2748710818407014,1.0204780392530486,0.2473822632340772,-25.92801720848596,3.7197744963369854,-13.103649013024016,-38.41571618037136,-25.84500563539025,28.092580944679067,38.58768382903526,43.90711953754455,1577396492.0,-27.68855322522552,-51.12064610637836,12.807234
106211,1577396492.53,-0.548534958406774,-0.2024560281893106,10.832156645239854,-0.1056952440215319,-0.4835119450266766,8.984066544249,-0.7695606482529052,-0.2612015616068023,8.632440073599467,-1.220889207793445,1.9642899676067072,1.7221962533346038,-1.2056304187309452,2.369578291730183,1.7238709984756095,4.169371069931403,4.205657214653201,1.2646186642530488,-0.7421467897022332,-25.56283386752137,4.428302971829755,-13.508171805046809,-37.34861295313882,-19.72382009016624,28.068619522568667,38.30014676371043,43.88315811543416,1577396492.0,-27.68855322522552,-51.12064610637836,12.807234
106212,1577396492.54,-0.4946654210532584,0.5708711080411576,8.719273680151963,-0.7545238939238751,0.270661577922541,8.041948190977514,-0.7970939673447021,-0.0433292105325831,7.885449155630717,1.3425873547065548,6.908137623856708,2.302030237709604,-1.0225249499809452,-0.3464861613948171,2.959832912538109,0.8582138433689026,9.0426933474657,0.5932319455030487,-1.2369113161703893,-27.571342242826617,4.605435090702943,-13.508171805046809,-37.34861295313882,-18.703622499295577,28.284272321562284,38.49183814059364,43.90711953754455,1577396492.0,-27.68855322522552,-51.12064610637836,12.807234
106213,1577396492.55,-0.4755118077720084,-0.710026780142435,8.451123094214463,-0.1535792772246564,-0.8953146305735517,8.448962473204077,-0.6007694312118895,-1.0848069327005518,8.634834275259623,-3.784365770293445,1.7506669207317074,1.7527138314596038,-1.3887358874809452,2.857859541730183,1.3729188500381098,6.839659155868903,1.4132988162157012,1.4172065548780486,-0.412303772056797,-26.29320054945055,3.7197744963369854,-13.62374974562475,-32.47042677150436,-20.74401768103691,27.94881241201665,38.68352951747686,43.85919669332375,1577396492.0,-27.68855322522552,-51.12064610637836,12.807234
106214,1577396492.56,-0.8274594518149772,-0.5041254373689976,7.981859568823838,-0.8215615404082501,-0.5098481632883954,9.406643137266576,0.6537922387099844,0.8568906136861659,8.941292087759622,0.5491303234565549,3.184993092606707,1.7527138314596038,-1.2971831531059452,0.5385236042301829,2.532586818788109,-3.505799828506097,3.5495292849657014,1.9360053830030488,-0.9070682985249532,-25.38024219703907,4.251170852956559,-13.392593864468866,-32.77531340785651,-26.185071499013805,28.092580944679067,38.15637823104801,43.95504238176535,1577396492.0,-27.68855322522552,-51.12064610637836,12.807234
106215,1577396492.57,-0.9842796605552114,-0.4442703958650913,9.98580635837462,-0.4851762071562975,-0.6606828678782392,9.753802377989231,-0.6390766577743896,-0.9579142447122704,9.280071622671732,-3.219790574980945,1.9948075457317072,1.6764198861471038,-2.517886278105945,2.018626143292683,2.013787990663109,2.155210913681403,3.4274589724657014,2.3632514767530486,-1.5667543338158256,-25.01505885607448,4.605435090702943,-13.1325434981685,-34.07108161235316,-106.27058238236124,28.04465810045826,38.25222391948962,43.76335100488214,1577396492.0,-27.68855322522552,-51.12064610637836,12.807234
106216,1577396492.58,-0.8825260899985709,0.4272190084317826,9.808635435523057,-1.8031842210723128,-0.0597382511790204,9.792109604551731,-1.3405777442001707,1.4099511971822596,9.980375608267437,0.7627533703315549,-0.0193526105182926,1.2644325814596038,-1.1445952624809452,1.1488751667301829,2.593621975038109,-4.055116234756097,2.2983085818407014,1.1120307736280486,0.412303772056797,-27.206158901862025,4.959699328449328,-13.62374974562475,-41.00725258936466,-24.824808044519585,28.092580944679067,38.25222391948962,43.76335100488214,1577396492.0,-27.68855322522552,-51.12064610637836,12.807234
106217,1577396492.59,-0.6239523107016959,-0.0372561136385288,10.627452403296491,-0.3044139818145001,-1.3837317692454263,9.341999692442355,-1.773928244688452,-1.0153750845560203,9.74095544225181,-1.5871001452934452,1.3234208269817074,1.6611610970846038,-1.6939116687309452,1.2709454792301829,1.922235256288109,3.360655249618903,-0.8144843869092988,1.6918647580030486,-0.412303772056797,-25.92801720848596,4.428302971829755,-13.62374974562475,-33.08020004420866,-20.74401768103691,28.14050378889987,38.39599245215204,43.90711953754455,1577396492.0,-27.68855322522552,-51.12064610637836,12.807234
106218,1577396492.6,-0.4180509679282584,-0.7459398050447787,9.497389219702743,-1.2740656541777813,-0.1124106877024579,9.387489523985328,0.2348069481826407,1.7810524545064783,10.440062327017436,-0.747866746855945,3.352839772294208,2.012113245522104,-1.9075347156059448,1.0573224323551829,1.5865418969131098,-6.588075219131097,2.6645195193407014,2.2716987423780486,-0.9070682985249532,-26.110608878968257,5.3139635661957,-17.784555606430608,-38.56815949854744,-25.504939771766697,28.164465211010278,38.44391529637284,43.85919669332375,1577396492.0,-27.68855322522552,-51.12064610637836,12.807234
106219,1577396492.61,-0.6862015538657584,-0.7124209818025913,10.306629380835556,-0.3020197801543444,-0.7576480351145672,9.622121286680638,-0.6749896826767333,-0.1774045035013335,10.522662284292826,-1.9838286609184448,0.1942704363567073,1.6916786752096038,-1.861758348418445,3.651316572980183,2.257928615663109,2.353575171493903,-1.0128486447217986,2.6073921017530486,-0.9070682985249532,-26.475792219932845,6.376756279434842,-13.479277319902325,-40.01637102122015,-25.33490683995492,28.044658100458264,38.41995387426245,43.90711953754455,1577396492.0,-27.68855322522552,-51.12064610637836,12.807234
106220,1577396492.62,-0.6574711339438833,-0.0037372903963413,9.46865879978087,-1.2142106126738752,0.308968804485041,8.839217343809546,-0.404444895079077,0.9478702767721034,9.475199057974466,2.8074311047065548,5.138118092606708,1.7832314095846038,-2.212710496855945,2.796824385480183,2.715692287538109,-4.085633812881097,0.0705253787157012,2.0580756955030486,-0.5772252808795152,-26.110608878968257,3.542642377463798,-13.450382834757836,-40.85480927118858,-24.484742180896028,28.044658100458264,38.49183814059364,43.85919669332375,1577396492.0,-27.68855322522552,-51.12064610637836,12.807234
106221,1577396492.63,-0.3079176915610709,0.5014392598966264,10.196496104468368,0.1241481153534676,-0.6032220280344892,10.54149472418064,-1.524931272032202,-1.9539021353372703,9.298028135122903,-1.7396880359184452,3.703791920731707,1.4475380502096038,-1.0530425281059452,1.2709454792301829,2.502069240663109,-1.5221572503810974,-1.6689765744092988,0.9899604611280488,-0.412303772056797,-25.56283386752137,5.136831447322516,-13.62374974562475,-43.446345680181885,-15.983095590307128,28.284272321562284,38.39599245215204,44.050888070206966,1577396492.0,-27.68855322522552,-51.12064610637836,12.807234
106222,1577396492.64,-0.9854767613852896,-0.7567137125154819,8.467882505835556,-0.4672196947051251,-0.9144682438548016,8.968504233457983,0.4981691307998281,1.0915223763814783,8.54146041051353,0.0608490734565547,6.450373951981707,1.935819300209604,-0.8394194812309451,3.742869307355183,1.1287782250381098,7.236387671493903,-0.1736152462842987,2.8820503048780486,-0.4123037720567971,-26.293200549450557,4.782567209576131,-17.784555606430608,-36.43395304408235,-1.0201975908706655,28.23634947734148,38.58768382903526,43.90711953754455,1577396492.0,-27.68855322522552,-51.12064610637836,12.807234
106223,1577396492.65,-1.2368679357016958,-0.4562414041658726,10.095939634741804,-1.059784605593797,-0.5182278690989423,10.816827915098608,-0.8772997229599364,-0.3306334097513336,10.44365362950767,-3.051943895293445,0.5299637957317074,1.4170204720846038,-1.312441942168445,1.6066388386051829,2.608880764100609,1.6974472418064028,-1.5926826290967986,2.3785102658155486,-0.9070682985249532,-26.110608878968257,5.313963566195704,-15.70415267602768,-36.12906640773019,-12.242371090448012,28.284272321562284,38.25222391948962,43.93108095965495,1577396492.0,-27.68855322522552,-51.12064610637836,12.807234
106224,1577396492.66,-1.3517896153891955,-0.4251167825838414,11.47978819431212,-1.3171612840605935,-0.3015526188548016,9.952521115782202,-0.2009377539657958,3.0284315194478846,11.476751645865091,0.3049896984565549,-1.5757490948932926,1.4475380502096038,-0.5647612781059451,4.048045088605183,1.3729188500381098,-4.665467797256097,3.3664238162157014,2.8515327267530486,-0.9070682985249532,-26.110608878968257,5.313963566195704,-13.62374974562475,-35.82417977137804,-23.46454459002536,28.044658100458264,38.25222391948962,44.24257944709018,1577396492.0,-27.68855322522552,-51.12064610637836,12.807234
106225,1577396492.67,-0.7173261754477896,-0.1018995584627476,11.470211387671494,-0.3858168382598126,-0.6774422794993329,9.895060275938452,-1.496200852110327,-1.2811314688333642,10.473581150259625,2.1055268078315548,2.483088795731707,1.813748987709604,-1.4802886218559452,2.491648604230183,3.203973537538109,1.4075302496189026,5.411101550590701,1.9970405392530488,0.082460754411359,-24.64987551510989,6.022492041688465,-13.219226953601956,-39.94014936213212,-25.84500563539025,28.38011801000389,38.58768382903526,43.76335100488214,1577396492.0,-27.68855322522552,-51.12064610637836,12.807234
106226,1577396492.68,-0.5509291600669303,-0.8010064432283726,9.82539484714415,-0.494753013796922,-0.075300561970036,10.054274686338845,-0.6067549353622802,-0.2157117300638335,10.516676780142436,0.503353956269055,4.878718678544208,1.920560511147104,-0.3053618640434451,2.918894697980183,2.379998928163109,-1.0186172113185972,5.639983386528201,1.0815131955030486,-0.8246075441135932,-26.3844963846917,4.33973691239316,-13.537066290191293,-33.613751657824935,-67.50307392927584,28.092580944679067,38.41995387426245,43.95504238176536,1577396492.0,-27.68855322522552,-51.12064610637836,12.807234
106227,1577396492.69,-0.6263465123618521,-0.1809082132479038,9.751174595679307,0.2390697950409676,-1.3454245426829263,8.674017429258765,-1.9295513525986083,-2.772719103110708,9.041848557486183,1.6477631359565548,3.917414967606707,2.210477503334604,-0.1985503406059451,3.407175947980183,2.532586818788109,8.396055640243903,0.4977714724657012,1.1120307736280486,-0.2473822632340788,-26.475792219932845,3.8969066152101823,-13.508171805046809,-33.68997331691297,-107.80087876866725,27.94881241201665,38.30014676371043,43.85919669332375,1577396492.0,-27.68855322522552,-51.12064610637836,12.807234
106228,1577396492.7,-0.8298536534751334,-0.0875343485018101,9.406409556616808,-1.2884308641387188,0.548388970500666,9.253414231016576,1.0560181176162344,2.52086076749476,9.927703171743998,0.2744721203315549,4.039485280106708,1.6001259408346038,0.1371430187690548,-0.071827958269817,1.5865418969131098,-9.945008812881095,6.174041003715701,0.1049506955030487,-0.2473822632340788,-26.475792219932845,3.8969066152101823,-13.508171805046809,-33.68997331691297,-107.80087876866725,27.94881241201665,38.30014676371043,43.76335100488214,1577396492.0,-27.68855322522552,-51.12064610637836,12.807234
106229,1577396492.71,-0.1307467687095083,0.3099031270841264,7.6227293198004,-0.3929994432402814,-0.2273323673899579,9.46170977545017,-0.7156911108993895,-0.0169929922708643,7.674759409536967,2.2275971203315548,4.131038014481708,1.874784143959604,-1.6328765124809452,3.864939619855183,3.081903225038109,1.7432236089939026,6.174041003715701,1.8749702267530488,-0.5772252808795152,-26.475792219932845,3.8969066152101823,-13.62374974562475,-33.68997331691297,-107.12074704142012,28.044658100458264,38.30014676371043,43.90711953754455,1577396492.0,-27.68855322522552,-51.12064610637836,12.807234
106230,1577396492.72,-1.0261781896079458,-0.461029807486185,9.4997834213629,-0.2565299486113756,-0.4164742985423021,9.18158818121189,-0.3110710303329833,-0.0361466055521148,9.72299892980064,-0.900454637480945,3.017146412919208,1.7832314095846038,-0.9920073718559452,3.346140791730183,1.906976467225609,3.421690405868903,4.007292956840701,2.1954047970655486,-0.3298430176454379,-26.74967972565629,5.22539750675911,-13.594855260480262,-33.613751657824935,-68.18320565652296,28.04465810045826,38.515799562704046,43.97900380387576,1577396492.0,-27.68855322522552,-51.12064610637836,12.807234
106231,1577396492.73,-0.8035174352134146,-0.2742820779939976,10.766316099585556,-0.7928311204863752,-0.8402479923899578,11.989986728575172,-1.869696311094702,-1.7551833975443016,11.823910886587749,-1.6176177234184452,0.9266923113567074,1.7221962533346038,0.2592133312690549,-1.8113299113948167,2.990350490663109,1.9568466558689024,1.2301933474657012,2.3327338986280486,-0.7421467897022332,-24.102100503663006,3.3655102585906094,-13.62374974562475,-33.68997331691297,-17.343359044801353,28.044658100458264,38.39599245215204,43.95504238176535,1577396492.0,-27.68855322522552,-51.12064610637836,12.807234
106232,1577396492.74,-1.679795242830602,-0.7028441751619663,10.957852232398055,-1.843885649294969,-0.3853496769602704,10.156028256895484,0.3401518212295157,0.1793315438619471,11.74011382848228,-0.1222563952934451,2.483088795731707,1.935819300209604,1.2052582531440548,0.9962872761051828,1.7696473656631098,-0.4845595941310974,5.258513659965701,1.2341010861280486,-0.7421467897022332,-24.102100503663006,3.3655102585906094,-18.478023249898254,-33.68997331691297,-23.46454459002536,27.94881241201665,38.39599245215204,43.85919669332375,1577396492.0,-27.68855322522552,-51.12064610637836,12.807234
106233,1577396492.75,-1.065682517000524,-0.5615862772127481,10.034887492407822,-0.7329760789824689,0.0934906550709785,10.563042539122046,-0.9239866553329832,0.1697547372213221,10.332323252310404,0.732235792206555,3.261287037919208,2.286771448647104,-0.8699370593559451,1.2099103229801829,3.142938381288109,2.109434546493903,3.2138359255907014,1.7223823361280486,-0.4947645264681561,-26.201904714209405,5.579661744505486,-13.62374974562475,-41.00725258936466,-22.784412862778247,28.068619522568667,38.49183814059364,44.050888070206966,1577396492.0,-27.68855322522552,-51.12064610637836,12.807234
106234,1577396492.76,-1.0501202062095083,-0.4322993875643101,8.161424693335556,-0.6431935167266101,-0.7061726994212079,9.783729898741187,-0.495424558165015,-0.1199436636575836,8.669550199331889,4.211239698456555,4.161555592606708,1.996854456459604,1.2052582531440548,1.2709454792301829,2.517328029725609,3.269102515243903,-1.0281074337842986,3.0956733517530486,0.9070682985249514,-25.19765052655677,4.428302971829755,-16.16646443833944,-41.00725258936466,-10.882107635953789,28.044658100458264,38.37203103004163,44.00296522598616,1577396492.0,-27.68855322522552,-51.12064610637836,12.807234
106235,1577396492.77,-0.3845321446860709,0.0920307760099076,9.138258970679308,-0.1511850755645001,-1.4531636173899578,8.149687265684546,-1.496200852110327,-1.8078558340677395,9.827146702017435,1.5256928234565548,1.2929032488567074,1.874784143959604,0.6254242687690549,1.9423321979801829,3.234491115663109,1.6211532964939026,1.8405449099657007,3.4008491330030486,0.412303772056797,-26.110608878968257,5.313963566195704,-17.264454873829877,-40.85480927118858,-25.84500563539025,28.428040854224697,38.44391529637284,43.71542816066133,1577396492.0,-27.68855322522552,-51.12064610637836,12.807234
106236,1577396492.78,-1.124340457674352,-0.6286239236971225,9.523725437964464,-1.1782975877715314,-0.0741034611399579,8.393895835020484,-0.5193665747665771,-0.4120362661966456,8.517518393911967,0.1218842297065548,1.3844559832317074,1.7221962533346038,0.3812836437690549,2.613718916730183,1.3118836937881098,-0.7287002191310974,1.3522636599657012,2.2716987423780486,0.412303772056797,-26.110608878968257,5.313963566195704,-17.264454873829877,-40.85480927118858,-25.84500563539025,27.94881241201665,38.30014676371043,43.95504238176535,1577396492.0,-27.68855322522552,-51.12064610637836,12.807234
106237,1577396492.79,-0.9375927281821648,-0.1821053140779824,9.46267329563048,-1.3051902757598126,-0.1243816960032392,9.413825742247043,-1.6039399268173582,0.9382934701314783,9.329152756704934,0.655941846894055,3.337580983231708,2.057889612709604,-0.5342436999809451,1.8507794636051829,3.112420803163109,2.170469702743903,2.8171074099657014,2.2716987423780486,-0.3298430176454371,-26.3844963846917,5.579661744505491,-13.62374974562475,-43.446345680181885,-26.185071499013805,27.972773834127057,38.25222391948962,43.85919669332375,1577396492.0,-27.68855322522552,-51.12064610637836,12.807234
106238,1577396492.8,-1.2153201207602895,-0.710026780142435,9.466264598120713,-1.3913815355254375,-0.3314801396067553,9.32164897833103,-0.7109027075790776,0.0284968392721038,8.990373221792826,0.0913666515815548,2.727229420731707,2.118924768959604,0.4270600109565548,2.476389815167683,2.166375881288109,2.750303687118903,-0.6771552853467988,2.2259223751905486,-0.5772252808795152,-25.01505885607448,5.313963566195704,-13.450382834757836,-42.22679913477327,-25.504939771766697,27.90088956779585,38.34806960793124,43.78731242699254,1577396492.0,-27.68855322522552,-51.12064610637836,12.807234
106239,1577396492.81,-0.7316913854087271,0.4966508565763138,10.167765684546492,-0.7641007005645001,-0.9072856388743328,9.571843051817355,-1.6446413550400143,-0.6011781973489893,10.085720481314311,1.9834564953315548,2.666194264481707,2.179959925209604,-0.6868315906059451,1.0268048542301829,3.326043850038109,2.658750952743903,3.4579765505907014,2.9430854611280486,-0.2473822632340788,-26.475792219932845,4.959699328449328,-13.103649013024016,-38.41571618037136,-25.84500563539025,27.94881241201665,38.39599245215204,44.050888070206966,1577396492.0,-27.68855322522552,-51.12064610637836,12.807234
106240,1577396492.82,-0.7939406285727896,0.0369641378263139,10.701672654761335,-1.2884308641387188,-0.0453730412180829,10.321228171446265,-0.7372389258407958,-0.570053575766958,11.953197776236186,0.4880951672065549,-0.3550459698932927,1.905301722084604,0.9611176281440548,1.7287091511051829,1.3729188500381098,-8.998963891006097,10.2023613162157,0.4406440548780487,-0.2473822632340788,-26.475792219932845,4.959699328449328,-13.161437983312986,-38.56815949854744,-25.504939771766697,28.044658100458264,38.39599245215204,44.050888070206966,1577396492.0,-27.68855322522552,-51.12064610637836,12.807234
