,timestamp,acc_x_dashboard,acc_y_dashboard,acc_z_dashboard,acc_x_above_suspension,acc_y_above_suspension,acc_z_above_suspension,acc_x_below_suspension,acc_y_below_suspension,acc_z_below_suspension,gyro_x_dashboard,gyro_y_dashboard,gyro_z_dashboard,gyro_x_above_suspension,gyro_y_above_suspension,gyro_z_above_suspension,gyro_x_below_suspension,gyro_y_below_suspension,gyro_z_below_suspension,mag_x_dashboard,mag_y_dashboard,mag_z_dashboard,mag_x_above_suspension,mag_y_above_suspension,mag_z_above_suspension,temp_dashboard,temp_above_suspension,temp_below_suspension,timestamp_gps,latitude,longitude,speed
24604,1577399251.44,-0.5795719872451407,-1.3535414702624806,8.789581455733135,-1.916120465236756,-0.7430784420850794,5.934408383253143,-1.979304030999904,0.7490931438166912,14.62617794189453,-4.773581900247714,-13.393867306592988,0.6795743616615855,8.750171196169969,0.2701922160823171,0.4972132240853658,-5.718882490948933,-0.4942358993902439,-11.144498499428352,-1.6748063568376068,-1.738272702991453,-2.0289679070929103,3.712543366089037,12.83080201048951,-34.71145260989011,28.38011801000389,33.55578518585078,35.99985024111181,1577399251.0,-27.694695624537367,-51.115876103787855,8.772404
24605,1577399251.45,-0.2611431664443594,-1.3475559661120906,8.165891923262432,2.972839324802305,-2.8356106930616427,3.228960507276581,-0.3249106838319352,5.87747309987138,7.242460021972656,1.9250264981897869,-3.674018673780488,3.2430509241615857,-0.8933834913300305,2.040211747332317,3.6100061928353657,5.511586259051067,9.210353944359756,3.473421422446646,-1.4985109508547012,-1.1247646901709416,-2.780437502312507,-3.2725932921245406,7.698481206293707,-34.41646304416737,28.40407943211429,33.65163087429239,35.99985024111181,1577399251.0,-27.694695624537367,-51.115876103787855,8.772404
24606,1577399251.46,-0.687311061952172,4.347052682569549,13.048866209151104,-0.4125618226586316,3.109192029106325,8.314244833448456,1.3630014865782198,-7.70842422068526,6.731297967529296,0.2313009122522865,-3.841865353467988,2.2664884241615857,-1.8241696241425305,-4.612620283917684,1.4585169350228655,-0.2714947956364328,15.268093202172258,-0.9211098275533536,-1.8511017628205124,-1.1247646901709418,-3.682201016576021,-2.656257704635108,8.798264235764236,-38.103832615701606,28.428040854224697,33.60370803007159,36.11965735166382,1577399251.0,-27.694695624537367,-51.115876103787855,8.772404
24607,1577399251.47,1.809841269590796,-3.321575234910918,8.772822044112042,1.4046372373999614,-1.2769854122999231,5.671046200635955,-1.1509102565858411,4.979647477312786,10.57279453125,-4.041160025247714,0.0949022246570121,3.3040860804115857,-10.201244819455033,6.373707841082317,4.983297208460366,16.619984696551068,19.52529535060976,4.999300328696647,-2.203692574786324,-2.351780715811969,-4.2833766927516965,-9.8468395586785,13.563990696803195,-41.79120218723584,28.284272321562284,33.41201665318837,35.856081708449395,1577399251.0,-27.694695624537367,-51.115876103787855,8.772404
24608,1577399251.48,-0.5580241723037345,-2.7493610381335745,6.661136179854229,0.5546956480444929,-3.3623350582960176,8.4267723114758,-7.193875246820218,-3.708910347394245,13.5990654296875,-10.480369009622711,13.492119021532012,4.860482564786586,0.8156008836699695,-2.232249190167683,4.281392911585366,-1.2633160846989329,11.071926209984756,2.924105016196646,-2.379987980769229,-2.9652887286324803,-2.630143583268586,-9.8468395586785,13.563990696803195,-41.79120218723584,28.23634947734148,33.747476562734,36.33531015065744,1577399251.0,-27.694695624537367,-51.115876103787855,8.772404
24609,1577399251.49,0.2165000647568119,-0.3826926970691219,10.405667576338605,2.826793023532774,-0.9441913815382044,7.758790048292206,17.28444252661728,17.793414762469034,11.903970654296874,-3.888572134622712,-0.8358839081554881,3.7923673304115857,-3.2737545850800305,-0.1875714557926829,2.2367151772103657,21.472279618426068,6.860500428734756,8.447786656821647,-1.851101762820512,-1.7382727029914553,-3.2313192594442626,-9.8468395586785,13.563990696803195,-41.4962126215131,28.38011801000389,33.55578518585078,36.19154161799503,1577399251.0,-27.694695624537367,-51.115876103787855,8.772404
24610,1577399251.5,0.279946408750952,1.6296337982922056,9.843030186201885,-1.2493353028832406,1.447616076957889,5.952364895704315,-6.364284371576077,-11.869546706036823,8.532934716796875,-0.5926736971227134,-3.048408322217988,2.0223477991615857,-8.812695014767531,4.679982255144817,3.5489710365853657,0.6898089153010671,22.92800531154726,4.556795445884148,-0.6170339209401661,-0.1022513354700852,-4.13308277370778,-12.723072300295856,11.364424637862138,-36.333895221365175,28.475963698445504,33.53182376374038,36.02381166322221,1577399251.0,-27.694695624537367,-51.115876103787855,8.772404
24611,1577399251.51,0.6582302710556396,2.304798666456268,11.205330930830792,-1.5019235780297249,1.9743404421922632,4.090873104932831,10.903895102300876,13.318651859637004,2.8730419921875,3.679787240377287,-6.252754025342988,1.4119962366615857,0.8766360399199695,-3.605540205792683,4.556051114710366,-6.359751631573933,28.46694574123476,-10.778287561928352,-1.14592013888889,-0.7157593482906008,-3.682201016576021,-12.312181908636234,8.065075549450551,0.6872952768385466,28.475963698445504,33.50786234162997,36.14361877377422,1577399251.0,-27.694695624537367,-51.115876103787855,8.772404
24612,1577399251.52,1.5560558936142332,-3.486775149461699,6.160748032881573,7.17705744003668,-3.268961193549924,5.395713009717987,2.47391105689072,5.815223856707317,3.1794998046875,-12.647117056497711,6.564628787157012,1.6561368616615857,-5.135326850705031,12.629811356707316,0.8634241615853658,15.765492509051068,55.13930902248475,8.051058141196647,-2.379987980769229,-0.1022513354700852,-2.329555745180745,-13.133962691955478,9.531452922077923,3.3422013683431966,28.23634947734148,33.699553718513194,36.19154161799503,1577399251.0,-27.694695624537367,-51.115876103787855,8.772404
24613,1577399251.53,0.7551954382919682,0.0805853241711124,6.387000089766339,-1.4947409730492571,0.5090890261766384,6.6790050995617385,-2.951349905023342,-4.83538222849776,12.186486450195313,-4.056418814310214,4.062187380907012,2.3732999475990857,-9.560375678830033,-2.354319502667683,4.159322599085366,3.741566727801068,31.320339295922253,-10.061124475990852,-2.9088741987179496,-0.9202620192307692,-2.4798496642246657,-13.133962691955478,8.431669892607394,2.752222236897718,28.4520022763351,33.579746607961184,36.16758019588463,1577399251.0,-27.694695624537367,-51.115876103787855,8.772404
24614,1577399251.54,0.126717502500952,0.1907186005382994,9.766415733076888,1.3974546324194927,-5.210658739936642,11.244747665479707,-3.276961330804592,-0.8167147419254952,19.412187060546877,6.243263802877286,1.498710818407012,0.7406095179115855,-1.5647702100800305,17.451588700457318,0.2225550209603658,-16.857798506573932,-21.856540586890244,-13.311246546303352,-1.4985109508547012,-1.5337700320512828,-3.381613178488186,-1.629031725486053,10.631235951548453,0.6872952768385466,28.14050378889987,33.31617096474676,35.95192739689101,1577399251.0,-27.694695624537367,-51.115876103787855,8.772404
24615,1577399251.55,-2.329733400819359,-2.790062466356231,9.237297166182357,-0.6591645936547249,-4.245795470893674,10.995750692823458,2.988664413824314,13.926779081316692,11.08275948486328,-5.597556509622714,9.463798709032012,2.9683927210365857,-3.792553413205032,-0.9199933307926828,-0.9065953696646342,-6.298716475323933,-58.59970464939025,8.783480016196647,-2.379987980769229,-0.5112566773504303,-4.433670611795614,-1.629031725486053,9.898047265234768,-3.147569077557058,28.61973223110792,33.41201665318837,36.047773085332615,1577399251.0,-27.694695624537367,-51.115876103787855,8.772404
24616,1577399251.56,-0.6382299279189692,-0.4281825286120901,12.03013340275462,4.536253008884336,6.310239648735232,17.97963693549924,1.0014770358946263,-1.025010286359089,7.996633544921875,-10.465110220560216,11.844169802782012,2.2970060022865857,-16.51838349133003,6.251637528582317,2.2367151772103657,-14.752085615948932,-40.16708746189025,17.389437047446645,-1.14592013888889,-2.351780715811969,-3.381613178488186,-3.2725932921245406,9.16485857892108,-37.07136913567202,28.38011801000389,33.65163087429239,35.95192739689101,1577399251.0,-27.694695624537367,-51.115876103787855,8.772404
24617,1577399251.57,-1.3361397118545155,-3.5274765776843555,8.02104272282298,0.5068116148413683,-2.345996453559689,7.521764083936738,2.798325381841891,-10.393521382550494,3.141192578125,-13.593161978372711,4.123222537157012,1.9613126429115848,-5.303173530392531,5.641285966082316,1.7484339272103655,-8.572276045636432,-3.072971250952744,15.512605992759148,-1.14592013888889,-2.351780715811969,-3.381613178488186,-14.777524258593967,0.0,-39.43128566145393,28.14050378889987,33.50786234162997,35.9040045526702,1577399251.0,-27.694695624537367,-51.115876103787855,8.772404
24618,1577399251.58,-0.7615313134170156,-1.1787647490710744,8.28201070378001,2.2880976499976176,3.0373659793016383,10.018916415479708,2.406873410406345,11.084861710711223,8.508992700195313,-7.337058462747714,-5.428779415967988,2.4190763147865857,-1.9614987257050305,-2.537424971417683,0.8023890053353658,4.840199540301067,18.73183831935976,1.1846030630716462,-1.4985109508547012,-2.7607860576923056,-3.381613178488186,-16.421085825232456,-0.3665943431568428,-4.032537774725275,28.475963698445504,33.55578518585078,35.99985024111181,1577399251.0,-27.694695624537367,-51.115876103787855,8.772404
24619,1577399251.59,0.8904678320907958,2.953627316358612,6.905344749190167,5.675892999118712,1.2512915408250758,10.567188595655493,-3.202741079339748,-11.46133532298018,14.207192651367189,13.903175912252289,0.918876834032012,1.5340665491615857,-7.424145210080031,5.000416825457317,1.4432581459603655,1.3611956340510671,21.35635003810976,-1.0126625619283538,-1.6748063568376068,-2.1472780448717943,-3.8324949356199385,-13.133962691955478,7.698481206293707,-4.032537774725275,28.475963698445504,33.50786234162997,36.14361877377422,1577399251.0,-27.694695624537367,-51.115876103787855,8.772404
24620,1577399251.6,-1.6629482384658438,-2.579372720262481,8.253280283858135,0.928191107028868,-3.905818835151486,10.82815657661252,-10.16747370873428,-13.754980513409867,17.178396911621093,-6.650412954935212,5.130302615282012,2.2054532679115857,-6.233959663205031,4.695241044207317,2.3893030678353657,-10.510142256573932,4.693752381859756,-16.240934046303355,-1.1459201388888864,-1.1247646901709398,-4.133082773707777,-9.8468395586785,9.16485857892108,-2.852579511834319,28.523886542666308,33.65163087429239,36.28738730643664,1577399251.0,-27.694695624537367,-51.115876103787855,8.772404
24621,1577399251.61,0.931169260313452,-1.6935181060046682,12.26596226628001,-1.1763121522484747,-1.6169620480421107,9.015745919874238,1.0457697666075174,10.565319950457315,0.2442085693359375,-14.691794790872711,-1.705634884717988,0.8626798304115855,-0.7102780225800311,3.0930681926448167,1.9162806068978655,3.909413407488568,24.484401795922253,1.2914145865091484,-1.3222155448717956,-0.1022513354700852,-3.531907097532104,-9.641394362848688,8.431669892607394,-3.2950638604184275,28.38011801000389,33.60370803007159,36.047773085332615,1577399251.0,-27.694695624537367,-51.115876103787855,8.772404
24622,1577399251.62,0.1434769141220458,3.030241769483612,8.918868345381574,3.8203867124976174,-5.181928320014768,4.229736801221893,4.149852219000095,-8.538015095929401,2.887407202148437,5.419289193502286,9.799492068407012,3.7008145960365857,-2.6634030225800305,-2.354319502667683,2.2672327553353657,7.251088212176067,59.19814691310975,1.7644370474466462,-1.3222155448717956,-1.738272702991453,-5.335434126059131,-8.203277992040011,7.698481206293707,-1.0826421174978862,28.57180938688711,33.699553718513194,35.95192739689101,1577399251.0,-27.694695624537367,-51.115876103787855,8.772404
24623,1577399251.63,1.6805543799423583,-1.7797093657702932,11.99781168034251,1.81404572128668,3.147499255668826,15.875133676221896,0.1994194797422825,-7.4414707355778384,19.48401311035156,-9.473288931497711,-0.3018262909679878,-1.6702791539634143,-2.2361569288300305,-4.276926924542683,0.3751429115853658,3.436390946551067,45.80093011623475,-11.266568811928352,-2.379987980769229,1.1247646901709418,-3.8324949356199385,-3.067148096294731,7.881778377872128,-1.525126466081995,28.38011801000389,33.747476562734,35.856081708449395,1577399251.0,-27.694695624537367,-51.115876103787855,8.772404
24624,1577399251.64,-0.8692703881240473,-2.4153699065417773,8.994285697676494,-1.437280133205506,-0.5706959225538294,13.875975289991429,-0.0208470729920915,0.114629703875285,20.45366478271484,-7.794822134622713,8.365165896532012,0.1149991663490856,-4.494457710080031,3.382985184832317,2.4198206459603657,0.0184221965510671,-8.764499571265244,-20.818570765053355,-1.9392494658119648,-2.24952938034188,-3.75734797609798,-1.629031725486053,13.563990696803195,-39.431285661453934,28.40407943211429,33.699553718513194,36.047773085332615,1577399251.0,-27.694695624537367,-51.115876103787855,8.772404
24625,1577399251.65,-1.8173742455459216,0.4708401947765807,17.57869575016673,-2.8211286927758192,-3.801671062934689,4.963559610059784,-5.193519759759671,1.2961682231623932,16.290148095703124,-8.435691275247713,9.677421755907012,3.3651212366615857,-9.407787788205033,6.87724788014482,3.1827600990853657,-14.858897139386434,-65.46615972751525,10.873934117759148,-2.556283386752135,-1.942775373931624,-3.982788854663856,-2.656257704635109,10.081344436813186,-38.69381174714708,28.38011801000389,33.55578518585078,35.99985024111181,1577399251.0,-27.694695624537367,-51.115876103787855,8.772404
24626,1577399251.66,-2.365646425721703,-2.428538015672637,9.6179752301472,-4.645510357814882,-4.789279247749143,8.972650289991424,12.594201474371188,17.15176871754716,2.1739351074218747,-12.250388540872711,7.388603396532012,-0.5106111852134145,1.8531985399199693,-13.096507002667684,0.6192835365853658,-13.439829756573932,-80.66391363376525,8.142610875571647,-2.203692574786324,-3.169791399572651,-1.8786739880489929,-7.586942404550577,13.74728786838162,-40.758738707206255,28.38011801000389,33.747476562734,36.047773085332615,1577399251.0,-27.694695624537367,-51.115876103787855,8.772404
24627,1577399251.67,-0.8644819848037344,-1.5450776030749809,9.998653294112042,-1.5474134095726937,-0.2331134884717982,10.856886996534396,1.2480798068907195,-0.1367614704411202,-1.9847931762695312,-14.752829947122711,-5.062568478467988,-2.2501131383384143,-2.9380612257050305,2.559010575457317,3.7015589272103657,-7.183726240948933,-46.11801519626525,34.14358743807165,-2.556283386752135,-2.351780715811969,-3.0810253404003385,-14.57207906276416,10.814533123126871,-40.758738707206255,28.284272321562284,33.50786234162997,36.047773085332615,1577399251.0,-27.694695624537367,-51.115876103787855,8.772404
24628,1577399251.68,-1.3181831994033444,1.1891006928234555,10.539742869307354,-2.536218695217225,-0.1816381527784393,9.90758603828244,-6.237391683587796,-11.014816713361045,3.324349005126953,5.251442513814787,3.711235232469512,0.6337979944740857,-4.952221381955031,0.6974383098323171,0.8481653725228656,-15.77442448313643,-3.729099180640244,-9.221891077553352,-1.851101762820512,-1.3292673611111123,-3.6822010165760215,-14.572079062764155,14.11388221153846,-32.94151521555368,28.284272321562284,33.55578518585078,36.02381166322221,1577399251.0,-27.694695624537367,-51.115876103787855,8.772404
24629,1577399251.69,0.1243233008407958,-2.756543643114043,12.373701340987042,0.3703421202124616,-6.051023522651486,9.080389364698457,-9.231340859613187,-3.783130598859089,7.740453967285156,-9.320701040872711,-1.858222775342988,0.0692227991615854,0.1747317430449695,2.436940262957317,-0.8150426352896342,-0.8665875690739329,12.994533631859756,-0.7685219369283537,-2.379987980769229,-1.3292673611111123,-3.531907097532104,-16.010195433572836,10.631235951548453,-33.53149434699915,28.38011801000389,33.41201665318837,36.14361877377422,1577399251.0,-27.694695624537367,-51.115876103787855,8.772404
24630,1577399251.7,-2.229176931092797,-5.4979045439929495,5.8854148419636045,-0.0007591371117569,-0.4270438229444544,12.817738156202363,3.41243810767197,0.3660208781916912,16.17043801269531,-10.175193228372711,13.888847537157012,1.6866544397865857,-9.224682319455033,-0.2180890339176829,-0.9065953696646342,4.718129227801067,6.219631288109756,3.015657750571646,-2.027397168803418,-1.738272702991453,-4.433670611795614,-15.804750237743024,7.881778377872128,-1.525126466081995,28.284272321562284,33.55578518585078,35.95192739689101,1577399251.0,-27.694695624537367,-51.115876103787855,8.772404
24631,1577399251.71,-0.7136472802138912,1.7804685028820493,10.13392568791087,-1.638393072658631,3.286362951957888,13.974137558057834,4.990217001714938,0.8855626384455975,0.0454898315429687,1.5588155606897875,3.2687303496570124,2.1596769007240857,-10.720043647580033,6.984059403582317,1.7179163490853655,7.739369462176067,21.99721917873476,-0.6769692025533537,-2.997021901709399,-1.4315186965811977,-2.855584461834469,-16.421085825232456,7.698481206293707,-1.0826421174978862,28.332195165783087,33.55578518585078,36.14361877377422,1577399251.0,-27.694695624537367,-51.115876103787855,8.772404
24632,1577399251.72,-1.8341336571670157,-4.097296572801543,8.571709104658916,0.5582869505347277,-2.6464687619092984,7.256007699659395,-1.7267157558534203,-0.7843930195133862,13.601459631347655,-1.1725076814977131,-4.513252072217988,0.5269864710365855,-0.0846676710175307,2.4216814738948167,0.0241907631478657,-5.779917647198932,28.65005120998476,5.289217320884147,-2.908874198717946,-0.3067540064102557,-4.884552368927366,-16.421085825232456,7.881778377872129,-2.4100951632502112,28.475963698445504,33.60370803007159,36.047773085332615,1577399251.0,-27.694695624537367,-51.115876103787855,8.772404
24633,1577399251.73,-0.4191604760146719,-1.2386197905749807,9.091250864912825,0.2266900206030865,0.4707817996141382,12.839285971143772,2.356595175543064,-11.291347005109088,9.758765966796874,1.1163106778772869,7.083427615282012,0.9542325647865856,-1.8089108350800305,-7.755930830792683,2.4503382240853657,4.535023759051067,26.39175042873476,-1.6840492806783538,-2.908874198717946,-0.3067540064102557,-4.884552368927366,-15.393859846083402,7.881778377872128,-0.6401577689137783,28.475963698445504,33.50786234162997,35.99985024111181,1577399251.0,-27.694695624537367,-51.115876103787855,8.772404
24634,1577399251.74,2.176154123594702,-0.8651243315906056,8.780004649092511,0.7701737974585553,-0.7909624752882045,7.591195932081268,-1.5363767238709976,3.2534280803401296,19.16558428955078,-3.0951151033727133,-4.848945431592988,0.1302579554115854,-0.5882077100800305,8.479420731707316,-1.2728063071646345,-4.193003584698933,-0.951999571265244,-11.205533655678352,-1.6748063568376068,-0.9202620192307712,-3.531907097532104,-3.2725932921245406,10.631235951548453,-2.2626003803888417,28.23634947734148,33.41201665318837,36.14361877377422,1577399251.0,-27.694695624537367,-51.115876103787855,8.772404
24635,1577399251.75,-1.8353307579970937,-0.628098367235137,10.23567925846751,-1.4612221498070683,-1.4278201168897668,11.872028500440646,-7.416536001214749,-1.525398433331745,16.007632299804687,4.244362435689788,5.267631716844512,0.8016446741615856,-3.4263424757050305,-1.0725812214176829,4.037252286585366,-8.465464522198932,-19.262546446265244,-3.270963343178354,-2.115544871794871,-0.409005341880343,-3.156172299922304,-14.777524258593967,9.16485857892108,-39.13629609573119,28.38011801000389,33.50786234162997,36.19154161799503,1577399251.0,-27.694695624537367,-51.115876103787855,8.772404
24636,1577399251.76,0.854554807188452,-1.099756094285918,11.3418004254597,-0.4424893434105847,-2.3759239743116423,10.653379855421113,-2.8902977626893573,-2.692571742657917,11.875240234375,-6.909812368997714,-5.032050900342988,-0.0833650914634145,0.7087893602324693,-0.2180890339176828,0.8786829506478657,-21.98475163157393,-44.97360601657775,-1.9892250619283531,-1.8511017628205124,-0.3067540064102557,-4.2833766927516965,-16.010195433572836,3.665943431568432,-21.436922152366865,28.38011801000389,33.53182376374038,36.23946446221584,1577399251.0,-27.694695624537367,-51.115876103787855,8.772404
24637,1577399251.77,-3.783013808534203,-2.538671292039824,9.357007249190168,-1.1643411439476936,-2.770967248237424,10.169751120069552,-3.140491836175686,1.2758175090510662,9.165003955078124,-6.757224478372714,4.855644412157012,1.2899259241615857,-3.4873776319550305,-2.140696455792683,-0.0826207602896341,-13.653452803448932,-47.15561285251525,15.466829625571648,-1.6748063568376068,-0.1022513354700852,-3.531907097532104,-16.010195433572836,-1.099783029470529,-2.5575899461115803,28.284272321562284,33.22032527630515,35.99985024111181,1577399251.0,-27.694695624537367,-51.115876103787855,8.772404
24638,1577399251.78,-0.8525109765029532,-0.7861156768054495,6.402562400557354,0.5810318663062116,2.132357751762576,13.167291598585177,-4.763760561761623,-8.98573080637862,6.196193896484375,4.869972787252286,6.045829959032012,1.7782071741615857,-9.377270210080033,2.833668778582317,0.8939417397103658,-13.256724287823932,-37.87826910251525,15.710970250571648,-1.6748063568376068,-0.1022513354700852,-3.531907097532104,-12.312181908636234,-1.099783029470529,-3.147569077557058,28.14050378889987,33.55578518585078,36.14361877377422,1577399251.0,-27.694695624537367,-51.115876103787855,8.772404
24639,1577399251.79,-1.903565505311547,-1.778512264940215,12.748393900801494,-3.496293560939882,-1.6504808712842982,13.143349581983616,5.799457162847751,2.803318168230754,11.765106958007811,-1.1114725252477131,-6.466377072217988,1.4882901819740857,0.6935305711699695,4.267994950457317,-0.7540074790396342,-5.230601240948933,-32.62924566501525,7.288118688071647,-1.6748063568376033,-0.3067540064102578,-3.98278885466386,-13.133962691955478,9.531452922077923,-4.032537774725275,28.33219516578309,33.50786234162997,35.99985024111181,1577399251.0,-27.694695624537367,-51.115876103787855,8.772404
24640,1577399251.8,-3.531622634217797,-0.2474203032702933,12.646640330244852,-2.038224749904726,-3.0810163632276577,11.96300816352658,-5.213870473870998,-9.08748437693526,11.069591375732422,-1.843894400247713,-6.863105587842988,2.8463224085365857,1.6700930711699693,-7.572825362042683,2.4808558022103657,0.689808915301068,-11.678928282202744,0.8946860708841466,-2.556283386752135,-1.1247646901709418,-2.179261826136828,-9.641394362848688,10.081344436813186,-39.28379087859256,28.428040854224697,33.45993949740917,36.23946446221584,1577399251.0,-27.694695624537367,-51.115876103787855,8.772404
24641,1577399251.81,-3.2874140648818595,-0.2713623198718558,11.435174290205792,-4.054142547756288,-1.6361156613233607,6.614361654737518,3.989440707769626,8.139993668719036,5.212177014160156,1.2994161466272869,-3.506171994092988,1.9613126429115848,6.858081352419969,-6.107981612042683,1.2296350990853655,19.702260087176068,10.003810975609756,-8.123258265053353,-2.203692574786324,-0.3067540064102557,-2.479849664224669,-2.450812508805297,9.531452922077923,-4.032537774725275,28.428040854224697,33.699553718513194,35.99985024111181,1577399251.0,-27.694695624537367,-51.115876103787855,8.772404
24642,1577399251.82,-0.9051834130263906,-2.0047643218249807,11.674594456221415,-1.7892277772484748,-2.3902891842725795,3.463592269971893,-1.9481794094178728,1.0794929729182536,9.02853446044922,-0.6537088533727134,-9.060371212842988,0.9847501429115856,6.919116508669969,-5.772288252667683,-0.1741734946646341,20.953480790301068,40.03310785060975,11.591097203696648,-2.203692574786324,-0.3067540064102557,-2.479849664224669,-2.450812508805297,9.531452922077923,-4.032537774725275,28.38011801000389,33.50786234162997,36.047773085332615,1577399251.0,-27.694695624537367,-51.115876103787855,8.772404
24643,1577399251.83,1.3836733740829836,-0.6879534087390438,9.08047695744212,1.3268256834448833,-0.1241773129346893,10.11348738105588,-10.513435848626855,-17.097286030987995,12.253524096679689,4.854713998189787,-5.245673947217988,1.6408780725990857,0.128955375857469,-4.337962080792683,2.0536097084603657,-1.568491865948932,26.834255311547253,-5.819181116615854,-2.203692574786324,-1.7382727029914555,-3.5319070975320974,-1.012696137996619,9.3481557504995,-2.2626003803888417,28.428040854224697,33.55578518585078,35.99985024111181,1577399251.0,-27.694695624537367,-51.115876103787855,8.772404
24644,1577399251.84,-0.6920994652724844,-3.7788677520007616,7.817535581709698,0.786933209079649,-4.63126193817883,5.402895614698456,10.944596530523532,26.991937540789344,10.522516296386716,5.632912240377286,4.367363162157012,3.3651212366615857,8.536548149294969,5.000416825457317,3.5184534584603657,19.336049149676068,-4.919284727515244,-3.240445765053354,-1.6748063568376068,-2.1472780448717943,-3.231319259444269,-2.0399221171456747,10.997830294705292,-0.4926629860524088,28.23634947734148,33.50786234162997,35.80815886422859,1577399251.0,-27.694695624537367,-51.115876103787855,8.772404
24645,1577399251.85,0.3996564917587645,-2.0765903716296683,7.834294993330792,0.9425563169898054,-3.0032048092725803,10.660562460401584,3.41243810767197,-0.5605351642887765,5.197811804199218,-3.5223611971227133,0.0949022246570121,0.9542325647865856,3.592700493044969,-6.840403487042683,3.4574183022103657,1.9105120403010671,-7.055515196265244,12.537142125571648,-2.203692574786324,-1.5337700320512828,-3.0810253404003385,-2.0399221171456747,10.997830294705292,-0.4926629860524088,28.284272321562284,33.65163087429239,36.19154161799503,1577399251.0,-27.694695624537367,-51.115876103787855,8.772404
24646,1577399251.86,-3.407124147889672,1.3519064057140806,15.596296775557354,-3.2784212098656638,2.996664551078982,15.338832504346897,-17.390780117425685,-23.76034925120284,25.14630003662109,-2.9425272127477133,4.336845584032012,3.3346036585365857,-2.6939206007050305,-1.9575909870426829,-0.3572789634146341,-22.19837467844893,-53.19809332126525,-17.095426233803355,-2.203692574786324,-1.5337700320512828,-3.0810253404003385,-9.641394362848688,14.113882211538462,-34.26896826130599,28.284272321562284,33.55578518585078,35.99985024111181,1577399251.0,-27.694695624537367,-51.115876103787855,8.772404
24647,1577399251.87,-0.990177571961938,-3.10968838798709,11.235258451582744,2.3491497923316027,0.9544105349657012,11.682886569288302,9.582295785894626,8.85107156178544,7.821856823730468,-9.839499868997711,0.0186082793445123,1.4882901819740857,-0.2219967725800306,6.633107255144817,2.1451624428353657,-1.309092451886432,-63.52829351657775,16.824861852134145,-1.9392494658119648,-1.4315186965811977,-3.75734797609798,-12.723072300295858,14.847070897852143,-37.95633783284024,28.499925120555904,33.53182376374038,36.11965735166382,1577399251.0,-27.694695624537367,-51.115876103787855,8.772404
24648,1577399251.88,-0.8094153466201407,0.0350954926281432,9.0050596051472,-1.8107755921898807,-4.135662194526486,22.00907832954221,-3.6743988063905295,-17.18347729075362,1.944091748046875,21.532570443502287,8.914482302782012,4.738412252286586,1.2733645555449695,1.6434832317073171,6.173482755335366,-2.484019209698933,-25.457614805640244,10.706087438071648,-0.6170339209401661,-1.3292673611111123,-3.231319259444269,29.59863804064525,1.832971715784216,0.9822848425612848,28.38011801000389,33.55578518585078,35.95192739689101,1577399251.0,-27.694695624537367,-51.115876103787855,8.772404
24649,1577399251.89,-1.810191640565453,-2.952868179246856,10.202160435225323,-3.7309253236351942,-0.6329451657178919,6.729283334425018,13.075436008062594,22.062276322527627,-2.059013427734375,-2.0880350252477133,1.498710818407012,2.8768399866615857,-3.5789303663300305,21.75456721608232,2.5724085365853657,6.335560868426067,30.11489495998476,9.454866734946648,-1.6748063568376068,-1.3292673611111123,-3.8324949356199385,-9.8468395586785,3.2993490884115886,3.0472118026204567,28.57180938688711,33.55578518585078,35.856081708449395,1577399251.0,-27.694695624537367,-51.115876103787855,8.772404
24650,1577399251.9,0.1841783423447026,2.250929129102752,7.557764701582745,-1.916120465236756,-2.5650659054639866,8.460291134717988,-11.568081679925688,-3.50779740794112,3.260902661132812,17.244850716939787,-10.799873165967988,4.112801900724086,7.010669243044969,0.239674637957317,1.2601526772103655,15.643422196551068,48.66958245998475,15.588899938071648,-1.4103632478632484,-1.6360213675213682,-3.156172299922304,-16.215640629402646,3.849240603146854,0.8347900596999165,28.547847964776714,33.65163087429239,36.047773085332615,1577399251.0,-27.694695624537367,-51.115876103787855,8.772404
24651,1577399251.91,-0.996163076112328,-0.532330300828887,7.894150034834698,-2.563752014309022,-0.2989540341260956,7.983845004346893,1.178647958746189,-2.060502504376668,9.994594830322264,10.607277474752289,-0.6985548065929879,3.1209806116615857,0.9529299852324692,0.2396746379573162,1.5653284584603655,19.702260087176068,37.36281976467225,-11.892179163490852,-2.379987980769229,-0.1022513354700852,-4.13308277370778,-6.970606817061143,9.53145292207792,-0.787652551775148,28.428040854224697,33.579746607961184,36.21550304010543,1577399251.0,-27.694695624537367,-51.115876103787855,8.772404
24652,1577399251.92,3.452263608457984,-0.8699127349109181,7.614028440596416,2.652016302341368,0.324735498344607,9.56162389838986,-7.059799953851467,-4.807848909405964,17.34599102783203,4.778420052877286,-11.990058712842988,1.7171720179115857,-0.2219967725800304,6.221119950457317,0.4056604897103658,8.899037430926068,26.94106683498476,1.3677085318216462,-2.027397168803418,-1.3292673611111123,-3.531907097532104,-2.861702900464919,8.065075549450551,-36.48139000422654,28.38011801000389,33.50786234162997,36.14361877377422,1577399251.0,-27.694695624537367,-51.115876103787855,8.772404
24653,1577399251.93,-1.4726092064834218,-1.6121152495593556,18.23949540836985,1.4573096739233988,-4.0015869015577366,8.03651744087033,9.271049570074313,-9.98171869700362,16.201562634277344,-7.855857290872714,-0.0576856659679878,0.2523282679115854,7.651538383669969,-2.781565596417683,1.6873987709603655,-0.8665875690739329,7.898098084984756,-21.703580530678355,-0.4407385149572604,-0.3067540064102557,-3.0810253404003385,-13.133962691955478,8.798264235764236,-37.07136913567202,28.38011801000389,33.55578518585078,36.28738730643664,1577399251.0,-27.694695624537367,-51.115876103787855,8.772404
24654,1577399251.94,2.173759921934546,-3.265311495897247,10.532560264326886,0.5714550596655866,-5.248965966499142,8.410012899854706,-4.392659304437404,15.39681890065263,4.141968872070312,-2.286399283060214,7.998954959032012,3.2430509241615857,2.738208305544969,0.5448504192073171,2.4808558022103657,19.793812821551068,18.64028558498476,-7.573941858803353,-0.4407385149572604,-0.3067540064102557,-3.0810253404003385,-13.955743475274724,8.431669892607392,-41.79120218723584,28.4759636984455,33.65163087429239,36.33531015065744,1577399251.0,-27.694695624537367,-51.115876103787855,8.772404
24655,1577399251.95,-1.9466611351943592,2.683082528760956,10.934786143233136,-0.1767329591332416,-0.8376494076612517,6.384518295362518,-5.787281771478421,0.9346437724788016,6.842628344726562,8.898293099752287,10.440361209032012,2.6937345179115857,4.050464164919968,-0.0807599323551828,1.6873987709603655,27.789418290301064,37.13393792873475,28.55887064119665,-1.14592013888889,-1.1247646901709418,-3.682201016576021,-13.133962691955478,8.248372721028971,-38.25132739856298,28.23634947734148,33.62766945218199,35.99985024111181,1577399251.0,-27.694695624537367,-51.115876103787855,8.772404
24656,1577399251.96,-1.8245568505263905,0.0422780976086119,3.2039089825886045,-4.008652716213319,-0.5419655026319544,11.55599388130002,-13.739622585687403,-33.08337051585128,27.935544970703123,10.393654427877289,10.989677615282012,3.6702970179115857,6.491870414919969,0.026051591082317,1.1685999428353655,0.1404925090510671,8.142238709984756,-21.428922327553355,-0.6170339209401661,-0.1022513354700852,-2.930731421356421,-14.777524258593967,8.798264235764236,-37.07136913567202,28.284272321562284,33.50786234162997,36.19154161799503,1577399251.0,-27.694695624537367,-51.115876103787855,8.772404
24657,1577399251.97,3.5719736914657965,-0.8124518950671682,6.0554031598346985,0.5570898497046491,-0.2283250851514857,10.569582797315649,12.323656686773532,39.0826559245784,10.182539660644531,9.874855599752289,-8.205879025342988,-0.5411287633384145,6.369800102419969,1.4298601848323171,2.2977503334603657,-2.422984053448933,-15.478366758765244,-13.738492640053352,-2.556283386752135,-1.1247646901709418,-4.2833766927516965,-10.668620341997745,10.997830294705292,-3.737548209002536,28.044658100458264,33.65163087429239,36.28738730643664,1577399251.0,-27.694695624537367,-51.115876103787855,8.772404
24658,1577399251.98,0.1207319983505619,-2.476422048875762,8.053364445235088,2.854326342624571,-2.383106579292111,8.572818612745332,-3.717494436273343,-17.95800152781417,5.006275671386718,-0.5316385408727133,12.393486209032012,1.8087247522865852,-1.320629585080031,8.479420731707316,-0.4793492759146343,3.390614579363568,3.991848084984756,8.432527867759147,-2.556283386752135,-0.7157593482906008,-4.583964530839531,-9.435949167018878,7.698481206293707,-19.66698475803043,28.332195165783087,33.45993949740917,35.95192739689101,1577399251.0,-27.694695624537367,-51.115876103787855,8.772404
24659,1577399251.99,-0.1127026635146719,-1.2362255889148244,7.535019785811261,1.1652170713843366,4.138698742973514,13.559940670850802,-2.3312516750428727,2.1616721233088785,10.1131078125,9.020363412252289,12.240898318407012,3.4566739710365857,-0.3135495069550305,1.9486590129573167,3.9456995522103657,3.222767899676067,24.98794183498476,-10.778287561928352,-0.6170339209401661,0.3067540064102557,-4.13308277370778,-11.490401125316987,7.698481206293707,-1.3776316832206257,28.38011801000389,33.41201665318837,35.99985024111181,1577399251.0,-27.694695624537367,-51.115876103787855,8.772404
24660,1577399252.0,-0.0025693871474844,1.1603702729015806,10.199766233565168,0.4732927915991803,-0.8843363400342982,7.516975680616425,12.354781308355562,18.130997196551068,12.840103503417968,1.2078634122522869,4.916679568407012,2.2359708460365857,0.4493899461699695,14.552418778582316,2.2061975990853657,23.639027665301068,14.825588319359756,7.562776891196647,-1.4985109508547012,-1.942775373931624,-3.0810253404003385,-3.2725932921245406,7.698481206293707,-3.737548209002536,28.092580944679067,33.55578518585078,35.99985024111181,1577399252.0,-27.694632946707014,-51.115952310136464,9.495658
24661,1577399252.01,-2.461414492127953,1.1507934662609556,8.55016128971751,1.7685558897437117,-0.7023770138624232,12.657326644971896,-1.1676696682069352,-18.02384207346846,18.595764294433597,5.083595834127286,9.738456912157012,2.3885587366615857,-2.0225338819550305,8.143727372332316,0.8329065834603658,-5.261118819073933,-1.3487280868902438,-3.637174280678354,-0.7933293269230717,-3.169791399572651,-4.2833766927516965,-1.629031725486053,9.16485857892108,-33.23650478127641,28.428040854224697,33.50786234162997,36.047773085332615,1577399252.0,-27.694632946707014,-51.115952310136464,9.495658
24662,1577399252.02,-1.0009514794326406,-0.7466113494128713,10.132728587080791,-0.5370603089867562,1.4176885562059358,13.49888852851682,2.617563156500095,10.440821464129192,9.307458953857422,6.197487435689788,9.402763552782012,2.3885587366615857,-1.6105465772675305,7.151906083269816,4.418722013147866,2.703969071551068,-9.969943907202744,-0.7380043588033516,-3.43776041666667,-0.9202620192307712,-4.13308277370778,-2.450812508805297,9.898047265234766,-37.51385348425613,28.35615658789349,33.48390091951957,36.02381166322221,1577399252.0,-27.694632946707014,-51.115952310136464,9.495658
24663,1577399252.03,-1.2619194603896715,-1.5187413848132618,12.91718511784251,1.495616900485899,-8.337486108100705,7.4690916474133,-10.945589248285062,-20.279180037335653,2.731784094238281,-8.710349478372713,4.733574099657012,0.2218106897865854,-4.433422553830031,1.5519304973323171,3.3963831459603657,1.1780901653010671,28.65005120998476,24.469515172446645,-3.43776041666667,-1.738272702991453,-4.433670611795614,-15.599305041913214,9.898047265234768,-41.4962126215131,28.38011801000389,33.55578518585078,35.99985024111181,1577399252.0,-27.694632946707014,-51.115952310136464,9.495658
24664,1577399252.04,-1.022499294374047,0.6839241425304868,8.88295532047923,-0.5753675355492561,0.1739007937547633,8.436349118116425,7.726789499273532,-1.6738389362614323,12.114660400390624,7.433449349752286,4.306328005907012,3.2735685022865857,1.7006106492949695,-0.7368878620426829,0.4361780678353658,4.840199540301067,19.73891839748476,3.748079625571646,-2.379987980769229,-1.738272702991453,-2.630143583268586,-12.312181908636234,13.563990696803195,-30.876588255494507,28.428040854224697,33.55578518585078,35.99985024111181,1577399252.0,-27.694632946707014,-51.115952310136464,9.495658
24665,1577399252.05,0.763575144102515,-0.3108666472644344,3.625288474776105,-0.5490313172875374,3.092432617485232,9.89681213081174,1.853812826910251,9.509477018328411,2.896984008789062,7.357155404439788,-2.163398556592988,0.7863858850990856,-5.745678413205031,4.023854325457317,2.3587854897103657,17.382924149676068,37.89687738185975,0.7878745474466463,-2.379987980769229,-1.3292673611111123,-3.3816131784881867,-11.28495592948718,16.313448270479515,-41.64370740437448,28.499925120555904,33.50786234162997,35.99985024111181,1577399252.0,-27.694632946707014,-51.115952310136464,9.495658
24666,1577399252.06,-0.917154421327172,0.4397155731945494,6.924498362471417,5.015093340915586,-0.3145163449171106,7.4140250092297055,0.3191295627500949,0.0212558391291912,7.378929516601562,9.508644662252289,1.468193240282012,-0.1444002477134145,-5.135326850705031,14.460866044207316,2.7555140053353657,19.122426102801068,54.04067620998475,7.562776891196647,-1.14592013888889,0.5112566773504262,-3.381613178488186,-12.517627104466046,15.580259584165836,-41.64370740437448,28.428040854224697,33.50786234162997,36.28738730643664,1577399252.0,-27.694632946707014,-51.115952310136464,9.495658
24667,1577399252.07,0.4307811133407958,-0.7645678618640432,4.712256028487042,-0.9021760621605842,1.252488641655154,10.273898892286349,-1.5483477321717798,5.839165873308878,10.382455499267577,5.480324349752286,7.998954959032012,2.1749356897865857,0.6935305711699695,-0.0960187214176829,1.1533411537728655,4.565541337176067,15.252834413109758,-23.42782369474085,-1.14592013888889,0.5112566773504262,-3.381613178488186,-11.901291516976611,15.213665241008991,-37.51385348425613,28.38011801000389,33.55578518585078,36.11965735166382,1577399252.0,-27.694632946707014,-51.115952310136464,9.495658
24668,1577399252.08,1.8768789160751709,-3.110885488817168,11.293916392256572,4.684693511814023,-4.540282275092893,5.965533004835175,6.108309177007907,-1.831856245831745,12.145785021972657,-11.090720572122711,2.6278612090320124,-2.0975252477134143,0.2968020555449695,10.249440262957316,0.8634241615853658,-4.589732100323933,24.59121331935976,5.243440953696647,-1.6748063568376068,-2.1472780448717943,-2.930731421356421,-11.28495592948718,14.847070897852149,-33.38399956413779,28.428040854224697,33.50786234162997,35.856081708449395,1577399252.0,-27.694632946707014,-51.115952310136464,9.495658
24669,1577399252.09,-1.7599134057021717,-1.0853908843249809,10.041748923994854,-1.7006423158226935,-3.549082787788205,11.280660690382051,-6.829956594476467,-9.117411897687214,7.467514978027343,-6.909812368997714,19.68718738090701,3.2125333460365857,-8.827953803830031,-8.518870283917684,2.1756800209603657,-3.979380537823933,17.663723084984756,1.6423667349466462,-2.203692574786324,-1.942775373931624,-2.780437502312504,-3.2725932921245406,8.065075549450551,1.2772744082840235,28.428040854224697,33.699553718513194,36.047773085332615,1577399252.0,-27.694632946707014,-51.115952310136464,9.495658
24670,1577399252.1,-2.1298175621963127,0.1428345673351749,11.272368577315168,-3.1718792359887096,1.5864797732469509,12.621413620069552,11.411465854254,14.733625040789343,10.499771380615234,-13.944114126810216,2.5820848418445124,0.2828458460365854,-2.953320014767531,6.144826005144819,-0.6471959556021344,3.543202469988568,-16.958469297827744,0.9709800161966464,-1.4985109508547012,-0.7157593482906008,-3.38161317848818,-2.348089910890392,8.889912821553448,-2.631337337542265,28.308233743672687,33.50786234162997,36.047773085332615,1577399252.0,-27.694632946707014,-51.115952310136464,9.495658
24671,1577399252.11,-2.8995533959365467,-1.387060293504668,9.79035774967845,2.81003361191168,-6.917724523628048,9.180945834425016,-0.2961802639100602,4.127311686297161,8.55448253173828,0.0176778653772865,4.153740115282012,-0.5106111852134145,-2.9075436475800305,-6.474192549542683,2.6944788490853657,-5.200083662823933,-1.6233862900152438,26.880403844321645,-1.4985109508547012,-0.7157593482906008,-3.982788854663856,-3.2725932921245406,8.065075549450551,-2.852579511834319,28.428040854224697,33.50786234162997,36.14361877377422,1577399252.0,-27.694632946707014,-51.115952310136464,9.495658
24672,1577399252.12,-3.0934837304092038,2.1252335419445494,6.816759287764386,-4.62156834121332,0.755691797172732,12.966178659132051,-8.845874392328032,-30.83521515696456,17.611747412109374,-0.3790506502477134,4.977714724657012,2.9378751429115857,-5.471020210080031,-21.24470036204268,2.3282679115853657,-22.99183170969893,-20.178073790015244,-3.454068811928354,-2.908874198717946,-0.7157593482906008,-3.381613178488186,-12.312181908636234,8.065075549450551,-36.48139000422654,28.428040854224697,33.41201665318837,36.14361877377422,1577399252.0,-27.694632946707014,-51.115952310136464,9.495658
24673,1577399252.13,-0.9219428246474842,-1.2733357146472468,6.345101560713604,-1.0087180360375374,0.1978428103563258,12.116237069776584,11.62933820532822,1.249481290789347,8.95670841064453,-3.873313345560214,-12.432563595655488,-1.3651033727134143,-7.759838569455031,9.608571122332316,-3.9583531821646334,-12.341196944073932,-16.424411680640244,-11.541227015053352,-2.379987980769229,-0.5112566773504303,-3.8324949356199416,-9.8468395586785,-0.7331886863136862,-38.84130653000845,28.38011801000389,33.55578518585078,35.99985024111181,1577399252.0,-27.694632946707014,-51.115952310136464,9.495658
24674,1577399252.14,-0.7758965233779531,2.331134884717987,9.78317514469798,1.3783010191382428,0.0529936099168732,4.882156753614471,-4.74700115014053,-7.218809981183307,3.1376012756347653,4.534279427877286,-3.597724728467988,0.2523282679115854,-6.966381538205031,-6.458933760480184,2.0688684975228657,-2.117808272198933,17.57217035060976,5.960604039634148,-1.6748063568376068,-0.5112566773504303,-4.13308277370778,-12.928517496125668,-3.48264625999001,-0.345168203191039,28.38011801000389,33.45993949740917,36.02381166322221,1577399252.0,-27.694632946707014,-51.115952310136464,9.495658
24675,1577399252.15,0.5911926245712645,-0.9752576079577931,9.474323130537824,-0.6256457704125373,-2.8356106930616427,8.912795248487518,-4.323227456292873,-5.17416176340987,15.442600708007811,-2.5763162752477133,-2.010810665967988,-0.5716463414634145,-2.6023678663300305,4.725758622332317,-1.5779820884146345,-1.2938336628239329,7.379299256859756,-9.832242640053352,-1.6748063568376068,-0.5112566773504303,-4.13308277370778,-9.230503971189066,8.248372721028971,-1.8201160318047327,28.38011801000389,33.50786234162997,35.95192739689101,1577399252.0,-27.694632946707014,-51.115952310136464,9.495658
24676,1577399252.16,0.6582302710556396,-1.9903991118640432,3.579798643233136,-3.469957342678163,-2.452538427436642,9.92314834907346,-5.41737761498428,-2.463925484112995,10.527304699707033,3.832375131002287,5.984794802782012,3.4566739710365857,-3.5789303663300305,-9.373362471417684,1.7179163490853655,-25.64686100657393,-5.010837461890244,-12.761930140053352,-3.43776041666667,-1.3292673611111123,-3.8324949356199385,-2.2453673129754868,10.814533123126871,-35.74391608991969,28.38011801000389,33.699553718513194,35.99985024111181,1577399252.0,-27.694632946707014,-51.115952310136464,9.495658
24677,1577399252.17,1.1945314429306395,-2.3615003691882617,10.884507908369851,1.9960050474585551,-0.9824986081007044,12.403541268995331,-3.339210573968655,3.930987150164349,4.587290380859375,-13.562644400247711,-13.332832150342988,-2.1585604039634143,-1.9920163038300305,-1.4693097370426829,0.1615198647103658,-5.383189131573933,10.003810975609756,0.1775229849466463,-0.2644431089743548,-2.556283386752136,-3.531907097532104,-9.435949167018876,10.631235951548453,-33.53149434699915,28.23634947734148,33.55578518585078,35.95192739689101,1577399252.0,-27.694632946707014,-51.115952310136464,9.495658
24678,1577399252.18,-2.190869704530297,-1.7126717192859189,7.983932597090558,3.30802755722418,-1.63013015717297,7.289526522901581,-4.830798208245999,-6.210851082257526,9.281122735595703,-1.5539774080602111,9.692680544969512,1.6408780725990857,-8.278637397580031,-4.521067549542684,-1.8526402915396345,-3.216441084698933,20.04409417873476,6.326814977134148,-2.379987980769229,-0.9202620192307692,-4.133082773707776,-9.435949167018876,9.16485857892108,-33.53149434699915,28.499925120555908,33.62766945218199,36.047773085332615,1577399252.0,-27.694632946707014,-51.115952310136464,9.495658
24679,1577399252.19,0.3038884253525146,4.399725119092986,6.23975668766673,-7.580801593166444,5.014976550590701,14.587053183057831,-1.9553620143983412,0.3803860881526287,10.371681591796875,3.3746114591272867,-16.109931759717988,-0.9988924352134144,-2.2971920850800305,-5.863840987042683,-0.5098668540396342,-5.047495772198933,15.283351991234756,-9.221891077553352,-0.9696247329059772,-2.556283386752136,-3.531907097532104,-9.8468395586785,7.698481206293707,-32.3515360841082,28.284272321562284,33.699553718513194,36.19154161799503,1577399252.0,-27.694632946707014,-51.115952310136464,9.495658
24680,1577399252.2,-0.4838039208388907,1.806804721143768,9.57248539860423,0.7246839659155866,-0.3360641598585169,0.6168864960461119,0.04140217017197,-3.452730769757526,10.374075793457031,-4.376853384622714,-6.161201290967988,-1.0294100133384143,3.165454399294969,7.075612137957317,-2.2493688071646343,-3.063853194073933,8.416896913109756,0.5132163443216463,-0.9696247329059772,-2.556283386752136,-3.531907097532104,-9.8468395586785,7.698481206293707,-32.3515360841082,28.14050378889987,33.41201665318837,36.047773085332615,1577399252.0,-27.694632946707014,-51.115952310136464,9.495658
24681,1577399252.21,-0.1210823693252193,-5.07652505180545,5.813588792158917,-0.3383415711937874,-8.406917956245236,4.557742428663299,-3.7821378810975608,-8.348873164777057,14.750676428222656,-9.458030142435216,-1.659858517530488,-0.1901766149009145,-9.926586616330033,-2.201731612042683,-1.8221227134146345,-15.423472334698932,-23.504489805640244,-3.484586390053354,-3.4377604166666664,-1.942775373931624,-3.982788854663856,-8.203277992040011,9.16485857892108,-37.07136913567202,28.23634947734148,33.699553718513194,36.28738730643664,1577399252.0,-27.694632946707014,-51.115952310136464,9.495658
24682,1577399252.22,-3.3951531395888908,1.9743988373547052,10.96351656315501,-0.074979388576601,2.638731402885623,17.28531845405393,-2.3659675991151383,7.944866233416302,13.150152618408203,-6.574119009622714,6.503593630907012,4.036507955411586,-11.833935249142533,1.3077898723323162,1.0617884193978655,-19.68067448313643,-50.43625250095275,-1.4246498666158525,-1.8511017628205124,-2.351780715811969,-3.682201016576021,-8.92233617744435,14.93871948364136,-41.42246523008242,28.475963698445504,33.45993949740917,36.16758019588463,1577399252.0,-27.694632946707014,-51.115952310136464,9.495658
24683,1577399252.23,-1.752730800721703,1.4476744721203303,10.671423960615948,6.3726056822241794,-1.8707474240186728,10.411565487745332,-0.8276930324647477,10.675453226824503,4.010287780761718,-16.095603384622713,-11.227119259717988,-0.2664705602134145,-13.466625678830033,7.991139481707317,-5.270609041539634,-8.343394209698932,-22.680515196265244,26.209017125571645,-2.556283386752135,-1.1247646901709418,-3.682201016576021,-9.8468395586785,15.763556755744256,-41.4962126215131,28.14050378889987,33.65163087429239,35.99985024111181,1577399252.0,-27.694632946707014,-51.115952310136464,9.495658
24684,1577399252.24,-1.206852822206078,-0.9968054228991996,12.603544700362042,-0.6878950135765999,-3.78850295380383,3.8921543671398617,1.547355014410251,-7.635401070050495,12.789825268554686,-1.4471658846227131,-5.550849728467988,2.9378751429115857,-5.257397163205031,-9.190257002667684,0.7718714272103658,-11.913950850323932,-16.607517149390244,5.548616734946647,-2.556283386752135,-1.1247646901709418,-3.682201016576021,-14.777524258593967,15.030368069430567,-40.61124392434488,28.284272321562284,33.747476562734,36.047773085332615,1577399252.0,-27.694632946707014,-51.115952310136464,9.495658
24685,1577399252.25,0.1518566199325931,-1.020747439500762,8.053364445235088,-2.70620701308832,4.5169826052782005,8.661404074171111,3.7643857517149386,16.76390804860185,6.610390783691406,-6.299460806497712,-1.324165158155488,0.3133634241615854,-5.745678413205031,-5.253489424542683,0.9549768959603658,-8.343394209698932,-15.386814024390244,-12.060025843178352,-3.085169604700852,-1.3292673611111123,-3.8324949356199385,-15.599305041913214,7.698481206293707,-2.852579511834319,28.428040854224697,33.50786234162997,35.99985024111181,1577399252.0,-27.694632946707014,-51.115952310136464,9.495658
24686,1577399252.26,1.1011575781845455,-5.359040847703887,4.029908555342511,2.3623179014624616,-3.5059871579053925,8.795479367139862,1.346242074957126,-4.54209252512862,5.456385583496093,-6.482566275247714,-6.374824337842988,2.3580411585365857,-10.170727241330033,-0.2180890339176829,0.0699671303353658,-3.735239912823933,8.233791444359756,17.999788609946645,-2.379987980769229,-2.556283386752136,-3.8324949356199385,-16.421085825232456,8.065075549450551,4.227170065511412,28.284272321562284,33.41201665318837,36.14361877377422,1577399252.0,-27.694632946707014,-51.115952310136464,9.495658
24687,1577399252.27,0.1386885108017333,3.961586215284393,12.71846638004954,2.88664806503668,-2.3447993527296105,4.370994699171112,3.520177182379001,5.022743107195598,7.632714892578124,2.9168477872522867,-4.177558712842988,-0.3885408727134145,-12.764721381955033,-5.192454268292683,1.1380823647103655,-2.667124678448933,-2.660983946265244,-9.282926233803352,-1.14592013888889,-2.351780715811969,-3.682201016576021,-12.928517496125668,12.280910495754243,2.604727454036349,28.475963698445504,33.55578518585078,36.047773085332615,1577399252.0,-27.694632946707014,-51.115952310136464,9.495658
24688,1577399252.28,0.5576738013290771,0.7413849823742369,7.910909446455792,0.2266900206030865,5.690141418754763,18.276517941358616,-4.627291067132717,10.943603812762005,10.670956799316404,5.724464974752286,-4.269111447217988,1.3204435022865857,-6.691723335080031,6.190602372332317,-2.3104039634146343,4.992787430926067,11.468654725609756,7.257601109946647,-2.379987980769229,-1.738272702991453,-3.8324949356199385,-13.955743475274724,10.997830294705292,0.6872952768385466,28.284272321562284,33.55578518585078,35.99985024111181,1577399252.0,-27.694632946707014,-51.115952310136464,9.495658
24689,1577399252.29,-0.2419895531631094,-8.38291754448123,9.582062205244856,3.0853668028296486,-2.474086242378049,3.2959981537609555,-12.276765371331935,-11.62174683421065,17.757793713378906,-29.52333775962272,0.6442186309070121,-0.0223299352134145,-9.651928413205033,6.038014481707317,-0.4793492759146341,-10.235484053448932,-1.1351050400152438,-0.0055824838033536,-1.3222155448717956,-0.5112566773504303,-3.531907097532104,-1.2181413338264289,10.631235951548453,-4.032537774725275,28.428040854224697,33.22032527630515,36.047773085332615,1577399252.0,-27.694632946707014,-51.115952310136464,9.495658
24690,1577399252.3,2.0947512671493893,-1.2146777739734185,10.781557236983137,2.1803585752905867,-0.6102002499464084,16.095400228956272,-5.843545510492093,3.407854087420208,12.446257330322265,-1.0199197908727131,19.13787097465701,2.7852872522865857,-10.506420600705033,3.2151385051448167,2.0841272865853657,-2.209361006573933,-15.508884336890244,12.842317906821645,-1.8511017628205124,-1.1247646901709418,-4.2833766927516965,-1.629031725486053,10.631235951548453,-3.4425586432797965,28.23634947734148,33.48390091951957,36.07173450744301,1577399252.0,-27.694632946707014,-51.115952310136464,9.495658
24691,1577399252.31,-2.7008346581435783,-1.6935181060046682,13.580378977705791,-3.8841542298851945,-6.47000881317883,12.427483285596896,-15.219239211663966,-16.357477717999714,21.945252416992187,-8.283103384622713,0.6747362090320121,1.2594083460365857,-1.4426998975800305,-3.086741377667683,3.5794886147103657,-31.32313053782393,-37.93930425876525,-7.421353968178353,-2.027397168803418,-2.556283386752136,-5.03484628797129,-1.629031725486053,7.698481206293707,-3.737548209002536,28.428040854224697,33.699553718513194,36.047773085332615,1577399252.0,-27.694632946707014,-51.115952310136464,9.495658
24692,1577399252.32,1.0125721167587645,-1.9808223052234184,9.96752867253001,-1.556990216213319,3.166652868950076,13.320520504835178,-0.5547540432069352,14.640251176043254,16.98925498046875,-9.564841665872711,3.1466600371570124,2.7852872522865857,-7.515697944455031,1.4298601848323171,5.380025724085366,-6.909068037823933,-35.10116949314025,10.156771031821648,-2.556283386752135,-1.1247646901709418,-3.381613178488186,-12.106736712806422,8.248372721028971,-2.115105597527472,28.428040854224697,33.55578518585078,35.76023602000779,1577399252.0,-27.694632946707014,-51.115952310136464,9.495658
24693,1577399252.33,-1.5540120629287342,1.0693906098156432,17.46377407047923,-1.6359988709984747,-3.5059871579053925,1.414155648878143,-10.35900984154678,-13.810047151593464,3.0334535034179684,1.6961446622522869,-6.741035275342988,-1.6092439977134143,8.231372368044969,4.359547684832317,0.9854944740853658,-25.79944889719893,-0.6468237900152439,6.891390172446647,-2.203692574786324,-2.351780715811969,-3.682201016576021,-2.656257704635109,7.881778377872128,-2.70508472897295,28.23634947734148,33.699553718513194,35.99985024111181,1577399252.0,-27.694632946707014,-51.115952310136464,9.495658
24694,1577399252.34,-0.0169345971084219,-4.269679092332793,9.165471116377669,-3.381371881252382,-4.217065050971799,0.6911067475109556,4.231255075445407,-11.37993246653487,9.79946739501953,-5.475486197122714,5.954277224657012,1.4119962366615857,2.585620414919969,-3.269846846417683,5.502096036585366,-4.528696944073933,25.68984613185976,-4.400113733803353,-4.3192374465811945,1.3292673611111123,-3.682201016576021,-3.2725932921245406,7.698481206293707,-39.431285661453934,28.284272321562284,33.50786234162997,35.99985024111181,1577399252.0,-27.694632946707014,-51.115952310136464,9.495658
24695,1577399252.35,1.0796097632431396,-1.7988629790515431,-0.3442978777629568,-7.611926214748475,-1.6672402829053918,12.307773202589084,-3.755801662835842,-7.484566365460651,15.346832641601562,11.339699349752289,11.844169802782012,2.7547696741615857,6.034106743044969,-17.979319502667682,5.349508145960366,0.5677386028010671,-7.787937071265244,-5.895475061928353,-2.556283386752135,-0.7157593482906008,-2.780437502312504,-14.161188671104536,13.01409918206793,-3.8850429918639056,28.14050378889987,33.699553718513194,36.33531015065744,1577399252.0,-27.694632946707014,-51.115952310136464,9.495658
24696,1577399252.36,-1.6880873558974845,-0.1085566069812307,14.14301636784251,-0.8435181214867561,-3.685552282417112,16.375521823194553,-5.309638540277249,2.472918339129192,23.441628454589843,-2.6983865877477133,-7.565009884717988,1.9002774866615848,14.121264946169967,1.9181414348323167,2.1756800209603657,-6.542857100323933,-31.011814024390244,-6.933072718178353,-2.379987980769229,-2.9652887286324803,-3.531907097532104,-3.067148096294731,13.74728786838162,-3.000074294695689,28.428040854224697,33.55578518585078,36.19154161799503,1577399252.0,-27.694632946707014,-51.115952310136464,9.495658
24697,1577399252.37,-1.8892002953506093,-1.9473034819812307,18.44060834782298,1.591384966892149,-5.507539745796017,11.01490430610471,-1.280197146234279,1.98210699879716,12.86404552001953,-0.2569803377477134,11.813652224657012,4.616341939786586,-1.4426998975800305,15.773121903582316,-1.7916051352896345,1.5443011028010671,-25.732273008765244,2.832552281821646,-3.085169604700852,-1.738272702991453,-3.8324949356199385,-3.2725932921245406,7.698481206293707,-36.48139000422654,28.428040854224697,33.41201665318837,36.047773085332615,1577399252.0,-27.694632946707014,-51.115952310136464,9.495658
24698,1577399252.38,-0.0025693871474844,-5.193840933153106,14.868459470869857,-2.6487461732445694,-1.4685215451124232,12.128208078077366,11.931007614507909,1.33088414723466,-0.3950432739257812,-8.862937368997713,14.255058474657012,2.4495938929115857,-2.5108151319550305,4.329030106707317,7.089010099085366,-0.6529645221989329,-3.393405821265244,3.961702672446646,-1.6748063568376068,-4.192304754273503,-3.531907097532104,-2.450812508805297,7.698481206293707,-34.71145260989011,28.044658100458264,33.41201665318837,36.28738730643664,1577399252.0,-27.694632946707014,-51.115952310136464,9.495658
24699,1577399252.39,-0.8980008080459218,-0.8088605925769343,14.651784220625713,0.8467882505835553,1.2417147341844508,18.281306344678928,1.1020335056211887,8.853465763445598,11.214440576171874,-5.063498892435214,12.195121951219512,2.8920987757240857,3.104419243044969,13.026539872332316,-0.9371129477896342,26.477162430926068,8.874660584984756,18.488069859946645,-1.6748063568376068,-4.192304754273503,-3.531907097532104,-9.230503971189066,9.3481557504995,-41.34871783865174,28.35615658789349,33.699553718513194,36.28738730643664,1577399252.0,-27.694632946707014,-51.115952310136464,9.495658
24700,1577399252.4,3.0548261328720465,1.7637090912609557,3.7138739362018858,3.376262304538633,-0.4390148312452365,4.7863886872082215,-5.432939925775296,-13.561050178937212,15.49407604370117,27.941261849752287,5.862724490282012,2.5106290491615857,-0.2372555616425304,10.493580887957316,4.296651700647866,0.369374344988568,7.562404725609756,-2.6148354134908534,-1.8511017628205124,-1.1247646901709418,-4.2833766927516965,-16.421085825232456,13.747287868381616,-36.92387435281066,28.284272321562284,33.53182376374038,36.02381166322221,1577399252.0,-27.694632946707014,-51.115952310136464,9.495658
24701,1577399252.41,-1.3074092919326403,-0.8794895415515432,11.011400596358136,-6.110761773830507,0.9424395266649196,9.870475912550022,3.1107686984922824,2.3077184245784097,-2.090138049316406,0.2618184903772865,-10.036933712842988,-1.9754549352134143,3.318042289919969,0.3007097942073171,5.196920255335366,-2.636607100323933,-11.266940977515244,-7.024625452553353,-3.790351228632481,-2.1472780448717943,-3.531907097532104,-16.421085825232456,13.93058503996004,-33.53149434699915,28.14050378889987,33.41201665318837,35.99985024111181,1577399252.0,-27.694632946707014,-51.115952310136464,9.495658
24702,1577399252.42,0.3445898535751708,0.1548055756359557,4.025120152022199,1.842776141208555,-0.8747595333936732,14.76182990424924,0.1132282199766575,7.213437626238567,12.504915270996094,35.84531458412729,13.675224490282012,5.013070455411586,-4.219799506955031,4.267994950457317,4.983297208460366,4.290883134051067,4.052883241234756,0.2690757193216463,-2.908874198717946,-0.7157593482906008,-3.982788854663856,-16.421085825232456,13.93058503996004,-33.53149434699915,28.23634947734148,33.55578518585078,36.28738730643664,1577399252.0,-27.694632946707014,-51.115952310136464,9.495658
24703,1577399252.43,-4.191225191590844,-3.549024392625762,12.688538859297587,-6.618332525783632,-4.272131689155392,13.489311721876192,-6.940089870843655,-3.358159804181355,16.557101580810546,-8.817161001810213,9.28069324028201,3.1209806116615857,11.878222953982467,-7.954295088605184,6.463399747522866,1.7579241496760671,-4.827731993140244,-4.445890100990853,-2.556283386752135,-0.7157593482906008,-4.2833766927516965,-16.010195433572836,10.44793877997003,-17.60205779797126,28.284272321562284,33.579746607961184,36.095695929553415,1577399252.0,-27.694632946707014,-51.115952310136464,9.495658
24704,1577399252.44,-1.561194667909203,-4.849075894090605,19.34561657536204,-5.318281024318789,-0.3145163449171106,14.342844613721896,12.160850973882908,23.71906387135575,7.4794859863281244,-34.07045690024771,-4.696357540967988,0.7100919397865855,12.076587211794967,4.023854325457317,2.6944788490853657,28.369252274676068,-15.203708555640244,12.018343297446648,-1.8511017628205124,-1.1247646901709418,-4.583964530839531,-16.010195433572836,9.16485857892108,1.2772744082840235,28.428040854224697,33.55578518585078,35.99985024111181,1577399252.0,-27.694632946707014,-51.115952310136464,9.495658
24705,1577399252.45,-2.506904323670922,1.2489557343273618,17.746289866377666,0.2147190123023053,-4.279314294135862,15.85358586128049,-5.97283240014053,-17.16192947581221,12.205640063476562,10.942970834127289,7.266533084032012,4.189095846036586,9.604663383669967,1.7655535442073171,4.098287442835366,10.241810868426068,16.229396913109756,31.152864781821645,-2.379987980769229,-1.3292673611111123,-2.930731421356421,-2.861702900464919,13.563990696803195,0.9822848425612848,28.38011801000389,33.699553718513194,36.19154161799503,1577399252.0,-27.694632946707014,-51.115952310136464,9.495658
24706,1577399252.46,-1.18051660394436,-3.07138116142459,8.040196336104229,-5.926408245998475,-5.53148176239758,11.457831613233616,-13.466683596429592,-15.44768108714034,14.063540551757812,12.453590951314789,2.0785448027820124,3.2277921350990857,18.72941924304497,-6.596262862042683,3.1217249428353657,13.018910477801068,1.4588891006097562,6.952425328696647,-1.3222155448717956,-0.7157593482905987,-3.3816131784881867,-3.2725932921245406,8.065075549450551,0.9822848425612848,28.35615658789349,33.55578518585078,36.14361877377422,1577399252.0,-27.694632946707014,-51.115952310136464,9.495658
24707,1577399252.47,0.5026071631454833,-0.5562723174304496,6.541426096846417,0.1548639707983995,1.8833607791063265,7.124326608350801,-0.7175597560975616,-3.3785105182926825,8.116343627929687,20.708595834127287,-16.811836056592988,1.3509610804115857,13.312549125857467,8.082692216082316,2.4350794350228657,-4.498179365948932,-10.549777891577744,-17.125943811928355,-1.3222155448717956,0.3067540064102557,-3.531907097532104,-2.3480899108903905,9.623101507867132,-21.510669543797547,28.284272321562284,33.62766945218199,36.16758019588463,1577399252.0,-27.694632946707014,-51.115952310136464,9.495658
24708,1577399252.48,3.296640500547828,8.489021554639862,7.597269028975323,0.7893274107398053,0.832306250297732,6.753225351026581,-2.817274612054592,-15.246568147687212,0.5291185668945312,56.29209192787729,-12.356269650342988,1.7782071741615857,10.672778618044967,4.573170731707317,2.5418909584603657,4.565541337176067,18.67080316310976,-0.7685219369283537,-0.9696247329059772,-0.5112566773504303,-2.930731421356421,-13.955743475274724,10.631235951548453,-40.90623349006763,28.38011801000389,33.65163087429239,36.047773085332615,1577399252.0,-27.694632946707014,-51.115952310136464,9.495658
24709,1577399252.49,-0.6537922387099844,-2.287280117723418,13.381660239912822,-3.5848790223656635,2.4723343875047634,0.1883243988781432,2.979087607183689,8.851071561785442,7.417236743164062,1.3604513028772869,-13.454902462842988,-0.6326814977134145,17.60026885241997,3.413502762957317,1.4432581459603655,19.946400712176068,25.07949456935976,-5.407193811928353,-2.7325787927350405,-0.9202620192307712,-4.734258449883449,-15.804750237743024,-2.0162688873626373,-41.64370740437448,28.38011801000389,33.41201665318837,36.047773085332615,1577399252.0,-27.694632946707014,-51.115952310136464,9.495658
24710,1577399252.5,0.8964533362411872,-4.194261740037872,9.774795438887434,3.621667974704649,-4.645627148139767,8.613520040967988,-0.4398323635194352,10.898113981219035,11.556811413574218,3.832375131002288,8.853447146532012,2.5716642054115857,-0.4661373975800305,3.627125809832317,6.051412442835366,31.695668290301068,35.94375238185975,1.5508140005716462,-1.6748063568376068,-0.7157593482905988,-4.583964530839535,-16.421085825232456,-1.099783029470529,-2.852579511834319,28.308233743672687,33.65163087429239,36.28738730643664,1577399252.0,-27.694632946707014,-51.115952310136464,9.495658
24711,1577399252.51,1.5321138770126708,3.6694936127453306,9.931615647627666,-0.5562139222680073,-0.1481193295362518,11.34650123603635,-0.5403888332459985,-10.425843104962604,10.365696087646484,11.827980599752289,19.13787097465701,2.0223477991615857,6.583423149294969,6.968800614519817,3.5031946693978657,22.189442704363568,51.81289300685975,2.359529820884146,-1.8511017628205124,0.1022513354700852,-3.982788854663856,-7.689665002465482,5.590563733141859,-2.778832120403635,28.38011801000389,33.53182376374038,36.14361877377422,1577399252.0,-27.694632946707014,-51.115952310136464,9.495658
24712,1577399252.52,-1.2714962670302967,0.2338142304211119,13.429544273115948,-5.368559259182069,3.5353599246141383,9.336568942335177,-2.62095007592178,3.3970801799495045,7.781155395507812,7.036720834127286,-2.499091915967988,3.1514981897865857,3.104419243044969,8.174244950457316,5.593648770960366,32.000844071551064,51.59926995998475,-9.954312952553352,-1.4985109508547012,-1.942775373931624,-3.381613178488186,-11.901291516976611,11.364424637862138,-40.02126479289941,28.38011801000389,33.55578518585078,36.19154161799503,1577399252.0,-27.694632946707014,-51.115952310136464,9.495658
24713,1577399252.53,-1.769490212342797,-0.6879534087390432,7.721767515303448,2.9297436949194924,-2.0407357418897667,8.347763656690644,-1.8955069728944351,4.393068070574505,19.194314709472653,9.417091927877289,10.989677615282012,0.8016446741615855,6.919116508669969,16.108815262957318,1.2906702553353655,26.019398759051068,46.93008050685975,6.128450719321647,-0.9696247329059772,-1.3292673611111123,-4.433670611795614,-9.025058775359255,12.464207667332667,-36.77637956994928,28.428040854224697,33.50786234162997,36.047773085332615,1577399252.0,-27.694632946707014,-51.115952310136464,9.495658
24714,1577399252.54,-1.3325484093642812,-1.704292013475372,5.61367295353587,0.4014667417944929,-4.193123034370236,1.327964389112518,-5.620884756097562,-16.48197620432784,21.95961762695312,4.488503060689787,8.243095584032012,3.0599454554115857,8.689136039919969,5.458180497332317,1.7179163490853655,4.199330399676067,-4.736179258765244,-14.867643030678352,-2.027397168803418,-0.5112566773504283,-3.682201016576021,-9.435949167018876,12.097613324175825,-37.07136913567202,28.35615658789349,33.36409380896756,36.047773085332615,1577399252.0,-27.694632946707014,-51.115952310136464,9.495658
24715,1577399252.55,-1.8317394555068591,2.802792611768768,8.86380170719798,-5.127941992336367,-0.0068614315870331,11.491350436475802,2.4954588718321262,16.937487668963172,2.9855694702148434,13.659035287252289,7.236015505907012,2.6937345179115857,2.066821586794969,1.9181414348323167,5.868306974085366,3.283803055926068,-21.963352110327744,11.102815953696648,-1.4985109508547012,-1.1247646901709418,-3.682201016576021,-6.148826033741898,12.097613324175825,-38.25132739856298,28.23634947734148,33.699553718513194,36.095695929553415,1577399252.0,-27.694632946707014,-51.115952310136464,9.495658
24716,1577399252.56,-3.8380804467177967,-3.2497491851062303,8.260462888838605,1.2921097593726176,-4.118902782905392,6.3246632538586125,-11.357391933831936,-30.82803255198409,16.141707592773436,2.6116720060022867,3.2992479277820124,3.6092618616615857,3.440112602419969,2.742116044207317,2.8470667397103657,-5.291636397198933,0.238185975609756,13.422151891196648,-2.203692574786324,-1.942775373931624,-4.583964530839531,-3.2725932921245406,8.431669892607392,-40.61124392434488,28.092580944679067,33.747476562734,36.047773085332615,1577399252.0,-27.694632946707014,-51.115952310136464,9.495658
24717,1577399252.57,-2.794208522889672,-1.4445211333484185,11.315464207197978,-4.075690362697695,7.854499719536013,13.67007394721799,4.678970785894626,1.1082233928401286,2.6192566162109374,-6.543601431497714,-5.184638790967988,2.9989102991615857,-3.639965522580032,-5.619700362042683,8.340230802210366,-0.8055524128239329,2.893215272484756,-19.201139124428355,-2.379987980769229,-1.738272702991453,-3.8324949356199385,-9.8468395586785,14.297179383116884,-37.36635870139476,28.475963698445504,33.65163087429239,35.99985024111181,1577399252.0,-27.694632946707014,-51.115952310136464,9.495658
24718,1577399252.58,0.3002971228622806,1.1974803986340032,11.038933915449933,2.2414107176245706,-1.699562005317502,7.03574114692502,2.7480471469786103,-3.18936858714034,4.316745593261719,5.739723763814786,1.681816287157012,3.2735685022865857,-0.6339840772675309,9.684865067644816,2.9233606850228657,8.914296219988568,26.26968011623476,19.05264505525915,-2.027397168803418,-0.1022513354700873,-3.982788854663859,-12.106736712806423,9.714750093656344,-35.59642130705833,28.475963698445504,33.60370803007159,36.16758019588463,1577399252.0,-27.694632946707014,-51.115952310136464,9.495658
24719,1577399252.59,1.5321138770126708,-4.415725393602324,11.32743521549876,4.423725530856992,-0.6880118039014858,10.366075656202366,-5.32160954857803,-7.194867964581745,18.136077575683597,1.0247579435022869,-0.6680372284679879,2.8768399866615857,2.707690727419969,-15.324290205792684,5.074849942835366,4.199330399676067,-7.757419493140244,-25.396207483803355,-1.4985109508547012,-0.7157593482906008,-3.682201016576021,-11.490401125316987,13.93058503996004,-32.3515360841082,28.284272321562284,33.50786234162997,36.14361877377422,1577399252.0,-27.694632946707014,-51.115952310136464,9.495658
24720,1577399252.6,-1.2188238305068595,0.9209501068859556,15.10069703190501,-1.715007525783631,-3.335998840034299,16.492837704542207,1.4156739231016573,-0.7975611286442452,8.935160595703124,-0.9894022127477134,1.681816287157012,2.4495938929115857,7.987231743044969,-1.8050030964176829,4.861226895960366,20.343129227801068,-11.358493711890244,-12.060025843178352,-1.4985109508547012,-0.7157593482906008,-3.682201016576021,-15.599305041913214,9.16485857892108,-39.13629609573119,28.428040854224697,33.55578518585078,35.99985024111181,1577399252.0,-27.694632946707014,-51.115952310136464,9.495658
24721,1577399252.61,-0.5400676598525631,0.4492923798351749,14.192097501875711,4.500339983981992,-3.905818835151486,0.3942257416515807,8.6916527683165,18.796585258074504,1.7812860351562498,-0.3943094393102138,3.695976443407013,1.6713956507240857,4.813403618044969,10.340992997332316,0.5277308022103658,7.037465165301067,5.883937928734756,10.126253453696648,-2.115544871794871,-1.227016025641027,-3.75734797609798,-13.133962691955478,8.431669892607392,1.867253539729502,28.428040854224697,33.31617096474676,36.14361877377422,1577399252.0,-27.694632946707014,-51.115952310136464,9.495658
24722,1577399252.62,-0.9530674462295156,1.052631198194549,2.4401586529987607,-1.5773409303246466,3.504235303032107,6.403671908643768,1.4324333347227514,6.87346099049638,3.357867828369141,13.201271615377289,22.46428699028201,1.2594083460365857,-1.6258053663300305,4.283253739519817,2.8470667397103657,5.999867509051068,10.904079530297256,3.473421422446646,-1.4985109508547012,-1.1247646901709418,-4.2833766927516965,-13.133962691955478,3.665943431568432,3.3422013683431966,28.428040854224697,33.651630874292394,36.07173450744301,1577399252.0,-27.694632946707014,-51.115952310136464,9.495658
24723,1577399252.63,1.055667746641577,0.8036342255382993,3.9963897321003232,1.9529094175757429,-0.8029334835889858,3.918490585401581,-0.0854905178163102,-19.381354414777057,13.833697192382813,17.290627084127287,1.803886599657012,1.2899259241615857,0.0831790086699695,8.998219559832316,0.5582483803353658,6.396596024676067,33.04458245998475,9.119173375571648,-1.4985109508547012,-1.1247646901709418,-4.2833766927516965,-2.861702900464919,9.531452922077923,1.867253539729502,28.284272321562284,33.41201665318837,36.14361877377422,1577399252.0,-27.694632946707014,-51.115952310136464,9.495658
24724,1577399252.64,-3.366422719667016,0.0231244843273619,13.017741587569072,-6.869723700100038,-3.0223584225538302,6.011022836378143,-2.781361587152249,-16.1228459553044,14.81053146972656,-6.299460806497714,3.695976443407013,-0.1749178258384145,3.8978762742949695,-7.176096846417683,4.128805020960366,-5.352671553448933,-4.369968321265244,-20.330289515053355,-1.4985109508547012,-1.1247646901709418,-4.2833766927516965,-3.067148096294731,10.814533123126871,-3.8850429918639056,28.092580944679067,33.55578518585078,35.99985024111181,1577399252.0,-27.694632946707014,-51.115952310136464,9.495658
24725,1577399252.65,-4.569509053895532,-4.753307827684356,7.934851463057354,-1.025477447658631,-3.426978503120236,17.201521395948458,13.858339950933688,41.89823707692216,11.769895361328125,-8.862937368997713,12.744438357469512,4.555306783536586,-2.2056393507050305,-3.727610518292683,3.9762171303353657,9.631459305926068,-17.400974180640244,7.288118688071647,-3.085169604700852,-0.7157593482906008,-3.982788854663859,-3.067148096294731,11.181127466283716,-3.8850429918639056,28.4520022763351,33.55578518585078,36.047773085332615,1577399252.0,-27.694632946707014,-51.115952310136464,9.495658
24726,1577399252.66,-3.756677590272485,4.265649826124236,17.05436558659251,1.530332824558165,0.4863441104051544,12.128208078077362,1.0026741367247038,-6.845314522198932,11.425130322265623,-16.156638540872713,-0.6985548065929879,-1.3956209508384143,-4.662304389767531,5.976979325457317,0.6650599037728656,-10.26600163157393,-30.447238829077747,-4.430631311928353,-0.7933293269230717,-0.7157593482906008,-3.682201016576021,-3.169870694209636,11.089478880494504,-2.7788321204036346,28.284272321562284,33.55578518585078,36.095695929553415,1577399252.0,-27.694632946707014,-51.115952310136464,9.495658
24727,1577399252.67,0.3038884253525146,-1.880265835496856,12.900425706221416,-0.9512571961937872,0.372619531547732,12.097083456495334,6.884030514898532,17.972979886980752,-0.7924807495117187,-8.466208853372713,0.4611131621570121,3.3346036585365857,-4.799633491330031,9.761159012957316,-1.0286656821646345,1.6663714153010671,3.106838319359756,3.046175328696646,-1.4985109508547012,-2.351780715811969,-3.381613178488186,-12.312181908636234,-0.7331886863136862,-38.25132739856297,28.284272321562284,33.50786234162997,35.95192739689101,1577399252.0,-27.694632946707014,-51.115952310136464,9.495658
24728,1577399252.68,-0.4047952660537344,0.6384343109875181,5.684301902510479,-1.006323834377381,1.0286307864305444,2.716601352003143,-2.197176382074123,-0.7592539020817453,-0.0670376464843749,20.861183724752287,2.7499315215320124,2.6937345179115857,-3.975658881955032,-9.953196455792684,3.2437952553353657,-0.2562360065739328,24.28603753810976,19.586702672446645,-1.4985109508547012,-2.351780715811969,-3.381613178488186,-11.490401125316987,-1.466377372627372,-4.032537774725275,28.475963698445504,33.55578518585078,36.14361877377422,1577399252.0,-27.694632946707014,-51.115952310136464,9.495658
24729,1577399252.69,0.2200913672470458,-1.1787647490710749,6.952031681563214,6.183463751071836,-3.7549841305616423,4.947997299268769,10.003675278082126,3.574251102801067,10.685322009277344,-5.322898306497712,1.4071580840320124,-0.8310457555259143,2.799243461794969,1.0636492473323171,-0.8455602134146342,0.6592913371760671,-7.879489805640244,-8.001187952553353,-1.586658653846154,-1.2270160256410272,-3.156172299922304,-2.861702900464919,8.431669892607392,-4.032537774725275,28.33219516578309,33.31617096474676,35.95192739689101,1577399252.0,-27.694632946707014,-51.115952310136464,9.495658
24730,1577399252.7,-1.161362990663109,0.6575879242687681,7.992312302901104,1.4632951780737902,-1.2003709591749232,8.738018527296113,-0.2734353481385763,2.2586372905452072,10.85411322631836,4.869972787252286,-15.377509884717988,-2.0670076695884143,-3.533153999142531,-7.679636885480184,1.9467981850228655,-4.467661787823932,-19.552463438452744,3.4581626333841475,-0.0881477029914563,-1.1247646901709418,-5.185140207015214,-10.874065537827557,10.814533123126871,-36.92387435281065,28.428040854224697,33.60370803007159,35.99985024111181,1577399252.0,-27.694632946707014,-51.115952310136464,9.495658
24731,1577399252.71,-2.1669276879287342,-2.007158523485137,16.079925510908918,-3.7237427186547256,-3.06066564911633,15.992449557569552,7.585531601324313,-10.814900874737994,14.87517491455078,-12.464011587747711,-0.7595899628429879,-1.7618318883384143,-1.3816647413300305,4.451100419207317,3.1827600990853657,-21.83216374094893,-23.870700743140244,-2.874234827553354,-1.14592013888889,-2.351780715811969,-3.381613178488186,-11.490401125316987,11.364424637862138,-4.032537774725275,28.475963698445504,33.55578518585078,36.047773085332615,1577399252.0,-27.694632946707014,-51.115952310136464,9.495658
24732,1577399252.72,-6.3759342064834215,0.3774663300304869,17.561936338545635,-9.338145611721131,0.535425244438357,11.05321153266721,-16.59590516625381,-2.839815144757526,21.054609399414066,-12.555564322122711,11.325370974657012,4.677377096036586,1.1207766649199695,-8.793528487042684,-0.5098668540396342,-18.47523014719893,-31.622165586890244,-3.972867640053354,-1.14592013888889,-2.351780715811969,-3.381613178488186,-3.2725932921245406,7.698481206293707,-3.4425586432797965,28.284272321562284,33.50786234162997,36.047773085332615,1577399252.0,-27.694632946707014,-51.115952310136464,9.495658
24733,1577399252.73,-2.9893359581924064,-2.078984573289824,10.418835685469464,-0.8507007264672259,-1.6313272580030482,11.41593308418088,0.3287063693907204,1.302153727312786,12.694057202148436,-17.911399283060213,4.336845584032012,1.0457852991615857,0.9834475633574692,-0.4622296589176828,-0.2962438071646341,-13.378794600323932,-44.18014898532775,11.942049352134145,-2.115544871794871,-1.8405240384615384,-3.757347976097983,-2.14264471506058,9.256507164710287,-41.71745479580516,28.40407943211429,33.55578518585078,36.07173450744301,1577399252.0,-27.694632946707014,-51.115952310136464,9.495658
24734,1577399252.74,-2.729565078065453,0.2984576752453307,15.854870554854228,0.5235710264624616,-2.1508690182569543,6.748436947706268,-7.394988186273342,-25.876823518780963,10.563217724609377,-15.302146353372711,-10.464179806592988,1.5645841272865857,-4.158764350705031,-9.861643721417684,3.9456995522103657,-31.56727116282393,-23.229831602515244,2.100130406821646,-3.614055822649576,-2.351780715811969,-3.381613178488186,-1.834476921315863,8.248372721028971,-41.64370740437448,28.475963698445504,33.41201665318837,36.047773085332615,1577399252.0,-27.694632946707014,-51.115952310136464,9.495658
24735,1577399252.75,0.5744332129501708,1.4165498505382994,11.171812107588604,-0.2497561097680061,0.8107584353563257,14.603812594678928,6.800233456793063,26.50352040211747,6.265625744628906,8.043800912252287,-11.318671994092988,0.5575040491615855,-10.536938178830033,7.014576981707317,-0.1131383384146341,-3.552134444073933,-29.943698790015244,4.633089391196647,-2.908874198717946,-1.942775373931624,-4.2833766927516965,-15.599305041913214,15.39696241258741,-41.79120218723584,28.38011801000389,33.50786234162997,36.19154161799503,1577399252.0,-27.694632946707014,-51.115952310136464,9.495658
24736,1577399252.76,-1.810191640565453,-3.244960781785918,11.114351267744857,0.8084810240210554,-2.842793298042112,9.836957089307834,-5.221053078851468,1.2446928874690348,8.384494213867187,-10.175193228372711,-9.792793087842988,1.9918302210365848,-4.006176460080031,5.488698075457317,0.1310022865853658,0.3235979778010671,6.372219178734756,31.305452672446645,-2.908874198717946,-1.942775373931624,-4.2833766927516965,-16.421085825232456,13.563990696803195,-41.79120218723584,28.428040854224697,33.65163087429239,35.99985024111181,1577399252.0,-27.694632946707014,-51.115952310136464,9.495658
24737,1577399252.77,-1.8413162621474848,-0.6460548796863094,7.445237223555401,-2.2285637818871478,-0.2343105893018768,7.069259970167207,4.828608389654391,-10.647306758527058,7.056909393310547,-1.4471658846227131,-2.178657345655488,1.1525968225990857,-2.4955563428925305,-7.618601729230184,0.3904017006478658,-18.70411198313643,2.664333436547256,-10.885099085365852,-1.674806356837607,-1.3292673611111123,-3.381613178488186,-15.804750237743024,14.663773726273725,-41.64370740437448,28.38011801000389,33.36409380896757,35.927965974780605,1577399252.0,-27.694632946707014,-51.115952310136464,9.495658
24738,1577399252.78,-3.4526139794326407,-4.5785311064929495,6.8071824811237605,3.789262090915586,-0.805327685249142,16.56705795600705,5.708477499761813,26.225793009539345,10.71165822753906,-3.858054556497713,7.052910037157012,6.752572408536586,-6.783276069455031,3.230397294207317,0.1004847084603658,17.718617509051068,-1.7759741806402438,22.180696813071645,-2.556283386752135,-0.3067540064102557,-3.0810253404003385,-16.215640629402646,14.113882211538462,-41.64370740437448,28.57180938688711,33.50786234162997,35.856081708449395,1577399252.0,-27.694632946707014,-51.115952310136464,9.495658
24739,1577399252.79,-3.792590615174828,-1.2697444121570118,6.251727695967511,-2.4715752503930077,1.6774594363328883,13.538392855909397,-12.027768398675686,-22.35734707835128,13.409923498535155,-5.567038931497714,-0.0271680878429878,3.6702970179115857,-6.539135444455031,-5.802805830792683,1.8399866615853653,-35.076792647198936,1.916652772484756,-11.297086390053352,-3.43776041666667,-2.1472780448717943,-3.531907097532104,-12.723072300295856,4.765726461038961,1.2772744082840235,28.044658100458264,33.699553718513194,35.99985024111181,1577399252.0,-27.694632946707014,-51.115952310136464,9.495658
24740,1577399252.8,-2.748718691346703,-0.6556316863269344,11.38489605534251,-0.8961905580101936,-5.272907983100705,9.164186422803924,0.5657323337461887,4.967676469012004,6.050147595214844,-4.453147329935213,-14.690864376905488,1.1525968225990857,4.233569633669969,-1.1336163776676829,0.0089319740853658,4.443471024676067,-7.818454649390244,-9.496549280678352,-3.43776041666667,-2.1472780448717943,-3.531907097532104,-14.366633866934349,2.1995660589410586,2.1622431054522404,28.35615658789349,33.65163087429239,36.14361877377422,1577399252.0,-27.694632946707014,-51.115952310136464,9.495658
24741,1577399252.81,2.5472553809189216,1.052631198194549,9.658676658369854,0.8384085447730089,0.928074316703982,7.929975466993379,-3.8072769985292014,-10.327680836896198,5.538985540771484,11.004005990377289,-17.696845822217988,0.9542325647865856,-5.623608100705032,-8.549387862042684,3.5489710365853657,4.443471024676067,17.89260492092226,4.541536656821648,-2.379987980769229,-2.556283386752136,-2.329555745180745,-9.333226569103973,11.089478880494504,-1.7463686403740484,28.38011801000389,33.60370803007159,35.9040045526702,1577399252.0,-27.694632946707014,-51.115952310136464,9.495658
24742,1577399252.82,1.3932501807236082,0.1141041474132994,16.44144996159251,-0.9656224061547248,0.5162716311571071,10.749147921827364,-3.928184182367092,12.116762626238566,1.0965443603515623,-4.315818228372714,-18.185127072217988,-0.6326814977134145,4.904956352419969,10.402028153582316,-2.0967809165396343,23.639027665301068,9.210353944359756,1.5508140005716462,-2.027397168803418,-1.3292673611111123,-4.734258449883449,-2.656257704635109,8.614967064185812,-1.8201160318047327,28.284272321562284,33.699553718513194,35.95192739689101,1577399252.0,-27.694632946707014,-51.115952310136464,9.495658
24743,1577399252.83,3.528878061582984,-2.035888943407012,8.899714732100325,7.148327020114805,-1.267408605659298,-1.118909707567168,-2.168445962152248,-1.0178276813786202,6.294356164550781,11.217629037252289,-7.626045040967988,0.7100919397865855,-12.184887397580033,8.601491044207316,2.2977503334603657,4.809681962176067,12.292629334984756,9.882112828696648,-1.3222155448717956,-0.9202620192307712,-3.8324949356199385,-3.2725932921245406,7.698481206293707,-36.48139000422654,28.14050378889987,33.65163087429239,35.99985024111181,1577399252.0,-27.694632946707014,-51.115952310136464,9.495658
24744,1577399252.84,-0.6130908104873282,1.6236482941418156,12.649034531905013,2.1707817686499613,-0.8268755001905482,9.05165894477658,2.447574838629001,-2.39688783762862,12.552799304199215,-5.887473501810213,1.742851443407012,1.4272550257240857,-3.1516842725800305,-14.744456221417684,6.905904630335366,-4.223521162823933,-4.858249571265244,-2.904752405678354,-1.3222155448717956,-0.9202620192307712,-3.8324949356199385,-3.2725932921245406,7.698481206293707,-38.25132739856297,28.38011801000389,33.55578518585078,36.047773085332615,1577399252.0,-27.694632946707014,-51.115952310136464,9.495658
24745,1577399252.85,-1.362475930116234,0.3391591034679869,4.604516953780011,-3.1670908326683973,2.926035602104373,13.87956659248166,3.5932003330137663,3.6053757243830975,5.79037671508789,6.731545052877286,10.318290896532012,3.9144376429115857,-0.2982907178925304,-0.9505109089176838,0.2988489662728655,-6.283457686261432,-2.111667540015244,-4.5069252572408525,-0.4407385149572604,-0.3067540064102557,-3.682201016576021,-12.620349702380947,-1.5580259584165828,-22.39563824096577,28.475963698445504,33.699553718513194,35.97588881900141,1577399252.0,-27.694632946707014,-51.115952310136464,9.495658
24746,1577399252.86,-2.5715477684951407,-4.497128250047637,7.807958775069073,-0.7573268617211312,-6.015110497749142,3.647945797803924,-0.4925048000428727,2.9134514445979423,7.608772875976562,-26.62416783774772,-5.215156369092988,-1.3040682164634143,-5.074291694455031,4.084889481707317,-1.3643590415396345,7.830922196551067,4.785305116234756,14.368196813071648,-0.2644431089743548,-0.5112566773504303,-3.531907097532104,-2.0399221171456747,10.631235951548453,-4.032537774725275,28.428040854224697,33.55578518585078,36.33531015065744,1577399252.0,-27.694632946707014,-51.115952310136464,9.495658
24747,1577399252.87,-2.375223232362328,0.2793040619640807,8.830282883955793,-3.5968500306664444,0.7437207888719507,10.34931624458127,-7.809185073480374,-3.268377241925495,9.694122521972655,-7.581199087747714,-2.987373165967988,1.2594083460365857,-8.309154975705031,-15.690501143292684,7.546773770960366,-14.599497725323932,-5.712741758765244,-6.566861780678353,-1.4985109508547012,-1.5337700320512828,-2.780437502312504,-3.2725932921245406,10.631235951548453,-4.032537774725275,28.475963698445504,33.84332225117561,36.14361877377422,1577399252.0,-27.694632946707014,-51.115952310136464,9.495658
24748,1577399252.88,-1.6270352135634998,-4.740139718553497,12.39285495426829,-1.0242803468285535,-4.352337444770627,8.942722769239472,-2.7669963771913118,15.87326503102372,10.575188732910156,-10.083640493997711,-7.824409298780488,-0.0223299352134143,-2.510815131955031,5.229298661394816,-1.6237584556021345,7.205311844988568,-0.265354063452742,10.019441930259148,-1.3222155448717956,0.3067540064102557,-3.531907097532104,-2.656257704635108,9.16485857892108,-2.85257951183432,28.332195165783087,33.67559229640279,36.07173450744301,1577399252.0,-27.694632946707014,-51.115952310136464,9.495658
24749,1577399252.89,-0.5604183739638907,1.5793555634289242,10.601992112471416,-3.3263052430687883,2.9894819460985134,8.230447775342986,-9.307955312738189,-33.064216902570024,-2.832340563964844,-4.407370962747714,5.557548709032012,2.9073575647865857,-8.553295600705031,-16.789133955792682,6.020894864710366,-16.094859053448932,33.44131097560975,17.084261266196645,-0.9696247329059772,-1.738272702991453,-4.734258449883449,-2.0399221171456747,7.698481206293707,-1.6726212489433638,28.284272321562284,33.65163087429239,35.99985024111181,1577399252.0,-27.694632946707014,-51.115952310136464,9.495658
24750,1577399252.9,-1.7192119774795154,6.585631234815644,14.037671494795635,-1.255320807033631,4.4786753787157005,21.740927743604708,-6.023110635003811,1.3045479289729411,22.47197678222656,9.874855599752289,0.2169725371570121,1.7476895960365857,-1.3511471632050305,-1.1946515339176829,-3.7142125571646334,-4.254038740948933,-6.841892149390244,-19.964078577553355,-2.908874198717946,-0.7157593482906008,-4.2833766927516965,-2.0399221171456747,8.798264235764236,-40.61124392434488,28.092580944679067,33.50786234162997,36.14361877377422,1577399252.0,-27.694632946707014,-51.115952310136464,9.495658
24751,1577399252.91,-1.149391982362328,-3.477198342821074,9.14392330143626,5.81715089706793,-2.521970275581174,13.263059664991427,0.2113904880430637,15.336963859148725,18.91419311523437,-8.374656118997713,-11.013496212842988,1.5340665491615857,-0.1914791944550304,15.712086747332316,4.678121427210366,-14.263804365948932,-23.290866758765244,-12.853482874428352,-1.9392494658119648,-1.840524038461541,-3.156172299922304,1.247201016131305,8.798264235764236,-40.61124392434488,28.35615658789349,33.22032527630515,36.14361877377422,1577399252.0,-27.694632946707014,-51.115952310136464,9.495658
24752,1577399252.92,1.5201428687118894,-0.4054376128406058,9.146317503096418,-0.6400109803734755,-1.4278201168897675,8.22326517036252,9.572718979254,2.863173209734661,11.809399688720704,-15.546286978372711,-4.299629025342988,-1.8533846227134143,4.615039360232468,-7.069285322980184,0.0241907631478657,-13.622935225323932,-48.34579839939025,-5.773404749428353,-2.027397168803418,-1.3292673611111123,-2.930731421356421,-6.148826033741898,12.097613324175825,-40.90623349006762,28.428040854224697,33.45993949740917,35.99985024111181,1577399252.0,-27.694632946707014,-51.115952310136464,9.495658
24753,1577399252.93,1.3022705176376708,-4.954420767137481,3.694720322920636,5.072554180759337,-2.5770369137647675,11.934277743604708,-2.836428225335842,28.62238887135575,8.839392529296875,10.088478646627289,1.712333865282012,4.494271627286586,-5.440502631955031,18.55022151295732,-2.4019566977896343,-3.277476240948933,-37.08481207126525,15.253206578696648,-1.6748063568376068,-1.3292673611111123,-4.13308277370778,-16.421085825232456,13.563990696803195,-34.71145260989011,28.38011801000389,33.65163087429239,36.19154161799503,1577399252.0,-27.694632946707014,-51.115952310136464,9.495658
24754,1577399252.94,-2.655344826600609,-3.735772122117949,6.689866599776105,-3.3765834779320696,-2.617738341987424,3.722166049268768,10.803338632574311,-0.4743439045231514,4.4196962646484375,4.747902474752286,-5.825507931592988,3.0294278772865857,3.6537356492949695,-4.856760908917683,1.4432581459603655,6.488148759051067,-9.313815977515244,24.957796422446645,-2.203692574786324,-0.3067540064102557,-4.2833766927516965,-13.133962691955478,17.229934128371625,-36.77637956994928,28.38011801000389,33.65163087429239,35.95192739689101,1577399252.0,-27.694632946707014,-51.115952310136464,9.495658
24755,1577399252.95,-2.5595767601943598,0.5306952362804874,11.552490171553448,-0.6376167787133187,-2.193964648139767,9.147427011182833,2.8833195407774386,-0.1391556721012764,7.378929516601562,-6.650412954935215,4.474174685594512,3.1514981897865857,0.2357668992949695,-14.469798018292684,0.6803186928353658,2.032582352801067,19.92202386623476,11.163851109946648,-1.2340678418803392,-1.4315186965811977,-3.4567601380101447,-12.517627104466046,16.680042613636363,-36.03890565564243,28.332195165783087,33.699553718513194,35.99985024111181,1577399252.0,-27.694632946707014,-51.115952310136464,9.495658
24756,1577399252.96,-0.8189921532607657,-1.2098893706531058,10.704942783858137,-1.2289845887719124,1.5134566226121855,7.965888491895721,-8.068955953607327,-5.486605080060261,21.4245135559082,3.3440938810022867,-8.633125119092988,0.5575040491615855,-2.342968452267531,-1.2862042682926829,1.7789515053353655,5.618397782488568,3.762966249047258,5.365511266196647,-0.9696247329059772,-1.738272702991453,-3.231319259444269,6.588776107706396,5.132320804195804,-19.8144795408918,28.14050378889987,33.53182376374038,36.07173450744301,1577399252.0,-27.694632946707014,-51.115952310136464,9.495658
24757,1577399252.97,-6.031169167420922,1.193889096143768,11.937956638838603,-10.125837957912536,-0.1972004635694544,8.979832894971894,6.5536306857969695,-2.6794036335270577,2.645592834472656,-5.017722525247714,7.388603396532012,3.7008145960365857,-1.3206295850800305,0.5143328410823171,3.7320765053353657,-7.702525069073933,-32.01889410251525,-27.685025843178355,-2.556283386752135,-1.1247646901709418,-3.682201016576021,-16.010195433572836,10.264641608391608,0.9822848425612848,28.284272321562284,33.50786234162997,36.19154161799503,1577399252.0,-27.694632946707014,-51.115952310136464,9.495658
24758,1577399252.98,-2.5691535668349843,-1.4205791167468556,8.724938010908916,-6.192164630275819,-3.972856481635861,0.8443356537609557,1.76522736548447,11.930014896746378,8.80347950439453,-5.414451040872714,12.271415896532012,4.005990377286586,-1.0154538038300305,-8.244212080792684,0.9854944740853658,-13.897593428448932,-49.96323004001525,-6.749967249428353,-1.4985109508547012,-1.1247646901709418,-3.682201016576021,-14.366633866934349,14.297179383116884,2.1622431054522404,28.284272321562284,33.699553718513194,35.99985024111181,1577399252.0,-27.694632946707014,-51.115952310136464,9.495658
24759,1577399252.99,-2.139394368836937,-1.6516195769519344,9.419256492354233,-1.5785380311547248,-5.620067223823361,11.146585397413302,7.631021432867282,1.9342229655940348,10.86488713378906,-5.216086783060215,-15.270698361280488,2.1749356897865857,-4.860668647580031,-6.535227705792683,3.0301722084603657,-19.32972233469893,-39.86191168064025,-2.446988733803354,-1.7629540598290596,-1.0225133547008545,-3.757347976097977,-13.133962691955478,13.563990696803195,1.2772744082840235,28.428040854224697,33.41201665318837,36.28738730643664,1577399252.0,-27.694632946707014,-51.115952310136464,9.495658
24760,1577399253.0,-2.387194240663109,-0.8411823149890432,14.262726450850325,0.8539708555640245,-0.9334174740675022,15.8476003571301,2.9934528171446257,4.920989536638957,4.112041351318359,-6.970847525247714,-18.764961056592988,-0.7852693883384145,-7.393627631955032,20.90007502858232,0.1462610756478661,-20.77930729563644,-5.026096250952744,15.817781774009145,-2.027397168803418,-1.738272702991453,-4.734258449883449,-9.435949167018876,13.563990696803195,-3.147569077557058,28.428040854224697,33.36409380896757,36.16758019588463,1577399253.0,-27.694573335942028,-51.116027468103646,10.183832
24761,1577399253.01,-0.0767896386123282,-6.8578110869617,10.05132573063548,-1.6431814759789436,-6.62323771942883,1.701459848096893,-5.958467190179593,-22.302280440167685,8.853757739257812,-7.337058462747714,-20.504463009717988,1.6561368616615857,-12.429028022580033,-9.617503096417684,5.685201505335366,-9.319956709698932,4.480129334984756,4.755159703696647,-2.027397168803418,-1.738272702991453,-4.734258449883449,-12.312181908636234,8.431669892607392,-41.79120218723584,28.38011801000389,33.50786234162997,35.99985024111181,1577399253.0,-27.694573335942028,-51.116027468103646,10.183832
24762,1577399253.02,-0.9817978661513906,1.969610434034393,12.52214184391673,-3.941615069728945,5.426779236137576,15.611771493604708,10.381959140386812,16.78066746022294,11.212046374511718,-6.604636587747714,-15.621650509717988,2.0528653772865857,27.33537627429497,-59.605296065167686,4.281392911585366,-1.7515973346989329,-14.379733946265244,-8.672574671303353,-1.6748063568376068,-1.738272702991453,-3.8324949356199385,-13.750298279444912,-1.649674544205794,-36.62888478708791,28.57180938688711,33.41201665318837,36.047773085332615,1577399253.0,-27.694573335942028,-51.116027468103646,10.183832
24763,1577399253.03,-1.4702150048232658,-0.7621736602038878,8.091671671797588,2.8698886534155865,-1.685196795356564,7.6366857636242385,-1.781782394037014,-10.950173268536824,3.997119671630859,8.745705209127287,-1.827705197217988,2.8615811975990857,-15.526562202267533,13.819996903582318,-4.446634432164634,7.830922196551068,5.227809999047256,-6.963590296303353,-1.674806356837607,-1.942775373931624,-4.433670611795618,-13.442130485700195,-0.8248372721028968,-35.08018956704353,28.33219516578309,33.45993949740917,36.11965735166382,1577399253.0,-27.694573335942028,-51.116027468103646,10.183832
24764,1577399253.04,-0.3114214013076407,-4.604867324754668,14.49975241520579,-5.3757418641625385,-0.9609507931592982,9.219253060987516,-2.168445962152248,11.257244230242472,2.760514514160156,-19.20839635337272,-9.182441525342988,0.4659513147865854,0.1442141649199695,-25.79181950266768,9.133687833460366,18.023793290301068,-0.0364722275152439,-16.363004358803355,-2.203692574786324,-2.7607860576923056,-5.485728045103049,-1.629031725486053,12.097613324175825,-4.032537774725275,28.57180938688711,33.699553718513194,36.14361877377422,1577399253.0,-27.694573335942028,-51.116027468103646,10.183832
24765,1577399253.05,-2.049611806581078,-1.4349443267077933,17.909095579268293,-2.976751800685976,-5.24417756317883,10.634226242139864,-8.898546828851469,-10.707161800030963,17.094599853515625,-15.088523306497711,-18.185127072217988,0.8016446741615855,18.36320830554497,0.7889910442073171,-4.324564119664634,-18.07850163157393,-36.44394293064025,-14.562467249428352,-2.203692574786324,-2.7607860576923056,-5.485728045103049,-1.629031725486053,8.065075549450551,-41.4962126215131,28.23634947734148,33.50786234162997,36.14361877377422,1577399253.0,-27.694573335942028,-51.116027468103646,10.183832
24766,1577399253.06,-0.955461647889672,-7.63592662651248,7.889361631514386,0.3918899351538678,-2.732660021674924,10.033281625440646,0.4651758640196262,18.94741996266435,9.172186560058591,-11.517966665872711,-2.407539181592988,2.1444181116615857,2.188891899294969,-28.44684879954268,2.1756800209603657,1.9410296184260671,-60.79697027439025,3.412386266196646,-2.379987980769229,-0.9202620192307712,-4.433670611795614,-9.025058775359255,8.431669892607392,-35.301431741335584,28.428040854224697,33.55578518585078,35.95192739689101,1577399253.0,-27.694573335942028,-51.116027468103646,10.183832
24767,1577399253.07,0.4642999365829841,1.0490398957043154,10.697760178877669,-2.9121083558617564,-1.9114488522413304,23.451584829786345,-1.9134634853456076,-8.338099257306355,10.899603057861327,20.556007943502287,2.2463914824695124,4.311166158536586,64.56682158679497,-94.39533512766768,6.356588224085366,-14.355357100323932,-46.83517828220275,31.18338235994665,-0.2644431089743584,-2.1472780448717943,-3.682201016576018,-2.656257704635108,13.563990696803195,-17.307068232248522,28.26031089945188,33.60370803007159,36.095695929553415,1577399253.0,-27.694573335942028,-51.116027468103646,10.183832
24768,1577399253.08,-4.592253969667016,-4.46360942680545,15.02408257878001,0.2626030455054303,-3.403036486518674,18.82239591987424,1.422856528082126,-23.20489446604659,-1.3670891479492189,-19.94081822837272,-5.703437619092988,5.013070455411586,1.3954348680449695,-1.5608624714176829,-3.9278356040396334,-17.315562178448932,-21.978610899390244,-1.1347328744283538,-0.6170339209401661,-0.5112566773504303,-4.734258449883449,3.3016529744294165,13.563990696803195,-41.79120218723584,28.23634947734148,33.65163087429239,36.047773085332615,1577399253.0,-27.694573335942028,-51.116027468103646,10.183832
24769,1577399253.09,-1.9777857567763903,-6.469950418016388,6.211026267744854,-3.352641461330507,-5.553029577338986,4.153122348096893,-0.9474031154725602,18.59786652028153,-3.1459809814453124,-22.07704869712272,-9.060371212842988,5.257211080411586,-61.59284638195503,8.540455887957316,3.0301722084603657,31.024281571551068,17.419582459984756,-10.625699671303352,-0.6170339209401661,-0.5112566773504303,-4.734258449883449,-1.629031725486053,15.030368069430567,-38.25132739856297,28.475963698445504,33.55578518585078,35.99985024111181,1577399253.0,-27.694573335942028,-51.116027468103646,10.183832
24770,1577399253.1,-1.083551436708032,-2.5745843169421683,8.067729655196025,1.809257317966368,-5.457261510932736,3.798780502393768,-4.737424343499905,13.586802445574504,8.01818135986328,12.224709115377289,-18.551338009717988,2.8158048304115857,-3.2737545850800305,3.382985184832317,-0.2046910727896341,34.747426102801064,52.51479730373475,5.792757359946647,-2.027397168803418,-0.7157593482905988,-4.283376692751694,-1.629031725486053,-4.032537774725275,-31.171577821217245,28.33219516578309,33.41201665318837,35.95192739689101,1577399253.0,-27.694573335942028,-51.116027468103646,10.183832
24771,1577399253.11,2.3820554663681395,-6.644727139207793,9.299546409346418,0.2207045164526964,-3.154039513862424,7.337410556104706,3.1802005466368137,-17.05538750193526,26.088418389892578,5.358254037252286,-27.309882931592988,-1.0294100133384143,11.374682914919967,5.168263505144817,0.6803186928353656,6.305043290301068,0.894313905297258,-15.752652796303352,-3.614055822649576,-0.3067540064102557,-4.583964530839531,-0.8072509421668069,15.030368069430567,-37.661348267117496,28.475963698445504,33.45993949740917,35.975888819001405,1577399253.0,-27.694573335942028,-51.116027468103646,10.183832
24772,1577399253.12,3.4378983984970466,-5.418895889207794,18.256254819990943,1.6560284117163675,-0.3576119747999232,8.029334835889863,-8.127613894281154,8.78163971364091,5.619191296386719,-8.740867056497713,-19.955146603467988,2.7242520960365857,11.161059868044967,-6.657298018292683,8.309713224085366,8.929555009051068,-58.01987066501525,9.790560094321648,-2.379987980769229,-2.1472780448717943,-3.531907097532104,-2.450812508805297,-4.032537774725275,-37.661348267117496,28.284272321562284,33.50786234162997,36.19154161799503,1577399253.0,-27.694573335942028,-51.116027468103646,10.183832
24773,1577399253.13,-0.2228359398818594,4.912084274366425,25.422100388838604,-0.9560455995140998,-4.858711095893674,9.080389364698457,-10.260847573480374,-3.71848715403487,20.78167041015625,5.632912240377286,2.5973436309070124,3.0294278772865857,-19.38703583508003,27.24773127858232,7.546773770960366,19.030873368426068,-55.39535894626525,28.955599156821645,-2.379987980769229,-2.1472780448717943,-3.531907097532104,29.59863804064525,-3.665943431568431,-32.3515360841082,28.284272321562284,33.36409380896756,36.047773085332615,1577399253.0,-27.694573335942028,-51.116027468103646,10.183832
24774,1577399253.14,-3.0671475121474843,-3.1144767913074025,13.046472007490948,-8.507357635646914,-7.176298302924923,14.51283293159299,2.009435934820407,-17.741326277570025,-5.070919116210937,2.8405538419397867,19.68718738090701,4.829964986661586,2.982348930544969,5.153004716082317,2.8470667397103657,-7.855112959698933,-21.917575743140244,14.093538609946648,-1.6748063568376068,-0.5112566773504282,-4.133082773707777,-16.421085825232456,-3.665943431568431,-4.032537774725275,28.40407943211429,33.36409380896756,35.99985024111181,1577399253.0,-27.694573335942028,-51.116027468103646,10.183832
24775,1577399253.15,-2.2555131493545155,-4.0350473296374805,10.762403623701886,-3.923658557277773,-0.0451686581495331,10.39360897529416,0.009080447759861,-0.8119263386051826,9.188945971679686,-4.163230337747714,-16.842353634717988,-0.7852693883384145,-15.45026825695503,19.74040705983232,-1.2880650962271345,18.969838212176064,7.379299256859756,-2.080777796303354,-1.14592013888889,0.1022513354700852,-5.485728045103049,-14.26391126901944,7.973426963661339,1.0560322339919697,28.38011801000389,33.53182376374038,35.97588881900141,1577399253.0,-27.694573335942028,-51.116027468103646,10.183832
24776,1577399253.16,-1.7120293724990467,-2.7134480132312304,0.1034178326862609,-1.628816266018006,-9.86498676728039,5.412472421339081,-13.828208047113186,-16.022289485577836,8.851363537597656,22.264992318502287,13.553154177782012,9.590707174161585,-11.605053413205033,9.852711747332316,5.257955411585366,26.812855790301068,49.24941644435975,-3.606656702553354,-2.379987980769229,-0.5112566773504303,-3.531907097532104,-2.2453673129754868,13.74728786838162,3.784685716927304,28.284272321562284,33.699553718513194,35.99985024111181,1577399253.0,-27.694573335942028,-51.116027468103646,10.183832
24777,1577399253.17,0.4020506934189208,1.0646022064953309,5.447275938155011,-3.1826531434594134,4.184188574516482,12.970967062452363,4.027747934332126,-10.156495418195028,13.965378283691406,23.912941537252287,-16.811836056592988,1.4730313929115857,1.7311282274199695,1.3993426067073171,9.438863614710366,12.561146805926068,43.66469964748475,-15.416959436928352,-2.379987980769229,-0.5112566773504303,-3.531907097532104,-2.2453673129754868,11.181127466283716,-33.973978695583256,28.14050378889987,33.65163087429239,35.99985024111181,1577399253.0,-27.694573335942028,-51.116027468103646,10.183832
24778,1577399253.18,-2.7535070946670155,-3.1767260344714656,14.159775779463605,-0.2796836305199603,-4.455288116157345,11.296223001173066,-0.5344033290956085,8.22738202931474,12.880804931640624,14.772926888814789,-1.1868360565929876,3.7923673304115857,2.463550102419969,21.23576838795732,2.5571497475228657,26.843373368426064,23.35525140529726,9.470125524009148,-2.115544871794871,-0.6135080128205135,-3.306466218966221,-7.381497208720764,8.98156140734266,-41.34871783865174,28.499925120555904,33.53182376374038,35.999850241111815,1577399253.0,-27.694573335942028,-51.116027468103646,10.183832
24779,1577399253.19,2.1019338721298584,-5.751689919969512,14.23160182926829,-1.2313787904320683,1.5146537234422632,-0.5443013091296682,-9.518645058831938,-27.12420258372237,9.658209497070311,-22.53481236899772,5.465995974657012,0.0997403772865854,0.7240481492949695,-3.056223799542683,6.753316739710366,2.887074540301067,40.52138910060975,-3.148893030678354,-1.4985109508547012,-0.7157593482906008,-3.682201016576021,-11.490401125316987,9.898047265234768,-41.4962126215131,28.38011801000389,33.50786234162997,36.14361877377422,1577399253.0,-27.694573335942028,-51.116027468103646,10.183832
24780,1577399253.2,1.381279172422827,5.261637716749237,14.466233591963604,-5.574460601955507,4.12193933135242,15.944565524366428,3.06767306860947,5.520737052508098,9.737218151855467,24.767433724752287,18.28337878715701,5.409798971036586,11.954516899294967,7.533375809832317,4.128805020960366,22.601430009051068,38.11050042873475,-1.5619789681783538,-0.2644431089743548,-1.738272702991453,-4.433670611795614,-13.133962691955478,1.832971715784216,-38.84130653000845,28.428040854224697,33.41201665318837,36.047773085332615,1577399253.0,-27.694573335942028,-51.116027468103646,10.183832
24781,1577399253.21,0.6809751868271239,-4.831119381639434,8.741697422530011,3.6671578062476176,-4.911383532417111,7.665416183546112,-7.730176418695217,-19.632745589093464,14.137760803222656,0.490700326314788,-0.6375196503429876,4.204354635099086,8.811206352419969,16.993825028582318,-0.2657262290396341,34.228627274676064,25.72036370998476,-3.637174280678354,-0.2644431089743548,-1.738272702991453,-4.433670611795614,-11.079510733657369,7.698481206293707,-4.032537774725275,28.4520022763351,33.50786234162997,35.99985024111181,1577399253.0,-27.694573335942028,-51.116027468103646,10.183832
24782,1577399253.22,-2.0735538231826403,4.651116293409393,17.47574507878001,-2.538612896877382,1.3482567080614043,11.850480685499235,-2.7298862514588897,6.382649650164348,14.228740466308594,22.142922006002287,7.327568240282012,7.484994283536586,4.233569633669969,-5.421336104230183,5.318990567835366,24.874989579363568,25.65932855373476,-2.7521645150533534,-1.3222155448717956,-0.1022513354700852,-4.13308277370778,-11.079510733657369,7.698481206293707,-4.032537774725275,28.38011801000389,33.62766945218199,35.99985024111181,1577399253.0,-27.694573335942028,-51.116027468103646,10.183832
24783,1577399253.23,-0.7639255150771719,1.912149594190643,3.179966965987042,4.299227044528868,-3.529929174506955,7.955114584425019,-1.7470664699647476,1.9246461589534096,1.0079588989257813,26.903664193502287,23.86809558403201,3.8839200647865857,8.567065727419969,21.44939143483232,2.6639612709603657,17.077748368426068,21.44790277248476,6.677767125571647,-1.8511017628205124,-1.5337700320512828,-3.982788854663856,-9.435949167018876,7.698481206293707,-3.4425586432797965,28.428040854224697,33.50786234162997,36.047773085332615,1577399253.0,-27.694573335942028,-51.116027468103646,10.183832
24784,1577399253.24,0.2967058203720458,-5.378194460985137,-0.519074598954363,-5.610373626857851,-3.5227465695264866,-2.8068218779773244,-1.761431679925685,-7.671314094952838,12.148179223632813,8.776222787252287,-0.3323438690929878,2.2970060022865857,-6.294994819455031,4.420582841082317,5.227437833460366,5.084340165301067,7.135158631859756,3.259798375571646,-1.4985109508547012,-0.7157593482906008,-4.2833766927516965,-9.230503971189066,9.714750093656344,-2.4100951632502112,28.428040854224697,33.55578518585078,36.28738730643664,1577399253.0,-27.694573335942028,-51.116027468103646,10.183832
24785,1577399253.25,-0.7196327843642818,-0.7214722319812312,10.821061564375713,1.244225726169493,1.483529101860232,14.227922934034396,7.695664877691501,14.889248148699505,10.690110412597656,7.448708138814787,0.8120653105945124,1.6866544397865857,12.320727836794967,-3.483469893292683,6.417623380335366,0.4456682903010671,-19.323581602515244,-2.233365686928354,-1.4985109508547012,-0.7157593482906008,-4.2833766927516965,-1.2181413338264289,13.93058503996004,-2.852579511834319,28.4520022763351,33.50786234162997,35.99985024111181,1577399253.0,-27.694573335942028,-51.116027468103646,10.183832
24786,1577399253.26,-2.3608580224013904,-0.015182742235137,6.967593992354229,-1.4253091249047258,-3.004401910102658,8.89244453437619,-10.578079293451076,-10.553932893780964,12.41034430541992,8.959328256002287,5.801689334032012,6.142220846036586,4.538745414919969,1.4298601848323171,3.1980188881478657,3.451649735613568,5.563503358422256,0.7573569693216466,-1.6748063568376068,-1.3292673611111123,-3.8324949356199385,-2.450812508805297,13.563990696803195,-37.071369135672015,28.284272321562284,33.50786234162997,36.047773085332615,1577399253.0,-27.694573335942028,-51.116027468103646,10.183832
24787,1577399253.27,-1.3816295433974843,-1.834776003953887,17.08070180485423,-2.167511639553162,-3.7047058956983614,13.24151185005002,4.456310031500095,18.78700845143388,10.649408984375,-21.13100377524772,-3.872382931592988,-0.0223299352134145,13.816089164919967,7.594410966082317,3.7625940834603657,-3.155405928448933,9.057766053734756,2.527376500571646,-2.7325787927350405,-2.1472780448717943,-3.8324949356199385,-3.067148096294731,14.113882211538462,-39.87377001003804,28.475963698445504,33.699553718513194,36.047773085332615,1577399253.0,-27.694573335942028,-51.116027468103646,10.183832
24788,1577399253.28,0.4116275000595458,-3.369459268114043,10.60678051579173,-2.3446825624047247,-4.628867736518674,14.06511722114377,-7.864251711663967,0.0787166789729412,13.352462658691405,19.823586068502287,12.332451052782012,5.623422017911586,7.712573539919969,1.4298601848323171,2.8470667397103657,13.690297196551068,6.738430116234756,17.236849156821645,-0.7933293269230717,0.1022513354700852,-3.982788854663856,-9.8468395586785,15.030368069430567,-40.61124392434488,28.428040854224697,33.41201665318837,35.99985024111181,1577399253.0,-27.694573335942028,-51.116027468103646,10.183832
24789,1577399253.29,1.2340357703232183,-2.563810409471465,11.584811893965558,3.9448851988257423,-1.286562218940548,10.571976998975805,5.356529855718844,-19.024618367413776,16.972495568847656,6.701027474752288,5.969536013719512,2.6632169397865857,1.7311282274199695,16.749684403582318,3.7015589272103657,0.4456682903010671,0.8485375381097561,-2.904752405678354,-2.027397168803418,-2.9652887286324803,-3.8324949356199385,-14.57207906276416,15.21366524100899,-32.20404130124683,28.308233743672687,33.41201665318837,36.28738730643664,1577399253.0,-27.694573335942028,-51.116027468103646,10.183832
24790,1577399253.3,-1.9275075219131093,5.077284188917206,11.99781168034251,-0.5191037965355854,1.5314131350633575,12.419103579786348,-2.8507934352967803,-5.876859950665731,9.775525378417967,18.358742318502287,8.182060427782012,7.484994283536586,3.501147758669969,4.512135575457316,3.2132776772103657,5.969349930926068,16.33620843654726,5.640169469321648,-1.4985109508547012,-2.351780715811969,-3.381613178488186,7.513279488940546,12.922450596278722,-36.99762174424134,28.38011801000389,33.53182376374038,35.97588881900141,1577399253.0,-27.694573335942028,-51.116027468103646,10.183832
24791,1577399253.31,-3.826109438417016,1.375848422315643,6.7138086163776665,-4.939997162014101,-9.000679967963984,0.5450604462414245,8.605461508550876,13.79988639332841,8.633491186523438,6.060158334127286,8.212578005907012,0.5575040491615855,11.954516899294967,3.688160966082317,1.1685999428353655,9.204213212176068,10.675197694359756,-7.543424280678353,-1.6748063568376068,-0.1022513354700852,-4.13308277370778,30.83130921562412,8.431669892607392,-32.3515360841082,28.14050378889987,33.65163087429239,35.99985024111181,1577399253.0,-27.694573335942028,-51.116027468103646,10.183832
24792,1577399253.32,-2.868428774354516,-4.884988918992949,8.341865745283917,-1.5474134095726937,-4.130873791206174,10.514516159132052,9.919878219976656,6.98838267018388,7.223306408691406,-4.315818228372714,4.153740115282012,2.2054532679115857,-4.647045600705031,4.206959794207317,1.9010218178353653,10.608021805926068,5.029445741234756,5.701204625571647,-1.14592013888889,-0.7157593482906008,-3.682201016576021,-11.490401125316987,9.16485857892108,2.752222236897718,28.428040854224697,33.55578518585078,36.19154161799503,1577399253.0,-27.694573335942028,-51.116027468103646,10.183832
24793,1577399253.33,0.6438650610947021,-2.179541043016387,6.715005717207745,1.9780485350073835,3.1798209780809352,10.87244930732541,-3.4768771694276395,-3.592791566876667,10.715249530029295,2.8863302091272867,4.184257693407012,2.4648526819740857,-4.174023139767532,10.310475419207316,2.8928431068978657,-0.5461529987614329,13.498073670922258,6.387850133384147,-1.8511017628205124,0.5112566773504262,-3.982788854663856,-11.490401125316987,9.16485857892108,2.752222236897718,28.26031089945188,33.53182376374038,36.047773085332615,1577399253.0,-27.694573335942028,-51.116027468103646,10.183832
24794,1577399253.34,1.3788849707626707,0.7030777558117369,11.353771433760478,-0.1731416566430061,-7.073347631538205,1.9001785858898617,-6.1308497097108425,-13.158824300030965,9.897629663085937,8.379494271627287,-1.125800900342988,1.2288907679115857,1.9142336961699693,4.542653153582317,5.502096036585366,4.870717118426067,27.79555902248476,6.036897984946647,-1.4985109508547012,-0.3067540064102557,-4.884552368927366,-13.133962691955478,8.431669892607392,0.9822848425612848,28.284272321562284,33.50786234162997,36.047773085332615,1577399253.0,-27.694573335942028,-51.116027468103646,10.183832
24795,1577399253.35,-1.293044081971703,-2.677534988328887,8.710572800947979,3.698282427829649,-6.156368395698361,7.572042318800018,2.890502145757908,-3.1486671589176827,15.610194824218748,-5.261863150247714,4.977714724657012,0.8321622522865855,2.799243461794969,6.770436356707317,0.3446253334603658,-8.770640303448932,8.020168397484756,-0.1886879525533537,-0.6170339209401661,-1.3292673611111123,-2.930731421356421,-11.490401125316987,9.898047265234768,0.6872952768385466,28.428040854224697,33.50786234162997,36.047773085332615,1577399253.0,-27.694573335942028,-51.116027468103646,10.183832
24796,1577399253.36,-0.4622561058974844,-1.7773151641101368,5.07138627751048,-4.104420782619569,0.8873728884813258,21.525449594190643,4.856141708746189,3.303706315203411,15.037980627441405,4.076515756002286,20.14495105278201,4.799447408536586,-15.206127631955033,-6.230051924542683,1.9925745522103653,4.840199540301067,2.801662538109756,-2.141812952553354,-1.14592013888889,-0.3067540064102557,-4.2833766927516965,-2.861702900464919,10.631235951548453,-37.07136913567202,28.428040854224697,33.55578518585078,35.99985024111181,1577399253.0,-27.694573335942028,-51.116027468103646,10.183832
24797,1577399253.37,-3.4059270470595937,2.280856649854706,9.951966361738997,0.0962060301245714,2.9439921145555443,11.866042996290254,-1.62496218529678,10.91367629201005,14.956577770996091,6.487404427877287,9.036552615282012,4.646859517911586,-2.144604194455031,11.287037919207318,0.8634241615853657,7.449452469988568,-2.172702696265244,-0.3260170541158533,-1.3222155448717956,-0.5112566773504303,-3.531907097532104,-13.133962691955478,4.032537774725275,-38.25132739856297,28.26031089945188,33.579746607961184,36.02381166322221,1577399253.0,-27.694573335942028,-51.116027468103646,10.183832
24798,1577399253.38,-1.6042902977920157,2.0773495087414244,10.666635557295637,1.763767486423399,-5.222629748237424,6.0517242646008,-6.959243484124905,-24.27031420481612,11.805808386230469,-4.163230337747714,-3.200996212842988,0.4354337366615854,-1.2595944288300305,-14.103587080792684,5.380025724085366,-7.366831709698933,9.546047303734756,9.332796422446648,-2.203692574786324,0.1022513354700852,-3.682201016576021,-9.8468395586785,8.431669892607392,-3.4425586432797965,28.428040854224697,33.50786234162997,36.047773085332615,1577399253.0,-27.694573335942028,-51.116027468103646,10.183832
24799,1577399253.39,0.5720390112900146,-5.469174124071075,10.74085580876048,-7.597561004787538,2.1108099368211697,10.983779684522675,2.3829313938047822,-3.763976985577839,10.963049401855468,-18.17079869712272,-1.247871212842988,0.8016446741615855,-2.7549557569550305,-9.556467940167684,4.769674161585366,-6.420786787823933,5.029445741234756,-0.2497231088033537,-1.14592013888889,1.3292673611111123,-3.982788854663856,-11.490401125316987,7.698481206293707,-1.3776316832206257,28.38011801000389,33.65163087429239,35.95192739689101,1577399253.0,-27.694573335942028,-51.116027468103646,10.183832
24800,1577399253.4,1.1095372839950934,-1.1045444976062306,5.284470225264386,4.785249981540586,5.929561584770388,8.007787020948456,0.29039914282822,14.0249413493831,15.150508105468749,4.763161263814787,5.588066287157012,3.0752042444740857,-3.853588569455032,18.64177424733232,2.7249964272103657,12.622181962176068,4.052883241234756,11.926790563071648,-0.881477029914528,-0.2045026709401725,-3.607054057054063,-3.2725932921245406,7.698481206293707,-2.852579511834319,28.428040854224697,33.55578518585078,36.14361877377422,1577399253.0,-27.694573335942028,-51.116027468103646,10.183832
24801,1577399253.41,2.219249753477514,-4.26489068901248,1.685985130049542,4.132830029148008,-6.362269738471799,0.8072255280285343,-3.985645022210843,-6.585543642071979,6.358999609374999,5.846535287252286,-1.553046994092988,2.6021817835365857,-4.479198921017531,8.052174637957316,2.6792200600228657,-1.0496930378239324,19.14382562404726,-0.0208412728658536,-0.6170339209401661,-0.5112566773504303,-3.231319259444269,-5.6352130441673705,7.973426963661339,-18.70826866943153,28.475963698445504,33.699553718513194,36.047773085332615,1577399253.0,-27.694573335942028,-51.116027468103646,10.183832
24802,1577399253.42,1.7021021948837645,-1.1859473540515433,7.870208018233136,-3.378977679592226,2.594438672172732,6.729283334425018,-3.00402234154678,-20.832240620831747,16.29733070068359,-7.123435415872714,-6.008613400342988,-0.6937166539634145,1.4869876024199695,-11.326487471417684,5.593648770960366,-3.796275069073933,19.83047113185976,-9.160855921303352,-0.6170339209401661,-0.5112566773504303,-3.231319259444269,-3.067148096294731,13.74728786838162,-2.115105597527472,28.38011801000389,33.55578518585078,36.14361877377422,1577399253.0,-27.694573335942028,-51.116027468103646,10.183832
24803,1577399253.43,-0.6849168602920157,1.1962832978039244,13.475034104658915,-0.1156808167992561,2.9032906863328884,13.722746383741429,10.69799375952744,16.751937040301065,3.878606689453125,6.334816537252286,7.297050662157012,-0.5411287633384145,-7.118969428830031,10.585133622332316,-1.4864293540396345,15.887562821551068,16.137844178734756,6.067415563071647,-1.6748063568376068,-0.5112566773504303,-5.03484628797129,0.4254202328120589,13.563990696803195,-3.4425586432797965,28.284272321562284,33.55578518585078,36.19154161799503,1577399253.0,-27.694573335942028,-51.116027468103646,10.183832
24804,1577399253.44,-2.2303740319228758,-1.9748368010730284,11.177797611738995,3.84432872909918,0.1403819705125758,14.718734274366428,-4.447725942620998,-4.525333113507526,17.28853018798828,-5.887473501810212,17.398369021532012,3.4566739710365857,-6.020336616330031,5.976979325457317,1.9315393959603653,6.030385087176067,27.70400628810976,8.661409703696647,-1.2340678418803392,-1.4315186965811997,-3.456760138010141,3.3016529744294165,10.997830294705292,-32.05654651838546,28.332195165783087,33.55578518585078,35.95192739689101,1577399253.0,-27.694573335942028,-51.116027468103646,10.183832
