,timestamp,acc_x_dashboard,acc_y_dashboard,acc_z_dashboard,acc_x_above_suspension,acc_y_above_suspension,acc_z_above_suspension,acc_x_below_suspension,acc_y_below_suspension,acc_z_below_suspension,gyro_x_dashboard,gyro_y_dashboard,gyro_z_dashboard,gyro_x_above_suspension,gyro_y_above_suspension,gyro_z_above_suspension,gyro_x_below_suspension,gyro_y_below_suspension,gyro_z_below_suspension,mag_x_dashboard,mag_y_dashboard,mag_z_dashboard,mag_x_above_suspension,mag_y_above_suspension,mag_z_above_suspension,temp_dashboard,temp_above_suspension,temp_below_suspension,timestamp_gps,latitude,longitude,speed
10593,1577395536.35,-0.4491755895102896,1.0161926168302209,11.763501091040634,-0.8383209520293439,1.3456581233326972,11.459671060850562,-0.3601521643661869,-1.1039605459818018,9.991149515738138,0.381283643769055,-3.2236983136432924,0.4709755502096037,-3.067202684355945,0.0807599323551837,0.1979920922256097,-0.4540420160060974,-1.2875068478467986,0.1812446408155485,20.862570866073888,-7.121075148809524,2.8341139019710444,-15.99309752747253,5.640402772514843,-58.83139440687517,36.40719441698865,35.83212028633899,34.34651211549405,1577395536.0,-27.7131871949033,-51.10377485322415,22.577246
10594,1577395536.36,-0.2265148351157584,0.1949814473966264,12.892367173804306,0.9501476881073738,0.5028991389576973,9.930973300840796,0.0073577904677969,-1.0824127310403957,8.816793601431499,-2.227969285918445,-2.430241282393293,0.2573525033346037,-2.487368699980945,17.719920088605182,-0.0003721655868902,2.414610327743903,2.7255546755907014,-1.5429985232469514,22.017021427832915,-6.938483478327226,3.7197744963369854,-18.5936011904762,9.299042408740684,-80.59560967878276,36.57492437176146,35.856081708449395,34.370473537604454,1577395536.0,-27.7131871949033,-51.10377485322415,22.577246
10595,1577395536.37,-0.0589207189048209,-0.5807398904939977,10.052844004858994,0.8017071851776864,-1.2496564762766766,7.93660331793064,-2.2647395850204832,-1.460696593345083,10.981151902212748,-3.997988817168445,1.0487626238567074,0.1352821908346037,-1.3277007312309452,-1.0178728801448171,0.8236024437881098,-8.541200219131097,1.6269218630907012,-2.7942192263719514,21.027492374896607,-7.303666819291819,2.6569817830978484,-18.5936011904762,9.299042408740684,-80.59560967878276,36.479078683319855,35.616467487345375,34.46631922604607,1577395536.0,-27.7131871949033,-51.10377485322415,22.577246
10596,1577395536.38,-0.3988973546470084,1.058091145882955,10.32338879245665,0.1097829053925301,1.9753331599537909,12.9404847876572,-2.293470004942358,1.0412441415181972,9.774474265493996,-1.663394090605945,-0.8433272198932926,0.1200234017721036,-3.341860887480945,6.306345869855183,1.7086122094131098,-0.3930068597560974,-4.781769543159299,0.1354682736280487,21.27487463813069,-6.482004302121491,1.6827551292952974,-19.17149089336589,1.0671032272325378,-2.3804610453648904,36.311348728547046,35.76023602000779,34.370473537604454,1577395536.0,-27.7131871949033,-51.10377485322415,22.577246
10597,1577395536.39,-0.3869263463462271,0.4511610250333451,9.7296267807379,0.4090581129120613,0.7866120356862129,10.856332242491186,-0.3062826270126713,1.048426746498666,12.715751004995951,-1.5565825671684452,-5.695622141768292,-0.7802451529153963,0.9306000500190548,-1.6282244426448171,-0.8243467749618903,-4.070375023818597,-8.7032783322218,0.8373725705030486,20.202884830783017,-7.121075148809524,1.7713211887318916,-16.77324862637363,2.5153147499052677,-13.432601613130458,36.479078683319855,35.736274597897385,34.370473537604454,1577395536.0,-27.7131871949033,-51.10377485322415,22.577246
10598,1577395536.4,-0.9998419713462272,1.0305578267911577,10.004959971655868,-1.922894304080125,1.0703249324147284,10.000405148985328,-2.089962863829077,0.4235401131978846,13.698570786490093,2.1665619640815548,-1.8504072980182928,0.0437294564596036,4.501156690644055,-3.642384598894817,-0.3055479468368902,-3.353211937881097,-22.0852363400343,3.8280952267530486,20.202884830783017,-7.121075148809524,1.7713211887318916,-17.322243844118844,-0.4573299545282303,-23.46454459002536,36.52700152754066,35.76023602000779,34.41839638182526,1577395536.0,-27.7131871949033,-51.10377485322415,22.577246
10599,1577395536.41,-1.0836390294516958,0.5325638814786576,9.272334263648055,-1.0226744798613752,-0.5481553898508954,8.72190146246189,-1.8744847144150143,-0.780743321860708,11.184659043326027,4.028134229706555,1.3844559832317074,0.1047646127096036,0.6559418468940549,-8.006398270769816,0.0911805687881097,-5.489442406631097,-29.8061836056593,2.6073921017530486,21.357335392542048,-8.034033501221,2.6569817830978484,-17.091087962962966,-0.4573299545282303,-7.141383136094671,36.38323299487824,35.616467487345375,34.562164914487674,1577395536.0,-27.7131871949033,-51.10377485322415,22.577246
10600,1577395536.42,-0.9088623082602896,-0.0336648111482949,13.009683055151962,0.2270987867401863,0.3257282161061348,13.725782932188451,0.6705516503310782,-2.1933223013528957,11.117621396841654,-2.899356004668445,-2.3997237042682924,-0.7039512076028964,-1.2361479968559452,4.109080244855183,0.2132508812881097,-4.818055687881097,-37.3135078244093,4.591034679878049,20.94503162048525,-7.577554325015262,2.568415723661258,-17.206665903540905,0.457329954528231,-23.46454459002536,36.35927157276784,35.99985024111181,34.27462784916285,1577395536.0,-27.7131871949033,-51.10377485322415,22.577246
10601,1577395536.43,-2.273557254549352,2.009786305795065,10.8022291244879,-1.7074161546660622,0.6728874568287909,12.89020655279392,1.1266470665908437,1.1346180062642908,9.03346885167564,-1.0683013171684452,1.7811844988567074,0.4404579720846037,-0.1985503406059451,-1.6587420207698167,-0.0461485327743902,-6.847474633193596,-26.4950263790968,3.3855903439405486,20.53272784842845,-8.58180851266789,2.8341139019710444,-15.415207824582827,5.487959454338766,-20.40395181741336,36.38323299487824,35.927965974780605,34.514242070266874,1577395536.0,-27.7131871949033,-51.10377485322415,22.577246
10602,1577395536.44,-0.9112565099204458,-1.23675114537681,9.056856114233996,-1.477572795291063,-0.8330653874094891,10.895836569883764,2.413530458924828,2.7722519418111657,7.131275632681498,-4.974551317168445,-5.817692454268292,0.4099403939596037,4.958920362519055,-3.856007645769817,-0.5191709937118902,-2.803895531631097,-4.598664074409299,-0.7190239138719513,20.53272784842845,-8.58180851266789,2.8341139019710444,-15.415207824582827,7.927052545155993,-25.84500563539025,36.479078683319855,35.76023602000779,34.27462784916285,1577395536.0,-27.7131871949033,-51.10377485322415,22.577246
10603,1577395536.45,-1.1195520543540396,-1.610246604361185,10.364090220679309,0.64608407726753,-1.398096979206364,9.52635322027439,0.9626442528701408,-0.5485057608255518,8.19669537145103,6.255917432831555,-2.002995188643293,0.4099403939596037,-1.3887358874809452,8.808787276105184,-0.4581358374618902,-2.925965844131097,12.1860038943407,-0.9326469607469512,21.357335392542048,-8.764400183150183,4.074038734083371,-15.415207824582827,7.927052545155993,-25.84500563539025,36.479078683319855,36.047773085332615,34.370473537604454,1577395536.0,-27.7131871949033,-51.10377485322415,22.577246
10604,1577395536.46,0.8137657862221321,0.1638568258145951,11.362472312964462,1.6564371778534677,0.7566845149342597,7.505647019102515,-3.3636781470322026,-3.060023302329458,7.540684116568217,1.7240570812690548,-6.367008860518292,0.2268349252096037,5.508236768769055,-18.53496272389481,0.0301454125381097,5.954649390243903,12.2165214724657,-0.3528129763719513,21.192413883719325,-7.851441830738704,3.188378139717421,-21.020737942612943,-1.981763136288998,-3.740724499859112,36.43115583909905,35.76023602000779,34.27462784916285,1577395536.0,-27.7131871949033,-51.10377485322415,22.577246
10605,1577395536.47,1.0376236414467417,0.8845115255216264,8.690543260230088,-0.5881268785430163,0.8153424556080878,11.469247867491186,-2.019333914854468,1.6661307748189782,12.883345121206888,9.094052198456556,1.964289967606708,1.1423622689596038,1.9681977062690548,-1.9944353801448167,1.2050721703506098,4.611875952743903,0.3909599490282014,-0.7190239138719514,22.18194293665564,-8.58180851266789,3.542642377463798,-16.744354141229145,0.7622165908803844,-15.302963863060016,36.479078683319855,35.784197442118185,34.370473537604454,1577395536.0,-27.7131871949033,-51.10377485322415,22.577246
10606,1577395536.48,-0.5856450841391959,1.4303895040372523,12.643370201148056,0.5982000440644051,0.4789571223561348,6.981316855528296,1.7192119774795154,1.0867339730611658,7.44970445348228,4.272274854706555,3.886897389481707,0.2268349252096037,1.8156098156440548,3.102000166730183,-1.5262510718368902,6.290342749618903,7.883025378715701,0.1354682736280487,22.18194293665564,-8.58180851266789,3.542642377463798,-19.63380265567766,-4.420856227106227,-26.185071499013805,36.33531015065744,35.80815886422859,34.08293647227963,1577395536.0,-27.7131871949033,-51.10377485322415,22.577246
10607,1577395536.49,-0.1044105504477896,0.5756595113614701,9.58358047946837,-0.0530228074980938,1.699999969035822,8.803304318907202,0.6394270287490469,-2.839756749595083,7.617298569693217,-4.425234910918445,9.257991139481708,0.8066689095846037,1.8766449718940548,-9.166066239519816,0.2132508812881097,4.764463843368903,6.021453113090701,0.4101264767530487,21.522256901364766,-7.121075148809524,3.542642377463798,-18.478023249898254,-4.420856227106227,-9.861910045083125,36.38323299487824,35.95192739689101,34.46631922604607,1577395536.0,-27.7131871949033,-51.10377485322415,22.577246
10608,1577395536.5,-0.1247612645591182,0.0297815328458456,6.767999327124619,-1.4021554429961407,-0.151915015095036,8.507620413877905,1.2738904686904533,-0.3761232412943023,10.382601487173686,-0.3206206531059451,-0.4771162823932926,-0.4598105826028963,3.9060639172065543,-0.4075213176448171,0.8998963891006098,4.932310523056403,4.495574206840701,-0.1544487185594513,21.4397961469534,-8.855696018391331,3.985472674646776,-17.004404507529507,6.021511067955035,-26.015038567202023,36.38323299487824,35.71231317578698,34.32255069338365,1577395536.0,-27.7131871949033,-51.10377485322415,22.577246
10609,1577395536.51,-1.2679925572837272,1.7847313497403774,11.963416929663682,-1.8007900194121562,1.3073508967701972,11.68352891607517,2.638585414979516,0.4762125497213221,13.370565159048686,4.272274854706555,-0.5686690167682926,1.0508095345846038,0.4118012218940549,-5.320851395769817,0.7320497094131098,-1.4611220941310974,-4.110382824409299,-0.3833305544969513,22.017021427832915,-7.303666819291819,2.3027175453514714,-16.802143111518113,5.792846090690919,-91.137651451113,36.52700152754066,35.76023602000779,34.46631922604607,1577395536.0,-27.7131871949033,-51.10377485322415,22.577246
10610,1577395536.52,-0.3773495397056021,2.043305129037252,13.754279771460556,-1.9157116990996563,2.0687070246998847,13.309191843321264,1.4702150048232654,1.8816089242330407,10.837499802603372,3.7229584484565534,-0.1414229230182926,1.2949501595846038,-1.1445952624809452,7.343943526105183,-0.8243467749618902,0.1257919683689026,-7.101105480659299,-2.5195610232469514,22.017021427832915,-7.303666819291819,2.3027175453514714,-17.322243844118844,7.7746092269799165,-90.79758558748944,36.28738730643664,35.99985024111181,34.27462784916285,1577395536.0,-27.7131871949033,-51.10377485322415,22.577246
10611,1577395536.53,-1.1494795751059927,-0.6118645120760288,13.83448552707579,-0.7066398607207501,-0.8330653874094891,11.44889715337986,1.2714962670302967,-1.2356416372903956,10.82074039098228,-4.623599168730945,-2.414982493330793,0.3794228158346037,0.9611176281440548,0.5995587604801829,1.2508485375381098,1.2244247808689026,-7.162140636909299,-0.1391899294969513,21.522256901364763,-6.9384834783272265,2.8341139019710404,-17.322243844118844,8.994155772388531,-81.27574140602987,36.407194416988645,35.80815886422859,34.17878216072124,1577395536.0,-27.7131871949033,-51.10377485322415,22.577246
10612,1577395536.54,-0.8059116368735709,-0.1545719949861851,11.372049119605087,-1.3722279222441875,-1.0844565617258954,11.654798496153296,0.4526792992568594,1.3321396432271817,11.673076181997905,-3.326602098418445,-2.216618235518293,-0.0173056997903963,2.1360443859565548,-3.321950028582317,0.7778260766006098,3.330137671493903,-6.9790351681593,1.6918647580030486,20.36780633960573,-7.303666819291819,2.3027175453514714,-20.789582061457065,-3.2013096816976128,-4.420856227106225,36.38323299487824,35.83212028633899,34.58612633659808,1577395536.0,-27.7131871949033,-51.10377485322415,22.577246
10613,1577395536.55,0.1685284388100228,0.4511610250333451,8.345778221167588,1.0267621412323735,0.4167078791920723,10.570225144102515,2.5499999535537343,0.8497080087056972,6.539907822622904,1.3120697765815548,-1.7893721417682926,0.4404579720846037,6.637387159394055,-4.588429520769817,-1.3736631812118902,1.2244247808689026,-0.7229316525342988,2.5158393673780486,22.18194293665564,-8.58180851266789,2.125585426478283,-20.789582061457065,-4.420856227106227,-4.420856227106225,36.38323299487824,35.856081708449395,34.370473537604454,1577395536.0,-27.7131871949033,-51.10377485322415,22.577246
10614,1577395536.56,0.8843947351967415,1.313073622689596,9.540484849585557,1.093799787716749,1.3696001399342597,5.128204770567359,0.1725577050185782,-1.7144819693216455,6.767356980337748,3.8755463390815534,-6.580631907393292,-0.2004111685403963,0.6254242687690549,-1.9944353801448167,0.7625672875381098,3.085997046493903,4.953337878715701,-0.6579887576219513,22.18194293665564,-8.58180851266789,2.125585426478283,-19.63380265567766,-3.81108295440192,-26.185071499013805,36.28738730643664,35.99985024111181,34.41839638182526,1577395536.0,-27.7131871949033,-51.10377485322415,22.577246
10615,1577395536.57,1.3440814539467416,0.5253812764981899,8.971861955298447,1.0171853345917488,0.203623931438166,5.130598972227515,0.7447719017959219,0.5336733895650722,10.703424509634624,5.691342237519055,-2.7811934308307924,0.1200234017721036,-0.2595854968559451,4.170115401105183,-0.7633116187118902,2.017881812118903,4.709197253715701,-1.7566215701219514,21.439796146953405,-5.751637620192307,2.037019367041685,-19.05591295278796,-1.981763136288998,-22.10428113553113,36.45511726120945,35.76023602000779,34.41839638182526,1577395536.0,-27.7131871949033,-51.10377485322415,22.577246
10616,1577395536.58,0.2978153284584603,-1.0332440042635287,7.107975962866806,0.3324436597870613,0.6812671626393378,10.049486283018531,-0.5217607764267338,0.4235401131978847,9.541039603628764,-2.929873582793445,-0.8433272198932926,0.2878700814596037,2.3496674328315548,-3.7949724895198167,1.5712831078506098,1.0718368902439026,7.5320732302782,-0.2917778201219513,21.357335392542048,-6.938483478327226,2.3027175453514714,-16.94661553724054,3.4299746589617293,-23.29451165821358,36.479078683319855,35.76023602000779,34.32255069338365,1577395536.0,-27.7131871949033,-51.10377485322415,22.577246
10617,1577395536.59,-2.407632547518102,1.5548879903653774,13.610627671851182,-1.0753469163848126,0.931461236125666,10.984422031309546,3.275443056581078,2.051597242104134,11.091285178579936,-3.021426317168445,3.062922780106707,1.2949501595846038,2.9752777843940548,-9.257618973894816,0.1216981469131097,1.3464950933689026,12.1554863162157,-0.3833305544969513,21.357335392542048,-7.303666819291819,4.074038734083371,-17.091087962962966,6.25017604521915,-91.47771731473654,36.479078683319855,35.616467487345375,34.370473537604454,1577395536.0,-27.7131871949033,-51.10377485322415,22.577246
10618,1577395536.6,-0.6814131505454458,2.404829579720846,11.850889451636338,-0.7784659105254377,0.079125445110041,12.868658737852517,1.3816295433974843,1.3070005257955408,15.56365387975181,3.7229584484565534,-1.0569502667682926,0.5320107064596037,-2.700991746855945,0.1723126667301829,0.3048036156631097,1.1633896246189026,12.6742851443407,-1.5429985232469514,21.357335392542048,-7.303666819291819,4.074038734083371,-18.651390160765164,-4.26841290893015,-78.89528036066497,36.479078683319855,35.80815886422859,34.370473537604454,1577395536.0,-27.7131871949033,-51.10377485322415,22.577246
10619,1577395536.61,-1.698948856111852,-1.6557364359041538,8.60554910129454,-2.5130650133086405,0.2203833430592602,12.601705252745091,1.057215218446313,0.5276878854146816,11.20979816075767,5.752377393769055,3.596980397294208,1.0508095345846038,4.318051221894055,-5.397145341082316,1.5407655297256095,5.206968726181403,-4.3392646603468,0.9747016720655486,22.18194293665564,-8.034033501221002,4.251170852956562,-19.98053647741148,-1.829319818112921,-55.09066990701606,36.45511726120945,35.927965974780605,34.370473537604454,1577395536.0,-27.7131871949033,-51.10377485322415,22.577246
10620,1577395536.62,-0.3725611363852896,0.1087901876310013,9.90200930026915,-0.3594806199980939,-1.4364042057688642,6.696406857969703,0.1366446801162344,-2.789478514731801,9.405767209829934,4.058651807831555,2.727229420731707,1.4780556283346038,2.3038910656440548,3.773386885480183,0.7015321312881098,3.238584937118903,-1.3638007931592988,0.8068549923780487,20.69764935725117,-6.938483478327226,4.428302971829755,-16.339831349206353,1.829319818112921,0.0,36.28738730643664,35.76023602000779,34.41839638182526,1577395536.0,-27.7131871949033,-51.10377485322415,22.577246
10621,1577395536.63,1.502098763517054,1.322650429330221,9.868490477026963,3.128871198849561,0.5412063655201973,10.63726279058689,2.154956679627953,-0.7663781118997706,8.450480747427592,3.1126068859565548,-4.230778391768292,0.9592568002096036,4.073910596894055,-4.527394364519817,1.7391297875381098,4.703428687118903,1.5964042849657012,0.9289253048780488,21.357335392542048,-6.573300137362635,3.7197744963369854,-16.166464438339442,0.457329954528231,-26.185071499013805,36.479078683319855,35.616467487345375,34.370473537604454,1577395536.0,-27.7131871949033,-51.10377485322415,22.577246
10622,1577395536.64,-0.0996221471274771,0.5708711080411576,11.680901133765245,0.3994813062714363,1.8867476985280096,7.831258444883763,0.1079142601943594,-1.8006732290872705,8.237396799673686,0.8848236828315549,-1.8809248761432928,0.7151161752096037,0.0150727062690548,0.9352521198551828,0.3048036156631097,1.5601181402439026,2.5424492068407014,0.4711616330030487,21.357335392542048,-6.573300137362635,3.7197744963369854,-17.206665903540905,-2.286649772641151,-24.824808044519585,36.28738730643664,35.80815886422859,34.562164914487674,1577395536.0,-27.7131871949033,-51.10377485322415,22.577246
10623,1577395536.65,0.9346729700600228,0.7576188375333451,9.599142790259386,-0.351100914187547,0.5711338862721509,8.67641163091892,0.5472502648330317,0.2176387704244476,8.908970365347514,-0.580020067168445,2.513606373856707,0.5930458627096037,1.5714691906440548,-5.458180497332317,1.6475770531631095,-1.2322402581935972,8.0203544802782,0.8984077267530488,21.769639164598843,-7.21237098405067,3.4540763180272034,-17.322243844118844,-3.3537529998736897,-22.784412862778247,36.38323299487824,35.9040045526702,34.322550693383654,1577395536.0,-27.7131871949033,-51.10377485322415,22.577246
10624,1577395536.66,0.7239832239662728,0.1901930440763138,11.70963155368712,1.175202644162061,0.5890903987233223,9.950126914122048,-1.4315574072861084,-1.0919895376810205,9.784051072134622,-0.0001860827934451,5.290705983231708,0.5625282845846037,2.5175141125190548,-5.290333817644817,1.2203309594131098,-1.1254287347560974,6.845427722465701,1.5697944455030486,21.027492374896607,-7.668850160256409,3.0112460208442324,-17.322243844118844,-3.2013096816976128,-20.74401768103691,36.14361877377422,35.856081708449395,34.27462784916285,1577395536.0,-27.7131871949033,-51.10377485322415,22.577246
10625,1577395536.67,0.3600645716225228,1.57883000696694,13.641752293433212,0.2175219800995613,1.036806109172541,10.788097495176734,-0.3685318701767333,-0.684975255454458,7.9069969705721235,-0.1527739734184451,2.422053639481707,0.1047646127096036,-0.7783843249809451,0.5995587604801829,0.8541200219131098,2.475645483993903,14.2306816287157,-0.3833305544969513,21.19241388371933,-8.58180851266789,4.605435090702943,-16.39762031949532,5.335516136162689,-107.80087876866725,36.28738730643664,35.856081708449395,34.27462784916285,1577395536.0,-27.7131871949033,-51.10377485322415,22.577246
10626,1577395536.68,-0.6263465123618521,0.4822856466153764,12.524857218970322,-1.2692772508574688,-0.2249381657298017,12.39221260748142,-0.0740450659775145,1.4769888436666343,10.262891404165874,-1.114077684355945,6.313044850419208,0.6083046517721038,-0.7173491687309451,6.947215010480183,1.983270412538109,9.708311499618905,3.2443535037157014,-0.9631645388719512,21.19241388371933,-8.58180851266789,4.605435090702943,-19.7493805962556,8.994155772388531,-90.11745386024232,36.43115583909905,35.99985024111181,34.22670500494204,1577395536.0,-27.7131871949033,-51.10377485322415,22.577246
10627,1577395536.69,-1.0836390294516958,-0.93029333287681,8.03213780368712,-0.916132505984422,0.3508673335377759,10.00519355230564,-0.4726796423935301,1.2722846017232752,9.456045444693215,-3.570742723418445,8.403498951981707,1.0202919564596038,2.1970795422065548,2.3238019245426838,0.9609315453506094,5.771543921493903,10.7059013552782,-0.8105766482469512,20.862570866073888,-7.851441830738705,3.542642377463798,-19.113701923076928,-1.5244331817607673,-17.683424908424907,36.52700152754066,35.83212028633899,34.46631922604607,1577395536.0,-27.7131871949033,-51.10377485322415,22.577246
10628,1577395536.7,0.659339779142054,-0.6094703104158726,11.460634581030869,0.1385133253144051,-1.149100006550114,10.352352793028295,-1.448316818907202,-2.095160033286489,11.58688492223228,-1.9838286609184448,-2.552311594893293,0.6540810189596037,2.3038910656440548,-0.9263201457698172,0.6710145531631098,0.1563095464939026,1.5658867068407012,-0.6885063357469513,22.84162897194652,-7.121075148809524,3.542642377463798,-17.322243844118844,2.896423045345459,-1.0201975908706655,36.38323299487824,35.95192739689101,34.27462784916285,1577395536.0,-27.7131871949033,-51.10377485322415,22.577246
10629,1577395536.71,-0.1235641637290396,1.3394098409513149,12.01608936618712,0.3779334913300301,0.4286788874928535,10.61810917730564,-1.3286067358993896,0.0715924691549159,12.783985752310404,8.331112745331556,-1.6062666730182926,0.1657997689596037,0.0761078625190548,4.353220869855183,1.3424012719131098,6.961729468368903,0.2231132693407012,-0.4748832888719513,21.687178410187485,-6.208116796398045,2.6569817830978484,-16.39762031949532,-1.3719898635846908,-24.14467631727247,36.19154161799503,35.856081708449395,34.46631922604607,1577395536.0,-27.7131871949033,-51.10377485322415,22.577246
10630,1577395536.72,-0.5054393285239616,0.8869057271817831,9.790678923071884,0.8448028150604988,1.9250549250905096,11.989986728575172,1.4821860131240467,-0.0433292105325831,8.287675034536967,2.2733734875190548,7.030207936356707,1.0508095345846038,5.935482862519055,-8.769337723894816,2.593621975038109,3.269102515243903,1.9626152224657007,1.1425483517530486,22.511785954301075,-7.486258489774114,3.8969066152101823,-19.402646774521777,-1.6768764999368446,-26.185071499013805,36.45511726120945,35.95192739689101,34.370473537604454,1577395536.0,-27.7131871949033,-51.10377485322415,22.577246
10631,1577395536.73,-0.4180509679282584,0.1040017843106888,6.085651853980088,0.1073887037323743,0.2610847712819165,8.934985410215797,0.9195486229873286,0.6737341866842133,9.8618626260897,1.9834564953315548,11.089045826981708,0.7456337533346037,1.6325043468940548,-1.4603777629573171,1.3424012719131095,4.138853491806403,-6.8874824337843,2.5616157345655486,22.84162897194652,-6.39070846688034,4.251170852956559,-16.859932081807084,5.640402772514843,-26.185071499013805,36.52700152754066,35.76023602000779,34.27462784916285,1577395536.0,-27.7131871949033,-51.10377485322415,22.577246
10632,1577395536.74,-0.3821379430259146,-0.1521777933260288,9.109528550757432,-0.5749587694121564,-0.5146365666087079,11.43453194341892,-0.2823406104111083,-1.0752301260599268,5.464911277212749,2.2275971203315548,3.123957936356707,0.4099403939596037,2.3954438000190548,-5.290333817644817,0.9761903344131098,-2.559754906631097,0.8334648318407012,3.5229194455030486,21.852099919010204,-7.851441830738705,2.8341139019710444,-15.415207824582827,5.487959454338766,-21.084083544660466,36.38323299487824,35.80815886422859,34.370473537604454,1577395536.0,-27.7131871949033,-51.10377485322415,22.577246
10633,1577395536.75,-0.9615347447837272,0.7025521993497514,13.083903306616806,-1.3506801073027814,1.831681060344416,10.251796323301734,1.1374209740615469,-4.503726903403677,3.762633896841655,2.0750092297065548,-1.0569502667682926,0.8371864877096037,2.2733734875190548,0.4469708698551829,0.8541200219131098,-0.1793838128810974,16.3363945193407,-0.1391899294969513,21.687178410187485,-8.034033501221,3.7197744963369854,-17.206665903540905,6.25017604521915,-89.4373221329952,36.52700152754066,35.80815886422859,34.41839638182526,1577395536.0,-27.7131871949033,-51.10377485322415,22.577246
10634,1577395536.76,0.5599804102455697,0.9048622396329556,11.002144963110949,-0.1655502855254381,0.1533456965748848,8.346011801817358,1.0488355126357656,-0.0888190420755523,11.8921456339022,-0.2595854968559451,-0.7822920636432927,0.7151161752096036,-3.616519090605945,18.116648604230186,0.8846376000381098,3.726866187118903,21.2039482302782,-3.4961235232469514,20.69764935725117,-8.034033501221,2.6569817830978484,-17.177771418396418,5.8690677497789565,-89.26728920118343,36.23946446221584,35.80815886422859,34.17878216072124,1577395536.0,-27.7131871949033,-51.10377485322415,22.577246
10635,1577395536.77,0.257113900235804,-0.3437139261385288,10.701672654761335,-0.4576428880645001,2.763025506145198,11.918160678770484,2.7319592797256096,4.3524250375142906,9.47280485631431,0.5186127453315549,8.342463795731707,0.4709755502096037,0.1981781750190548,-3.550831864519817,2.013787990663109,1.5906357183689026,0.3451835818407012,-1.939727038871952,20.53272784842845,-6.02552512591575,3.188378139717421,-17.206665903540905,5.945289408866995,-89.4373221329952,36.33531015065744,35.856081708449395,34.27462784916285,1577395536.0,-27.7131871949033,-51.10377485322415,22.577246
10636,1577395536.78,0.2259892786537728,2.050487734017721,13.742308763159777,1.122530207638624,0.7806265315358222,10.642051193907202,-0.2631869971298583,1.3022121224752283,9.58054393102134,2.0750092297065548,8.159358326981707,0.8371864877096037,1.4188813000190548,1.3930157917301829,0.4573915062881097,-2.956483422256097,17.8927910037157,0.1965034298780487,21.357335392542048,-6.938483478327226,1.5941890698587031,-17.322243844118844,2.896423045345459,1.7003293181177797,36.28738730643664,35.66439033156618,34.27462784916285,1577395536.0,-27.7131871949033,-51.10377485322415,22.577246
10637,1577395536.79,-0.5497320592368521,1.6386850484708462,11.340924498023057,-0.2206169237090313,-1.1874072331126142,9.861541452696263,-0.4499347266220458,-1.3481691153177393,10.825528794302592,-1.7702056140434452,7.549006764481708,0.5625282845846037,-1.0835601062309452,1.3319806354801829,1.5255067406631098,-1.2780166253810974,11.5451347537157,-0.7495414919969513,22.511785954301075,-7.121075148809524,2.8341139019710444,-16.39762031949532,0.457329954528231,-24.824808044519585,36.52700152754066,35.95192739689101,34.27462784916285,1577395536.0,-27.7131871949033,-51.10377485322415,22.577246
10638,1577395536.8,-0.5497320592368521,-0.4957457315584507,6.2819763901129,-0.5115124254180158,1.2941827876393377,8.436991464903295,-0.2859319129013432,-0.5090014334329741,5.998818247427592,2.0750092297065548,8.723933522294208,0.9287392220846038,-0.4732085437309452,5.421336104230184,0.8998963891006094,-3.872010766006097,19.5407402224657,1.5240180783155486,21.687178410187485,-6.573300137362635,3.3655102585906094,-18.246867368742368,-1.371989863584691,-14.622832135812905,36.38323299487825,35.664390331566175,34.46631922604607,1577395536.0,-27.7131871949033,-51.10377485322415,22.577246
10639,1577395536.81,0.9801628016029916,1.0305578267911577,6.246063365210556,2.882268427853468,-0.6032220280344892,2.987788486387672,-2.195307736875952,-1.5229458365091455,5.421815647329936,1.2205170422065548,0.6520341082317074,-0.7192099966653963,-0.7478667468559451,2.216990401105183,2.471551662538109,2.780821265243903,19.4491874880907,1.5392768673780486,23.171471989591947,-8.58180851266789,4.251170852956559,-17.322243844118844,-1.981763136288998,-24.824808044519585,36.479078683319855,35.80815886422859,34.27462784916285,1577395536.0,-27.7131871949033,-51.10377485322415,22.577246
10640,1577395536.82,0.5324470911537728,1.301102614388815,8.319442002905868,-0.1823096971465313,0.2275659480397285,7.18961239996189,-1.900820932676733,-1.1470561758646145,8.053043271841654,5.981259229706555,3.734309498856707,-0.2004111685403963,-5.966372606230945,-0.2549334270198171,0.6710145531631098,3.391172827743903,21.6464531130907,-2.3364555544969514,22.84162897194652,-7.486258489774114,4.959699328449328,-15.241840913715915,5.335516136162689,-21.424149408284023,36.57492437176146,35.80815886422859,34.370473537604454,1577395536.0,-27.7131871949033,-51.10377485322415,22.577246
10641,1577395536.83,-0.5497320592368521,1.152662111459127,9.905600602759383,-2.911699589724656,2.8994950007741043,12.631632773497046,1.032076101014672,-0.9363664297708644,9.08254998570884,-4.196353074980944,6.801326100419207,0.6083046517721037,-5.722231981230945,3.315623213605183,0.9151551781631098,1.7432236089939026,20.0595390505907,-4.320098132621951,21.109953129307968,-7.21237098405067,3.0998120802808264,-17.322243844118844,5.335516136162689,-90.79758558748944,36.407194416988645,35.856081708449395,34.27462784916285,1577395536.0,-27.7131871949033,-51.10377485322415,22.577246
10642,1577395536.84,-1.8856965856040395,-0.0300735086580601,8.973059056128527,0.2510408033417493,-0.9108769413645672,9.431782254698218,-0.2296681738876713,1.8121770760885092,12.202194748892436,-5.249209520293445,10.966975514481708,0.3794228158346037,-0.8089019031059452,6.260569502667684,0.3658387719131097,4.016783179306404,13.8949882693407,-3.3893119998094514,21.027492374896607,-6.938483478327226,3.0112460208442324,-18.593601190476196,-4.420856227106227,-47.269155043674274,36.28738730643664,35.808158864228595,34.41839638182526,1577395536.0,-27.7131871949033,-51.10377485322415,22.577246
10643,1577395536.85,-0.6718363439048208,-0.4969428323885289,9.427957371558213,-1.3913815355254375,1.927449126750666,13.586919235899389,1.6114729027724843,0.1793315438619471,7.339571177115092,-5.523867723418445,2.574641530106707,-0.0478232779153963,2.7311371593940548,-23.08208186451981,3.020868068788109,-4.451844750381097,9.5004570193407,-0.4138481326219513,22.34686444547836,-7.668850160256409,3.7197744963369854,-20.558426180301183,0.457329954528231,-19.38375422654269,36.28738730643664,35.99985024111181,34.27462784916285,1577395536.0,-27.7131871949033,-51.10377485322415,22.577246
10644,1577395536.86,-1.0381491979087272,1.495032948861471,10.89799719089415,-0.8766281785918438,0.6202150203053535,10.689935227110327,0.7543487084365469,-2.535693138755239,9.635610569204934,0.6101654797065549,1.0487626238567074,0.0742470345846036,-4.837222215605945,13.477976729230184,-0.7633116187118902,3.330137671493903,7.364226550590701,-0.5359184451219513,22.017021427832915,-8.399216842185593,3.7197744963369854,-15.93530855718356,0.457329954528231,-4.420856227106225,36.38323299487824,35.99985024111181,34.27462784916285,1577395536.0,-27.7131871949033,-51.10377485322415,22.577246
10645,1577395536.87,0.3456993616615853,1.5117923604825645,8.591183891333603,-0.7233992723418439,0.3400934260670722,6.502476523497046,-0.6079520361923583,2.403544886147104,8.172753354849467,1.0831879406440548,1.3234208269817074,0.1047646127096036,1.3273285656440548,-5.320851395769817,1.7391297875381098,1.8958114996189024,-0.2041328244092987,0.2880561642530487,22.18194293665564,-5.842933455433455,2.3027175453514714,-16.39762031949532,0.7622165908803841,-20.74401768103691,36.35927157276784,35.66439033156618,34.27462784916285,1577395536.0,-27.7131871949033,-51.10377485322415,22.577246
10646,1577395536.88,-0.7771812169516958,-0.0707749368807163,6.200573533667588,-0.3882110399199689,0.7746410273854322,8.863159360411109,-0.0908044775986088,1.453046827065072,6.921782987417826,0.9763764172065548,10.112483326981708,0.0132118783346036,-4.074282762480945,4.978831221417683,0.1674745141006097,1.6058945074314028,5.5484306521532005,0.8984077267530488,23.171471989591947,-6.75589180784493,2.47984966422466,-17.264454873829877,2.89642304534546,-14.282766272189347,36.33531015065744,35.64042890945578,34.34651211549405,1577395536.0,-27.7131871949033,-51.10377485322415,22.577246
10647,1577395536.89,-0.6814131505454458,0.4128537984708451,6.07128664401915,-0.1703386888457501,-0.3661960636790204,4.979764267637671,1.051229714295922,0.5863458260885096,4.298935068716655,-8.850283739043444,9.288508717606708,0.9897743783346036,-5.264468309355945,5.329783369855183,1.0677430687881098,-4.482362328506097,5.990935534965701,3.4618842892530486,22.34686444547836,-8.034033501221,2.6569817830978484,-17.206665903540905,6.25017604521915,-24.14467631727247,36.479078683319855,35.66439033156618,34.370473537604454,1577395536.0,-27.7131871949033,-51.10377485322415,22.577246
10648,1577395536.9,-0.6814131505454458,1.7847313497403774,6.1862083237066505,-0.3906052415801251,1.027229302531916,8.451356674864234,0.5580241723037345,-2.870881371177114,7.057055381216655,-3.448672410918445,1.5675614519817074,0.1963173470846037,-7.187075731230945,4.688914229230183,-1.0684873999618902,-6.130311547256097,12.1860038943407,0.2880561642530487,20.36780633960573,-7.303666819291819,2.6569817830978484,-15.472996794871795,5.945289408866995,-21.424149408284023,36.33531015065744,35.66439033156618,34.46631922604607,1577395536.0,-27.7131871949033,-51.10377485322415,22.577246
10649,1577395536.91,-0.5736740758384147,0.3709552694181108,9.674560142554306,-1.7385407762480938,0.9099134211842596,10.434952750303689,-1.1753778296493895,1.0951136788717126,9.97798140660728,-4.669375535918445,-3.132145579268293,-0.0935996451028963,-1.709170457793445,-4.466359208269817,0.2742860375381097,-8.098695336318595,19.9374687380907,-2.8399955935594514,22.18194293665564,-7.121075148809522,2.8341139019710404,-17.264454873829877,5.792846090690919,-84.33633417864188,36.311348728547046,35.9040045526702,34.41839638182526,1577395536.0,-27.7131871949033,-51.10377485322415,22.577246
10650,1577395536.92,-0.7723928136313833,0.1207611959317826,11.28106945651915,0.4234233228729988,-2.0708676457102704,6.727531479551733,-1.4746530371689208,-0.5173811392435206,9.17831805211509,-3.845400926543445,2.452571217606707,-0.2004111685403963,-3.647036668730945,-1.6282244426448171,-0.5802061499618902,-5.184266625381097,13.6813652224657,-2.5805961794969514,21.357335392542048,-6.208116796398045,3.0112460208442324,-19.17149089336589,1.0671032272325378,-4.420856227106225,36.38323299487824,35.66439033156618,34.46631922604607,1577395536.0,-27.7131871949033,-51.10377485322415,22.577246
10651,1577395536.93,1.0639598597084603,-1.380403244986185,9.619493504370714,0.2366755933808113,-0.8067291691477704,8.772179697325171,-3.835335874082984,-0.589207189048208,7.389849411978373,-6.775088426543445,-2.216618235518293,-0.5971396841653963,-3.708071824980945,-4.008595536394817,1.0982606469131098,1.5296005621189026,19.6017753787157,-2.9468071169969514,21.357335392542048,-6.208116796398045,3.0112460208442324,-19.17149089336589,0.457329954528231,-3.740724499859112,36.57492437176146,36.047773085332615,34.27462784916285,1577395536.0,-27.7131871949033,-51.10377485322415,22.577246
10652,1577395536.94,-0.2624278600181021,-0.3700501444002476,9.8062412338629,-1.616436491580125,1.5395884578053534,11.39622471685642,-0.8186417822861083,0.2798880135885097,12.072907859243998,0.7017182140815549,5.046565358231708,0.0742470345846036,-4.745669481230945,7.099802901105183,-0.0308897437118902,3.024961890243903,17.7402031130907,-2.7942192263719514,19.543198795492145,-5.660341784951156,3.542642377463798,-17.322243844118844,1.0671032272325378,-1.7003293181177797,36.57492437176146,35.856081708449395,34.27462784916285,1577395536.0,-27.7131871949033,-51.10377485322415,22.577246
10653,1577395536.95,-0.0397671056235709,0.9216216512540488,8.202126121558212,0.1480901319550306,-0.3781670719798017,8.440582767393531,-0.988630100157202,1.481777246986947,10.746520139517436,-1.465029832793445,5.305964772294208,-0.1698935904153963,-3.158755418730945,2.979929854230183,-0.2750303687118902,-3.215882836318597,5.8841240115282005,-1.0241996951219514,21.93456067342156,-7.577554325015262,2.922679961407635,-17.264454873829877,-2.743979727169382,-14.282766272189347,36.45511726120945,35.80815886422859,34.41839638182526,1577395536.0,-27.7131871949033,-51.10377485322415,22.577246
10654,1577395536.96,-0.8825260899985709,0.5445348897794389,8.1207232651129,-0.6372080125762188,0.7447135066334785,10.031529770567358,1.1158731591201407,1.1489832162252285,6.932556894888529,1.7698334484565548,11.699397389481708,0.5625282845846037,-5.111880418730945,1.6981915729801829,-0.3055479468368902,-4.695985375381097,6.235076159965701,1.4782417111280486,20.862570866073888,-6.02552512591575,2.8341139019710444,-17.322243844118844,5.945289408866995,-24.824808044519585,36.19154161799503,35.80815886422859,34.46631922604607,1577395536.0,-27.7131871949033,-51.10377485322415,22.577246
10655,1577395536.97,-0.0182192906821646,-0.5783456888338414,7.555691673316025,-0.4289124681426251,-0.6822306828196454,7.271015256407202,-0.5648564063095458,-0.215711730063833,8.057831675161967,-7.995791551543445,2.574641530106707,-0.7192099966653963,-3.280825731230945,7.130320479230183,-0.5802061499618902,-9.914491234756095,0.1010429568407012,3.5534370236280486,20.862570866073888,-6.02552512591575,2.8341139019710444,-17.322243844118844,5.945289408866995,-24.824808044519585,36.52700152754066,35.856081708449395,34.27462784916285,1577395536.0,-27.7131871949033,-51.10377485322415,22.577246
10656,1577395536.98,-0.390517648836462,0.526578377328267,8.607943302954697,1.0722519727753426,1.3743885432545722,9.796898007872043,0.6322444237685781,-1.1757865957864893,13.638715744986186,-0.8089019031059452,0.8198807879192073,-1.1617148794778962,-0.6563140124809451,-13.285939286394816,1.4644715844131098,-3.658387719131097,-20.2846992306593,2.1801460080030486,22.42932519988972,-6.116820961156899,1.859887248168497,-17.322243844118844,5.945289408866995,-13.942700408565791,36.21550304010543,35.66439033156618,34.370473537604454,1577395536.0,-27.7131871949033,-51.10377485322415,22.577246
10657,1577395536.99,-2.9223859044516955,-0.4777892191072789,10.42633946384337,-2.280827452273484,0.5902874995534003,12.857884830381812,0.6454125328994377,-1.184166301597036,10.317958042349469,-2.563662645293445,7.976252858231708,0.5625282845846037,-3.524966356230945,3.315623213605183,-0.1682188452743902,-2.056214867568597,-20.4678046994093,1.9054878048780488,21.19241388371933,-8.216625171703297,4.251170852956559,-17.322243844118844,5.335516136162689,-26.185071499013805,36.28738730643664,35.71231317578698,34.41839638182526,1577395536.0,-27.7131871949033,-51.10377485322415,22.577246
10658,1577395537.0,-1.9982240636313835,0.1040017843106888,12.035242979468368,-1.367439518923875,-0.0788918644602704,10.572619345762671,-2.185730930235327,1.271087500893197,11.75208483678306,-6.805606004668445,5.382258717606708,1.4475380502096038,-3.097720262480945,2.766306807355183,0.4573915062881097,0.4004501714939026,-17.7822578244093,-0.2917778201219513,22.017021427832915,-7.303666819291819,4.074038734083371,-18.70917913105413,-1.981763136288998,-18.023490772048465,36.28738730643664,35.66439033156618,34.46631922604607,1577395536.0,-27.7131871949033,-51.10377485322415,22.577246
10659,1577395537.01,-0.6239523107016959,-0.2838588846346226,10.589145176733991,-0.7090340623809064,-0.2273323673899579,11.709865134336887,-0.8617374121689207,2.748309925209603,8.246973606314311,-6.012148973418445,-6.397526438643292,-0.6886924185403963,-4.409976121855945,2.918894697980183,0.3963563500381097,-7.137391625381097,-5.361603527534299,1.2035835080030486,22.017021427832915,-7.303666819291819,4.074038734083371,-16.39762031949532,3.201309681697613,1.7003293181177797,36.38323299487824,35.99985024111181,34.370473537604454,1577395536.0,-27.7131871949033,-51.10377485322415,22.577246
10660,1577395537.02,-0.462343698641149,0.253639388070455,10.535275639380478,-1.183085991091844,0.1485572932545723,11.92055488043064,-0.5313375830673583,-0.8142621451028955,7.085785801138529,3.2804535656440548,-1.9419600323932928,-0.7192099966653962,0.6254242687690549,0.4164532917301829,-1.8619444312118905,1.6516708746189026,2.5119316287157014,-0.3222953982469513,21.192413883719325,-7.303666819291818,3.5426423774638014,-17.206665903540905,1.3719898635846923,-3.740724499859112,36.19154161799503,35.80815886422859,34.46631922604607,1577395536.0,-27.7131871949033,-51.10377485322415,22.577246
10661,1577395537.03,0.745531038907679,0.8318390889981889,9.387255943335555,0.1097829053925306,0.6728874568287915,7.403893448545874,1.1086905541396723,1.94625236905726,9.98995241490806,-1.8617583484184448,-3.101628001143293,-0.4445517935403963,-1.0072661609184452,-4.863087723894817,0.5794618187881098,4.199888648056403,5.7467949099657005,-0.5969536013719514,22.18194293665564,-6.39070846688034,2.8341139019710444,-17.264454873829877,-0.9146599090564604,-24.14467631727247,36.28738730643664,35.736274597897385,34.32255069338365,1577395536.0,-27.7131871949033,-51.10377485322415,22.577246
10662,1577395537.04,-0.1642655919516959,0.1087901876310013,6.583645799292587,-1.7481175828887188,1.4150899714772285,9.72986036138767,-1.4914124487900144,0.3636850716939783,10.11205669957603,3.9976166515815534,6.175715748856708,0.3794228158346037,0.1066254406440548,-5.961720536394817,-1.0074522437118902,1.8347763433689024,-6.643341808784299,1.3561713986280486,22.6767074631238,-7.668850160256409,4.428302971829755,-17.322243844118844,-0.7622165908803841,-26.185071499013805,36.479078683319855,35.80815886422859,34.370473537604454,1577395536.0,-27.7131871949033,-51.10377485322415,22.577246
10663,1577395537.05,0.0607893641029906,-0.4969428323885289,8.544496958960556,0.4114523145722176,-1.0581203434641766,7.95575693121189,-0.6103462378525145,-0.1917697134622705,11.481540049185403,-1.4955474109184452,0.2553055926067073,0.2268349252096037,3.5245941906440548,1.3624982136051829,0.3658387719131097,-5.672547875381097,-14.3642890744093,1.7528999142530486,22.6767074631238,-7.668850160256409,4.428302971829755,-15.472996794871795,5.335516136162689,-20.74401768103691,36.52700152754066,35.66439033156618,34.22670500494204,1577395536.0,-27.7131871949033,-51.10377485322415,22.577246
10664,1577395537.06,-0.4036857579673208,0.7037493001798295,9.60153699191954,-1.7995929185820778,1.118208965617853,10.980830728819312,-0.2667782996200932,-1.120719957602896,10.61005064488853,2.0139740734565548,-0.7059981183307927,0.0589882455221036,-0.0154448718559452,-8.525197098894816,0.9456727562881098,-5.413148461318596,-13.2046211056593,2.9125678830030486,21.357335392542048,-7.851441830738706,3.5426423774638014,-16.137569953194955,4.1921912498421126,-54.24050524795717,36.407194416988645,35.71231317578699,34.46631922604607,1577395536.0,-27.7131871949033,-51.10377485322415,22.577246
10665,1577395537.07,-1.5217779332602897,-0.0300735086580601,9.98580635837462,-1.594888676638719,-0.3973206852610517,11.946891098692358,0.2539605614638907,-0.0529060171732081,10.696241904654157,3.0515717297065548,-0.1719405011432926,0.7456337533346037,-1.3887358874809452,9.937937666730184,-0.2139952124618902,-8.907411156631097,2.3898613162157014,-3.2519828982469514,20.36780633960573,-8.399216842185593,3.3655102585906094,-19.17149089336589,5.335516136162689,-88.7571904057481,36.33531015065744,35.76023602000779,34.46631922604607,1577395536.0,-27.7131871949033,-51.10377485322415,22.577246
10666,1577395537.08,-1.5959981847251332,0.2356828756192826,9.957075938452745,-0.7593122972441876,-1.5178070622141766,7.900690293028296,0.9003950097060781,4.120187476479134,8.84073561803306,3.5703705578315548,2.879817311356707,0.1047646127096036,2.4259613781440548,10.273631026105184,0.7625672875381098,3.085997046493903,8.7680351443407,-0.4443657107469513,21.19241388371933,-7.851441830738705,1.7713211887318916,-18.88254604192104,6.70750599974738,-80.2555438151592,36.52700152754066,35.80815886422859,34.22670500494204,1577395536.0,-27.7131871949033,-51.10377485322415,22.577246
10667,1577395537.09,-0.8154884435141959,0.0345699361661576,9.971441148413682,-0.7545238939238751,1.5539536677662908,12.792044284727517,-0.8521606055282958,0.7395747323385097,9.156770237173683,-0.7936431140434451,-2.979557688643293,0.3794228158346037,0.9000824718940549,-0.071827958269817,0.6404969750381098,1.8958114996189024,-0.5703437619092988,-0.9326469607469512,21.19241388371933,-7.851441830738705,1.7713211887318916,-18.88254604192104,6.70750599974738,-88.41712454212454,36.38323299487824,35.66439033156618,34.562164914487674,1577395536.0,-27.7131871949033,-51.10377485322415,22.577246
10668,1577395537.1,0.0332560450111947,0.3087060262540488,9.75596299899962,-0.1775212938262194,0.1677109065358227,10.164407962706033,-0.2859319129013427,1.5847279183736662,11.722157316031108,3.1583832531440548,-1.4994551495807928,0.2726112923971037,1.8003510265815548,-1.5824480754573171,-0.5191709937118902,2.551939429306403,-0.2193916134717985,-0.3375541873094513,21.192413883719325,-7.303666819291819,2.4798496642246635,-19.34485780423281,7.317279272451687,-91.137651451113,36.43115583909905,35.736274597897385,34.49028064815647,1577395536.0,-27.7131871949033,-51.10377485322415,22.577246
10669,1577395537.11,-0.6024044957602896,1.205334547982564,11.132628953589462,-1.6212248949004375,1.1134205622975408,8.697959445860327,-0.9814474951767332,1.338125147377572,12.57569020787681,1.7087982922065548,-0.9653975323932926,0.3489052377096037,2.8837250500190548,-9.288136552019816,0.6099793969131098,5.741026343368903,-14.3642890744093,1.3866889767530486,21.852099919010204,-6.02552512591575,3.8969066152101823,-19.80716956654457,-1.2195465454086138,-25.84500563539025,36.38323299487824,35.80815886422859,34.27462784916285,1577395536.0,-27.7131871949033,-51.10377485322415,22.577246
10670,1577395537.12,-0.4850886144126334,0.5205928731778764,9.095163340796494,-1.0394338914824688,-0.1459295109446454,10.507975900938453,-0.9934185034775144,3.188843030678353,13.155087009634624,0.5491303234565549,5.260188405106708,0.8982216439596037,3.677182081269055,-3.764454911394817,1.2813661156631098,6.595518530868903,-22.0547187619093,3.3703315548780486,21.687178410187485,-7.303666819291819,3.0112460208442324,-16.744354141229145,5.335516136162689,-25.504939771766697,36.57492437176146,35.616467487345375,34.370473537604454,1577395536.0,-27.7131871949033,-51.10377485322415,22.577246
10671,1577395537.13,-0.4695263036216178,-0.5579949747225137,9.399226951636338,-0.3762400316191877,-1.5106244572337078,9.904637082579075,-0.6318940527939207,1.0771571664205408,11.000305515494,1.8766449718940548,0.6825516863567074,0.2573525033346036,2.4564789562690548,0.9657696979801828,-0.0308897437118902,-4.116151391006097,-23.3059394650343,5.201386242378049,21.687178410187485,-6.9384834783272265,3.5426423774638014,-15.472996794871795,5.640402772514843,-25.504939771766697,36.35927157276784,35.80815886422859,34.27462784916285,1577395536.0,-27.7131871949033,-51.10377485322415,22.577246
10672,1577395537.14,-1.2751751622641958,0.9874621969083452,10.593933580054308,-1.3710308214141094,1.0068785884205878,10.883865561582985,-0.1710102332138436,-1.7216645743021142,7.691518821158061,3.0210541515815548,-4.047672923018292,0.0742470345846036,2.9752777843940548,1.1336163776676829,0.4879090844131097,-1.6442275628810972,-0.8755195431592986,1.8139350705030488,21.522256901364766,-8.946991853632479,3.8969066152101823,-16.39762031949532,5.487959454338766,-56.790999225133845,36.28738730643664,35.71231317578699,34.27462784916285,1577395536.0,-27.7131871949033,-51.10377485322415,22.577246
10673,1577395537.15,-0.7676044103110709,1.1430853048185017,8.997001072730088,-1.125625151248094,-0.4547815251048017,10.946114804747046,-0.9814474951767332,0.5432501962056971,8.902984861197123,5.340390089081555,-1.2400557355182926,0.3489052377096037,7.705502393769055,-2.482716630144817,0.0301454125381097,-0.2099013910060974,14.5663749880907,-4.167510241996951,20.53272784842845,-7.486258489774114,2.47984966422466,-18.70917913105413,8.07949586333207,-80.59560967878276,36.33531015065744,35.80815886422859,34.370473537604454,1577395536.0,-27.7131871949033,-51.10377485322415,22.577246
10674,1577395537.16,-0.971111551424352,-0.5041254373689976,9.178960398901964,0.0331684522675301,-0.6846248844798016,8.611768186094702,1.0584123192763906,2.5041013558736656,9.956433591665872,5.004696729706555,1.3539384051067074,0.3183876595846037,6.301693800019055,-1.2009783488948171,-0.2139952124618902,7.083799780868903,-2.8591621212842986,-1.7871391482469514,21.522256901364766,-8.58180851266789,3.542642377463798,-18.70917913105413,-0.7622165908803841,-4.420856227106225,36.57492437176146,35.66439033156618,34.08293647227963,1577395536.0,-27.7131871949033,-51.10377485322415,22.577246
10675,1577395537.17,-0.3498162206138053,0.4751030416349082,10.09354543308165,-0.5007385179473126,1.709576775676447,11.590155051329075,-0.2991000220322021,0.5073371713033533,11.565337107290873,1.9071625500190548,-1.1332442120807928,0.5167519173971037,3.616146925019055,-4.802052567644817,1.3424012719131098,-0.4845595941310974,-13.0520332150343,-1.2378227419969514,21.522256901364766,-8.58180851266789,3.542642377463798,-16.859932081807084,0.7622165908803841,-1.7003293181177797,36.43115583909905,35.856081708449395,34.46631922604607,1577395536.0,-27.7131871949033,-51.10377485322415,22.577246
10676,1577395537.18,-0.8657666783774771,1.6722038717130336,11.515701219214462,-0.1595647813750475,0.5436005671803534,11.513540598204075,-0.6318940527939213,0.6031052377096038,12.931229154410014,4.943661573456555,0.0111649676067073,0.1047646127096036,1.8003510265815548,-1.1094256145198171,0.5031678734756098,0.2631210699314028,-8.1081855587843,0.8984077267530486,22.18194293665564,-6.39070846688034,2.8341139019710444,-16.628776200651203,-1.219546545408614,-13.942700408565797,36.38323299487824,35.9040045526702,34.27462784916285,1577395536.0,-27.7131871949033,-51.10377485322415,22.577246
10677,1577395537.19,-0.9375927281821648,0.2069524556974076,10.038478794898056,-1.5565814500762187,-0.6367408512766767,9.325240280821264,1.455849794862328,2.1377885018697595,9.638004770865091,2.0139740734565548,-0.3245283917682927,0.4709755502096037,2.1818207531440548,0.3554181354801829,-0.1529600562118902,2.658750952743903,-20.8645332150343,4.102753429878049,21.19241388371933,-6.39070846688034,3.188378139717421,-17.264454873829877,-1.829319818112921,-25.84500563539025,36.28738730643664,35.76023602000779,34.27462784916285,1577395536.0,-27.7131871949033,-51.10377485322415,22.577246
10678,1577395537.2,-1.5145953282798208,-0.6980557718416538,8.929963426245713,-1.614042289919969,1.7143651789967596,11.496781186582984,-0.950322873594702,3.8927383187642906,9.233384690298683,-0.9767485827934452,1.842219655106708,0.5320107064596037,9.689144971894056,-22.47173030201981,1.4339540062881098,-2.040956078506097,-10.4885566525343,4.682587414253049,21.687178410187485,-6.938483478327226,4.074038734083371,-17.264454873829877,-1.829319818112921,-25.84500563539025,36.33531015065744,35.76023602000779,34.41839638182526,1577395536.0,-27.7131871949033,-51.10377485322415,22.577246
10679,1577395537.21,-0.682610251375524,0.9707027852872518,9.305853086890243,0.6197478590058113,-1.4340100041087078,9.018782468321264,-0.3110710303329833,-2.686527843345083,7.109727817740092,5.065731885956555,-2.3081709698932924,0.3946816048971037,5.508236768769055,-7.701222489519817,0.1216981469131097,4.581358374618903,3.732634753715701,3.7670600705030486,21.687178410187485,-6.938483478327226,4.074038734083371,-15.241840913715915,6.555062681571303,-18.023490772048465,36.33531015065744,35.66439033156618,34.46631922604607,1577395536.0,-27.7131871949033,-51.10377485322415,22.577246
10680,1577395537.22,-0.2408800450766959,0.7648014425138139,8.0441088119879,-0.6707268358184064,1.3013653926198063,9.211515701963844,0.645412532899438,-2.000589067710317,8.027904154410013,1.8613861828315548,-4.719059641768292,0.5014931283346037,1.7087982922065548,-6.770436356707316,0.3353211937881097,-0.0878310785060974,-0.6161201290967986,-1.1920463748094514,21.027492374896607,-8.034033501221,3.7197744963369854,-16.16646443833944,5.945289408866996,-53.39034058889828,36.479078683319855,35.80815886422859,34.34651211549405,1577395536.0,-27.7131871949033,-51.10377485322415,22.577246
10681,1577395537.23,-0.9184391149009146,0.6810043844083452,6.246063365210556,-0.7976195238066877,-0.0214310246165204,9.811263217832984,0.8261747582412344,0.1553895272603846,12.88214802037681,4.058651807831555,-0.6602217511432926,0.8371864877096037,-0.0459624499809451,-1.0483904582698171,-0.3360655249618902,8.823301733993903,-5.575226574409299,-2.6721489138719514,20.53272784842845,-6.02552512591575,3.542642377463798,-16.802143111518113,7.927052545155993,-88.41712454212454,36.28738730643664,35.80815886422859,34.27462784916285,1577395536.0,-27.7131871949033,-51.10377485322415,22.577246
10682,1577395537.24,-1.84738935904154,0.4344016134122513,9.27712266696837,-1.6786857347441877,0.2778441829030098,11.34594648199314,1.647385927674828,1.9462523690572595,8.823976206411967,2.3191498547065548,1.6896317644817074,1.1423622689596038,2.7616547375190548,-8.006398270769816,-0.3055479468368902,-1.6137099847560974,-9.0237129025343,-1.5124809451219514,21.357335392542048,-6.938483478327226,4.428302971829755,-20.96294897232397,-1.2195465454086138,-0.6801317272471106,36.19154161799503,35.76023602000779,34.27462784916285,1577395536.0,-27.7131871949033,-51.10377485322415,22.577246
10683,1577395537.25,-1.066879617830602,1.0628795492032674,11.10748983615782,-0.4528544847441876,0.0563805293385571,10.474457077696265,0.1426301842666255,-0.6263173147806299,10.110859598745952,-1.877017137480945,-5.527775462080793,0.6998573861471036,0.3660248547065548,-6.266896317644817,-0.1682188452743902,-0.5303359613185972,2.145720691215701,0.9289253048780488,21.027492374896607,-8.034033501221,3.3655102585906094,-15.93530855718356,3.201309681697613,1.7003293181177797,36.35927157276784,35.71231317578699,34.41839638182526,1577395536.0,-27.7131871949033,-51.10377485322415,22.577246
10684,1577395537.26,-0.1163815587485709,1.18857513636147,10.122275853003526,-1.6499553148223125,0.1150384700123848,10.788097495176734,0.4167662743545157,1.7283800179830406,11.19663005162681,2.5632904797065548,-11.219303782393292,0.1657997689596037,-1.8159819812309448,-2.787892411394817,0.4879090844131097,-2.498719750381097,-2.0962226681592986,0.8373725705030487,20.36780633960573,-7.303666819291819,4.074038734083371,-16.39762031949532,-0.4573299545282303,-26.185071499013805,36.14361877377422,35.76023602000779,34.370473537604454,1577395536.0,-27.7131871949033,-51.10377485322415,22.577246
10685,1577395537.27,-0.5760682774985709,0.3913059835294388,9.401621153296494,-0.5151037279082501,0.2203833430592598,9.528747421934543,3.972155739686547,0.5600096078267909,11.256485093130715,3.1736420422065548,-3.193180735518293,0.8677040658346037,2.6701020031440548,-4.679982255144817,-0.6412413062118902,2.231504858993903,-15.1272285275343,3.2787788205030486,20.69764935725117,-7.668850160256409,4.428302971829755,-17.206665903540905,-1.3719898635846908,-7.141383136094671,36.52700152754066,35.76023602000779,34.370473537604454,1577395536.0,-27.7131871949033,-51.10377485322415,22.577246
10686,1577395537.28,-0.0265989964927115,-0.0252851053377481,9.299867582739854,-0.1320314622832501,1.1038437556569158,6.026030393125953,-0.1602363257431396,1.836119092690072,6.77932798863853,-4.104800340605945,-0.3397871808307927,1.0050331673971038,-0.9614897937309452,-0.5601092082698171,-0.1224424780868902,-1.6137099847560974,-0.2956855587842988,2.2716987423780486,21.109953129307968,-7.394962654532964,3.276944199154016,-16.166464438339442,1.0671032272325378,-24.824808044519585,36.35927157276784,35.76023602000779,34.370473537604454,1577395536.0,-27.7131871949033,-51.10377485322415,22.577246
10687,1577395537.29,-0.0206134923423209,1.6578386617520962,8.29310578464415,-0.2098430162383287,0.3987513667409004,8.116168442442358,-1.368111063291968,-1.3673227285989895,7.880660752310405,2.9905365734565548,-5.848210032393292,0.1963173470846037,0.3965424328315547,-4.039113114519817,-0.3818418921493902,-1.9799209222560967,2.4966728396532014,1.3866889767530486,21.522256901364766,-6.75589180784493,2.47984966422466,-15.068474002849005,6.097732727043072,-25.84500563539025,36.38323299487824,35.71231317578699,34.32255069338365,1577395536.0,-27.7131871949033,-51.10377485322415,22.577246
10688,1577395537.3,0.2595081018959603,0.7959260640958452,9.504571824683213,1.4553242384003426,1.400724761516291,7.747461386778296,-0.9287750586532958,-1.4966096182474269,9.949250986685405,-1.3429595202934452,-10.273258860518292,-0.4750693716653963,-4.104800340605945,1.7592267292301829,-0.4886534155868902,1.0108017339939026,4.373503894340701,-2.3974907107469514,20.36780633960573,-6.573300137362635,3.7197744963369854,-15.299629884004888,5.487959454338766,-14.96289799943646,36.52700152754066,35.616467487345375,34.27462784916285,1577395536.0,-27.7131871949033,-51.10377485322415,22.577246
10689,1577395537.31,-0.0756801305259146,0.5517174947599076,9.195719810523055,0.2127335767792488,0.8021743464772284,8.199965500547828,-1.848148496153296,-1.0632591177591455,9.800810483755717,-1.5871001452934452,-4.017155344893292,0.4404579720846037,-6.668276903105945,3.803904463605183,-0.5496885718368902,-4.360292016006097,8.0966484255907,-3.4961235232469514,22.017021427832915,-8.034033501221,3.7197744963369854,-15.241840913715915,5.335516136162689,-26.185071499013805,36.28738730643664,35.99985024111181,34.46631922604607,1577395536.0,-27.7131871949033,-51.10377485322415,22.577246
10690,1577395537.32,-0.9112565099204458,0.2739901021817831,11.55520554660704,-1.4919380052520002,-0.8234885807688641,10.419390439512672,-1.7811108496689207,1.2160208627096034,9.22380788365806,-6.469912645293444,-3.2694746808307924,0.2268349252096037,0.2897309093940549,-12.339894364519816,-0.2445127905868902,6.839659155868903,-10.4275214962843,-1.2988578982469514,21.8520999190102,-7.851441830738704,3.896906615210182,-19.113701923076928,-1.2195465454086138,-1.3602634544942211,36.26342588432623,35.66439033156618,34.41839638182526,1577395536.0,-27.7131871949033,-51.10377485322415,22.577246
10691,1577395537.33,-0.8681608800376334,0.4703146383145951,11.659353318823838,-0.8048021287871564,0.2898151912037915,10.953297409727517,2.0735538231826403,1.854075605141244,10.805178080191263,-1.3429595202934452,-4.658024485518292,0.2878700814596037,1.2205170422065548,-9.394948075457316,-0.3971006812118902,2.384092749618903,-3.1948554806592986,0.1659858517530487,21.687178410187485,-7.668850160256409,3.3655102585906094,-17.091087962962966,3.2013096816976128,-9.521844181459567,36.19154161799503,35.736274597897385,34.27462784916285,1577395536.0,-27.7131871949033,-51.10377485322415,22.577246
10692,1577395537.34,-0.6311349156821646,0.1758278341153764,10.0360845932379,-0.2780777635527813,0.021664605266291,10.19672968511814,0.0552418236709219,1.5607859017721033,9.003541330923685,-2.716250535918445,-7.740299876143292,-0.3224814810403963,-2.823062059355945,1.9423321979801829,-0.6412413062118902,-3.749940453506097,5.044890613090701,0.9594428830030488,21.19241388371933,-6.75589180784493,3.542642377463798,-16.744354141229145,-0.7622165908803841,-25.504939771766697,36.28738730643664,35.66439033156618,34.22670500494204,1577395536.0,-27.7131871949033,-51.10377485322415,22.577246
10693,1577395537.35,-0.7939406285727896,0.2787785055020951,8.4271810776129,-0.8981759935332502,0.6609164485280097,9.579025656797826,0.1198852684951406,1.1992614510885096,9.35070057164634,2.5632904797065548,-1.7893721417682926,0.5625282845846037,-2.090640184355945,-0.7737322551448171,-1.2210752905868902,-5.336854516006097,4.220916003715701,0.8678901486280487,21.19241388371933,-5.660341784951156,3.8969066152101823,-17.322243844118844,-0.7622165908803841,-24.824808044519585,36.28738730643664,35.616467487345375,34.41839638182526,1577395536.0,-27.7131871949033,-51.10377485322415,22.577246
10694,1577395537.36,0.5803311243568978,0.6558652669767046,8.877290989722274,0.5239797925995614,0.3903716609303535,5.1665119971298585,-0.6606244727157958,-0.330633409751333,5.730667661490092,-2.350039598418445,-7.404606516768292,-0.5208457388528963,3.5245941906440548,-7.670704911394817,-0.9769346655868902,1.9263290777439024,2.9391777224657014,1.7528999142530486,21.604717655776128,-6.482004302121491,2.7455478425344464,-17.264454873829877,-0.304886636352153,-24.484742180896028,36.38323299487825,35.856081708449395,34.562164914487674,1577395536.0,-27.7131871949033,-51.10377485322415,22.577246
10695,1577395537.37,0.7862324671303352,1.6386850484708462,9.145441575659776,0.4725044569062019,0.8285105647389472,7.004061771299781,-1.7224529089950926,-1.6689921377786767,8.4828024698397,3.7229584484565534,-5.085270579268292,-0.5361045279153963,-3.494448778105945,-2.635304520769817,-0.7175352515243902,-1.2780166253810972,4.8007499880907005,-0.0476371951219513,21.522256901364766,-7.121075148809524,2.8341139019710444,-16.137569953194955,5.411737795250728,-53.90043938433361,36.52700152754066,35.856081708449395,34.32255069338365,1577395536.0,-27.7131871949033,-51.10377485322415,22.577246
10696,1577395537.38,0.9490381800209604,-0.1904850198885288,8.977847459448839,-0.6060833909941876,0.040818218547541,8.654863815977516,-0.0453146460556395,1.1058875863424158,10.588502829947124,-4.242129442168445,-4.383366282393292,-0.6276572622903963,1.7240570812690548,1.2709454792301829,-1.6483213843368902,3.085997046493903,1.6574394412157012,-5.571318835746951,21.522256901364766,-7.121075148809524,2.8341139019710444,-17.322243844118844,5.335516136162689,-88.7571904057481,36.28738730643664,35.616467487345375,34.46631922604607,1577395536.0,-27.7131871949033,-51.10377485322415,22.577246
10697,1577395537.39,-0.5880392857993522,-0.2024560281893101,9.71765577243712,-0.3092023851348126,-0.8977088322337079,9.48086338873142,0.8908182030654531,3.291793702065072,8.768909568228374,-5.249209520293445,1.903254811356708,0.0132118783346036,-1.7854644031059452,1.2709454792301829,-0.5191709937118902,4.672911108993903,-14.2117011837843,-3.5876762576219514,21.027492374896607,-7.303666819291819,3.7197744963369854,-17.322243844118844,8.689269136036378,-75.83468758805297,36.479078683319855,35.66439033156618,34.370473537604454,1577395536.0,-27.7131871949033,-51.10377485322415,22.577246
10698,1577395537.4,-0.3713640355552115,0.8916941305020951,11.695266343726182,-0.2134343187285626,0.913504723674494,12.36707349004978,-1.9080035376572024,1.348899054848275,10.531041990103374,-2.746768114043445,-1.0722090558307928,-0.2767051138528963,-0.9462310046684452,-0.4532976848323171,-1.3889219702743905,-1.4763808831935972,-6.246613293159299,-1.5582573123094514,21.687178410187485,-6.208116796398043,4.605435090702944,-19.17149089336589,0.7622165908803841,-3.0605927726120044,36.33531015065744,35.71231317578699,34.49028064815647,1577395536.0,-27.7131871949033,-51.10377485322415,22.577246
10699,1577395537.41,-0.8633724767173209,0.5277754781583451,10.888420384253523,-1.0107034715605938,-0.3374656437571454,11.494386984922826,1.5300700463271717,1.8241480843892908,11.795180466665872,-0.0001860827934451,-3.101628001143293,-0.6276572622903963,-1.6023589343559452,-1.0178728801448171,-0.3360655249618902,-0.4540420160060974,-0.4177558712842988,-0.3528129763719513,20.53272784842845,-5.660341784951156,4.251170852956559,-20.09611441798942,-4.115969590754073,-1.7003293181177797,36.38323299487824,35.856081708449395,34.370473537604454,1577395536.0,-27.7131871949033,-51.10377485322415,22.577246
10700,1577395537.42,-0.4755118077720084,-0.0133140970369663,10.232409129370712,0.0595046705292488,0.7135888850514472,9.507199606993138,1.1206615624404532,0.3780502816549159,10.696241904654157,-2.258486864043445,-2.002995188643293,-0.4140342154153963,-1.6633940906059452,-7.609669755144817,-1.0684873999618902,-11.226747094131095,-7.467316418159299,1.8749702267530488,20.53272784842845,-5.660341784951156,4.251170852956559,-20.09611441798942,-4.420856227106227,-4.420856227106225,36.28738730643664,35.76023602000779,34.27462784916285,1577395536.0,-27.7131871949033,-51.10377485322415,22.577246
10701,1577395537.43,0.0188908350502567,0.2320915731290488,8.781522923316025,-0.5701703660918439,0.0240588069264473,9.92857909918064,-2.1641831152939206,-0.1726161001810205,8.440903940786967,-1.877017137480945,-0.6144453839557926,-0.0325644888528963,-1.1445952624809452,-13.011281083269816,-0.2750303687118902,4.825498999618903,-19.3996894650343,3.3703315548780486,22.34686444547836,-6.75589180784493,3.3655102585906094,-17.264454873829877,0.6097732727043083,-7.481448999718229,36.38323299487824,35.856081708449395,34.27462784916285,1577395536.0,-27.7131871949033,-51.10377485322415,22.577246
10702,1577395537.44,0.2140182703529915,0.3099031270841264,9.33458350681212,0.124148115353468,0.5914846003834785,10.098567417051733,0.4431024926162349,0.1697547372213221,5.874319761099467,-1.0683013171684452,-5.543034251143292,-0.6276572622903963,-3.723330614043445,-0.8500262004573171,-1.0379698218368902,-11.745545922256095,8.2492363162157,1.9665229611280488,21.357335392542048,-6.208116796398045,3.0112460208442324,-16.39762031949532,3.0488663635215367,-15.983095590307126,36.28738730643664,35.784197442118185,34.370473537604454,1577395536.0,-27.7131871949033,-51.10377485322415,22.577246
10703,1577395537.45,0.362458773282679,1.2412475728849086,9.490206614722275,2.0778166700409675,1.4988870295826973,7.795345419981421,1.769490212342797,-1.6067428946146145,10.617233249868995,-0.2443267077934451,-5.024235423018292,-0.2614463247903963,-1.6633940906059452,1.4845685261051829,-1.0990049780868902,-2.346131859756097,14.5663749880907,-2.3669731326219514,22.34686444547836,-8.399216842185593,4.428302971829755,-16.859932081807084,6.25017604521915,-84.67640004226544,36.14361877377422,35.76023602000779,33.939167939617214,1577395536.0,-27.7131871949033,-51.10377485322415,22.577246
10704,1577395537.46,0.946643978360804,0.2572306905606888,8.558862168921493,0.4904609693573738,-0.8785552189524579,7.467339792540015,0.5340821557021719,0.8784384286275722,10.722578122915872,0.1218842297065548,-4.017155344893292,-0.5971396841653963,0.3812836437690549,-4.283253739519817,-0.4276182593368902,1.8652939214939024,9.5309745974657,-4.655791491996951,22.34686444547836,-8.399216842185593,4.428302971829755,-17.322243844118844,5.335516136162689,-90.11745386024232,36.28738730643664,35.856081708449395,34.41839638182526,1577395536.0,-27.7131871949033,-51.10377485322415,22.577246
10705,1577395537.47,0.1314183130776009,-0.2323835489412637,9.696107957495713,0.2893480299042488,0.7566845149342597,9.89027187261814,0.0097519921279531,1.2686932992330409,9.788839475454935,-3.753848192168445,0.8809159441692075,-0.2004111685403963,-2.273745653105945,6.855662276105183,-1.4346983374618902,2.414610327743903,8.4628593630907,-3.1909477419969514,21.8520999190102,-6.9384834783272265,3.5426423774638014,-17.091087962962966,7.7746092269799165,-80.59560967878276,36.33531015065744,35.856081708449395,34.370473537604454,1577395536.0,-27.7131871949033,-51.10377485322415,22.577246
10706,1577395537.48,0.6904644007240853,-0.1809082132479038,11.333741893042587,0.3168813489960462,0.0982790583912915,9.47487788458103,-0.979053293516577,1.7283800179830406,12.356620755972514,-2.533145067168445,-5.237858469893292,-0.1393760122903963,1.327328565644055,-6.587330887957316,-0.4886534155868902,-0.6981826410060974,1.5201103396532014,-2.3517143435594514,20.53272784842845,-7.121075148809524,2.8341139019710444,-18.16018391330892,1.44821152267273,-0.5100987954353329,36.38323299487824,35.856081708449395,34.46631922604607,1577395536.0,-27.7131871949033,-51.10377485322415,22.577246
10707,1577395537.49,0.0631835657631468,0.3960943868497514,10.665759629858991,-0.7641007005645001,-0.0310078312571454,11.163987155821264,2.056794411561546,1.1801078378072596,8.17754175816978,6.072811964081555,1.994807545731708,0.0132118783346036,-0.7783843249809451,3.803904463605183,0.3353211937881097,2.750303687118903,1.1996757693407012,0.1965034298780487,20.862570866073888,-6.75589180784493,2.8341139019710444,-16.859932081807084,0.7622165908803841,-26.185071499013805,36.38323299487824,35.856081708449395,34.370473537604454,1577395536.0,-27.7131871949033,-51.10377485322415,22.577246
10708,1577395537.5,0.1781052454506478,0.8557811055997514,13.009683055151962,-1.0657701097441876,0.7949917414967597,10.66838741216892,0.6992820702529532,-0.378517442954458,10.696241904654157,0.0608490734565548,-1.2705733136432926,0.0437294564596036,0.4423188000190549,-3.917042802019817,-0.8548643530868902,-4.207704125381097,3.854705066215701,0.2880561642530487,20.862570866073888,-6.75589180784493,2.8341139019710444,-16.628776200651203,-1.3719898635846908,-26.185071499013805,36.57492437176146,35.80815886422859,34.41839638182526,1577395536.0,-27.7131871949033,-51.10377485322415,22.577246
10709,1577395537.51,0.496534066251429,0.4439784200528764,9.520134135474228,0.8112839918183113,1.1756698054616035,9.926184897520484,0.4239488793349844,1.443470020424447,12.534988779654157,-0.915713426543445,1.0487626238567074,-0.2767051138528963,-0.2595854968559451,3.498728682355183,-0.2445127905868902,1.1939072027439026,-5.910919933784299,0.8984077267530487,21.522256901364766,-6.9384834783272265,3.5426423774637974,-17.322243844118844,0.457329954528231,-26.185071499013805,36.23946446221584,35.76023602000779,34.370473537604454,1577395536.0,-27.7131871949033,-51.10377485322415,22.577246
10710,1577395537.52,0.5204760828529915,0.3745465719083451,8.379297044409775,0.3719479871796395,-0.0082629154856615,8.545927640440405,0.3329692162490474,0.1757402413717132,7.477237772574076,0.3965424328315549,2.544123951981707,-0.3529990591653963,0.686459425019055,2.2017316120426838,-0.4886534155868902,-3.4295058831935963,-5.7125556759718,2.2564399533155486,21.357335392542048,-6.938483478327226,3.0112460208442324,-17.091087962962966,1.067103227232538,-22.10428113553113,36.38323299487824,35.80815886422859,34.39443495971486,1577395536.0,-27.7131871949033,-51.10377485322415,22.577246
10711,1577395537.53,0.5707543177162728,0.6163609395841264,9.080798130835555,-0.9771846483184063,1.6162029109303535,9.59578506841892,0.7471661034560781,-3.577170860923208,6.3699195047518105,0.3355072765815549,-1.4231612042682926,-0.0783408560403963,0.0150727062690548,-0.6211443645198171,0.6404969750381098,-2.224061547256097,0.0705253787157012,-1.1767875857469514,20.202884830783017,-6.75589180784493,4.251170852956559,-17.206665903540905,2.591536408993306,-91.47771731473654,36.38323299487824,35.616467487345375,34.27462784916285,1577395536.0,-27.7131871949033,-51.10377485322415,22.577246
10712,1577395537.54,0.6808875940834603,0.6235435445645952,9.779905015601182,0.2558292066620614,-0.6678654728587079,8.164052475645484,0.4478908959365469,0.6007110360494471,13.442391208853373,1.0374115734565548,-2.704899485518293,-0.3529990591653963,-0.0154448718559451,11.097605635480184,-1.0684873999618902,0.0647568121189026,2.7865898318407014,-3.0078422732469514,20.202884830783017,-6.75589180784493,4.251170852956559,-17.322243844118844,3.811082954401921,-80.59560967878276,36.38323299487824,35.856081708449395,34.22670500494204,1577395536.0,-27.7131871949033,-51.10377485322415,22.577246
10713,1577395537.55,-0.2528510533774776,-0.1174618692537637,10.639423411597274,-0.9520455308867656,0.5759222895924634,11.526708707334937,-0.9191982520126708,0.1721489388814789,9.730181534781108,-1.342959520293445,1.9795487566692072,-0.1851523794778963,-0.5189849109184452,1.8202618854801829,-0.0308897437118902,0.4614853277439026,1.0776054568407014,-2.3669731326219514,21.274874638130683,-6.847187643086079,3.0998120802808264,-18.01571148758649,4.573299545282304,-42.16816708932094,36.45511726120945,35.95192739689101,34.34651211549405,1577395536.0,-27.7131871949033,-51.10377485322415,22.577246
10714,1577395537.56,0.515687679532679,0.8198680806974077,12.16213566745665,1.1129534009979989,-0.1770541325266766,10.534312119200171,0.9219428246474844,3.0092779061666346,9.65715838414634,-3.021426317168445,-5.237858469893292,-0.6276572622903963,2.3954438000190548,-13.835255692644816,-0.4581358374618902,0.3394150152439026,6.692839831840701,-2.0617973513719514,20.862570866073888,-6.02552512591575,1.7713211887318916,-15.93530855718356,1.6768764999368453,-4.420856227106225,36.57492437176146,35.80815886422859,34.46631922604607,1577395536.0,-27.7131871949033,-51.10377485322415,22.577246
10715,1577395537.57,0.0440299524818968,0.6091783346036577,11.345712901343369,0.0906292921112801,0.2179891413991035,9.622121286680638,-0.3972622900986083,2.0420204354635096,10.145575522818216,2.1665619640815548,-0.0498701886432926,-0.3529990591653963,-3.891177293730945,4.933054854230183,0.0911805687881097,6.046202124618903,20.3341972537157,0.5016792111280487,20.36780633960573,-6.573300137362635,2.6569817830978484,-16.859932081807084,-1.3719898635846908,-25.504939771766697,36.479078683319855,35.76023602000779,34.370473537604454,1577395536.0,-27.7131871949033,-51.10377485322415,22.577246
10716,1577395537.58,0.0607893641029906,0.0704829610685014,8.87489678806212,-0.1368198656035626,2.1070142512623846,12.861476132872044,0.9506732445693594,-1.0081924795755517,8.950868894400248,1.6782807140815548,3.947932545731707,-0.3224814810403963,0.9916352062690548,-5.290333817644817,-0.2139952124618902,7.236387671493903,7.638884753715701,0.1354682736280487,20.36780633960573,-6.573300137362635,2.6569817830978484,-16.859932081807084,-1.3719898635846908,-25.504939771766697,36.28738730643664,35.66439033156618,34.27462784916285,1577395536.0,-27.7131871949033,-51.10377485322415,22.577246
10717,1577395537.59,0.6270180567299442,-0.1952734232088418,8.042911711157823,0.93338827648628,0.222777544719416,8.010823569395484,0.3712764428115473,1.3261541390767908,9.653567081656108,-0.335879442168445,1.0792802019817072,0.1047646127096036,-2.243228074980945,14.256174971417684,0.3963563500381097,3.177549780868903,-0.6771552853467986,1.1578071408155486,21.769639164598843,-6.482004302121488,4.162604793519968,-17.17777141839642,-1.2957682044966523,-22.61437993096647,36.26342588432624,35.76023602000779,34.370473537604454,1577395536.0,-27.7131871949033,-51.10377485322415,22.577246
10718,1577395537.6,0.4247080164467415,1.090412868295064,10.237197532691026,0.8256492017792488,0.6848584651295722,9.971674729063452,0.0193287987685781,-3.146214562095083,8.472028562368997,4.089169385956555,-3.528874094893293,-0.3224814810403963,1.2968109875190548,0.2943829792301829,1.922235256288109,-6.343934594131097,10.7821953005907,-0.1391899294969513,21.357335392542048,-7.303666819291819,3.0112460208442324,-15.010685032560032,6.25017604521915,-20.74401768103691,36.28738730643664,35.616467487345375,34.22670500494204,1577395536.0,-27.7131871949033,-51.10377485322415,22.577246
10719,1577395537.61,0.2403544886147103,1.5572821920255335,11.340924498023057,0.2869538282440926,1.9154781184498848,10.519946909239234,0.6825226586318595,-2.7080756582864893,7.409003025259623,2.0139740734565548,1.4454911394817074,-0.2309287466653963,-3.036685106230945,13.661082197980184,-0.7633116187118902,2.567198218368903,7.944060534965701,-2.0312797732469514,20.69764935725117,-6.573300137362635,3.7197744963369854,-17.322243844118844,5.945289408866995,-80.59560967878276,36.14361877377422,35.856081708449395,34.27462784916285,1577395536.0,-27.7131871949033,-51.10377485322415,22.577246
10720,1577395537.62,0.2140182703529915,-0.2024560281893101,8.694134562720322,0.3899044996308113,-0.5002713566477704,7.000470468809546,0.1725577050185782,0.7419689339986659,12.113609287466652,-1.236147996855945,3.749568287919208,-0.2004111685403963,-0.6257964343559451,11.738474776105184,1.1592958031631098,-1.7662978753810974,3.854705066215701,-2.4890434451219514,21.109953129307968,-6.482004302121487,3.631208436900392,-17.322243844118844,5.335516136162689,-90.11745386024232,36.28738730643664,35.66439033156618,34.370473537604454,1577395536.0,-27.7131871949033,-51.10377485322415,22.577246
10721,1577395537.63,-0.0852569371665396,0.4583436300138139,12.004118357886338,-0.1631560838652818,0.2132007380787915,11.946891098692358,-1.7212558081650144,2.0216697213521813,12.221348362173686,-1.5565825671684452,2.544123951981707,0.4709755502096037,2.0139740734565548,-8.418385575457314,0.2437684594131098,0.1715683355564026,-13.6166084103468,0.1965034298780485,22.18194293665564,-5.660341784951156,3.8969066152101823,-17.322243844118844,5.640402772514842,-90.79758558748944,36.33531015065744,35.68835175367658,34.250666427052444,1577395536.0,-27.7131871949033,-51.10377485322415,22.577246
10722,1577395537.64,0.1158560022865843,-0.2192154398104038,13.15094095310118,0.3803276929901864,1.1086321589772283,10.85992354498142,0.4502850975967032,1.8409074960103844,11.519847275747903,-1.9227935046684448,-3.742497141768293,-0.2004111685403963,-2.243228074980945,9.541209151105184,-0.1834776343368902,-2.773377953506097,-13.3877265744093,2.2716987423780486,22.18194293665564,-7.851441830738705,2.8341139019710444,-17.264454873829877,1.219546545408615,-4.08079036348267,36.19154161799503,35.95192739689101,34.370473537604454,1577395536.0,-27.7131871949033,-51.10377485322415,22.577246
10723,1577395537.65,-0.1690539952720084,1.0856244649747515,13.103056919898057,0.0331684522675301,1.716759380656916,12.531076303770485,-1.9151861426376704,1.278270105873666,8.807216794790873,1.9224213390815548,-1.5452315167682926,0.2878700814596037,-0.1985503406059451,3.132517744855183,1.8001649437881098,-11.440370141006095,-3.5000312619092986,2.1496284298780486,20.69764935725117,-6.938483478327226,3.0112460208442324,-16.859932081807084,-4.420856227106227,-18.023490772048465,36.28738730643664,35.66439033156618,34.370473537604454,1577395536.0,-27.7131871949033,-51.10377485322415,22.577246
10724,1577395537.66,-0.4072770604575553,0.8282477865079549,10.037281694067978,0.5527102125214364,1.3743885432545722,12.186311264707983,0.4407082909560781,-0.684975255454458,5.632505393423686,1.9681977062690548,0.8809159441692074,-0.0630820669778963,6.301693800019055,-12.156788895769816,-0.2750303687118902,-4.360292016006097,10.0802910037157,0.0744331173780487,20.69764935725117,-6.938483478327226,3.0112460208442324,-16.859932081807084,-4.420856227106227,-18.023490772048465,36.45511726120945,35.95192739689101,34.562164914487674,1577395536.0,-27.7131871949033,-51.10377485322415,22.577246
10725,1577395537.67,1.1309975061928352,-0.0540155252596226,6.332254624976182,1.5882024305390146,0.2598876704518384,6.966951645567359,0.7292095910049061,0.3995980965963226,8.190709867300638,-2.899356004668445,2.544123951981707,-0.3835166372903963,0.1371430187690548,0.584299971417683,0.6252381859756098,3.391172827743903,9.1800224490282,-4.075957507621951,20.862570866073888,-7.486258489774114,2.125585426478283,-16.570987230362235,-0.4573299545282301,-18.023490772048465,36.28738730643664,35.66439033156618,34.370473537604454,1577395536.0,-27.7131871949033,-51.10377485322415,22.577246
10726,1577395537.68,1.578713216642054,-1.0308498026033726,6.159872105444931,-1.0083092699004377,0.0144820002858223,9.09060851812595,-2.080386057188452,-0.4623145010599268,10.945238877310404,2.0750092297065548,-0.9653975323932926,0.1352821908346037,-2.365298387480945,2.033884932355183,1.1592958031631098,5.283262671493903,8.5544120974657,0.8984077267530487,21.522256901364766,-7.121075148809524,2.8341139019710444,-15.357418854293858,5.335516136162689,-26.185071499013805,36.38323299487824,35.616467487345375,34.22670500494204,1577395536.0,-27.7131871949033,-51.10377485322415,22.577246
10727,1577395537.69,0.6234267542397103,1.6817806783536586,10.148612071265244,0.5000377759979988,1.0104698909108225,10.117721030332984,-0.509789768125952,-3.871657665122427,10.16951753941978,9.612851026581556,3.947932545731707,0.6540810189596037,-4.440493699980945,13.508494307355184,0.5184266625381098,-2.163026391006097,6.540251941215701,-3.2214653201219514,21.522256901364766,-7.486258489774114,2.8341139019710444,-18.13128942816443,2.896423045345459,-90.11745386024232,36.38323299487824,35.856081708449395,34.27462784916285,1577395536.0,-27.7131871949033,-51.10377485322415,22.577246
10728,1577395537.7,-0.1870105077231807,-0.1521777933260293,11.955037223853134,-0.1990691087676256,-0.7265234135325366,9.828022629454075,-1.746394925596655,0.3828386849752284,10.140787119497904,-0.9614897937309452,5.061824147294208,0.4251991830221037,3.814511182831555,-11.180226395769816,0.7015321312881098,3.635313452743903,5.3195488162157005,-1.3904106326219514,21.522256901364766,-7.486258489774114,2.8341139019710444,-17.322243844118844,5.335516136162689,-24.824808044519585,36.33531015065744,35.808158864228595,34.322550693383654,1577395536.0,-27.7131871949033,-51.10377485322415,22.577246
10729,1577395537.71,0.1397980188881468,-0.5998935037752476,10.723220469702744,-1.2189990159941877,0.5507831721608223,11.887036057188451,0.0121461937881094,1.797811866127572,9.26211511022056,0.2744721203315549,5.321223561356708,-0.7497275747903963,-0.8089019031059451,-1.3230486613948171,0.6404969750381098,5.771543921493903,1.0470878787157012,-0.8105766482469513,20.36780633960573,-6.208116796398045,4.428302971829755,-17.264454873829877,0.9146599090564612,-4.08079036348267,36.19154161799503,35.76023602000779,34.27462784916285,1577395536.0,-27.7131871949033,-51.10377485322415,22.577246
10730,1577395537.72,-0.0637091222251334,1.2125171529630328,13.70639573825743,0.1768205518769051,-1.0102363102610517,11.367494296934543,1.235583242127953,3.828094873940072,12.381759873404157,3.6008881359565548,2.879817311356707,0.1352821908346037,1.7240570812690548,9.236033369855184,0.2437684594131097,9.036924780868905,0.1010429568407012,0.9289253048780488,21.522256901364766,-7.121075148809524,4.251170852956559,-17.264454873829877,1.829319818112921,-20.40395181741336,36.33531015065744,35.616467487345375,34.370473537604454,1577395536.0,-27.7131871949033,-51.10377485322415,22.577246
10731,1577395537.73,0.2259892786537728,0.5313667806485796,11.322967985571884,-1.7433291795684065,0.7782323298756659,9.033147678282202,-1.342971945860327,-2.085583226645864,14.25402557164634,-0.5189849109184452,3.932673756669208,-0.3072226919778963,-0.1375151843559451,5.116160322980183,1.0067079125381098,-9.243104516006095,-4.934357433784299,-0.7800590701219513,21.852099919010204,-6.02552512591575,4.251170852956559,-17.322243844118844,-0.4573299545282303,-24.824808044519585,36.21550304010543,35.76023602000779,34.41839638182526,1577395536.0,-27.7131871949033,-51.10377485322415,22.577246
10732,1577395537.74,0.0129053308998656,0.4344016134122513,8.719273680151963,0.0188032423065931,0.3197427119557446,8.45375087652439,-0.2284710730575932,2.522057868324838,10.218598673452982,5.126767042206555,10.112483326981708,-0.2919639029153963,0.5949066906440549,3.788645674542683,0.3658387719131097,0.0800156011814025,-9.9392402462843,6.5441596798780495,21.852099919010204,-6.02552512591575,4.251170852956559,-17.206665903540905,0.457329954528231,-24.824808044519585,36.52700152754066,35.76023602000779,34.22670500494205,1577395536.0,-27.7131871949033,-51.10377485322415,22.577246
10733,1577395537.75,-0.0780743321860708,0.2692016988614701,8.915598216284776,0.1217539136933113,0.356852837688166,8.374742221739234,1.9299017235732652,-0.4120362661966456,4.911850693716655,-2.685732957793445,4.131038014481708,-0.4445517935403963,-0.6563140124809451,9.388621260480184,0.7320497094131098,2.109434546493903,-2.5234687619092986,4.072235851753049,21.852099919010204,-6.75589180784493,3.542642377463798,-17.264454873829877,2.439093090817229,-23.1244787264018,36.33531015065744,35.52062179890376,34.41839638182526,1577395536.0,-27.7131871949033,-51.10377485322415,22.577246
10734,1577395537.76,0.3361225550209603,1.0209810201505327,11.063197105444932,-0.6946688524199689,1.678452154094416,9.988434140684546,1.108690554139672,-2.3010613760599266,6.082615305533061,-2.014346239043445,-1.6367842511432926,-0.6276572622903963,-1.9380522937309448,13.020213057355184,0.5489442406631098,2.323057593368903,20.9140312380907,-0.5054008669969513,19.87304181313758,-7.121075148809524,3.8969066152101823,-16.859932081807084,5.335516136162689,-79.91547795153564,36.28738730643664,35.616467487345375,34.27462784916285,1577395536.0,-27.7131871949033,-51.10377485322415,22.577246
10735,1577395537.77,0.5839224268471321,0.6786101827481898,9.535696446265243,0.6891797071503426,0.9194902278248848,8.286156760313453,-0.8306127905868895,0.1003228890767909,8.373866294302593,2.8684662609565548,2.361018483231708,-0.7955039419778963,-0.9920073718559452,7.923777510480183,-0.0919248999618902,17.9785751714939,16.4584648318407,-3.3435356326219514,21.274874638130687,-7.212370984050669,3.099812080280827,-19.402646774521777,5.335516136162689,-80.59560967878276,36.23946446221584,35.856081708449395,34.370473537604454,1577395536.0,-27.7131871949033,-51.10377485322415,22.577246
10736,1577395537.78,0.0990965906654906,-1.4354698831697787,9.827789048804306,-0.4516573839141095,-0.4978771549876141,10.68155552129978,0.0289056054092036,-1.0548794119485991,13.551327384390484,-0.5800200671684451,11.668879811356708,0.4709755502096037,1.3120697765815548,7.099802901105184,0.2895448266006097,5.145933569931404,9.3631279177782,-4.487944812309451,20.862570866073888,-6.75589180784493,4.251170852956559,-19.51822471509972,3.048866363521536,-25.84500563539025,36.479078683319855,35.64042890945578,34.41839638182526,1577395536.0,-27.7131871949033,-51.10377485322415,22.577246
10737,1577395537.79,-0.1546887853110709,0.7791666524747515,10.77110450290587,-1.108865739627,0.0049051936451973,10.88625976324314,-2.3676902564072018,3.014066309486947,10.056990061392437,4.028134229706555,9.685237233231708,-0.5055869497903963,2.3344086437690548,0.5080060261051829,1.3118836937881098,-2.376649437881097,12.8573906130907,-1.0852348513719514,21.027492374896607,-6.938483478327226,1.9484533076050947,-17.264454873829877,0.6097732727043083,-1.3602634544942211,36.28738730643664,35.66439033156618,34.41839638182526,1577395536.0,-27.7131871949033,-51.10377485322415,22.577246
10738,1577395537.8,-0.2911582799399771,0.6833985860685015,10.050449803198838,-0.0673880174590313,-0.5074539616282392,11.056248081114234,0.3664880394912344,3.3803791634908533,10.320352244009625,2.4412201672065548,5.382258717606708,0.1963173470846037,-1.3887358874809452,10.426218916730184,0.5489442406631098,-3.963563500381097,7.028533191215701,-0.2002250857469513,20.862570866073888,-5.660341784951156,2.8341139019710444,-17.091087962962966,1.6768764999368453,-24.824808044519585,36.52700152754066,35.66439033156618,34.27462784916285,1577395536.0,-27.7131871949033,-51.10377485322415,22.577246
10739,1577395537.81,-0.1475061803306021,0.8521898031095171,9.852928166235946,-0.5510167528105939,1.1038437556569158,8.106591635801733,1.561194667909203,-2.140649864829458,10.18867115270103,3.707699659394055,7.396418873856707,-0.4750693716653963,3.860287550019055,-5.595509598894817,-0.0308897437118902,10.837461890243905,1.8405449099657007,-1.4209282107469514,21.8520999190102,-6.9384834783272265,3.011246020844233,-17.322243844118844,-4.420856227106227,-25.504939771766697,36.40719441698865,35.616467487345375,34.27462784916285,1577395536.0,-27.7131871949033,-51.10377485322415,22.577246
10740,1577395537.82,-0.0852569371665396,0.783955055795064,7.6993437729254,-0.18350679797661,0.8332989680592603,9.932170401670874,-0.54330859136814,0.5049429696431972,10.138392917837749,0.9763764172065548,10.143000905106708,-0.0478232779153963,-3.158755418730945,8.991892744855182,0.0454042016006097,6.168272437118903,0.1315605349657009,1.6766059689405486,21.19241388371933,-7.486258489774114,3.188378139717421,-17.206665903540905,-0.6097732727043071,-25.84500563539025,36.38323299487824,35.784197442118185,34.58612633659808,1577395536.0,-27.7131871949033,-51.10377485322415,22.577246
10741,1577395537.83,-0.1211699620688833,-0.0468329202791538,8.125511668433212,0.9693013013886238,0.0958848567311348,8.64528700933689,1.1685455956435782,1.251933887611947,7.957275205435405,-0.7631255359184451,10.844905201981708,-0.0783408560403963,0.9000824718940549,7.313425947980183,0.7320497094131098,2.841856421493903,-6.918000011909299,2.4242866330030486,20.53272784842845,-6.39070846688034,4.605435090702943,-16.455409289784292,3.0488663635215367,-20.40395181741336,36.479078683319855,35.616467487345375,34.17878216072124,1577395536.0,-27.7131871949033,-51.10377485322415,22.577246
10742,1577395537.84,-0.0684975255454459,0.7695898458341264,10.081574424780868,0.3204726514862801,2.1022258479420723,10.189547080137672,4.012857167909203,2.0444146371236656,9.027483347525248,-4.821963426543445,1.842219655106708,-0.8717978872903963,0.1066254406440548,-4.679982255144817,0.1827333031631097,-2.559754906631097,-7.131623058784299,1.8139350705030488,20.202884830783017,-7.121075148809524,4.251170852956559,-17.322243844118844,0.457329954528231,-18.023490772048465,36.28738730643664,35.76023602000779,34.370473537604454,1577395536.0,-27.7131871949033,-51.10377485322415,22.577246
10743,1577395537.85,-1.5074127232993522,1.356169252572408,9.578792076148057,-0.4887675096465319,0.9841336726491036,10.865909049131812,0.1306591759658438,-0.5868129873880518,9.70983082066978,-0.9920073718559448,2.040583912919207,-0.0630820669778963,-4.394717332793445,14.042551924542684,-0.3513243140243902,-3.582093773818597,-5.1022041134718,-1.0241996951219514,21.604717655776128,-7.760145995497558,4.162604793519969,-17.95792251729752,1.8293198181129224,-20.40395181741336,36.45511726120945,35.76023602000779,34.22670500494205,1577395536.0,-27.7131871949033,-51.10377485322415,22.577246
10744,1577395537.86,-1.3062997838462271,0.3386335470060014,10.019325181616804,-1.3770163255645,-0.4835119450266767,10.172787668516577,1.829345253846703,3.581492102943978,7.813623105826029,0.4575775890815549,3.795344655106707,-0.1088584341653963,1.8461273937690548,-8.677784989519816,-0.6107237280868902,1.5906357183689026,-0.5703437619092988,-0.7800590701219513,21.522256901364766,-8.216625171703297,3.8969066152101823,-20.09611441798942,0.457329954528231,-19.38375422654269,36.52700152754066,35.66439033156618,34.370473537604454,1577395536.0,-27.7131871949033,-51.10377485322415,22.577246
10745,1577395537.87,-0.4994538243735709,-0.3101951028963414,11.601892478980089,-0.8742339769316876,0.1030674617116035,10.883865561582985,-1.534508078672827,0.2535517953267909,10.406543503775248,-3.174014207793445,-2.399723704268293,-0.4445517935403963,1.2357758312690548,-7.243458817644817,0.8846376000381098,1.1633896246189026,4.281951159965701,-0.8105766482469513,19.87304181313758,-7.121075148809524,4.605435090702943,-16.802143111518113,0.9146599090564612,-4.08079036348267,36.479078683319855,35.95192739689101,34.370473537604454,1577395536.0,-27.7131871949033,-51.10377485322415,22.577246
10746,1577395537.88,0.1924704554115848,0.5804479146817827,11.020101475562118,-0.4600370897246564,0.0767312434498848,11.769720175840796,-0.6103462378525145,2.6597244637838218,10.085720481314311,1.9834564953315548,0.8503983660442074,-0.2309287466653963,2.7006195812690548,-7.151906083269817,0.1827333031631097,1.7127060308689026,-13.9065254025343,0.1659858517530487,21.769639164598843,-7.212370984050671,2.568415723661258,-16.628776200651203,5.945289408866995,-25.504939771766697,36.33531015065744,35.66439033156618,34.22670500494204,1577395536.0,-27.7131871949033,-51.10377485322415,22.577246
10747,1577395537.89,-1.3685490270102896,0.5732653097013138,8.90602140964415,0.2486466016815931,0.8584380854909003,9.16243456793064,0.0277085045791255,0.2008793588033539,9.525477292837747,-1.8312407702934448,5.107600514481708,-0.1088584341653963,-3.784365770293445,3.758128096417683,0.4421327172256097,-6.343934594131097,-8.4896552853468,2.4395454220655486,21.027492374896607,-6.573300137362635,4.074038734083371,-16.71545965608466,-2.3628714317291903,-24.99484097633136,36.28738730643664,35.71231317578699,34.41839638182526,1577395536.0,-27.7131871949033,-51.10377485322415,22.577246
10748,1577395537.9,-1.153070877596227,0.7743782491544389,6.9930542831793066,-2.1671028734160624,1.1134205622975408,8.025188779356421,0.0241172020888906,-0.3354218130716456,5.876713962759624,-4.577822801543445,3.612239186356707,0.7456337533346037,-2.182192918730945,-0.8347674113948171,0.0911805687881097,-2.834413109756097,-4.903839855659299,3.2177436642530486,21.027492374896607,-6.573300137362635,4.074038734083371,-17.091087962962966,0.7622165908803841,-22.10428113553113,36.14361877377422,35.66439033156618,34.08293647227963,1577395536.0,-27.7131871949033,-51.10377485322415,22.577246
10749,1577395537.91,-0.6526827306235709,0.7025521993497514,8.556467967261337,-0.93648322009575,-1.2017724430735517,7.809710629942359,-0.002219016172827,-0.7735607168802393,5.871925559439311,-0.7936431140434451,-1.8809248761432928,0.0132118783346036,-2.487368699980945,3.925974776105183,0.0606629906631097,2.384092749618903,-1.5774238400342988,1.2035835080030486,22.017021427832915,-8.034033501221,3.3655102585906094,-17.206665903540905,0.7622165908803841,-22.10428113553113,36.14361877377422,35.76023602000779,34.370473537604454,1577395536.0,-27.7131871949033,-51.10377485322415,22.577246
10750,1577395537.92,-0.1259583653891959,0.0680887594083456,9.976229551733994,1.12492440929878,0.261084771281916,10.869500351622046,2.186081301209984,-0.9938272696146144,10.26528560582603,-2.212710496855945,-4.612248118330792,-0.7802451529153963,-2.182192918730945,5.573923994855183,-0.1529600562118902,-1.0033584222560974,12.7048027224657,-2.2449028201219514,21.604717655776128,-6.299412631639193,3.276944199154016,-16.744354141229145,5.335516136162689,-90.11745386024232,36.311348728547046,35.66439033156618,34.41839638182526,1577395536.0,-27.7131871949033,-51.10377485322415,22.577246
10751,1577395537.93,-0.7292971837485709,0.4176422017911576,9.466264598120713,-1.1232309495879376,-0.0357962345774584,8.931394107725561,-1.1011575781845466,-0.1750103018411773,11.122409800161966,1.3731049328315548,4.893977467606708,0.6540810189596037,1.510434034394055,-3.413502762957316,0.1827333031631097,1.7889999761814028,-0.6924140744092988,-1.9244682498094516,21.19241388371933,-7.851441830738705,3.188378139717421,-18.88254604192105,1.3719898635846917,-47.94928677092139,36.71869290442388,35.808158864228595,34.32255069338365,1577395536.0,-27.7131871949033,-51.10377485322415,22.577246
10752,1577395537.94,-0.3534075231040396,0.7217058126310014,10.589145176733991,-2.270053544802781,-0.3685902653391767,10.967662619688452,-0.624711447813452,2.207220350014291,12.178252732290874,0.0608490734565548,5.534846608231708,0.3183876595846037,4.562191846894055,-11.912648270769816,1.861200100038109,-3.353211937881097,-6.460236340034299,-0.7495414919969513,21.19241388371933,-7.851441830738705,3.188378139717421,-21.020737942612943,-2.591536408993305,-26.185071499013805,36.38323299487824,35.856081708449395,34.46631922604607,1577395536.0,-27.7131871949033,-51.10377485322415,22.577246
10753,1577395537.95,-1.390096841951696,-0.1809082132479038,13.4837349838629,-2.701009843630906,1.1684872004811346,14.362640573790015,0.5652067772842032,2.085116065346322,10.528647788443216,-4.120059129668445,-0.2634932355182927,-0.0173056997903963,3.799252393769055,-4.679982255144817,-1.6178038062118902,0.2478622808689026,-8.0471504025343,-0.0781547732469513,21.687178410187485,-6.573300137362635,3.3655102585906094,-21.020737942612943,-0.7622165908803841,-15.302963863060016,36.38323299487824,35.616467487345375,34.41839638182526,1577395536.0,-27.7131871949033,-51.10377485322415,22.577246
10754,1577395537.96,-0.4659350011313833,1.1083693807462365,10.379652531470322,0.4258175245331556,-0.5840684147532391,9.203135996153296,0.8860297997451411,-0.4694971060403961,8.560614023794779,-1.526064989043445,-2.8269697980182924,-0.2919639029153963,3.799252393769055,-5.412404130144815,-0.0003721655868902,-1.6900039300685972,-0.7992255978467986,2.0275581173780486,20.202884830783013,-6.755891807844934,3.011246020844229,-19.17149089336589,-1.6768764999368444,-26.185071499013805,36.311348728547046,35.71231317578699,34.322550693383654,1577395536.0,-27.7131871949033,-51.10377485322415,22.577246
10755,1577395537.97,-0.4156567662681021,0.3745465719083451,6.815883360327744,-0.5989007860137189,-0.7109611027415204,10.084202207090796,0.6753400536513907,0.6629602792135096,12.444009116568216,5.035214307831555,-3.345768626143293,-0.6886924185403963,-1.9075347156059448,-6.053273270769817,-0.3360655249618902,0.7056259527439026,2.2372734255907014,-1.0852348513719514,22.18194293665564,-6.02552512591575,3.8969066152101823,-17.322243844118844,-0.7622165908803841,-13.942700408565791,36.33531015065744,35.856081708449395,34.27462784916285,1577395536.0,-27.7131871949033,-51.10377485322415,22.577246
10756,1577395537.98,0.5635717127358041,-0.5065196390291539,7.792717637671494,-1.235758427615281,0.490928130656916,8.348406003477514,2.145379872987328,3.988506385170541,7.171977060904155,-0.0001860827934451,2.147395436356707,-0.4750693716653963,1.0526703625190548,-3.154103348894817,0.8236024437881098,0.8582138433689026,-1.3638007931592988,2.0885932736280486,22.18194293665564,-6.02552512591575,3.8969066152101823,-17.322243844118844,0.7622165908803841,-24.14467631727247,36.33531015065744,35.76023602000779,34.370473537604454,1577395536.0,-27.7131871949033,-51.10377485322415,22.577246
10757,1577395537.99,0.4079486048256478,0.6187551412442827,9.724838377417589,-0.0290807908965313,0.2371427546803535,8.346011801817358,-0.2368507788681395,-3.050446495688833,9.77208006383384,2.6243256359565548,3.276545826981707,0.3794228158346037,0.6254242687690549,-14.598195145769816,-0.1529600562118902,0.3088974371189026,6.784392566215701,1.7834174923780486,22.18194293665564,-6.02552512591575,3.8969066152101823,-17.322243844118844,5.335516136162689,-15.983095590307128,36.57492437176146,35.95192739689101,34.370473537604454,1577395536.0,-27.7131871949033,-51.10377485322415,22.577246
10758,1577395538.0,-0.1187757604087276,0.1159727926114711,11.41634185031798,-0.2972313768340319,-0.0968483769114423,12.461644455625953,-0.2488217871689213,-0.975870757163443,10.425697117056496,-0.900454637480945,-0.2482344464557928,-0.4140342154153964,-3.631777879668445,10.838206221417684,-0.3818418921493902,2.063658179306403,-1.2112129025342986,-2.885771960746952,20.94503162048525,-7.029779313568374,3.0998120802808264,-18.217972883597888,5.869067749778957,-80.76564261059454,36.479078683319855,35.664390331566175,34.34651211549405,1577395538.0,-27.712935387167946,-51.10414656928362,23.201939
10759,1577395538.01,-1.0142071813071647,0.3553929586270951,11.563585252417589,-0.6467848192168438,0.1916529231373848,9.432979355528294,-1.410009592344702,0.7778819589010096,8.091350498404154,1.1899994640815548,3.001887623856707,-0.6581748404153963,-0.2901030749809451,-3.733937333269817,-0.2445127905868902,5.161192358993903,8.9206230349657,-0.6579887576219513,20.862570866073888,-5.660341784951156,1.7713211887318916,-18.5936011904762,0.457329954528231,-20.74401768103691,36.19154161799503,35.856081708449395,34.27462784916285,1577395538.0,-27.712935387167946,-51.10414656928362,23.201939
10760,1577395538.02,-0.2456684483970084,1.2891316060880336,9.60273409274962,-1.1423845628691875,-0.4619641300852704,9.09779112310642,-0.509789768125952,0.0907460824361659,12.345846848501813,-0.0917388171684451,3.459651295731707,-1.0549033560403962,1.7240570812690548,0.2943829792301829,-0.1834776343368902,5.679991187118903,2.7255546755907014,-0.6885063357469513,20.862570866073888,-5.660341784951156,1.7713211887318916,-16.975510022385023,0.457329954528231,-20.74401768103691,36.28738730643664,35.856081708449395,34.562164914487674,1577395538.0,-27.712935387167946,-51.10414656928362,23.201939
10761,1577395538.03,-1.0285723912681022,-0.2670994730135289,8.10156965183165,-0.5725645677520002,-0.4068974919016767,9.650851706602516,0.9147602196670156,0.3493198617330408,12.41049029332603,1.0831879406440548,3.246028248856707,-0.5971396841653963,5.599789503144055,-11.729542802019816,-0.6717588843368902,-1.6442275628810974,-1.4553535275342988,-2.5805961794969514,21.604717655776124,-5.751637620192307,2.7455478425344384,-16.975510022385023,-0.7622165908803841,-20.74401768103691,36.38323299487824,35.52062179890376,34.41839638182526,1577395538.0,-27.712935387167946,-51.10414656928362,23.201939
10762,1577395538.04,-0.5856450841391959,1.993026894173971,9.866096275366806,-0.8909933885527819,1.0403974116627752,10.66240190801853,0.0887606469131099,-1.106354747641958,10.53942169591392,2.8074311047065548,3.154475514481707,0.5014931283346037,-1.9685698718559448,2.293284346417683,-0.2597715796493902,1.6669296636814028,-5.1174629025343,1.0357368283155486,20.69764935725117,-6.208116796398045,3.7197744963369854,-17.871239061864063,-2.5153147499052677,-12.072338158636237,36.28738730643664,35.71231317578699,34.27462784916285,1577395538.0,-27.712935387167946,-51.10414656928362,23.201939
10763,1577395538.05,-0.9615347447837272,0.7432536275724076,10.000171568335556,-1.2309700242949688,-0.9623522770579266,11.075401694395484,-3.385225961973609,-0.2971145865091456,9.496746872915873,2.3191498547065548,-3.162663157393293,0.2573525033346037,-0.3206206531059451,-1.2314959270198171,0.5794618187881098,0.2478622808689026,-6.551789074409299,1.1730659298780486,20.202884830783017,-6.75589180784493,2.8341139019710444,-20.03832544770045,-4.26841290893015,-8.841712454212454,36.52700152754066,35.76023602000779,34.370473537604454,1577395538.0,-27.712935387167946,-51.10414656928362,23.201939
10764,1577395538.06,-2.0078008702720083,0.0465409444669389,9.23881544040587,-1.594888676638719,0.625003423625666,11.436926145079076,1.9777857567763903,6.289334180580697,6.39625572301353,-2.838320848418445,-2.796452219893293,-0.1393760122903963,-1.2971831531059452,0.8742169636051829,0.3353211937881097,2.994444312118903,6.875945300590701,2.8515327267530486,22.017021427832915,-8.034033501221,4.074038734083371,-19.17149089336589,-4.420856227106227,-20.74401768103691,36.52700152754066,35.616467487345375,34.41839638182526,1577395538.0,-27.712935387167946,-51.10414656928362,23.201939
10765,1577395538.07,-0.4539639928306021,1.4339808065274862,9.323809599341416,-1.616436491580125,1.671269549113947,9.811263217832984,-0.0237668311142333,-3.069600108970083,12.185435337271342,0.4270600109565548,-1.2400557355182926,-0.3224814810403963,-2.151675340605945,10.151560713605184,-1.7398741187118902,-1.1559463128810974,13.9865410037157,1.8444526486280488,20.862570866073888,-8.034033501221,3.5426423774638014,-18.651390160765164,-1.829319818112921,-14.282766272189347,36.311348728547046,35.76023602000779,34.370473537604454,1577395538.0,-27.712935387167946,-51.10414656928362,23.201939
10766,1577395538.08,0.1038849939858031,-1.1361946756502477,8.15184788669493,-0.8730368761016095,-1.090442065876286,8.337632096006812,-2.125875888731421,-0.1067755545267242,9.622442460074076,-2.136416551543445,-3.864567454268293,-0.3224814810403963,0.4118012218940548,1.4387921589176829,0.9609315453506098,0.4004501714939026,-0.7229316525342987,-2.5348198123094514,21.027492374896607,-6.573300137362635,1.9484533076050947,-17.784555606430605,7.012392636099534,-84.33633417864188,36.57492437176146,35.784197442118185,34.322550693383654,1577395538.0,-27.712935387167946,-51.10414656928362,23.201939
10767,1577395538.09,-1.5361431432212271,-0.5807398904939977,10.325782994116809,-2.112036235232469,0.3113630061451973,9.31566347418064,0.3904300560927969,2.3389014413228844,7.629269577993998,1.6172455578315548,5.107600514481708,0.5320107064596037,5.508236768769055,-15.666310380144816,-1.8314268530868905,4.978086890243903,-3.1033027462842986,-0.8105766482469513,21.357335392542048,-6.573300137362635,3.7197744963369854,-19.17149089336589,-0.7622165908803841,-4.420856227106225,36.52700152754066,35.616467487345375,34.562164914487674,1577395538.0,-27.712935387167946,-51.10414656928362,23.201939
10768,1577395538.1,-0.4300219762290396,0.5636885030606889,12.66012961276915,1.0004259229706551,1.017652495891291,8.106591635801733,1.7551250023818592,-0.426401476157583,9.604485947622903,-4.791445848418445,-4.017155344893292,-0.0173056997903963,-2.182192918730945,2.491648604230183,0.9456727562881098,3.635313452743903,-0.5398261837842988,-3.1299125857469514,19.87304181313758,-6.75589180784493,3.188378139717421,-17.206665903540905,4.115969590754076,-4.420856227106225,36.479078683319855,35.616467487345375,34.27462784916285,1577395538.0,-27.712935387167946,-51.10414656928362,23.201939
10769,1577395538.11,0.3205602442299446,1.465105428109518,10.362893119849227,-0.6862891466094225,0.9266728328053534,11.896612863829075,-0.949125772764624,0.3397430550924163,11.639557358755717,2.5175141125190548,-5.283634837080792,0.0132118783346036,0.1676605968940547,-5.046193192644816,-0.0614073218368902,-0.7744765863185972,5.090666980278201,-0.1849662966844513,20.61518860283981,-6.664595972603783,2.922679961407635,-16.686565170940174,1.6768764999368455,-15.302963863060016,36.43115583909905,35.71231317578699,34.22670500494204,1577395538.0,-27.712935387167946,-51.10414656928362,23.201939
10770,1577395538.12,-0.7580276036704459,0.6905811910489702,9.454293589819931,-1.2046338060332502,-0.0381904362376142,9.069060703184546,0.8956066063857656,4.5224133553853845,8.737784946646341,-5.584902879668445,-0.2940108136432927,0.4404579720846037,0.8085297375190549,5.238230635480183,1.830682521913109,0.4920029058689026,4.129363269340701,0.1354682736280487,21.687178410187485,-6.208116796398045,2.3027175453514714,-19.63380265567766,-1.981763136288998,-7.141383136094671,36.57492437176146,35.856081708449395,34.46631922604607,1577395538.0,-27.712935387167946,-51.10414656928362,23.201939
10771,1577395538.13,-1.296722977205602,-0.3293487161775913,8.968270652808213,-0.5438341478301252,0.3496702327076973,9.100185324766576,-1.3884617774032957,6.08343283780726,4.598210276236186,-1.1293364734184452,3.520686451981707,1.0202919564596038,-1.0530425281059452,-12.126271317644816,0.0606629906631097,3.726866187118903,10.9042656130907,4.621552258003049,21.027492374896607,-6.573300137362635,3.7197744963369854,-16.39762031949532,-1.981763136288998,-15.302963863060016,36.479078683319855,35.66439033156618,34.27462784916285,1577395538.0,-27.712935387167946,-51.10414656928362,23.201939
10772,1577395538.14,-0.6694421422446646,-0.0659865335604038,7.196561424292588,-0.2613183519316876,-0.572097406452458,8.786544907286109,-1.151435813047827,-1.5804066763528954,8.335559067740093,2.1055268078315548,1.6591141863567074,1.1728798470846038,-4.135317918730945,2.278025557355183,0.6710145531631098,-3.658387719131097,15.0241386599657,3.4924018673780486,21.687178410187485,-6.938483478327226,3.0112460208442324,-17.264454873829877,5.792846090690919,-25.84500563539025,36.33531015065744,35.99985024111181,34.370473537604454,1577395538.0,-27.712935387167946,-51.10414656928362,23.201939
10773,1577395538.15,0.7144064173256472,0.5361551839688931,7.340213523901963,-0.0230952867461407,0.9422351435963692,7.618174497129859,0.4167662743545162,-2.88644368196813,9.60807725011314,3.845028760956555,-9.189884837080792,-0.4140342154153963,0.0761078625190547,-1.9486590129573167,-0.0461485327743902,4.886534155868903,6.433440417778201,-0.9021293826219514,21.192413883719325,-6.938483478327226,3.365510258590609,-17.17777141839642,5.8690677497789565,-55.94083456607495,36.28738730643664,35.71231317578698,34.370473537604454,1577395538.0,-27.712935387167946,-51.10414656928362,23.201939
10774,1577395538.16,-0.0230076940024771,1.147873708138814,9.971441148413682,-0.6779094407988752,-0.4595699284251142,7.709154160215796,-3.8209706641220462,1.991742200600228,10.138392917837749,5.004696729706555,0.7741044207317074,0.0742470345846036,-4.348940965605945,6.092722822980183,1.2203309594131098,7.968809546493903,3.0307304568407014,-3.1604301638719514,20.36780633960573,-6.938483478327226,3.7197744963369854,-17.091087962962966,5.945289408866995,-86.03666349675964,36.28738730643664,35.856081708449395,34.370473537604454,1577395538.0,-27.712935387167946,-51.10414656928362,23.201939
10775,1577395538.17,-0.7628160069907584,-0.4490587991854038,9.878067283667589,-0.953242631716844,0.7758381282155097,11.29566824712986,-0.0357378394150145,0.9670238900533534,10.145575522818216,-2.075381395293445,6.389338795731708,1.3559853158346038,-3.036685106230945,8.778269697980184,0.0606629906631097,0.0037216558689026,-4.995392590034299,-5.266143054496951,21.027492374896607,-6.573300137362635,3.0112460208442324,-16.628776200651203,5.640402772514843,-86.03666349675964,36.38323299487824,35.80815886422859,34.41839638182526,1577395538.0,-27.712935387167946,-51.10414656928362,23.201939
10776,1577395538.18,-0.0481468114341182,-0.0264822061678262,10.70646105808165,0.0331684522675301,0.2922093928639473,11.029911862852517,-1.1945314429306395,-0.4886507193216455,8.891013852896341,-3.494448778105945,1.5217850847942076,0.2268349252096037,2.7616547375190548,1.7897443073551829,-0.6412413062118902,4.581358374618903,2.1762382693407014,-1.4514457888719514,22.18194293665564,-7.121075148809524,1.7713211887318916,-15.761941646316648,2.439093090817229,-4.08079036348267,36.26342588432624,35.95192739689101,34.46631922604607,1577395538.0,-27.712935387167946,-51.10414656928362,23.201939
10777,1577395538.19,0.1469806238686156,0.2404712789395951,9.930739720191024,0.2689973157929207,-0.032204932087224,9.680779227354469,-0.8330069922470458,1.6098670358053064,11.380983579458842,2.9905365734565548,-0.7822920636432926,0.4709755502096037,1.0526703625190548,-0.2396746379573171,0.9609315453506098,-2.605531273818597,5.8993828005907005,0.7000434689405487,20.862570866073888,-6.02552512591575,3.542642377463798,-16.426514804639808,3.887304613489959,-14.792865067624684,36.33531015065744,35.808158864228595,34.32255069338365,1577395538.0,-27.712935387167946,-51.10414656928362,23.201939
10778,1577395538.2,-0.2217264317954459,1.2412475728849086,10.479011900366809,-0.6132659959746564,1.218765435344416,11.228630600645484,2.6721042382217037,2.745915723549447,8.314011252798686,2.0750092297065548,1.811702076981708,0.1963173470846037,2.6395844250190548,6.092722822980183,-0.5191709937118902,2.719786108993903,7.120085925590701,1.6308296017530486,20.69764935725117,-6.938483478327226,2.3027175453514714,-17.322243844118844,-1.6768764999368446,-26.185071499013805,36.38323299487824,35.99985024111181,34.370473537604454,1577395538.0,-27.712935387167946,-51.10414656928362,23.201939
10779,1577395538.21,-0.3031292882407584,1.0832302633145952,11.15896517185118,0.6939681104706551,0.0144820002858223,9.033147678282202,0.553235768983422,0.6102878426900721,6.544696225943217,-3.143496629668445,1.4454911394817074,-0.4140342154153963,4.836850050019055,-7.640187333269817,0.2742860375381097,7.541563452743903,2.5119316287157014,2.0275581173780486,22.017021427832915,-5.842933455433458,2.6569817830978484,-17.322243844118844,-1.0671032272325374,-25.504939771766697,36.479078683319855,35.856081708449395,34.370473537604454,1577395538.0,-27.712935387167946,-51.10414656928362,23.201939
10780,1577395538.22,0.1457835230385384,0.4774972432950639,8.174592802466416,-1.0346454881621563,0.8596351863209785,7.043566098692359,-1.3693081641220457,1.0795513680806972,6.231055808462748,-0.992007371855945,4.771907155106708,0.4557167611471037,-2.517886278105945,3.468211104230183,0.0606629906631097,0.6140732183689026,-1.1806953244092988,2.5463569455030486,22.511785954301075,-7.851441830738705,4.605435090702943,-14.895107091982094,8.994155772388531,-18.023490772048465,36.35927157276784,35.95192739689101,34.27462784916285,1577395538.0,-27.712935387167946,-51.10414656928362,23.201939
10781,1577395538.23,-0.0661033238852896,-0.5951051004549351,8.621111412085556,-0.2038575120879381,0.6190179194752758,9.515579312803686,-1.314241525938452,-1.7420152884134423,8.773697971548685,-0.6105376452934451,0.2858231707317073,-0.3835166372903963,2.7463959484565548,-8.647267411394816,0.8083436547256098,4.337217749618903,4.754973620903201,-1.8329155154344516,22.511785954301075,-5.660341784951156,4.251170852956559,-16.10867546805047,7.469722590627763,-53.73040645252184,36.33531015065744,35.664390331566175,34.32255069338365,1577395538.0,-27.712935387167946,-51.10414656928362,23.201939
10782,1577395538.24,-0.9375927281821648,1.4327837056974086,10.414368455542588,-0.6372080125762188,1.5036754329030098,9.804080612852514,0.0863664452529531,3.6126167245260095,9.599697544302591,0.6712006359565549,5.229670826981708,0.2268349252096037,-0.9309722156059452,-0.2549334270198171,0.7930848656631098,6.320860327743903,-2.9507148556592986,-1.970244616996952,20.53272784842845,-7.121075148809524,3.188378139717421,-17.322243844118844,7.164835954275611,-78.55521449704142,36.479078683319855,35.66439033156618,34.41839638182526,1577395538.0,-27.712935387167946,-51.10414656928362,23.201939
10783,1577395538.25,-0.8753434850181021,0.7145232076505327,11.257127439917587,-0.7186108690215314,-1.2137434513743328,10.74500186529392,-1.582392111875952,2.178489930092416,10.83271139928306,-3.265566942168445,1.5065262957317074,0.5014931283346037,-2.945132371855945,7.496531416730183,0.0301454125381097,3.940489233993903,1.8710624880907007,-1.2378227419969514,21.027492374896607,-7.668850160256409,3.7197744963369854,-19.17149089336589,-1.3719898635846908,-3.0605927726120044,36.28738730643664,35.76023602000779,34.22670500494204,1577395538.0,-27.712935387167946,-51.10414656928362,23.201939
10784,1577395538.26,-0.6000102941001334,-0.2192154398104043,10.860887065161728,-1.0585875047637188,0.3221369136159004,10.367915103819312,0.7615313134170155,0.5408559945455409,8.57258503209556,0.7780121593940548,2.650935475419208,0.1047646127096036,-4.257388231230945,12.043650557355182,0.1979920922256098,2.429869116806403,-0.7381904415967987,-0.0934135623094514,20.69764935725117,-6.938483478327226,2.6569817830978484,-16.628776200651203,1.829319818112921,-3.7407244998591143,36.45511726120945,35.66439033156618,34.27462784916285,1577395538.0,-27.712935387167946,-51.10414656928362,23.201939
10785,1577395538.27,-0.3797437413657584,0.5014392598966264,9.478235606421494,-1.2166048143340311,1.2858030818287909,9.08582011480564,0.0815780419326406,-0.5269579458841456,11.244514084829936,-2.380557176543445,1.2623856707317074,-0.2004111685403963,1.8461273937690548,-6.541554520769817,1.4644715844131098,-3.658387719131097,8.7680351443407,1.0204780392530486,20.69764935725117,-6.938483478327226,2.6569817830978484,-15.93530855718356,0.7622165908803841,-4.420856227106225,36.52700152754066,35.99985024111181,34.562164914487674,1577395538.0,-27.712935387167946,-51.10414656928362,23.201939
10786,1577395538.28,0.1038849939858031,1.138296901498189,8.6953316635504,0.1720321485565926,1.0607481257741034,8.132927854063453,-0.835401193907202,2.9326634530416342,10.317958042349469,1.0068939953315548,3.520686451981707,0.9592568002096036,-2.273745653105945,8.503611494855184,0.6099793969131098,1.0413193121189026,8.8290703005907,2.3937690548780486,20.69764935725117,-6.208116796398045,4.074038734083371,-17.322243844118844,-0.4573299545282303,-3.0605927726120044,36.28738730643664,35.66439033156618,34.41839638182526,1577395538.0,-27.712935387167946,-51.10414656928362,23.201939
10787,1577395538.29,-0.7652102086509146,1.3346214376310024,8.084810240210556,-0.7856485155059064,0.1772877131764473,9.476074985411108,-0.5816158179306395,0.7443631356588222,10.942844675650248,1.4646576672065548,4.283625905106708,0.7151161752096037,-1.1445952624809452,-2.024952958269817,-0.0003721655868902,0.4920029058689026,-11.1294257931593,1.5087592892530486,21.357335392542048,-8.034033501221,2.3027175453514714,-16.802143111518113,5.487959454338766,-25.164873908143136,36.19154161799503,35.76023602000779,34.27462784916285,1577395538.0,-27.712935387167946,-51.10414656928362,23.201939
10788,1577395538.3,-0.7436623937095084,0.890497029672017,9.108331449927354,-0.485176207156297,1.5395884578053534,9.772955991270484,0.8513138756728755,0.1781344430318694,8.61807486363853,-2.762026903105945,0.1942704363567073,0.7761513314596037,-3.784365770293445,-2.772633622332317,0.4879090844131097,-1.2627578363185972,-20.7577216915968,3.5839546017530486,20.69764935725117,-7.303666819291819,3.3655102585906094,-15.241840913715912,5.487959454338766,-23.46454459002536,36.28738730643664,35.80815886422859,34.34651211549405,1577395538.0,-27.712935387167946,-51.10414656928362,23.201939
10789,1577395538.31,-0.8633724767173209,0.7025521993497514,8.903627207983995,-0.3618748216582501,-0.2225439640696454,10.031529770567358,-0.7875171607040771,-0.8358099600443017,11.71377761022056,-0.7326079577934451,-0.9348799542682926,0.8066689095846037,-5.447573778105945,4.505808760480183,0.3658387719131097,-7.595155297256097,-15.1882636837843,-0.1697075076219513,20.69764935725117,-7.303666819291819,3.3655102585906094,-18.940335012210014,4.115969590754076,-79.23534622428853,36.33531015065744,35.80815886422859,34.370473537604454,1577395538.0,-27.712935387167946,-51.10414656928362,23.201939
10790,1577395538.32,-1.833024149080602,-0.0133140970369663,10.241985936011336,-1.1615381761504375,0.174893511516291,9.65324590826267,0.6298502221084219,2.2814406014791344,9.398584604849466,-2.624697801543445,0.8046219988567074,0.4709755502096037,0.3507660656440549,-14.445607255144816,0.2742860375381097,-5.336854516006097,-20.1015937619093,0.4101264767530487,21.19241388371933,-8.58180851266789,2.47984966422466,-17.091087962962966,5.335516136162689,-83.3161365877712,36.33531015065744,35.95192739689101,34.27462784916285,1577395538.0,-27.712935387167946,-51.10414656928362,23.201939
10791,1577395538.33,-0.8490072667563834,0.0249931295255331,11.753924284400007,-1.1735091844512189,0.9865278743092596,12.040264963438451,-2.432333701231421,2.135394300209603,9.192683262076027,-2.945132371855945,-0.1719405011432926,1.3407265267721038,-6.057925340605945,4.475291182355183,0.8541200219131098,-0.6981826410060974,-30.8132636837843,4.560517101753049,20.78011011166253,-7.394962654532965,2.391283604788062,-20.09611441798942,2.896423045345459,1.0201975908706693,36.23946446221584,35.856081708449395,34.27462784916285,1577395538.0,-27.712935387167946,-51.10414656928362,23.201939
10792,1577395538.34,-1.4571344884360709,0.5086218648770952,10.615481394995712,-0.1499879747344225,-0.022628125446599,10.918581485655247,-0.8114591773056401,0.3720647775045252,6.147258750357279,2.2581146984565548,1.7201493426067074,1.5390907845846038,-3.418154832793445,7.786448408917684,0.6252381859756098,-4.467103539443596,-0.0668037228467985,1.7223823361280486,21.522256901364766,-7.486258489774114,3.8969066152101823,-16.28204237891738,1.0671032272325374,-4.420856227106225,36.67077006020308,35.80815886422859,34.32255069338365,1577395538.0,-27.712935387167946,-51.10414656928362,23.201939
10793,1577395538.35,0.2044414637123665,0.5708711080411576,7.696949571265244,0.751428950314405,2.13574467118426,6.622186606504859,-0.5528853980087646,-0.3665464346536768,7.229437900747905,0.7017182140815549,0.5604813738567074,1.2339150033346038,5.325131300019055,-1.6892595988948171,0.7625672875381098,5.618956030868903,19.3881523318407,1.9665229611280488,21.522256901364766,-7.486258489774114,3.8969066152101823,-16.975510022385023,-1.981763136288998,-26.185071499013805,36.28738730643664,35.52062179890376,34.27462784916285,1577395538.0,-27.712935387167946,-51.10414656928362,23.201939
10794,1577395538.36,1.0064990198647104,0.1830104390958451,5.616388328589463,0.9285998731659676,-0.3374656437571454,5.4298741797470464,-0.5289433814072021,1.220809266029916,7.818411509146342,0.3355072765815549,-2.002995188643293,-0.2919639029153963,1.4799164562690548,-5.748097489519817,0.9151551781631098,2.963926733993903,16.4279472537157,0.0439155392530487,21.522256901364766,-6.75589180784493,3.8969066152101823,-17.322243844118844,1.0671032272325378,-25.504939771766697,36.38323299487824,35.76023602000779,34.46631922604607,1577395538.0,-27.712935387167946,-51.10414656928362,23.201939
