,timestamp,acc_x_dashboard,acc_y_dashboard,acc_z_dashboard,acc_x_above_suspension,acc_y_above_suspension,acc_z_above_suspension,acc_x_below_suspension,acc_y_below_suspension,acc_z_below_suspension,gyro_x_dashboard,gyro_y_dashboard,gyro_z_dashboard,gyro_x_above_suspension,gyro_y_above_suspension,gyro_z_above_suspension,gyro_x_below_suspension,gyro_y_below_suspension,gyro_z_below_suspension,mag_x_dashboard,mag_y_dashboard,mag_z_dashboard,mag_x_above_suspension,mag_y_above_suspension,mag_z_above_suspension,temp_dashboard,temp_above_suspension,temp_below_suspension,timestamp_gps,latitude,longitude,speed
13083,1577395561.25,1.0926902796303353,-0.9949367777010288,8.943131535376573,0.597002943234327,-0.0501614445383959,9.267779440977517,-0.3338159461044677,-0.0361466055521148,10.80158677770103,-1.022524949980945,1.4454911394817072,-4.701753941977897,-2.960391160918445,5.375559737042684,-4.501714939024391,1.4533066168064028,3.4122001834032014,-2.3517143435594514,23.83115802488282,-14.60733363858364,3.8969066152101774,-17.929028032153035,-11.5094705222938,-16.493194385742463,36.02381166322221,34.70593344715009,33.891245095396414,1577395561.0,-27.7095470687746,-51.10826831147836,23.503172
13084,1577395561.26,1.1501511194740852,-0.1785140115877476,10.443098875464464,0.8184665967987801,-0.4116858952219892,10.038712375547828,0.5843603905654532,-0.5413231558450831,8.867071836294778,0.0608490734565548,0.8961747332317074,-4.533907262290397,1.9987152843940548,2.216990401105183,-4.7916319312118905,4.367735327743903,8.0356132693407,-2.6721489138719514,24.16100104252826,-14.789925309065936,3.542642377463798,-16.802143111518113,-4.26841290893015,-9.521844181459564,35.95192739689101,34.70593344715009,33.747476562734,1577395561.0,-27.7095470687746,-51.10826831147836,23.503172
13085,1577395561.27,1.3225336390053353,0.4607378316739701,10.895602989233996,1.6277067579315927,-0.0645266544993329,8.001246762754858,-0.8042765723251708,-1.748000792563833,10.083326279654154,0.4575775890815549,0.0111649676067073,-4.961153356040397,3.5245941906440548,-11.210743973894816,-4.6085264624618905,0.9497665777439026,2.4814140505907014,-5.022002429496951,23.501315007237384,-14.789925309065936,3.188378139717421,-16.802143111518113,-3.048866363521536,-25.84500563539025,36.14361877377422,34.70593344715009,33.84332225117561,1577395561.0,-27.7095470687746,-51.10826831147836,23.503172
13086,1577395561.28,0.6784933924233041,0.4918624532560013,8.046503013648056,0.2534350050019051,1.2690436702076973,7.30453407964939,-0.8186417822861083,-0.4647087027200831,7.595750754751811,-0.0307036609184451,3.947932545731707,-4.839083043540397,0.1066254406440548,3.956492354230183,-3.5098936499618905,1.3464950933689026,-10.3970039181593,-6.669951648246951,23.666236516060103,-15.33770032051282,1.9484533076050947,-17.033298992673995,-1.829319818112921,-99.29923217807834,36.14361877377422,34.70593344715009,33.891245095396414,1577395561.0,-27.7095470687746,-51.10826831147836,23.503172
13087,1577395561.29,0.6856759974037728,-0.6429891336580601,6.912848527564072,1.498419868283155,-0.0872715702708178,8.445371170713843,1.639006221864282,-1.5420994497903957,8.306828647818216,-1.159854051543445,4.588801686356708,-4.839083043540397,0.5338715343940549,-2.6658220988948167,-5.2493956030868905,1.3464950933689028,5.090666980278201,-7.265044421684451,24.57330481458505,-15.246404485271672,4.162604793519964,-18.07350045787546,-9.146599090564608,-14.96289799943646,36.095695929553415,34.63404918081888,33.819360829065204,1577395561.0,-27.7095470687746,-51.10826831147836,23.503172
13088,1577395561.3,1.1238149012123666,0.0010511129239701,10.73758567966368,1.23984608898628,0.6537338435475409,10.072231198790014,1.609078701112328,-0.5389289541849268,9.22380788365806,-1.5260649890434452,-3.498356516768293,-5.174776402915397,-1.7244292468559452,-3.489796708269817,-5.1273252905868905,4.489805640243903,-1.3638007931592988,-4.564238757621951,24.16100104252826,-15.155108650030524,4.251170852956559,-18.88254604192104,-16.15899172666414,-23.80461045364892,36.19154161799503,34.61008775870848,34.08293647227963,1577395561.0,-27.7095470687746,-51.10826831147836,23.503172
13089,1577395561.31,1.166910531095179,0.3697581685880326,10.337754002417588,0.0762640821503426,0.6417628352467597,11.463262363340796,0.0432708153701406,0.5001545663228846,10.41133190709556,0.6406830578315549,1.2013505144817074,-4.839083043540397,2.0902680187690548,-8.738820145769816,-4.9137022437118905,3.085997046493903,-4.354523449409299,-3.831816882621952,23.83115802488282,-15.885475331959707,4.251170852956559,-18.88254604192104,-16.15899172666414,-23.80461045364892,36.14361877377422,34.562164914487674,33.939167939617214,1577395561.0,-27.7095470687746,-51.10826831147836,23.503172
13090,1577395561.32,0.945446877530726,-1.4043452615877474,9.111922752417588,1.5032082716034676,-1.8122938664133956,7.517618027403296,1.5157048363662342,-2.7272292715677398,9.175923850454934,-1.5413237781059452,1.6285966082317072,-5.190035191977897,-1.1445952624809452,6.336863447980183,-4.9442198218368905,-0.3014541253810974,-0.2346504025342987,-3.5266411013719514,23.83115802488282,-15.702883661477411,3.3655102585906094,-19.113701923076928,-16.463878363016292,-25.84500563539025,35.999850241111815,34.46631922604607,33.699553718513194,1577395561.0,-27.7095470687746,-51.10826831147836,23.503172
13091,1577395561.33,0.1948646570717415,-0.0013430887361851,10.857295762671493,1.2697736097382333,-0.2788077030833177,10.468471573545877,0.4131749718642818,-1.4140096609720367,10.587305729117045,-2.411074754668445,1.6896317644817074,-4.961153356040397,-2.472109910918445,0.9352521198551828,-5.4019834937118905,-3.109071312881097,-0.4940498165967986,-4.686309070121951,25.975137639578165,-16.43325034340659,4.428302971829755,-17.95792251729752,-9.45148572691676,-17.683424908424907,36.14361877377422,34.65801060292928,34.130859316500434,1577395561.0,-27.7095470687746,-51.10826831147836,23.503172
13092,1577395561.34,0.7910208704506478,-0.0468329202791538,11.072773912085555,-0.0745706224395001,-0.1435353092844892,9.895060275938452,0.8932124047256094,-0.2372595450052393,10.703424509634624,-2.960391160918445,-3.986637766768293,-5.357881871665397,-3.738589403105945,12.287791182355184,-6.1344053687118905,-12.142274437881095,-1.8520820431592988,-2.8552543826219514,23.666236516060103,-15.702883661477411,4.428302971829755,-15.472996794871795,-4.420856227106227,-26.185071499013805,36.14361877377422,34.70593344715009,33.84332225117561,1577395561.0,-27.7095470687746,-51.10826831147836,23.503172
13093,1577395561.35,0.5468123011147104,0.9491549703458452,9.636252915991808,0.8495912183808113,0.6680990535084784,9.756196579649387,1.4893686181045156,0.0835634774556971,6.391467319693217,-0.8851958484184451,0.5909989519817074,-5.083223668540397,0.6254242687690549,-0.5601092082698171,-3.8455870093368905,5.588438452743903,-14.7915351681593,-3.2825004763719514,23.501315007237384,-17.34620869581807,3.188378139717421,-16.39762031949532,-4.115969590754073,-88.07705867850099,36.28738730643664,34.70593344715009,34.03501362805883,1577395561.0,-27.7095470687746,-51.10826831147836,23.503172
13094,1577395561.36,0.6234267542397103,-0.4658182108064976,7.531749656714463,0.8328318067597176,-0.8139117741282391,8.245455332090796,-0.2871290137314208,-1.4391487784036767,9.77208006383384,-2.502627489043445,1.1097977801067074,-5.388399449790397,0.9306000500190548,-5.839650223894817,-3.9676573218368905,0.0037216558689026,-13.5097968869093,-5.571318835746951,23.171471989591947,-15.520291990995116,4.605435090702943,-17.322243844118844,-4.115969590754073,-22.10428113553113,35.856081708449395,34.61008775870848,33.939167939617214,1577395561.0,-27.7095470687746,-51.10826831147836,23.503172
13095,1577395561.37,1.080719271329554,0.1207611959317826,8.75279250339415,1.4720836500214365,-0.5936452213938642,10.94372060308689,2.564365163514672,0.8042181771627284,12.95157986852134,-0.6715728015434451,-0.8433272198932926,-4.900118199790397,0.6254242687690549,-2.330128739519817,-4.4864561499618905,5.435850562118903,-13.3266914181593,-3.953887195121952,24.490844060173693,-14.789925309065936,3.8969066152101823,-19.17149089336589,-14.177228590375142,-3.0605927726120044,35.99985024111181,34.61008775870848,33.84332225117561,1577395561.0,-27.7095470687746,-51.10826831147836,23.503172
13096,1577395561.38,0.7048296106850228,-0.4610298074861851,10.931516014136337,-0.4720080980254376,0.1294036799733223,11.764931772520484,1.2882556786513906,1.951040772377572,12.92763785191978,-1.0377837390434452,-4.352848704268292,-4.839083043540397,6.027035596894055,-13.652150223894816,-4.0897276343368905,-8.663270531631097,-1.5774238400342988,-5.540801257621951,23.666236516060103,-14.607333638583638,3.0112460208442324,-15.93530855718356,-4.420856227106227,-23.46454459002536,36.14361877377422,34.61008775870848,33.699553718513194,1577395561.0,-27.7095470687746,-51.10826831147836,23.503172
13097,1577395561.39,0.5276586878334603,-1.5479973611971225,9.875673082007433,2.108941291622999,-2.0756560490305827,8.657258017637671,1.1829108056045157,-0.1917697134622705,11.81672828160728,-1.3734770984184452,-0.8738447980182926,-5.174776402915397,3.3720063000190548,3.712351729230183,-4.7611143530868905,-4.665467797256097,-29.5315254025343,-1.7261039919969514,23.171471989591947,-15.885475331959707,4.251170852956559,-17.322243844118844,-4.420856227106227,-15.302963863060016,35.99985024111181,34.8017791355917,34.03501362805883,1577395561.0,-27.7095470687746,-51.10826831147836,23.503172
13098,1577395561.4,0.8580585169350228,-1.9574058450838407,9.60273409274962,0.4689131544159676,-1.376549164264958,11.666769504454075,0.7495603051162344,1.127435401283822,9.807993088736186,0.5186127453315549,0.9266923113567074,-4.839083043540397,2.7616547375190548,-7.090870927019817,-4.9747373999618905,-10.280702172256095,-29.1653144650343,-1.3598930544969514,23.83115802488282,-15.520291990995116,3.542642377463798,-17.322243844118844,-18.750528135657447,-26.185071499013805,36.047773085332615,34.70593344715009,33.84332225117561,1577395561.0,-27.7095470687746,-51.10826831147836,23.503172
13099,1577395561.41,0.496534066251429,-0.4730008157869663,11.577950462378524,0.0882350904511238,-1.1060043766673016,10.824010520079078,0.7399834984756094,0.1625721322408534,7.306052353872904,2.6243256359565548,1.0792802019817074,-4.747530309165397,-0.3816558093559451,6.123240401105183,-5.4019834937118905,-0.7287002191310974,-20.8645332150343,0.9289253048780488,24.65576556899641,-14.97251697954823,4.074038734083371,-16.39762031949532,-16.61632168119237,-4.420856227106225,35.99985024111181,34.46631922604607,33.84332225117561,1577395561.0,-27.7095470687746,-51.10826831147836,23.503172
13100,1577395561.42,0.908336751798304,-0.8871977029939976,10.842930552710556,1.1560490308808111,0.031241411906916,10.646839597227515,-1.0053895117782958,-3.529286827720083,10.933267869009622,1.0679291515815548,-2.918522532393293,-4.503389684165397,0.2592133312690549,7.374461104230183,-5.0052549780868905,-5.245301781631097,-18.1789863400343,-2.5195610232469514,25.15053009546457,-14.789925309065936,2.125585426478283,-17.264454873829877,-13.719898635846912,-4.08079036348267,36.047773085332615,34.70593344715009,33.891245095396414,1577395561.0,-27.7095470687746,-51.10826831147836,23.503172
13101,1577395561.43,0.6760991907631478,0.1063959859708451,10.792652317847274,2.008384821896436,0.7710497248951972,9.234260617735329,0.8429341698623282,-1.020163487876333,9.154376035513527,1.7393158703315548,-0.2940108136432927,-5.052706090415397,-4.257388231230945,8.930857588605184,-5.8292295874618905,0.9802841558689026,-12.4416816525343,-5.479766101371951,22.6767074631238,-15.702883661477411,4.782567209576139,-17.264454873829877,-13.719898635846912,-4.08079036348267,36.047773085332615,34.46631922604607,33.891245095396414,1577395561.0,-27.7095470687746,-51.10826831147836,23.503172
13102,1577395561.44,0.3313341517006478,-0.8776208963533725,9.025731492651964,1.536727094845655,-0.2321207707102704,8.911043393614232,-0.1195348975204833,-2.0161513785013327,9.408161411490092,-2.075381395293445,0.4078934832317073,-4.472872106040397,-3.036685106230945,10.761912276105184,-4.6695616187118905,5.008604468368903,-1.5469062619092988,-8.13479539824695,23.99607953370554,-17.893983707264958,4.074038734083371,-17.206665903540905,-4.420856227106227,-23.46454459002536,36.047773085332615,34.61008775870848,33.84332225117561,1577395561.0,-27.7095470687746,-51.10826831147836,23.503172
13103,1577395561.45,1.1645163294350227,-0.3173777078768101,8.214097129858994,1.405046003537061,0.0551834285084785,11.99716933355564,1.2020644188857657,-0.8621461783060206,11.54139509068931,2.8684662609565548,0.9266923113567074,-4.350801793540397,0.2286957531440548,-2.452199052019817,-4.7000791968368905,-1.4916396722560974,-6.673859386909299,-7.707549304496951,23.99607953370554,-17.893983707264958,4.074038734083371,-17.091087962962966,-1.981763136288998,-26.185071499013805,36.047773085332615,34.70593344715009,33.939167939617214,1577395561.0,-27.7095470687746,-51.10826831147836,23.503172
13104,1577395561.46,0.8137657862221321,-0.603484806265482,10.312614884985948,0.7298811353729988,-1.6159693302805829,10.869500351622046,2.221994326112328,-0.3330276114114893,10.7321549295565,4.394345167206555,-2.5828291730182924,-4.518648473227897,-0.3816558093559451,5.634959151105183,-4.5780088843368905,-1.6747451410060974,-7.406281261909299,-5.601836413871951,23.74869727047146,-17.072321190094627,4.516869031266349,-17.091087962962966,-13.872341954022987,-3.740724499859112,36.02381166322221,34.70593344715009,33.891245095396414,1577395561.0,-27.7095470687746,-51.10826831147836,23.503172
13105,1577395561.47,0.956220785001429,-1.2343569437166535,10.986582652319932,0.6353101697968275,-0.2297265690501142,11.30045665045017,-0.0249639319443119,1.8205567818990565,13.32866662999595,1.8308686047065548,-1.6673018292682926,-4.869600621665397,2.7463959484565548,-2.101246903582317,-4.6390440405868905,-6.115052758193597,-6.9332588009718,-0.5969536013719514,24.490844060173693,-15.885475331959707,2.8341139019710444,-16.628776200651203,-11.28080554502968,-8.501646590588896,36.14361877377422,34.562164914487674,33.7235151406236,1577395561.0,-27.7095470687746,-51.10826831147836,23.503172
13106,1577395561.48,0.9322787683998666,-1.5312379495760289,10.438310472144147,0.6796029005097176,-1.3550013493235515,11.317216062071266,-0.3996564917587645,0.4115691048971033,11.627586350454935,4.577450635956555,1.0792802019817074,-4.137178746665397,4.623227003144055,-0.2854510051448171,-4.3643858374618905,-1.5831924066310974,-6.826447277534299,-1.0241996951219514,24.65576556899641,-14.97251697954823,4.428302971829755,-16.166464438339442,-2.591536408993305,-11.902305226824456,35.95192739689101,34.61008775870848,33.939167939617214,1577395561.0,-27.7095470687746,-51.10826831147836,23.503172
13107,1577395561.49,0.4630152430092416,-0.3101951028963414,11.314588279761338,0.5455276075409676,-0.1914193424876142,10.44572665777439,0.6801284569717032,-2.399223644126333,11.764055845083842,4.669003370331555,1.4149735613567074,-4.533907262290397,2.4564789562690548,-1.6892595988948171,-4.4864561499618905,-5.703065453506097,-21.7190254025343,0.0439155392530487,24.65576556899641,-14.97251697954823,4.428302971829755,-17.322243844118844,-16.921208317544526,-9.861910045083125,36.28738730643664,34.70593344715009,33.84332225117561,1577395561.0,-27.7095470687746,-51.10826831147836,23.503172
13108,1577395561.5,0.7227861231361946,0.0405554403165487,10.868069670142196,0.0200003431366712,0.3712180476491035,10.730636655332985,0.6621719445205313,0.0919431832662445,8.178738858999857,2.6853607922065548,-2.643864329268293,-4.381319371665397,5.416684034394055,-2.162282059832317,-3.7540342749618905,1.4227890386814028,-27.5173652462843,-0.7953178591844512,24.16100104252825,-15.33770032051282,4.07403873408337,-17.033298992673995,-8.231939181508148,-26.185071499013805,36.16758019588463,34.46631922604607,33.891245095396414,1577395561.0,-27.7095470687746,-51.10826831147836,23.503172
13109,1577395561.51,0.4725920496498665,-0.4801834207674351,9.169383592261338,0.8304376050995613,-1.3238767277415204,9.535930026915011,0.6130908104873282,-3.426336156333364,8.03628386022056,3.3567475109565548,0.1942704363567073,-4.106661168540397,1.4799164562690548,2.155955244855183,-4.4559385718368905,5.344297827743903,-19.3081367306593,-3.862334460746952,23.501315007237384,-14.789925309065936,3.188378139717421,-17.322243844118844,-3.2013096816976128,-90.11745386024232,36.19154161799503,34.562164914487674,33.84332225117561,1577395561.0,-27.7095470687746,-51.10826831147836,23.503172
13110,1577395561.52,0.448650033048304,-0.5974993021150914,9.617099302710557,0.8998694532440926,0.0144820002858223,10.021952963926733,1.822162648866234,0.2583401986471034,8.263733017935404,0.9763764172065548,-2.613346751143293,-4.167696324790397,2.4259613781440548,6.855662276105183,-4.6085264624618905,-1.4916396722560974,-13.4182441525343,-7.677031726371951,24.16100104252826,-15.885475331959707,3.542642377463798,-17.322243844118844,-3.2013096816976128,-90.11745386024232,36.14361877377422,34.61008775870848,33.747476562734,1577395561.0,-27.7095470687746,-51.10826831147836,23.503172
13111,1577395561.53,1.099872884610804,-0.0037372903963413,11.436692564429306,0.7322753370331551,-0.4236569035227704,10.91259598150486,1.060806520936547,0.8975920419088221,9.724196030630717,0.3355072765815549,-7.038395579268292,-4.442354527915397,2.9447602062690548,-1.9028826457698167,-3.9371397437118905,4.123594702743903,0.3757011599657012,-4.228545398246951,24.32592255135097,-14.242150297619048,3.7197744963369854,-17.322243844118844,-4.420856227106227,-91.47771731473654,36.28738730643664,34.8017791355917,33.939167939617214,1577395561.0,-27.7095470687746,-51.10826831147836,23.503172
13112,1577395561.54,0.8281309961830696,-0.3006182962557164,11.44148096774962,-0.5186950303984845,-0.7325089176829266,11.329187070372043,1.962223445985375,0.7635167489400722,12.166281723990092,3.7839936047065543,-3.0100752667682924,-3.9235556997903966,7.110409620331556,-5.839650223894816,-3.7692930640243913,0.3851913824314027,-9.3441474728468,-3.4045707888719514,24.903147832230488,-14.698629473824786,3.808340555773584,-17.206665903540905,-3.2013096816976128,-100.99956149619612,36.21550304010543,34.681972025039684,34.08293647227963,1577395561.0,-27.7095470687746,-51.10826831147836,23.503172
13113,1577395561.55,0.7934150721108041,-1.1170410623689977,10.945881224097274,1.8934631422089363,-0.3039468205149579,10.357141196348609,0.8549051781631094,-0.1606450918802393,10.353871067251813,2.8684662609565548,-2.521794016768293,-4.015108434165397,7.674984815644055,-9.806935380144816,-4.9442198218368905,9.250547827743905,-10.7021796994093,-0.9326469607469512,23.99607953370554,-16.43325034340659,3.7197744963369854,-16.744354141229145,-17.835868226600983,-11.222173499577346,36.19154161799503,34.46631922604607,33.747476562734,1577395561.0,-27.7095470687746,-51.10826831147836,23.503172
13114,1577395561.56,0.4055544031654916,-0.633412327017435,11.891590879858994,-0.9197238084746564,-0.0334020329173017,11.319610263731422,2.114255251405297,-1.0608649160989894,11.287609714712747,3.6619232922065534,-3.223698313643293,-3.893038121665396,2.9142426281440548,-0.010792802019817,-3.3573057593368905,6.900694312118903,-19.8574531369093,-1.2988578982469514,23.501315007237384,-15.520291990995116,3.8969066152101823,-15.877519586894593,-18.293198181129217,-14.96289799943646,36.14361877377422,34.70593344715009,33.747476562734,1577395561.0,-27.7095470687746,-51.10826831147836,23.503172
13115,1577395561.57,1.4362582178627572,-0.2898443887850132,11.040452189673449,1.3906807935761238,-0.7588451359446454,12.025899753477514,1.5683772728896717,1.1513774178853846,11.15832282506431,4.211239698456555,-3.467838938643293,-3.526827184165396,3.799252393769055,1.0573224323551829,-4.2423155249618905,-0.5150771722560974,-4.446076183784299,-3.4045707888719514,24.32592255135097,-16.798433684371187,3.7197744963369854,-16.859932081807084,-4.115969590754073,-26.185071499013805,36.11965735166382,34.70593344715009,34.08293647227963,1577395561.0,-27.7095470687746,-51.10826831147836,23.503172
13116,1577395561.58,0.9586149866615852,0.8988767354825639,11.168541978491806,1.5379241956757332,0.514870147258479,10.45171216192478,1.0703833275771717,-1.66061243196813,9.58174103185142,6.286435010956555,-1.5147139386432926,-3.832002965415396,1.8919037609565548,2.079661299542683,-3.7235166968368905,10.303404273056405,-3.1185615353467986,-3.1146537966844514,23.171471989591947,-16.61584201388889,1.7713211887318916,-17.062193477818482,-4.192191249842112,-57.30109802056917,36.14361877377422,34.63404918081888,33.91520651750682,1577395561.0,-27.7095470687746,-51.10826831147836,23.503172
13117,1577395561.59,0.8460875086342415,0.3889117818692826,9.473447203101182,1.4265938184784677,-0.5146365666087079,7.685212143614233,1.6593569359756093,0.8832268319478846,11.380983579458842,2.5938080578315548,-0.6602217511432926,-3.740450231040396,4.195980909394055,6.672556807355183,-4.3949034155868905,2.414610327743903,1.7184745974657012,-5.632353991996951,24.16100104252826,-15.885475331959707,4.959699328449328,-17.322243844118844,-3.2013096816976128,-88.7571904057481,36.047773085332615,34.70593344715009,33.939167939617214,1577395561.0,-27.7095470687746,-51.10826831147836,23.503172
13118,1577395561.6,1.2219771692787729,-0.1162647684236851,8.015378392066024,0.76100575695503,-0.5385785832102704,10.091384812071263,-0.3254362402939208,-0.8932707998880518,12.31472222691978,4.852108839081555,-0.0803877667682926,-4.045626012290397,0.9916352062690548,8.320506026105184,-2.7774717749618905,0.1563095464939026,5.960417956840701,-6.669951648246951,25.31545160428729,-16.068067002442003,2.3027175453514714,-19.17149089336589,-12.95768204496653,-26.185071499013805,36.19154161799503,34.70593344715009,33.747476562734,1577395561.0,-27.7095470687746,-51.10826831147836,23.503172
13119,1577395561.61,0.9227019617592416,-0.320969010367045,11.68928083957579,0.0164090406464363,-0.2752164005930829,12.842322519590796,1.6497801293349843,-0.7759549185403956,11.65631677037681,4.775814893769055,-3.0405928448932924,-3.679415074790396,3.5245941906440548,-5.137745927019817,-3.7845518530868905,0.7971786871189026,-2.8896796994092986,-5.937529773246951,24.16100104252826,-16.2506586729243,4.251170852956559,-16.28204237891738,-4.115969590754073,-3.0605927726120044,36.11965735166382,34.753856291370894,33.699553718513194,1577395561.0,-27.7095470687746,-51.10826831147836,23.503172
13120,1577395561.62,0.419919613126429,-0.2599168680330601,12.202837095679309,1.1823852491425302,-0.7205379093821459,10.209897794249,1.3397310143447498,0.211653266274057,11.40731979772056,2.1970795422065548,-0.7822920636432926,-3.465792027915396,4.409603956269055,0.6453351276676829,-3.9371397437118905,9.403135718368905,-3.973053722846799,-2.7637016482469514,24.98560858664185,-14.97251697954823,4.428302971829755,-16.802143111518113,-10.823475590501452,-14.96289799943646,35.856081708449395,34.65801060292928,33.7953994069548,1577395561.0,-27.7095470687746,-51.10826831147836,23.503172
13121,1577395561.63,1.0256526331459603,-1.081128037466654,9.293882078589464,0.1169655103729988,-0.7277205143626141,10.843164133360329,-0.7276621192001708,-0.9890388662943018,10.13121031285728,5.859188917206555,1.811702076981708,-3.099581090415396,5.019955518769055,-7.640187333269817,-3.2657530249618905,3.604795874618903,6.418181628715701,-3.0993950076219514,23.99607953370554,-13.876966956654456,4.428302971829755,-17.322243844118844,-17.226094953896677,-10.542041772330233,36.19154161799503,34.753856291370894,33.891245095396414,1577395561.0,-27.7095470687746,-51.10826831147836,23.503172
13122,1577395561.64,0.7814440638100227,-0.4083573709627476,11.28106945651915,0.4880667676972176,0.605849810344416,11.44171454839939,1.3481107201552966,0.8880152352681971,11.673076181997905,5.950741651581555,-1.6673018292682926,-3.587862340415396,3.1583832531440548,5.238230635480183,-3.7235166968368905,2.017881812118903,8.7069999880907,-3.648711413871952,23.83115802488282,-16.61584201388889,3.8969066152101823,-15.472996794871795,-16.311435044840216,-13.942700408565791,36.19154161799503,34.70593344715009,33.939167939617214,1577395561.0,-27.7095470687746,-51.10826831147836,23.503172
13123,1577395561.65,1.3069713282143196,0.2153321615079545,10.7639218979254,1.5235589857147958,-0.0537527470286303,10.172787668516577,0.9219428246474848,-1.9622818411478171,11.189447446646342,3.7229584484565543,-1.8351485089557928,-3.435274449790396,2.4717377453315548,1.5150861042301833,-2.8995420874618905,4.566099585556403,8.6154472537157,-3.831816882621952,23.171471989591947,-15.520291990995116,6.022492041688465,-15.472996794871795,-14.787001863079448,-26.185071499013805,36.11965735166382,34.442357803935664,33.91520651750682,1577395561.0,-27.7095470687746,-51.10826831147836,23.503172
13124,1577395561.66,0.9227019617592416,-0.0588039285799351,8.654630235327744,0.2630118116425301,0.1341920832936348,8.776968100645483,-0.4978187598251708,-1.5612530630716457,8.845524021353372,3.7534760265815534,2.757746998856707,-3.770967809165396,0.4118012218940549,11.799509932355184,-4.3949034155868905,0.0037216558689026,4.953337878715701,-5.662871570121951,25.15053009546457,-15.520291990995116,4.251170852956559,-16.744354141229145,-4.420856227106227,-91.47771731473654,36.14361877377422,34.46631922604607,33.699553718513194,1577395561.0,-27.7095470687746,-51.10826831147836,23.503172
13125,1577395561.67,0.3409109583412728,0.1542800191739701,8.994606871069932,1.543909699826124,-0.8761610172923016,6.100250644590797,0.8237805565810782,-1.623502306235708,9.379430991568215,2.5632904797065548,2.116877858231707,-3.435274449790396,4.257016065644055,-6.358449052019817,-4.1812803687118905,0.4920029058689026,12.7048027224657,-6.273223132621951,24.490844060173693,-15.155108650030524,3.542642377463798,-18.70917913105413,-4.420856227106227,-26.185071499013805,35.95192739689101,34.562164914487674,33.84332225117561,1577395561.0,-27.7095470687746,-51.10826831147836,23.503172
13126,1577395561.68,1.2483133875404917,-0.2024560281893101,10.160583079566026,1.057886762814405,-0.2177555607493329,8.84879415045017,1.072777529237328,-0.426401476157583,8.900590659536967,0.5491303234565549,-4.810612376143292,-3.862520543540396,2.2123383312690548,-4.191701005144817,-2.1671202124618905,4.917051733993903,0.4062187380907012,-5.540801257621951,23.00655048076923,-16.068067002442003,3.3655102585906094,-19.05591295278796,-13.872341954022987,-3.740724499859112,36.28738730643664,34.562164914487674,34.08293647227963,1577395561.0,-27.7095470687746,-51.10826831147836,23.503172
13127,1577395561.69,1.2578901941811165,0.7264942159513139,11.882014073218368,1.2302692823456551,0.8201308589284003,11.827181015684546,1.1769253014541248,0.125462006508432,11.35704156285728,2.3496674328315548,-2.552311594893293,-3.801485387290396,0.4118012218940548,5.161936690167683,-4.532232517149391,1.8805527105564028,0.986052722465701,-4.136992663871951,24.82068707781913,-14.424741968101342,3.542642377463798,-16.628776200651203,-3.658639636225844,-11.902305226824456,36.28738730643664,34.63404918081888,33.891245095396414,1577395561.0,-27.7095470687746,-51.10826831147836,23.503172
13128,1577395561.7,0.8065831812416634,-0.2323835489412637,10.115093248023056,2.539897590451124,-1.4531636173899578,8.764997092344702,1.388812148377953,-0.091213243735708,9.77926266881431,1.2357758312690548,0.7893632097942075,-3.572603551352896,-0.6563140124809451,11.433298994855184,-2.6859190405868905,-0.4845595941310974,15.0241386599657,-1.2988578982469514,23.336393498414665,-16.068067002442003,3.3655102585906094,-15.761941646316648,-4.26841290893015,-11.5622393632009,35.999850241111815,34.370473537604454,33.747476562734,1577395561.0,-27.7095470687746,-51.10826831147836,23.503172
13129,1577395561.71,0.6353977625404915,-0.0013430887361851,9.820606443823838,0.3037132398651863,-0.0597382511790204,10.689935227110327,1.328957106874047,-1.700116759360708,8.704266123404155,1.6477631359565548,0.4384110613567073,-3.587862340415396,5.660824659394055,-19.78618342701981,-2.9300596655868905,1.5296005621189026,11.2399589724657,-3.679228991996952,23.83115802488282,-15.520291990995116,3.8969066152101823,-16.859932081807084,-17.835868226600983,-26.185071499013805,36.14361877377422,34.70593344715009,33.891245095396414,1577395561.0,-27.7095470687746,-51.10826831147836,23.503172
13130,1577395561.72,1.559559603360804,-0.0348619119783726,9.8062412338629,1.1704142408417488,0.2634789729420723,10.122509433653295,0.3856416527724844,0.3325604501119471,8.716237131704936,-1.6481353015434452,-4.047672923018292,-3.770967809165396,1.3273285656440548,3.254588057355183,-3.2352354468368905,7.572081030868903,6.814910144340701,-4.136992663871951,23.501315007237384,-15.520291990995116,4.251170852956559,-17.206665903540905,-4.420856227106227,-15.302963863060016,36.19154161799503,34.562164914487674,33.84332225117561,1577395561.0,-27.7095470687746,-51.10826831147836,23.503172
13131,1577395561.73,1.347672756436976,0.6151638387540483,9.158609684790637,1.5606691114472178,0.2574934687916821,8.392698734190406,1.5061280297256092,-0.4371753836282862,10.838696903433451,3.4330414562690548,0.6825516863567073,-3.587862340415396,-4.333682176543444,7.176096846417684,-3.7692930640243913,-0.7439590081935974,6.418181628715701,-4.976226062309451,24.57330481458505,-16.341954508165447,3.808340555773587,-14.86621260683761,-2.515314749905267,-17.173326112989574,35.97588881900141,34.514242070266874,33.84332225117561,1577395561.0,-27.7095470687746,-51.10826831147836,23.503172
13132,1577395561.74,0.5707543177162728,-0.0659865335604038,8.410421665991807,2.690732295040968,-0.600827826374333,6.7227430762314215,0.7567429100967031,-1.690539952720083,10.119239304556498,-5.584902879668445,1.2013505144817074,-4.167696324790397,0.5033539562690549,3.437693526105183,-5.5545713843368905,-7.351014672256097,25.3390800662157,-6.242705554496951,24.16100104252826,-16.981025354853482,4.605435090702943,-15.357418854293858,-3.2013096816976128,-24.824808044519585,36.047773085332615,34.94554766825411,33.84332225117561,1577395561.0,-27.7095470687746,-51.10826831147836,23.503172
13133,1577395561.75,1.4613973352943976,-0.0971111551424351,6.669837059058213,1.3739213819550302,-0.8881320255930829,8.025188779356421,0.8836355980849844,-0.7544071035989893,10.823134592642436,-1.3429595202934452,1.5675614519817074,-4.015108434165397,-3.799624559355945,-2.177540848894817,-3.0826475562118905,-8.907411156631097,16.0007011599657,-6.822539538871951,24.16100104252826,-16.981025354853482,4.605435090702943,-15.357418854293858,-3.2013096816976128,-24.824808044519585,35.95192739689101,34.41839638182526,33.939167939617214,1577395561.0,-27.7095470687746,-51.10826831147836,23.503172
13134,1577395561.76,1.071142464688929,0.1159727926114701,9.933133921851182,0.85677382336128,-0.976717487018864,13.041041257383764,1.5109164330459215,-0.5939955923685205,8.912561667837746,0.1829193859565548,-1.3926436261432926,-4.137178746665397,0.8390473156440549,-8.128468583269816,-3.5098936499618905,12.271788062118905,0.1010429568407012,-4.533721179496951,23.83115802488282,-16.2506586729243,3.542642377463798,-19.17149089336589,-12.34790877226222,-4.420856227106225,36.047773085332615,34.8017791355917,33.891245095396414,1577395561.0,-27.7095470687746,-51.10826831147836,23.503172
13135,1577395561.77,0.3756268824135384,0.1219582967618607,11.346910002173448,1.0076085279511238,2.0399766047780097,13.548612009336887,2.6098549950576406,0.2846764169088221,9.570967124380717,-3.631777879668445,-1.8351485089557928,-4.106661168540397,3.646664503144055,-21.83086116139481,-4.8221495093368905,3.452207983993903,4.007292956840701,-5.083037585746951,24.90314783223049,-14.516037803342492,3.808340555773587,-17.322243844118844,-4.420856227106227,-3.0605927726120044,35.80815886422859,34.562164914487674,34.08293647227963,1577395561.0,-27.7095470687746,-51.10826831147836,23.503172
13136,1577395561.78,0.7622904505287728,-0.3078009012361851,8.66420704196837,2.017961628537061,-1.4052795841868329,8.514803018858375,1.1829108056045154,-0.2803551748880523,8.724616837515482,-1.9227935046684448,-0.4465987042682927,-4.289766637290397,-2.746768114043445,1.9270734089176829,-4.1812803687118905,3.559019507431403,8.1119072146532,-3.2519828982469514,24.490844060173693,-14.789925309065936,4.605435090702943,-17.322243844118844,-3.81108295440192,-14.622832135812905,35.99985024111181,34.65801060292928,33.98709078383802,1577395561.0,-27.7095470687746,-51.10826831147836,23.503172
13137,1577395561.79,1.0064990198647104,-0.75791081334556,8.4271810776129,0.0451394605683113,0.8931540095631659,10.756972873594702,1.1900934105849843,-0.0265697989114893,8.907773264517434,-0.7936431140434451,-0.9348799542682926,-3.923555699790396,-5.539126512480945,4.872019697980183,-4.8831846655868905,-0.7592177972560974,8.6459648318407,-4.411650866996951,24.490844060173693,-14.789925309065936,4.605435090702943,-17.322243844118844,-17.226094953896677,-25.504939771766697,35.95192739689101,34.61008775870848,33.84332225117561,1577395561.0,-27.7095470687746,-51.10826831147836,23.503172
13138,1577395561.8,1.6984232996498665,-0.6022877054354039,10.723220469702744,2.808048176388624,-0.5313959782298017,8.118562644102514,1.2116412255263906,-0.330633409751333,9.403373008169778,-4.120059129668445,-4.291813548018292,-4.167696324790397,-3.921694871855945,8.106882979230184,-5.4935362280868905,-4.421327172256097,10.1718437380907,-4.045439929496951,24.65576556899641,-14.97251697954823,4.428302971829755,-17.264454873829877,-4.26841290893015,-12.242371090448014,36.047773085332615,34.70593344715009,33.699553718513194,1577395561.0,-27.7095470687746,-51.10826831147836,23.503172
13139,1577395561.81,1.6206117456947884,0.6618507711270952,8.59956359714415,0.8268463026093275,0.2167920405690259,8.079058316709936,-0.6666099768661864,-1.9610847403177392,7.729826047720561,0.2744721203315548,1.0640214129192072,-4.274507848227897,-3.463931199980945,1.4387921589176829,-3.7692930640243913,0.8887314214939028,10.5533134646532,-5.754424304496951,24.078540288116898,-15.79417949671856,4.516869031266349,-16.22425340862841,-3.81108295440192,-58.83139440687517,36.16758019588463,34.58612633659808,33.7953994069548,1577395561.0,-27.7095470687746,-51.10826831147836,23.503172
13140,1577395561.82,1.2483133875404917,-0.8967745096346226,7.033755711401962,1.8551559156464363,-0.7923639591868329,5.824917453672827,1.226006435487328,-2.0879774283060204,6.920585886587748,-2.868838426543445,2.513606373856707,-4.717012731040397,-6.363101121855945,14.485056807355184,-6.0733702124618905,-2.651307641006097,6.631804675590701,-8.56204149199695,21.522256901364766,-15.520291990995116,3.8969066152101823,-16.975510022385023,-4.115969590754073,-91.47771731473654,36.047773085332615,34.562164914487674,33.84332225117561,1577395561.0,-27.7095470687746,-51.10826831147836,23.503172
13141,1577395561.83,1.684058089688929,-0.0444387186189976,8.163818894995712,2.149642719845655,0.0647602351491035,7.663664328672827,2.236359536073265,-0.5820245840677393,9.463228049673685,-3.357119676543445,1.872737233231708,-4.717012731040397,-2.121157762480945,-6.602589677019817,-5.2799131812118905,-2.498719750381097,11.0873710818407,-7.677031726371951,21.522256901364766,-15.520291990995116,3.8969066152101823,-17.264454873829877,-3.658639636225843,-23.1244787264018,36.14361877377422,34.61008775870848,33.939167939617214,1577395561.0,-27.7095470687746,-51.10826831147836,23.503172
13142,1577395561.84,1.1441656153236943,-0.3640646402498574,9.886446989478134,0.2869538282440926,-0.2273323673899579,10.78330909185642,1.1996702172256093,-0.2324711416849268,9.752926450552591,-2.700991746855945,-0.6754805402057927,-5.113741246665397,-4.898257371855945,1.3319806354801829,-4.6085264624618905,4.123594702743903,2.9696953005907014,-6.578398913871951,23.253932744003308,-15.428996155753968,3.631208436900392,-19.576013685388688,-15.24433181760768,-3.40065863623556,36.095695929553415,34.562164914487674,34.08293647227963,1577395561.0,-27.7095470687746,-51.10826831147836,23.503172
13143,1577395561.85,0.5300528894936165,-1.1266178690096225,11.01291887058165,0.9824694105194832,-0.2524714848215986,11.015546652891578,1.7539279015517817,0.202076459633432,10.8087693826815,-5.066104051543445,-0.1719405011432926,-4.594942418540397,1.0068939953315548,-9.455983231707316,-4.776373142149391,-0.9118056878810972,0.6198417849657014,-4.716826648246951,23.00655048076923,-14.607333638583638,4.074038734083371,-19.37375228937729,-17.45475993116079,-24.31470924908425,35.95192739689101,34.70593344715009,33.7714379848444,1577395561.0,-27.7095470687746,-51.10826831147836,23.503172
13144,1577395561.86,0.4510442347084603,-0.5160964456697789,10.66815383151915,1.6372835645722177,-0.7516625309641766,10.12011523199314,0.5699951806045157,-0.8501751700052392,8.967628306021341,-6.958193895293445,-0.1109053448932926,-5.266329137290397,-5.905337449980945,9.724314619855184,-6.2869932593368905,5.710508765243903,-12.5637519650343,-3.0993950076219514,23.501315007237384,-15.885475331959707,2.47984966422466,-19.17149089336589,-18.44564149930529,-26.185071499013805,35.99985024111181,34.61008775870848,34.08293647227963,1577395561.0,-27.7095470687746,-51.10826831147836,23.503172
13145,1577395561.87,0.372035579923304,-0.6956615701814975,10.438310472144147,1.084222981076124,-0.6056162296946455,10.958085813047829,2.056794411561546,0.6892964974752285,10.11205669957603,-4.913516160918445,-1.7588545636432926,-4.900118199790397,-5.020327684355945,-1.4451189738948171,-4.7611143530868905,-0.4235244378810974,11.4840995974657,-4.869414538871951,23.501315007237384,-15.885475331959707,2.47984966422466,-16.859932081807084,-16.006548408488065,-7.141383136094671,35.99985024111181,34.562164914487674,33.699553718513194,1577395561.0,-27.7095470687746,-51.10826831147836,23.503172
13146,1577395561.88,0.8664382227455697,-0.2275951456209512,10.197693205298446,0.6748144971894051,1.2858030818287909,12.602902353575171,2.224388527772484,-0.2324711416849268,12.25007878209556,-2.090640184355945,-2.445500071455793,-4.945894566977897,-1.9685698718559448,-5.717579911394817,-5.4935362280868905,-3.627870141006097,-4.262970715034299,-3.801299304496952,24.078540288116898,-15.976771167200855,3.631208436900396,-17.264454873829877,-15.854105090311986,-6.121185545224005,36.23946446221584,34.94554766825411,33.939167939617214,1577395561.0,-27.7095470687746,-51.10826831147836,23.503172
13147,1577395561.89,1.0112874231850228,0.0034453145841264,8.376902842749619,2.1903441480683115,0.4789571223561347,8.104197434141577,0.4012039635635005,-1.3816879385599268,8.652790787710796,-3.601260301543445,-1.1485030011432926,-5.388399449790397,-3.982730028105945,3.5445050495426838,-5.3409483374618905,-1.4000869378810972,-4.6291816525343,-5.189849109184451,23.171471989591947,-15.520291990995116,4.605435090702943,-16.10867546805047,-2.591536408993305,-23.46454459002536,35.95192739689101,34.58612633659808,33.891245095396414,1577395561.0,-27.7095470687746,-51.10826831147836,23.503172
13148,1577395561.9,1.6242030481850227,-0.9183223245760288,6.7129326889410255,-0.6611500291777814,-0.1626889225657392,8.764997092344702,-0.5050013648056395,0.1098996957174159,8.539066208853374,0.2134369640815548,0.5604813738567074,-5.052706090415397,-3.555483934355945,-8.464161942644816,-5.0662901343368905,-0.3930068597560974,-7.223175793159299,-6.059600085746951,24.65576556899641,-17.16361702533578,3.7197744963369854,-19.17149089336589,-14.177228590375142,-19.38375422654269,36.19154161799503,34.562164914487674,33.65163087429239,1577395561.0,-27.7095470687746,-51.10826831147836,23.503172
13149,1577395561.91,1.760672542813929,-0.5137022440096226,8.601957798804307,1.5199676832245614,0.146163091594416,10.615714975645483,1.3433223168349842,-0.0193871939310206,8.330770664419779,0.0303314953315548,-0.4465987042682927,-4.594942418540397,2.0597504406440548,-14.720265458269816,-5.4935362280868905,-1.4306045160060974,0.7113945193407012,-6.761504382621951,24.65576556899641,-17.16361702533578,3.7197744963369854,-19.17149089336589,-14.177228590375142,-19.38375422654269,36.047773085332615,34.562164914487674,33.891245095396414,1577395561.0,-27.7095470687746,-51.10826831147836,23.503172
13150,1577395561.92,1.1896554468666634,-0.3461081277986851,10.739979881323835,0.3599769788788582,-0.4332337101633954,10.150042752745092,1.695269960877953,0.3349546517721039,8.9424891885897,-1.434512254668445,-2.8574873761432924,-5.235811559165397,0.1676605968940547,-4.832570145769817,-4.654302829649391,0.9345077886814028,8.3865654177782,-4.686309070121951,23.74869727047146,-15.063812814789376,4.162604793519964,-16.59988171550672,-9.680150704180877,-20.914050612848687,36.11965735166382,34.63404918081888,33.93916793961722,1577395561.0,-27.7095470687746,-51.10826831147836,23.503172
13151,1577395561.93,1.1405743128334602,-1.58151618443931,8.889261998023057,1.8743095289276863,-1.6949779850657392,9.78732120123142,0.9003950097060781,-3.5915360708841453,9.532659897818217,-0.6105376452934451,-0.8738447980182926,-4.869600621665397,-2.823062059355945,8.228953291730184,-5.7376768530868905,-4.451844750381097,-0.6008613400342988,-4.991484851371951,24.32592255135097,-13.876966956654456,4.428302971829755,-16.802143111518113,-23.171384362763675,-14.282766272189347,36.19154161799503,34.61008775870848,33.891245095396414,1577395561.0,-27.7095470687746,-51.10826831147836,23.503172
13152,1577395561.94,0.8460875086342415,-1.0140903909822787,10.225226524390244,1.7905124708222178,0.1485572932545723,10.08180800543064,0.5771777855849844,-1.192546007407583,6.583003452505717,-0.1527739734184451,1.0487626238567074,-5.052706090415397,-3.738589403105945,7.557566572980183,-5.4325010718368905,-4.207704125381097,7.333708972465701,-5.907012195121951,23.99607953370554,-16.068067002442003,4.428302971829755,-15.877519586894593,-17.988311544777062,-24.484742180896028,35.99985024111181,34.70593344715009,34.03501362805883,1577395561.0,-27.7095470687746,-51.10826831147836,23.503172
13153,1577395561.95,1.0926902796303353,-0.4083573709627476,11.187695591773055,1.6492545728729988,0.2491137629811348,9.380306919004855,0.687311061952172,0.3995980965963221,8.94847469274009,-3.418154832793445,-2.155583079268293,-5.449434606040397,2.2123383312690548,-2.848927567644817,-5.4935362280868905,5.618956030868903,-2.9201972775342986,-3.953887195121952,23.99607953370554,-16.068067002442003,4.428302971829755,-15.877519586894593,-17.378538272072756,-24.484742180896028,35.99985024111181,34.46631922604607,33.747476562734,1577395561.0,-27.7095470687746,-51.10826831147836,23.503172
13154,1577395561.96,1.4075277979408822,-0.2072444315096231,8.418801371802353,1.2673794080780771,-0.0968483769114428,10.449317960264624,0.032496907899438,-1.3086647879251612,9.802007584585796,2.2581146984565548,-0.2634932355182926,-4.945894566977897,1.6477631359565548,-6.236378739519817,-4.135504001524391,4.108335913681403,-0.3262031369092988,-5.449248523246951,24.325922551350978,-15.702883661477411,2.656981783097852,-16.59988171550672,-14.558336885815333,-15.132930931248238,36.311348728547046,34.58612633659808,33.891245095396414,1577395561.0,-27.7095470687746,-51.10826831147836,23.503172
13155,1577395561.97,0.2355660852943978,-0.5591920755525913,9.976229551733994,0.8615622266815925,0.1796819148366035,9.394672128965794,2.0448234032607653,0.2224271737447596,7.978823020376811,-2.685732957793445,1.2013505144817074,-4.991670934165397,-1.7854644031059452,1.7592267292301829,-7.1109678687118905,8.365538062118903,-5.575226574409299,-5.968047351371951,24.16100104252826,-16.2506586729243,4.251170852956559,-18.362445309320314,-4.420856227106227,-23.46454459002536,36.047773085332615,34.562164914487674,33.939167939617214,1577395561.0,-27.7095470687746,-51.10826831147836,23.503172
13156,1577395561.98,0.927490365079554,-0.2359748514314976,8.2356449448004,2.0873934766815925,-0.0860744694407392,7.946180124571265,0.2611431664443594,-0.3162681997903955,8.414567722525248,-3.112979051543445,0.3773759051067073,-4.930635777915397,0.5338715343940549,-6.175343583269817,-5.4630186499618905,-6.313417016006097,7.913542956840701,-7.799102038871951,24.82068707781913,-15.885475331959707,3.8969066152101823,-19.17149089336589,-12.95768204496653,-24.824808044519585,36.14361877377422,34.61008775870848,33.891245095396414,1577395561.0,-27.7095470687746,-51.10826831147836,23.503172
13157,1577395561.99,1.5535740992104137,-0.3437139261385288,9.58956598361876,0.99084911633003,-0.2369091740305829,11.788873789122048,0.8644819848037344,1.261510694252572,8.728208140005718,0.8543061047065548,-3.4373213605182924,-4.991670934165397,2.4259613781440548,-8.738820145769816,-3.8761045874618905,6.870176733993903,-2.2488105587842986,-5.571318835746951,24.82068707781913,-15.885475331959707,3.8969066152101823,-19.17149089336589,-12.95768204496653,-24.824808044519585,36.07173450744301,34.61008775870848,33.84332225117561,1577395561.0,-27.7095470687746,-51.10826831147836,23.503172
13158,1577395562.0,0.8365107019936165,0.1399148092130326,10.493377110327744,1.0638722669647958,0.0946877559010571,10.109341324522436,1.9406756310439688,0.1290533089986664,9.554207712759622,-0.4274321765434451,-0.8738447980182926,-4.686495152915397,2.4107025890815548,-4.298512528582316,-5.752935642149391,2.811338843368903,-0.4482734494092988,-4.579497546684451,23.99607953370554,-15.33770032051282,4.428302971829755,-16.22425340862841,-9.603929045092835,-14.962897999436462,35.99985024111181,34.72989486926049,33.891245095396414,1577395562.0,-27.70934506709652,-51.1083430105317,23.613302
13159,1577395562.01,1.3153510340248664,-1.0907048441072789,8.391268052710556,1.4433532300995615,-0.7612393376048017,8.271791550352514,-0.8928620337509521,-1.5875892813333643,11.146351816763527,-4.516787645293445,-2.796452219893293,-5.296846715415397,-0.3511382312309451,-4.771534989519817,-4.1812803687118905,-2.773377953506097,6.692839831840701,-4.594756335746951,23.501315007237384,-15.155108650030524,4.959699328449328,-16.859932081807084,-19.0554147720096,-26.185071499013805,36.047773085332615,34.70593344715009,33.891245095396414,1577395562.0,-27.70934506709652,-51.1083430105317,23.613302
13160,1577395562.02,1.2866206141029914,-0.8967745096346226,8.180578306616805,1.285335920529249,-1.2376854679758953,9.071454904844702,-0.136294309141577,0.3948096932760096,10.452033335318216,3.7229584484565534,0.8961747332317074,-4.808565465415397,-1.0225249499809452,1.0878400104801829,-4.5169737280868905,4.245665015243903,-0.1736152462842987,-4.472686023246951,24.65576556899641,-15.702883661477411,4.074038734083371,-16.166464438339442,-4.420856227106227,-9.861910045083125,36.14361877377422,34.70593344715009,33.891245095396414,1577395562.0,-27.70934506709652,-51.1083430105317,23.613302
13161,1577395562.03,1.1920496485268195,-0.6992528726717319,10.804623326148056,1.476872053341749,0.2108065364186348,11.084978501036108,1.1972760155654532,-0.3521812246927393,11.86700651647056,-1.0835601062309452,-3.162663157393293,-4.854341832602897,-0.6868315906059451,4.414256026105183,-5.6461241187118905,-3.994081078506097,8.7985527224657,-4.075957507621951,24.65576556899641,-15.702883661477411,4.074038734083371,-17.033298992673995,-3.963526272577997,-9.521844181459564,36.047773085332615,34.562164914487674,33.891245095396414,1577395562.0,-27.70934506709652,-51.1083430105317,23.613302
13162,1577395562.04,0.9107309534584602,0.2428654805997513,9.13586476901915,0.51200878429878,0.3951600642506659,10.213489096739233,0.2084707299209224,-0.402459459556021,8.864677634634623,0.6406830578315549,0.1637528582317073,-4.686495152915397,0.8085297375190548,-3.367726395769817,-4.6085264624618905,1.2396835699314028,2.7102958865282014,-4.594756335746951,23.666236516060103,-15.702883661477411,4.428302971829755,-16.39762031949532,-3.2013096816976123,-47.60922090729783,35.99985024111181,34.65801060292928,33.84332225117561,1577395562.0,-27.70934506709652,-51.1083430105317,23.613302
13163,1577395562.05,0.3552761683022103,-0.6717195535799351,7.943552342261338,1.1656258375214363,-1.366972357624333,6.804145932676734,1.2331890404677968,-2.3657048208841456,11.237331479849466,2.6853607922065548,2.055842701981707,-4.686495152915397,6.637387159394055,-6.785695145769817,-5.0052549780868905,-12.081239281631095,15.9091484255907,-8.62307664824695,25.48037311311001,-15.520291990995116,4.959699328449328,-18.53581222018722,-4.26841290893015,-25.84500563539025,35.99985024111181,34.562164914487674,33.939167939617214,1577395562.0,-27.70934506709652,-51.1083430105317,23.613302
13164,1577395562.06,1.071142464688929,-0.8967745096346226,8.372114439429307,0.1385133253144051,0.7183772883717597,9.995616745665014,1.791038027284203,0.1960909554830409,9.005935532583841,0.0913666515815548,0.4384110613567073,-4.655977574790397,2.7006195812690548,-11.271779130144816,-3.7540342749618905,4.978086890243903,6.570769519340701,-6.242705554496951,24.16100104252826,-15.885475331959707,4.959699328449328,-19.113701923076928,-3.963526272577997,-25.164873908143136,35.99985024111181,34.61008775870848,33.939167939617214,1577395562.0,-27.70934506709652,-51.1083430105317,23.613302
13165,1577395562.07,1.186064144376429,-0.8608614847322787,10.25874534763243,1.936558772091749,-0.6295582462962078,9.660428513243138,0.7519545067763906,0.3565024667135096,9.28126872350181,0.9000824718940548,-2.6591231183307924,-4.152437535727897,-0.1985503406059451,3.407175947980183,-5.2493956030868905,1.1633896246189026,-8.7795722775343,-4.991484851371951,24.32592255135097,-15.702883661477411,3.7197744963369854,-19.113701923076928,-3.963526272577997,-25.164873908143136,35.99985024111181,34.70593344715009,33.84332225117561,1577395562.0,-27.70934506709652,-51.1083430105317,23.613302
13166,1577395562.08,0.8101744837318978,-0.1378125833650913,9.9211629135504,0.3911016004608895,0.016876201945979,9.680779227354469,0.6106966088271724,0.1087025948873382,10.69265060216392,2.5632904797065548,0.3773759051067073,-4.015108434165397,2.6090668468940548,-5.153004716082317,-3.6624815405868905,-1.1712051019435972,3.1222831912157014,-2.9620659060594514,24.65576556899641,-14.97251697954823,4.428302971829755,-18.246867368742368,-3.2013096816976123,-18.023490772048465,35.80815886422859,34.681972025039684,33.939167939617214,1577395562.0,-27.70934506709652,-51.1083430105317,23.613302
13167,1577395562.09,0.5707543177162728,-0.9542353494783724,9.878067283667589,1.038733149533155,-1.2376854679758953,8.844005747129858,0.3018445946670157,-1.7408181875833642,9.652369980826029,-2.594180223418445,-2.674381907393293,-4.045626012290397,2.9142426281440548,-3.489796708269817,-5.3409483374618905,1.0718368902439026,4.037810534965701,-2.6111137576219514,23.99607953370554,-16.068067002442003,4.782567209576139,-17.322243844118844,-17.835868226600983,-26.185071499013805,35.95192739689101,34.61008775870848,33.891245095396414,1577395562.0,-27.70934506709652,-51.1083430105317,23.613302
13168,1577395562.1,0.8628469202553353,-0.5280674539705601,10.742374082983993,1.314066340451124,0.4071310725514473,9.13609834966892,1.2284006371474845,0.4666357430806971,9.887001743521342,-1.0377837390434452,-3.132145579268293,-4.167696324790397,-0.7478667468559451,4.200632979230183,-3.7540342749618905,-1.9799209222560967,4.434539050590701,-4.014922351371951,23.00655048076923,-15.33770032051282,4.782567209576139,-15.704152676027675,-4.420856227106227,-15.302963863060016,36.047773085332615,34.753856291370894,33.747476562734,1577395562.0,-27.70934506709652,-51.1083430105317,23.613302
13169,1577395562.11,1.4003451929604134,-0.2934356912752481,10.48978580783751,0.6125652540253426,0.0025109919850415,10.707891739561498,0.281493880555688,-0.028964000571646,11.048189548697122,0.5796479015815548,-1.8809248761432928,-4.045626012290397,0.5491303234565549,-0.4227801067073171,-3.7387754858993913,1.2854599371189026,-2.6760566525342986,-3.7250053591844514,23.00655048076923,-14.607333638583638,3.3655102585906094,-16.16646443833944,-3.963526272577997,-23.46454459002536,36.14361877377422,34.514242070266874,34.03501362805883,1577395562.0,-27.70934506709652,-51.1083430105317,23.613302
13170,1577395562.12,0.9586149866615852,-0.4346935892244664,10.663365428198835,0.9262056715058112,-1.120369586628239,5.815340647032203,-0.1698131323837645,-2.1669860830911767,10.358659470572125,0.1524018078315548,-0.1109053448932926,-3.832002965415396,3.3720063000190548,1.0573224323551829,-5.0968077124618905,4.093077124618903,2.2067558474657014,-4.808379382621951,24.32592255135097,-18.259167048229543,4.074038734083371,-16.744354141229145,-4.420856227106227,-90.11745386024232,35.80815886422859,34.562164914487674,33.891245095396414,1577395562.0,-27.70934506709652,-51.1083430105317,23.613302
13171,1577395562.13,1.3153510340248664,0.1351264058927201,9.21247922214415,0.981272309689405,0.5723309871022285,8.76739129400486,-0.279946408750952,1.6517655648580407,10.818346189322122,1.5867279797065548,1.2013505144817074,-4.076143590415397,2.2733734875190548,-6.175343583269817,-2.9605772437118905,4.642393530868903,-0.3872382931592988,-6.120635241996951,22.84162897194652,-16.2506586729243,3.8969066152101823,-18.362445309320314,-4.420856227106227,-26.185071499013805,35.95192739689101,34.41839638182526,33.891245095396414,1577395562.0,-27.70934506709652,-51.1083430105317,23.613302
13172,1577395562.14,1.147756917813929,-0.6310181253572787,9.54527325290587,0.8088897901581551,-0.5433669865305829,11.578184043028296,2.0639770165420157,0.7850645638814784,10.375418882193216,1.8003510265815548,-1.4841963605182928,-3.8014853872903966,5.660824659394055,-8.677784989519816,-3.9066221655868905,-0.3930068597560974,-10.4275214962843,-4.106475085746951,22.6767074631238,-14.97251697954823,3.542642377463798,-18.998123982498985,-14.024785272199066,-18.36355663567202,36.047773085332615,34.61008775870848,34.08293647227963,1577395562.0,-27.70934506709652,-51.1083430105317,23.613302
13173,1577395562.15,1.0472004480873665,0.2476538839200638,9.178960398901964,1.449338734249952,0.026453008586604,9.94055010748142,0.7579400109267813,-0.923198320640005,10.021077036490093,2.5632904797065548,1.872737233231708,-3.862520543540396,-1.068301317168445,12.547190596417682,-3.8303282202743913,3.497984351181403,-6.2008369259718,-1.9397270388719516,22.84162897194652,-15.155108650030524,3.542642377463798,-18.13128942816443,-9.756372363268914,-20.0638859537898,35.856081708449395,34.753856291370894,33.86728367328601,1577395562.0,-27.70934506709652,-51.1083430105317,23.613302
13174,1577395562.16,0.7886266687904916,-1.0093019876619662,8.683360655249619,0.4425769361542488,-1.2568390812571453,9.792109604551731,-1.0221489233993897,0.0308910409322596,10.468792746939313,2.3191498547065548,-0.2024580792682926,-3.770967809165396,0.1676605968940548,1.1793927448551829,-3.9981748999618905,-2.407167016006097,-6.002472668159299,-1.909209460746952,23.171471989591947,-15.155108650030524,3.8969066152101823,-17.322243844118844,-17.530981590248835,-15.302963863060016,35.99985024111181,34.753856291370894,33.84332225117561,1577395562.0,-27.70934506709652,-51.1083430105317,23.613302
13175,1577395562.17,0.726377425626429,-1.1745019022127474,9.25796905368712,0.885504243283155,-0.1555063175852704,11.60691446295017,0.4071894677138907,-1.633079112876333,10.906931650747904,5.920224073456555,1.933772389481708,-3.069063512290396,-0.2901030749809451,0.5385236042301829,-2.4112608374618905,-9.548280297256095,-2.4013984494092986,-3.648711413871952,24.16100104252826,-15.155108650030524,3.188378139717421,-17.322243844118844,-18.750528135657447,-11.222173499577346,36.14361877377422,34.562164914487674,34.08293647227963,1577395562.0,-27.70934506709652,-51.1083430105317,23.613302
13176,1577395562.18,0.9969222132240853,-0.5304616556307163,11.035663786353137,1.646860371212843,0.5914846003834785,11.757749167540014,1.5300700463271717,-0.5437173575052393,9.76010905553306,3.2194184093940548,-1.4689375714557926,-3.389498082602896,1.9681977062690548,1.1488751667301829,-4.4864561499618905,-2.407167016006097,-8.7490546994093,-3.1909477419969514,22.841628971946516,-15.885475331959707,3.188378139717421,-17.322243844118844,-18.750528135657447,-11.222173499577346,36.047773085332615,34.70593344715009,33.26824812052595,1577395562.0,-27.70934506709652,-51.1083430105317,23.613302
13177,1577395562.19,0.745531038907679,0.3266625387052201,10.268322154273056,1.1069678968476082,0.0432124202076977,10.827601822569312,1.0284847985244374,0.1996822579732757,9.764897458853373,4.363827589081555,1.3844559832317074,-3.526827184165396,1.7850922375190548,1.7439679401676829,-3.0979063452743905,6.076719702743903,-11.6482246212843,-1.1462700076219514,22.511785954301075,-16.61584201388889,3.188378139717421,-16.39762031949532,-7.469722590627764,-26.185071499013805,36.28738730643664,34.58612633659808,33.963129361727624,1577395562.0,-27.70934506709652,-51.1083430105317,23.613302
13178,1577395562.2,0.5516007044350228,-0.6286239236971225,9.178960398901964,0.8208607984589363,-1.666247565143864,9.330028684141576,2.6242202050185783,-1.7551833975443016,8.38823150426353,2.0139740734565548,2.238948170731707,-3.069063512290396,9.536557081269056,-7.975880692644817,-2.8079893530868905,3.482725562118903,-14.9136054806593,-3.2825004763719514,22.84162897194652,-14.059558627136752,2.8341139019710444,-17.322243844118844,-4.420856227106227,-96.23863940546632,35.95192739689101,34.70593344715009,33.699553718513194,1577395562.0,-27.70934506709652,-51.1083430105317,23.613302
13179,1577395562.21,1.569136410001429,-0.4490587991854038,9.076009727515244,1.89106894054878,1.170881402141291,9.638880698301731,0.6825226586318595,0.0763808724752284,9.712225022329935,4.943661573456555,1.5065262957317074,-3.465792027915396,0.8390473156440549,11.250193526105184,-3.1436827124618905,0.2173447027439026,-12.4111640744093,-3.923369616996952,22.511785954301075,-18.07657537774725,2.47984966422466,-17.322243844118844,-4.420856227106227,-24.14467631727247,36.047773085332615,34.70593344715009,33.84332225117561,1577395562.0,-27.70934506709652,-51.1083430105317,23.613302
13180,1577395562.22,1.3428843531166634,-0.268296573843607,9.96545564426329,1.6827733961151865,-0.2752164005930829,10.385871616270483,1.3457165184951403,-0.5868129873880518,10.222189975943216,2.8684662609565548,-0.8585860089557926,-3.282686559165396,-1.2056304187309452,9.937937666730184,-3.6929991187118905,-5.428407250381097,-9.3288886837843,-2.4280082888719514,24.57330481458505,-15.976771167200855,4.694001150139542,-17.091087962962966,-15.396775135783756,-4.420856227106225,36.047773085332615,34.8017791355917,33.747476562734,1577395562.0,-27.70934506709652,-51.1083430105317,23.613302
13181,1577395562.23,0.8269338953529916,-0.3628675394197789,12.119040037573836,1.5690488172577646,-0.5086510624583173,11.354326187803686,1.2571310570693592,0.6426095651021816,10.3215493448397,2.6853607922065548,0.4384110613567073,-3.191133824790396,4.226498487519055,1.0725812214176829,-2.3502256812118905,-0.3014541253810974,-18.3163154415968,-1.3598930544969514,24.65576556899641,-14.97251697954823,4.428302971829755,-15.704152676027675,-10.213702317797146,-19.72382009016624,36.28738730643664,34.65801060292928,33.74747656273399,1577395562.0,-27.70934506709652,-51.1083430105317,23.613302
13182,1577395562.24,0.5037166712318978,-0.8776208963533725,11.132628953589462,1.6755907911347176,-0.5266075749094892,11.808027402403296,-1.132282199766577,-2.6051249868997703,9.326758555044778,0.0303314953315548,1.2013505144817074,-3.069063512290396,5.966000440644055,1.4845685261051829,-3.6929991187118905,-7.381532250381097,-22.1767890744093,-1.1157524294969514,25.15053009546457,-16.981025354853482,4.605435090702943,-16.744354141229145,-16.61632168119237,-13.942700408565791,36.047773085332615,34.562164914487674,33.84332225117561,1577395562.0,-27.70934506709652,-51.1083430105317,23.613302
13183,1577395562.25,0.4462558313881478,-0.3724443460604039,11.0320724838629,-0.0482344041777813,0.1964413264576973,10.778520688536108,1.1110847557998282,0.3445314584127283,9.930097373404154,2.6243256359565548,-0.4771162823932927,-3.038545934165396,2.6090668468940548,1.4845685261051829,-2.5028135718368905,12.149717749618905,-8.1692207150343,-1.2073051638719514,24.82068707781913,-15.520291990995116,4.251170852956559,-17.091087962962966,-18.750528135657447,-24.824808044519585,36.19154161799503,34.562164914487674,33.891245095396414,1577395562.0,-27.70934506709652,-51.1083430105317,23.613302
13184,1577395562.26,0.9203077600990852,-0.5328558572908726,10.449084379614852,1.294912727169874,-0.4930887516673022,11.444108750059549,0.2755083764052974,-0.9926301687845368,10.7046216104647,3.9670990734565543,0.4231522722942073,-2.931734410727896,4.531674268769055,-4.084889481707317,-2.4417784155868905,-7.289979516006096,4.434539050590701,-1.7413627810594514,24.57330481458505,-16.524546178647743,3.454076318027208,-16.253147893772898,-4.192191249842112,-47.779253839109614,36.02381166322221,34.634049180818884,33.699553718513194,1577395562.0,-27.70934506709652,-51.1083430105317,23.613302
13185,1577395562.27,1.0448062464272103,-0.3030124979158726,10.3808496323004,0.9405708814667488,0.050395025188166,9.693947336485326,0.5460531640029532,-0.7759549185403956,6.690742527212748,3.6314057140815534,0.8046219988567074,-3.587862340415396,4.897885206269055,-8.372609208269816,-3.2962706030868905,-5.428407250381097,10.8127128787157,-3.923369616996952,24.490844060173693,-16.981025354853482,2.8341139019710444,-15.415207824582827,-4.26841290893015,-91.137651451113,36.047773085332615,34.70593344715009,33.747476562734,1577395562.0,-27.70934506709652,-51.1083430105317,23.613302
13186,1577395562.28,1.1046612879311166,-0.1952734232088413,9.830183250464463,2.31244843273628,-0.5313959782298017,7.87914247808689,0.2300185448623282,-0.5676593741068018,10.49512896520103,1.5867279797065548,0.0722001238567073,-2.885958043540396,3.4330414562690548,3.254588057355183,-2.5028135718368905,4.825498999618903,0.8944999880907012,-5.540801257621951,23.83115802488282,-17.34620869581807,4.959699328449328,-15.299629884004888,-4.26841290893015,-87.73699281487744,35.95192739689101,34.61008775870848,33.939167939617214,1577395562.0,-27.70934506709652,-51.1083430105317,23.613302
13187,1577395562.29,0.9370671717201792,0.2404712789395956,9.413592161597276,0.4497595411347176,0.7614729182545722,11.25736102056736,-1.0125721167587645,-1.7144819693216455,9.410555613150247,3.0820893078315548,-1.0569502667682928,-2.992769566977896,2.7921723156440548,-8.769337723894816,-2.1366026343368905,-2.864930687881097,3.702117175590701,-6.547881335746951,23.583775761648745,-16.70713784913004,3.808340555773587,-15.299629884004888,-4.26841290893015,-87.73699281487744,36.14361877377422,34.70593344715009,33.747476562734,1577395562.0,-27.70934506709652,-51.1083430105317,23.613302
13188,1577395562.3,1.1980351526772102,-0.6597485452791538,10.438310472144147,1.2075243665741708,-0.1914193424876142,10.764155478575171,0.6083024071670157,0.283479316078744,10.631598459829936,3.4177826672065548,0.7741044207317074,-3.099581090415396,1.2357758312690548,5.879099776105184,-3.1436827124618905,6.778623999618904,-4.8733222775343,-3.7250053591844514,22.84162897194652,-15.885475331959707,4.605435090702943,-16.51319826007326,-4.115969590754073,-7.1413831360946745,36.047773085332615,34.72989486926049,33.50786234162997,1577395562.0,-27.70934506709652,-51.1083430105317,23.613302
13189,1577395562.31,0.3911891932045541,-0.2311864481111851,12.6792832260504,1.9916254102753423,-1.376549164264958,10.92456698980564,2.0735538231826403,1.6996495980611657,8.225425791372905,-0.3969145984184451,-0.3855635480182927,-3.282686559165396,1.9071625500190548,6.001170088605183,-3.4488584937118905,4.215147437118903,-2.2488105587842986,0.3490913205030487,22.84162897194652,-15.885475331959707,4.605435090702943,-15.819730616605618,-3.81108295440192,-9.861910045083125,35.99985024111181,34.70593344715009,33.891245095396414,1577395562.0,-27.70934506709652,-51.1083430105317,23.613302
13190,1577395562.32,0.6545513758217415,-0.7842470316072788,11.151782566870711,1.2518170972870617,0.4095252742116035,11.25736102056736,0.1534040917373282,-2.7008930533060203,10.770462156119,-0.9462310046684452,0.1942704363567073,-3.008028356040396,2.3344086437690548,-4.710499833269817,-3.5098936499618905,4.947569312118903,5.716277331840701,0.2575385861280487,22.84162897194652,-15.885475331959707,4.605435090702943,-17.148876933251934,-23.171384362763675,-9.521844181459564,36.19154161799503,34.562164914487674,33.747476562734,1577395562.0,-27.70934506709652,-51.1083430105317,23.613302
13191,1577395562.33,0.8233425928627571,0.2249089681485795,10.71962916721251,1.2829417188690926,1.0942669490162908,12.47600966558689,0.3521228295302969,-1.5636472647318018,10.018682834829937,2.4107025890815548,0.1790116472942073,-3.374239293540396,-0.6257964343559451,2.857859541730183,-3.3573057593368905,3.482725562118903,-0.8144843869092988,-3.4045707888719514,23.83115802488282,-15.702883661477411,3.011246020844229,-17.206665903540905,-4.420856227106227,-12.582436954071568,36.11965735166382,34.8017791355917,33.939167939617214,1577395562.0,-27.70934506709652,-51.1083430105317,23.613302
13192,1577395562.34,0.5923021326576791,0.5708711080411576,8.82940695651915,1.907828352169874,0.0791254451100415,9.382701120665017,1.5049309288955317,0.0560301583639007,9.412949814810403,5.218319776581555,3.184993092606707,-2.763887731040396,1.7087982922065548,8.045847822980184,-3.0521299780868905,3.482725562118903,-1.8673408322217997,-2.7789604373094514,24.32592255135097,-16.068067002442003,3.7197744963369854,-17.091087962962966,-4.115969590754073,-61.89198717948718,35.856081708449395,34.562164914487674,33.819360829065204,1577395562.0,-27.70934506709652,-51.1083430105317,23.613302
13193,1577395562.35,0.3600645716225228,-0.2024560281893101,7.902850914038681,0.9932433179901864,0.414313677531916,8.834428940489232,-0.2176971655868895,-3.407182543052114,7.710672434439311,2.6853607922065548,4.405696217606708,-3.313204137290396,0.8390473156440549,1.3319806354801829,-3.9676573218368905,-5.367372094131097,8.4628593630907,-5.693389148246951,24.32592255135097,-16.068067002442003,3.7197744963369854,-17.264454873829877,-2.4390930908172286,-97.93896872358413,36.14361877377422,34.70593344715009,33.699553718513194,1577395562.0,-27.70934506709652,-51.1083430105317,23.613302
13194,1577395562.36,0.7479252405678353,-0.1952734232088413,7.665824949683213,1.7713588575409676,0.1533456965748848,9.753802377989231,0.8285689599013907,-0.7855317251810205,8.632440073599467,2.0750092297065548,2.818782155106707,-2.580782262290396,0.0761078625190548,-2.147023270769817,-4.5474913062118905,6.595518530868903,11.8808281130907,-5.815459460746951,24.32592255135097,-16.068067002442003,3.7197744963369854,-17.206665903540905,-4.420856227106227,-26.185071499013805,36.14361877377422,34.61008775870848,33.939167939617214,1577395562.0,-27.70934506709652,-51.1083430105317,23.613302
13195,1577395562.37,1.050791750577601,0.440387117562642,9.802649931372663,0.7777651685761243,-0.1734628300364428,9.887877670957984,0.6837197594619374,0.3960067941060882,10.419711612906108,0.564389112519055,-4.001896555830792,-3.9388144888528966,-0.2443267077934451,2.827341963605183,-3.1284239233993905,-0.1946426019435971,4.754973620903201,-4.777861804496951,23.996079533705544,-16.981025354853482,3.8969066152101774,-18.91144052706553,-11.35702720411772,-12.412404022259793,36.02381166322221,34.53820349237728,33.91520651750682,1577395562.0,-27.70934506709652,-51.1083430105317,23.613302
13196,1577395562.38,0.4582268396889291,-0.2982240945955601,9.961864341773056,0.3037132398651863,-0.6678654728587079,10.59177295904392,1.226006435487328,0.3229836434713221,10.260497202505716,0.8848236828315549,1.5370438738567074,-3.496309606040396,-1.2361479968559452,11.219675947980184,-4.1507627905868905,-2.163026391006097,-2.9507148556592986,-2.6416313357469514,23.666236516060103,-17.16361702533578,3.3655102585906094,-17.264454873829877,-4.26841290893015,-20.40395181741336,36.047773085332615,34.562164914487674,33.891245095396414,1577395562.0,-27.70934506709652,-51.1083430105317,23.613302
13197,1577395562.39,0.2978153284584603,-0.5998935037752476,10.883631980933211,1.3930749952362802,-1.1921956364329267,9.13609834966892,-0.1698131323837645,-1.0225576895364892,11.208601059927592,-2.258486864043445,0.4689286394817073,-3.679415074790396,2.5175141125190548,3.956492354230183,-4.5474913062118905,-4.848573266006097,-1.0891425900342988,-2.0007621951219514,23.666236516060103,-16.068067002442003,4.428302971829755,-16.339831349206353,-3.963526272577997,-23.1244787264018,36.047773085332615,34.70593344715009,33.891245095396414,1577395562.0,-27.70934506709652,-51.1083430105317,23.613302
13198,1577395562.4,0.3289399500404916,-0.1713314066072788,11.35768390964415,-0.4145472581816876,0.9003366145436347,10.991604636290017,-0.4331753150009521,0.3948096932760096,9.788839475454935,-0.9462310046684452,-0.0803877667682926,-3.496309606040396,-2.212710496855945,-6.816212723894817,-2.9605772437118905,5.069639624618903,3.0612480349657014,-2.6721489138719514,23.666236516060103,-16.068067002442003,4.428302971829755,-16.339831349206353,-3.963526272577997,-23.1244787264018,36.047773085332615,34.46631922604607,33.747476562734,1577395562.0,-27.70934506709652,-51.1083430105317,23.613302
13199,1577395562.41,0.8879860376869759,-0.2120328348299351,9.935528123511338,0.8412115125702646,-0.3649989628489423,8.780559403135719,0.9578558495498282,-0.7005375662454743,8.42653873082603,1.0679291515815548,-0.1719405011432926,-3.435274449790396,-1.617617723418445,4.261668135480183,-3.2810118140243905,-2.040956078506097,4.4497978396532005,-1.8481743044969516,24.325922551350978,-16.2506586729243,4.251170852956562,-16.39762031949532,-4.26841290893015,-8.841712454212455,36.16758019588463,34.70593344715009,33.939167939617214,1577395562.0,-27.70934506709652,-51.1083430105317,23.613302
13200,1577395562.42,0.6066673426186165,0.8653579122403764,9.368102330054308,1.3164605421112805,1.1349683772389472,8.815275327207983,1.609078701112328,-3.0265044790872704,8.404990915884623,-0.6410552234184451,0.5909989519817074,-3.923555699790396,-3.860659715605945,0.9047345417301828,-5.0052549780868905,-0.6066299066310974,-0.7229316525342988,-4.167510241996951,24.32592255135097,-16.798433684371187,3.0112460208442324,-17.322243844118844,-2.896423045345459,-99.63929804170188,35.95192739689101,34.8017791355917,33.891245095396414,1577395562.0,-27.70934506709652,-51.1083430105317,23.613302
13201,1577395562.43,0.8029918787514291,0.2715959005216264,7.981859568823838,0.5167971876190925,0.3903716609303535,7.967727939512671,0.9003950097060781,0.0117374276510096,10.863836020865092,-3.631777879668445,-1.6062666730182926,-4.076143590415397,2.0597504406440548,-6.846730302019817,-2.8079893530868905,-4.238221703506097,2.8781425662157014,-5.815459460746951,23.666236516060103,-14.97251697954823,4.428302971829755,-17.322243844118844,-2.896423045345459,-99.63929804170188,36.047773085332615,34.562164914487674,33.891245095396414,1577395562.0,-27.70934506709652,-51.1083430105317,23.613302
13202,1577395562.44,0.6988441065346321,-0.4346935892244664,8.786311326636337,0.5574986158417489,-0.6630770695383954,10.531917917540015,0.2587489647842032,-0.1223378653177393,7.748979661001811,-0.7020903796684451,-1.5147139386432928,-3.557344762290396,-4.104800340605945,-0.5601092082698171,-3.3267881812118905,-2.468202172256097,0.2536308474657012,-6.761504382621951,23.501315007237384,-15.520291990995116,4.251170852956562,-19.51822471509972,-1.6768764999368446,-90.79758558748944,35.999850241111815,34.562164914487674,33.699553718513194,1577395562.0,-27.70934506709652,-51.1083430105317,23.613302
13203,1577395562.45,0.7910208704506478,0.2668074972013138,11.838918443335556,1.0507041578339364,-0.3913351811106615,10.916187283995091,0.1414330834365469,-0.5904042898782866,10.774053458609233,-1.1598540515434452,-2.430241282393293,-4.076143590415397,-0.7173491687309452,-5.259816239519817,-4.3033506812118905,-8.739564476943595,7.0743095584032005,-5.983306140434451,23.666236516060103,-16.798433684371187,3.3655102585906094,-18.13128942816443,-11.433248863205758,-4.420856227106225,35.856081708449395,34.53820349237728,33.891245095396414,1577395562.0,-27.70934506709652,-51.1083430105317,23.613302
13204,1577395562.46,0.6665223841225228,-0.3006182962557163,9.760751402319933,0.3085016431854988,-1.4004911808665204,9.93576170416111,0.9458848412490468,1.1154643929830408,10.021077036490093,-2.258486864043445,-1.5757490948932926,-3.770967809165396,-1.4802886218559452,1.6676739948551829,-4.4864561499618905,-5.642030297256097,0.1315605349657012,-3.0688774294969514,24.16100104252826,-16.61584201388889,4.605435090702943,-16.802143111518113,-18.293198181129217,-13.602634544942235,36.28738730643664,34.562164914487674,33.939167939617214,1577395562.0,-27.70934506709652,-51.1083430105317,23.613302
13205,1577395562.47,0.6234267542397103,-1.2128091287752476,9.33458350681212,0.4689131544159676,-1.4507694157298017,10.527129514219702,0.0241172020888906,-1.815038439048208,11.306763327993998,-0.9157134265434452,0.7435868426067074,-3.740450231040396,1.4493988781440548,-6.816212723894817,-3.1131651343368905,-3.048036156631097,-2.5539863400342986,-2.5500786013719514,24.32592255135097,-17.16361702533578,5.136831447322516,-16.859932081807084,-19.0554147720096,-13.942700408565791,35.95192739689101,34.61008775870848,34.08293647227963,1577395562.0,-27.70934506709652,-51.1083430105317,23.613302
13206,1577395562.48,0.5444180994545541,-0.364064640249857,11.114672441138293,-0.0721764207793438,0.1150384700123848,10.586984555723609,0.9075776146865469,0.1769373422017909,9.628427964224466,-1.236147996855945,-1.0264326886432928,-3.801485387290396,-1.5108061999809452,-1.4146013957698171,-4.3338682593368905,1.0108017339939026,6.753874988090701,-2.3974907107469514,23.666236516060103,-16.981025354853482,4.782567209576135,-16.802143111518113,-18.293198181129217,-24.484742180896028,36.095695929553415,34.562164914487674,33.891245095396414,1577395562.0,-27.70934506709652,-51.1083430105317,23.613302
13207,1577395562.49,1.2578901941811165,-0.2503400613924351,9.1550183823004,2.108941291622999,0.0228617060963696,10.339184683897436,-0.3577579627060306,-0.9267896231302398,10.331126151480326,0.4575775890815549,-1.2095381573932926,-3.496309606040396,-2.212710496855945,1.7897443073551829,-3.4793760718368905,-5.703065453506097,-5.1022041134718,-0.8716118044969514,22.6767074631238,-16.068067002442003,2.3027175453514714,-17.322243844118844,-4.420856227106227,-24.824808044519585,36.14361877377422,34.514242070266874,33.963129361727624,1577395562.0,-27.70934506709652,-51.1083430105317,23.613302
13208,1577395562.5,0.9179135584389292,0.0178105245450639,8.283528978003526,1.1680200391815925,-0.5409727848704267,9.389883725645484,0.7615313134170156,-2.4231656607278955,6.099374717154155,1.6782807140815548,0.9877274676067074,-4.015108434165397,1.1137055187690548,2.827341963605183,-3.3573057593368905,-8.022401391006097,-16.1037910275343,-4.594756335746951,22.84162897194652,-17.711392036782662,4.251170852956559,-17.033298992673995,-3.963526272577997,-23.80461045364892,36.14361877377422,34.753856291370894,33.699553718513194,1577395562.0,-27.70934506709652,-51.1083430105317,23.613302
13209,1577395562.51,0.7862324671303352,-0.2431574564119663,9.344160313452743,0.5191913892792488,-0.2680337956126142,9.459315573790011,2.0855248314834216,-1.8653166739114893,8.191906968130716,-1.9838286609184448,-0.5381514386432926,-3.923555699790396,-5.813784715605945,12.074168135480184,-4.8221495093368905,0.6140732183689026,8.7985527224657,-6.975127429496951,23.00655048076923,-17.528800366300366,3.7197744963369854,-17.033298992673995,-3.963526272577997,-23.80461045364892,36.14361877377422,34.562164914487674,33.84332225117561,1577395562.0,-27.70934506709652,-51.1083430105317,23.613302
13210,1577395562.52,0.8808034327065072,-0.0097227945467324,9.743991990698838,0.606579749874952,0.1940471247975415,10.85992354498142,0.7100559777236563,-1.1422677725443018,10.210218967642437,-1.495547410918445,-0.9959151105182928,-3.877779332602896,-2.380557176543445,-0.9568377238948162,-4.1507627905868905,-0.8507705316310973,2.8934013552782014,-6.105376452934451,23.17147198959195,-17.528800366300366,3.7197744963369854,-19.77827508140008,-10.289923976885184,-23.29451165821358,36.11965735166382,34.562164914487674,33.93916793961722,1577395562.0,-27.70934506709652,-51.1083430105317,23.613302
13211,1577395562.53,1.0184700281654917,-0.83452526647056,9.502177623023057,0.7035449171112801,-1.2209260563548017,9.995616745665014,-0.3134652319931396,1.1010991830221033,11.20381265660728,2.1055268078315548,0.2553055926067073,-3.770967809165396,-0.0154448718559451,-3.886525223894817,-3.5098936499618905,2.475645483993903,1.8710624880907007,-4.869414538871951,23.501315007237384,-16.61584201388889,4.251170852956559,-16.22425340862841,-4.26841290893015,-24.484742180896028,35.95192739689101,34.46631922604607,33.65163087429239,1577395562.0,-27.70934506709652,-51.1083430105317,23.613302
13212,1577395562.54,0.3121805384193978,-1.0763396341463414,10.792652317847274,0.2103393751190926,-0.3877438786204267,10.421784641172827,1.3361397118545155,1.673313379799447,10.588502829947124,-2.594180223418445,-1.6367842511432926,-4.137178746665397,4.989437940644055,-22.28862483326981,-4.5474913062118905,6.900694312118903,-11.1599433712843,-1.5429985232469514,23.99607953370554,-15.702883661477411,3.7197744963369854,-17.264454873829877,-18.902971453833523,-14.96289799943646,35.856081708449395,34.46631922604607,33.747476562734,1577395562.0,-27.70934506709652,-51.1083430105317,23.613302
13213,1577395562.55,0.2834501184975228,-1.0883106424471225,10.306629380835556,-0.2924429735137189,0.050395025188166,9.969280527403296,0.5604183739638907,-2.2196585196146144,11.179870640005715,-4.760928270293445,-1.5452315167682926,-3.435274449790396,-2.151675340605945,4.017527510480183,-3.8761045874618905,-5.428407250381097,-2.2488105587842986,-2.8552543826219514,22.511785954301075,-15.885475331959707,2.8341139019710444,-16.859932081807084,-22.714054408235445,-15.302963863060016,36.28738730643664,34.562164914487674,33.891245095396414,1577395562.0,-27.70934506709652,-51.1083430105317,23.613302
13214,1577395562.56,0.5743456202065071,-0.3784298502107945,10.723220469702744,0.5706667249726082,-1.0126305119212078,10.83478442754978,0.4251459801650625,-0.5449144583353179,9.33274405919517,1.1442230968940548,-1.8656660870807928,-3.603121129477896,3.0820893078315548,-8.021657059832316,-3.8608457983993913,2.918150366806403,-8.0929267697218,-1.4972221560594514,22.511785954301075,-15.885475331959707,2.8341139019710444,-17.091087962962966,-20.274961317418214,-12.582436954071568,36.095695929553415,34.58612633659808,33.891245095396414,1577395562.0,-27.70934506709652,-51.1083430105317,23.613302
13215,1577395562.57,0.429496419767054,0.1159727926114701,10.598721983374618,0.4258175245331551,1.1780640071217596,9.957309519102514,3.0743301171279533,-0.0361466055521143,7.341965378775249,0.6406830578315549,-0.5076338605182926,-3.923555699790396,0.3812836437690549,-2.452199052019817,-3.0521299780868905,-2.956483422256097,5.472136706840701,-3.923369616996952,23.501315007237384,-17.711392036782662,3.188378139717421,-15.472996794871795,-1.981763136288998,-95.5585076782192,36.047773085332615,34.70593344715009,33.65163087429239,1577395562.0,-27.70934506709652,-51.1083430105317,23.613302
13216,1577395562.58,0.6737049891029916,-0.2599168680330601,7.821448057593368,0.9070520582245614,-1.082062360065739,7.091450131895484,-0.0955928809189208,-0.1103668570169581,7.696307224478373,-1.6481353015434452,-0.5381514386432926,-3.923555699790396,-0.6257964343559451,3.163035322980183,-4.9137022437118905,-1.4916396722560974,-5.392121105659299,-4.289580554496951,22.6767074631238,-16.43325034340659,4.428302971829755,-18.70917913105413,-4.420856227106227,-91.47771731473654,35.99985024111181,34.41839638182526,33.84332225117561,1577395562.0,-27.70934506709652,-51.1083430105317,23.613302
13217,1577395562.59,0.908336751798304,-0.6202442178865757,8.250010154761338,1.3427967603729989,-0.6798364811594891,9.394672128965794,-0.6965374976181395,-3.3425390982278955,11.108044590201027,1.0526703625190548,-1.8046309308307928,-3.709932652915396,-3.158755418730945,5.970652510480183,-3.4793760718368905,-2.987001000381097,8.7375175662157,-6.761504382621951,23.501315007237384,-16.981025354853482,2.8341139019710444,-18.940335012210014,-15.396775135783756,-25.504939771766697,36.07173450744302,34.753856291370894,33.891245095396414,1577395562.0,-27.70934506709652,-51.1083430105317,23.613302
13218,1577395562.6,0.9250961634193978,0.7360710225919389,12.109463230933212,0.7203043287323744,0.2574934687916821,11.113708920957984,0.9410964379287344,-0.1103668570169585,8.99516162511314,-0.7936431140434451,-5.756657298018292,-4.015108434165397,5.248837354706555,-5.793873856707318,-3.9218809546493913,3.116514624618903,0.7113945193407012,-5.067778796684451,23.501315007237384,-16.981025354853482,2.8341139019710444,-19.86495853683354,-16.61632168119237,-19.38375422654269,36.14361877377422,34.65801060292928,33.891245095396414,1577395562.0,-27.70934506709652,-51.1083430105317,23.613302
13219,1577395562.61,0.5970905359779916,-0.0300735086580601,10.273110557593368,0.91423466320503,-0.9862942936594892,8.199965500547828,1.867652480409203,1.500930860268197,10.18867115270103,-0.9767485827934452,-2.308170969893293,-3.770967809165396,-0.0154448718559451,-0.3464861613948171,-2.5028135718368905,-0.5150771722560974,-0.9670722775342988,-2.3974907107469514,24.32592255135097,-17.16361702533578,2.6569817830978484,-19.86495853683354,-17.835868226600983,-26.185071499013805,36.047773085332615,34.753856291370894,33.84332225117561,1577395562.0,-27.70934506709652,-51.1083430105317,23.613302
13220,1577395562.62,0.5587833094154916,-1.1960497171541538,8.968270652808213,1.91022255383003,-0.6295582462962078,8.89907238531345,-0.1051696875595458,-2.763142296470083,7.787286887564311,-0.3969145984184451,-0.1109053448932926,-3.893038121665396,1.1747406750190548,-4.924122880144817,-4.3643858374618905,14.346983374618905,-12.1059882931593,-2.2449028201219514,24.82068707781913,-18.07657537774725,3.188378139717421,-19.86495853683354,-17.835868226600983,-26.185071499013805,35.95192739689101,34.46631922604607,34.03501362805883,1577395562.0,-27.70934506709652,-51.1083430105317,23.613302
13221,1577395562.63,1.302182924894007,-0.5723601846834506,10.81420013278868,0.9214172681854989,0.232354351360041,11.221447995665017,0.2395953515029532,-1.8413746573099268,9.298028135122903,-1.648135301543445,-1.6978194073932926,-3.877779332602896,1.2052582531440548,-1.3230486613948171,-4.9137022437118905,8.975889624618903,-1.3332832150342988,-2.7637016482469514,23.501315007237388,-16.433250343406595,2.8341139019710404,-17.322243844118844,-20.274961317418214,-18.703622499295577,36.047773085332615,34.70593344715009,34.08293647227963,1577395562.0,-27.70934506709652,-51.1083430105317,23.613302
13222,1577395562.64,1.3081684290443978,0.0178105245450639,9.11192275241759,1.189567854122999,0.1389804866139478,9.655640109922828,0.8249776574111563,1.066383258949838,10.483157956900248,3.2957123547065548,1.7506669207317074,-3.374239293540396,-3.967471239043445,9.983714033917684,-3.0979063452743905,-3.200624047256097,5.258513659965701,-3.709746570121952,22.84162897194652,-16.61584201388889,2.47984966422466,-16.253147893772894,-4.192191249842112,-9.351811249647788,35.99985024111181,34.70593344715009,33.7714379848444,1577395562.0,-27.70934506709652,-51.1083430105317,23.613302
13223,1577395562.65,0.5037166712318978,-0.3317429178377476,9.327400901831652,1.515179279904249,-0.7588451359446454,9.76816758795017,0.6298502221084219,-2.715258263266958,7.318023362173686,1.9224213390815548,2.605159108231707,-3.526827184165396,2.5175141125190548,0.7216290729801829,-3.6929991187118905,-5.642030297256097,5.868865222465701,-5.205107898246951,23.00655048076923,-16.43325034340659,3.3655102585906094,-17.322243844118844,-4.115969590754073,-102.35982495069037,36.14361877377422,34.70593344715009,34.03501362805883,1577395562.0,-27.70934506709652,-51.1083430105317,23.613302
13224,1577395562.66,0.908336751798304,-0.4059631693025913,9.286699473608994,1.8288196973847175,-0.3590134586985517,8.123351047422828,1.6018960961318591,-1.2093054190286767,9.130434018911966,-1.3124419421684452,1.0182450457317074,-3.557344762290396,-0.4426909656059451,10.426218916730184,-4.8526670874618905,-0.9118056878810974,2.2983085818407014,-5.784941882621951,23.99607953370554,-16.798433684371187,4.074038734083371,-18.940335012210014,-2.591536408993305,-90.79758558748944,35.99985024111181,34.70593344715009,33.939167939617214,1577395562.0,-27.70934506709652,-51.1083430105317,23.613302
13225,1577395562.67,1.3620379663979134,-0.0971111551424356,7.942355241431259,0.7394579420136238,-0.3506337528880053,8.529168228819312,0.2324127465224849,0.0069490243306976,8.630045871939311,-0.3816558093559452,-2.994816477705793,-4.091402379477897,0.3507660656440548,-1.4603777629573171,-3.4946348608993905,-4.085633812881097,10.2176201052782,-5.723906726371951,24.16100104252825,-16.61584201388889,2.8341139019710404,-19.80716956654457,-18.750528135657444,-18.023490772048465,36.11965735166382,34.65801060292928,33.891245095396414,1577395562.0,-27.70934506709652,-51.1083430105317,23.613302
13226,1577395562.68,1.0974786829506478,-0.2551284647127476,10.447887278784776,0.8448028150604988,-0.1100164860423017,9.681976328184543,0.3760648461318594,-0.9866446646341456,9.95882779332603,4.394345167206555,1.903254811356708,-3.465792027915396,-0.5037261218559451,-3.917042802019817,-3.6319639624618905,1.0718368902439026,0.3757011599657012,-5.083037585746951,24.82068707781913,-16.61584201388889,2.47984966422466,-17.148876933251934,-16.15899172666414,-4.08079036348267,36.19154161799503,34.562164914487674,34.03501362805883,1577395562.0,-27.70934506709652,-51.1083430105317,23.613302
13227,1577395562.69,1.3799944788490852,-0.4873660257479039,9.648223924292587,2.108941291622999,0.0049051936451973,9.81365741949314,2.0448234032607653,-0.6801868521341455,8.634834275259623,-1.8312407702934448,0.4994462176067073,-4.015108434165397,3.2194184093940548,-5.717579911394817,-5.8292295874618905,7.938291968368903,-3.6831367306592986,-3.3740532107469514,23.336393498414665,-16.43325034340659,3.0112460208442324,-15.93530855718356,-19.0554147720096,-15.302963863060016,35.99985024111181,34.562164914487674,33.747476562734,1577395562.0,-27.70934506709652,-51.1083430105317,23.613302
13228,1577395562.7,1.051988851407679,-0.8800150980135287,10.095939634741804,0.8208607984589363,-1.2328970646555828,7.6445107153915774,-0.5983752295517333,-0.6107550039896144,11.04340114537681,-2.075381395293445,0.0722001238567073,-3.648897496665396,-0.6563140124809451,-1.1094256145198171,-2.7469541968368905,3.177549780868903,-5.910919933784299,-3.0688774294969514,24.98560858664185,-17.893983707264958,3.3655102585906094,-17.322243844118844,-18.750528135657447,-26.185071499013805,35.99985024111181,34.370473537604454,33.84332225117561,1577395562.0,-27.70934506709652,-51.1083430105317,23.613302
13229,1577395562.71,1.3153510340248664,-0.5927108987947788,9.873278880347277,1.391877894406202,0.1246152766530102,11.54346811895603,0.0971403527236563,-0.0433292105325835,9.144799228872904,1.7393158703315548,1.9337723894817072,-3.709932652915396,-1.861758348418445,0.9505109089176828,-3.7692930640243913,0.5988144293064028,9.5920097537157,-3.923369616996952,23.666236516060103,-17.528800366300366,3.188378139717421,-17.091087962962966,-3.5061963180497666,-15.302963863060016,35.95192739689101,34.634049180818884,33.891245095396414,1577395562.0,-27.70934506709652,-51.1083430105317,23.613302
13230,1577395562.72,0.477380452970179,0.1782220357755326,11.04404349216368,1.0530983594940926,-0.6439234562571454,10.165605063536107,-0.145871115782202,-2.418377257407583,8.594132847036967,0.8848236828315549,0.0722001238567073,-3.709932652915396,-0.2290679187309451,2.003367354230183,-3.5404112280868905,3.452207983993903,-1.1196601681592988,-2.2754203982469514,23.336393498414665,-17.528800366300366,2.3027175453514714,-16.513198260073263,-3.5061963180497666,-15.302963863060016,35.95192739689101,34.70593344715009,33.939167939617214,1577395562.0,-27.70934506709652,-51.1083430105317,23.613302
13231,1577395562.73,0.8867889368568977,-0.3173777078768101,8.352960826148056,-0.1176662523223126,0.8596351863209785,8.863159360411107,0.4646503075576407,-0.5556883658060205,6.262180430044779,-0.8851958484184451,2.605159108231707,-3.801485387290396,-2.212710496855945,7.923777510480183,-3.0826475562118905,1.1939072027439026,-3.6526191525342986,-3.801299304496952,24.16100104252826,-16.61584201388889,3.188378139717421,-16.513198260073263,-3.5061963180497666,-15.302963863060016,36.047773085332615,34.70593344715009,33.891245095396414,1577395562.0,-27.70934506709652,-51.1083430105317,23.613302
13232,1577395562.74,0.8532701136147103,-0.1186589700838418,7.689766966284775,0.8998694532440926,-0.5266075749094892,7.479310800840796,-0.5744332129501708,-4.07995320955602,9.84390611363853,1.2662934093940548,2.513606373856708,-3.664156285727896,5.538754346894055,-11.546437333269816,-2.0450498999618905,0.3699325933689026,5.899382800590701,-5.113555163871951,24.82068707781913,-17.893983707264958,3.71977449633699,-17.264454873829877,-1.829319818112921,-25.84500563539025,35.99985024111181,34.61008775870848,34.03501362805883,1577395562.0,-27.70934506709652,-51.1083430105317,23.613302
13233,1577395562.75,1.1597279261147102,-0.6405949319979037,11.240368028296494,1.1763997449921395,-0.0848773686106615,10.84914963751072,0.5304908532119376,-0.6945520620950836,9.252538303579934,-3.112979051543445,-5.970280344893292,-3.893038121665396,-1.800723192168445,2.934153487042683,-4.257574314024391,-1.5526748285060972,3.6563408084032014,-5.998564929496951,25.15053009546457,-17.711392036782662,3.8969066152101823,-19.17149089336589,-17.835868226600983,-3.740724499859112,36.14361877377422,34.7778177134813,33.48390091951957,1577395562.0,-27.70934506709652,-51.1083430105317,23.613302
13234,1577395562.76,0.7239832239662728,0.1231553975919388,11.937080711401965,-0.2110401170684063,0.117432671672541,10.862317746641578,-0.3206478369736083,2.8488663949361657,10.933267869009622,-1.3429595202934452,-1.5147139386432926,-3.618379918540396,-2.762026903105945,7.740672041730183,-3.3267881812118905,3.055479468368903,-1.2112129025342988,-3.801299304496952,25.15053009546457,-17.711392036782662,3.8969066152101823,-16.22425340862841,-4.26841290893015,-24.484742180896028,36.19154161799503,34.70593344715009,33.939167939617214,1577395562.0,-27.70934506709652,-51.1083430105317,23.613302
13235,1577395562.77,0.372035579923304,-0.8393136697908725,9.222056028784776,0.0834466871308113,-0.8210943791087079,10.493610690977516,1.3145918969131092,-1.1518445791849268,9.017906540884622,-0.1222563952934451,1.1708329363567074,-3.679415074790396,-1.1140776843559452,4.566843916730183,-3.3267881812118905,11.478331030868905,-7.345246105659299,-2.3669731326219514,25.31545160428729,-17.893983707264958,2.3027175453514714,-17.322243844118844,-20.274961317418214,-13.942700408565791,35.99985024111181,34.61008775870848,33.747476562734,1577395562.0,-27.70934506709652,-51.1083430105317,23.613302
13236,1577395562.78,0.5779369226967416,-0.8871977029939976,10.62984660495665,1.6588313795136238,-1.8889083195383956,9.459315573790011,0.8956066063857656,-0.3617580313333643,11.948409372915872,0.2897309093940548,-0.2482344464557926,-3.572603551352896,-1.0530425281059452,5.268748213605183,-5.0357725562118905,-1.0643935785060974,4.465056628715701,-2.6721489138719514,25.81021613075545,-16.068067002442003,4.251170852956562,-17.033298992673995,-21.34206454465075,-25.84500563539025,36.07173450744301,34.70593344715009,34.03501362805883,1577395562.0,-27.70934506709652,-51.1083430105317,23.613302
13237,1577395562.79,1.2459191858803351,0.0896365743497513,9.928345518530868,0.5383450025604989,0.7064062800709785,11.418969632627906,0.9327167321181876,0.8987891427389002,10.534633292593607,0.3660248547065549,1.6285966082317074,-3.282686559165396,0.6406830578315548,-4.588429520769817,-3.0521299780868905,6.534483374618904,-4.003571300971799,-0.9936821169969514,25.975137639578165,-17.528800366300366,4.428302971829755,-16.859932081807084,-18.14075486295314,-8.5016465905889,36.047773085332615,34.7778177134813,33.91520651750682,1577395562.0,-27.70934506709652,-51.1083430105317,23.613302
13238,1577395562.8,0.726377425626429,-0.3173777078768101,9.633858714331652,0.4377885328339364,-0.8354595890696453,9.514382211973608,0.0360882103896719,-1.1590271841653954,6.082615305533061,1.8003510265815548,-0.4160811261432927,-3.313204137290396,2.4259613781440548,-7.670704911394817,-3.1436827124618905,-1.7662978753810974,-3.9883125119092986,-3.0078422732469514,25.975137639578165,-17.528800366300366,4.428302971829755,-14.895107091982094,-1.981763136288998,-26.185071499013805,36.047773085332615,34.61008775870848,34.03501362805883,1577395562.0,-27.70934506709652,-51.1083430105317,23.613302
13239,1577395562.81,0.5037166712318978,-0.2216096414705601,8.561256370581651,1.9892312086151864,-0.0094600163157392,6.622186606504859,-0.3972622900986083,-1.527734239829458,8.436115537466655,1.0679291515815548,3.123957936356707,-3.465792027915396,-2.578921434355945,10.700877119855184,-4.1202452124618905,9.036924780868905,-10.3359687619093,-2.9162895388719514,25.31545160428729,-16.798433684371187,3.0112460208442324,-16.455409289784292,-16.463878363016292,-91.137651451113,35.856081708449395,34.41839638182526,33.891245095396414,1577395562.0,-27.70934506709652,-51.1083430105317,23.613302
13240,1577395562.82,0.6126528467690072,-0.2419603555818882,9.444716783179306,-0.1763241929961408,0.1533456965748852,11.035897367002905,0.9219428246474842,1.135815107094369,12.029812229361186,0.1829193859565547,-0.4008223370807927,-3.221651402915396,-1.724429246855945,2.903635908917683,-3.2962706030868905,-5.107972680068596,-13.5708320431593,-4.625273913871951,25.562833867521363,-17.254912860576923,3.808340555773584,-18.91144052706553,-4.039747931666035,-26.185071499013805,36.095695929553415,34.65801060292928,33.62766945218199,1577395562.0,-27.70934506709652,-51.1083430105317,23.613302
13241,1577395562.83,0.8772121302162728,-0.729180393423685,11.216426011694931,0.85677382336128,-0.8641900089915203,10.36192959966892,0.8668761864638906,0.3062242318502284,7.863901340689311,0.8848236828315549,-0.0498701886432926,-3.252168981040396,1.6630219250190548,-1.8723650676448167,-2.0755674780868905,0.7361435308689026,-3.2558906369092986,-3.0993950076219514,24.82068707781913,-17.34620869581807,4.605435090702943,-19.113701923076928,-3.658639636225843,-25.164873908143136,35.856081708449395,34.46631922604607,33.939167939617214,1577395562.0,-27.70934506709652,-51.1083430105317,23.613302
13242,1577395562.84,0.2595081018959603,-0.5041254373689976,11.2236086166754,0.5598928175019051,0.5507831721608223,11.870276645567358,1.0655949242568594,1.3046063241353845,8.230214194693216,0.6712006359565549,0.5299637957317074,-3.130098668540396,-0.3206206531059451,8.595164229230184,-4.4864561499618905,-1.3390517816310974,-3.6526191525342986,-0.8410942263719513,24.82068707781913,-17.34620869581807,4.605435090702943,-19.113701923076928,-3.658639636225843,-25.164873908143136,36.14361877377422,34.753856291370894,33.747476562734,1577395562.0,-27.70934506709652,-51.1083430105317,23.613302
13243,1577395562.85,0.3026037317787728,-1.035638205923685,10.792652317847274,0.5455276075409676,-0.4930887516673017,9.5311416235947,-1.371702365782202,0.1386301156392909,6.901432273306498,-1.3429595202934452,-0.0803877667682926,-3.374239293540396,1.3883637218940548,2.583201338605183,-3.7540342749618905,-1.7357802972560974,-2.7981269650342986,-0.8716118044969513,24.82068707781913,-17.34620869581807,4.605435090702943,-17.264454873829877,-17.683424908424907,-9.521844181459564,35.95192739689101,34.61008775870848,33.84332225117561,1577395562.0,-27.70934506709652,-51.1083430105317,23.613302
13244,1577395562.86,1.2016264551674447,-0.6609456461092325,9.705684764136338,0.76100575695503,-0.946789966266911,10.129692038633763,0.4191604760146719,-0.3102826956400054,10.678285392202982,2.2123383312690548,-0.2329756573932926,-3.160616246665396,2.2123383312690548,-1.7960711223323171,-2.6401426733993905,4.047300757431403,3.1375419802782014,-2.1991264529344514,23.99607953370554,-16.433250343406595,4.605435090702944,-17.00440450752951,-18.826749794745485,-19.21372129473091,36.14361877377422,34.46631922604607,33.86728367328601,1577395562.0,-27.70934506709652,-51.1083430105317,23.613302
13245,1577395562.87,0.4821688562904915,-0.4011747659822788,10.632240806616808,-0.0195039842559063,1.620991314250666,9.92139649420017,0.8285689599013907,-0.177404503501333,10.22697837926353,1.9834564953315548,0.9266923113567074,-2.763887731040396,2.7616547375190548,1.8202618854801829,-3.2962706030868905,-2.651307641006097,-7.864044933784299,-2.4585258669969514,24.32592255135097,-16.43325034340659,4.428302971829755,-16.802143111518113,-16.463878363016292,-25.164873908143136,36.19154161799503,34.562164914487674,33.939167939617214,1577395562.0,-27.70934506709652,-51.1083430105317,23.613302
13246,1577395562.88,0.6353977625404915,0.8390216939786577,11.264310044898057,0.8304376050995613,0.5986672053639472,9.253414231016576,1.3648701317763905,0.3325604501119471,8.11289831334556,1.8308686047065548,0.2858231707317073,-2.977510777915396,2.7921723156440548,-0.041310380144817,-2.0145323218368905,2.170469702743903,-10.0307929806593,-2.4585258669969514,24.32592255135097,-16.43325034340659,4.428302971829755,-16.513198260073263,-2.896423045345459,-24.824808044519585,35.95192739689101,34.70593344715009,33.84332225117561,1577395562.0,-27.70934506709652,-51.1083430105317,23.613302
13247,1577395562.89,0.8652411219154915,-0.9171252237459506,9.838562956275007,0.3851160963104988,-1.587238910358708,9.313269272520484,1.3241687035537342,-0.2133175284036768,9.535054099478373,0.8543061047065548,2.177913014481707,-2.916475621665396,3.3414887218940548,2.155955244855183,-1.6483213843368902,11.752989233993905,-0.7534492306592988,-4.625273913871951,23.996079533705537,-16.615842013888887,5.136831447322516,-17.264454873829877,-15.549218453959831,-25.164873908143136,36.16758019588463,34.46631922604607,34.08293647227963,1577395562.0,-27.70934506709652,-51.1083430105317,23.613302
13248,1577395562.9,1.1357859095131475,-0.1042937601229038,11.103898533667588,0.2187190809296399,-0.0729063603098803,10.93055249395603,1.0596094201064687,0.8173862862935878,10.911720054068216,0.0913666515815548,-1.5757490948932926,-3.191133824790396,1.3273285656440548,4.994090010480184,-3.0521299780868905,1.3312363043064028,3.0307304568407014,-4.075957507621951,25.15053009546457,-16.61584201388889,6.022492041688465,-18.217972883597888,-13.948563613111029,-13.772667476754016,35.95192739689101,34.63404918081888,33.7953994069548,1577395562.0,-27.70934506709652,-51.1083430105317,23.613302
13249,1577395562.91,0.4223138147865853,-0.3532907327791539,10.66097122653868,0.8950810499237801,0.6010614070241035,10.67557001714939,0.1773461083388907,1.048426746498666,11.61800954381431,1.0984467297065548,0.6825516863567074,-2.672334996665396,0.3812836437690549,13.294871260480184,-2.0450498999618905,-1.0033584222560974,-4.476593761909299,-3.4961235232469514,23.501315007237384,-16.2506586729243,5.313963566195704,-15.93530855718356,-43.446345680181885,-4.420856227106225,35.99985024111181,34.46631922604607,33.891245095396414,1577395562.0,-27.70934506709652,-51.1083430105317,23.613302
13250,1577395562.92,0.7958092737709603,-0.3508965311189976,10.24677433933165,1.5846111280487802,-0.919256647175114,7.948574326231421,0.2683257714248282,0.2032735604635096,7.878266550650248,3.0515717297065548,1.872737233231708,-2.641817418540396,0.4728363781440549,9.480173994855184,-1.9229795874618905,-1.3390517816310974,12.5522148318407,-0.9326469607469512,23.336393498414665,-16.43325034340659,5.845359922815277,-15.93530855718356,-4.420856227106227,-4.420856227106225,36.14361877377422,34.46631922604607,34.08293647227963,1577395562.0,-27.70934506709652,-51.1083430105317,23.613302
13251,1577395562.93,0.6030760401283821,-0.6106674112459507,9.131076365698837,0.3875102979706551,-0.0070658146555829,10.065048593809546,-1.0125721167587645,-2.533298937095083,10.892566440786966,1.7850922375190548,1.4149735613567072,-2.748628941977896,7.064633253144055,-16.520802567644818,-3.2047178687118905,-0.8202529535060974,21.2802421755907,-1.7566215701219514,23.418854252826023,-16.52454617864774,5.048265387885918,-19.86495853683354,-19.970074681066063,-24.824808044519585,36.07173450744301,34.562164914487674,33.891245095396414,1577395562.0,-27.70934506709652,-51.1083430105317,23.613302
13252,1577395562.94,1.3273220423256478,0.1973756490567826,10.893208787573837,1.5319386915253426,0.1940471247975415,9.623318387510718,0.5436589623427974,1.318971534096322,9.699056913199076,3.0210541515815548,-1.3316084698932926,-2.885958043540396,-0.778384324980945,11.234934737042684,-2.7164366187118905,6.229307593368903,5.273772449028201,-1.9092094607469516,24.98560858664185,-16.798433684371187,5.136831447322516,-18.88254604192104,-22.25672445370721,-23.80461045364892,35.99985024111181,34.63404918081888,33.84332225117561,1577395562.0,-27.70934506709652,-51.1083430105317,23.613302
13253,1577395562.95,1.0759308680092414,0.1375206075528764,10.122275853003526,0.9022636549042488,0.7135888850514472,11.226236398985328,-0.4786651465439208,-2.095160033286489,10.51428257848228,5.096249464081555,3.734309498856707,-2.458711949790396,3.799252393769055,-3.733937333269817,-1.3431456030868902,14.285948218368905,-8.5964668087843,-2.0617973513719514,23.666236516060103,-17.528800366300366,5.136831447322516,-18.88254604192104,-22.25672445370721,-23.80461045364892,36.14361877377422,34.562164914487674,33.699553718513194,1577395562.0,-27.70934506709652,-51.1083430105317,23.613302
13254,1577395562.96,0.1134618006264281,-0.0803517435213413,9.624281907691026,0.5167971876190925,-0.2440917790110517,7.883930881407203,-0.3493782568954833,-2.827785741294301,9.72180182897056,0.7627533703315549,6.725032155106708,-2.672334996665396,-1.8770171374809448,11.463816572980184,-3.3573057593368905,-2.987001000381097,13.6813652224657,-5.784941882621951,23.83115802488282,-16.61584201388889,5.668227803942081,-18.651390160765164,-20.12251799924213,-2.040395181741335,36.14361877377422,34.61008775870848,34.03501362805883,1577395562.0,-27.70934506709652,-51.1083430105317,23.613302
13255,1577395562.97,1.148954018644007,-0.3113922037264195,8.033334904517197,1.4876459608124522,-0.2656395939524584,8.073072812559547,0.9554616478896718,-0.4683000052103174,8.900590659536967,0.0455902843940548,2.681453053544208,-2.855440465415396,3.7534760265815543,-5.397145341082316,-1.9534971655868905,2.048399390243903,9.6988212771532,-5.266143054496951,23.83115802488282,-16.2506586729243,5.136831447322512,-18.246867368742368,-11.585692181381836,-14.96289799943646,36.047773085332615,34.65801060292928,33.7953994069548,1577395562.0,-27.70934506709652,-51.1083430105317,23.613302
13256,1577395562.98,1.2291597742592415,0.0680887594083451,10.038478794898056,0.74185214367378,0.308968804485041,11.049065476133764,0.2635373681045156,-1.3505633169778954,11.443232822622903,4.577450635956555,0.9266923113567074,-2.977510777915396,-0.6257964343559451,3.651316572980183,-2.2586729468368905,-0.1488662347560974,5.624724597465701,-5.296660632621951,23.501315007237384,-16.2506586729243,5.313963566195704,-16.39762031949532,-4.420856227106227,-15.983095590307128,36.14361877377422,34.61008775870848,33.891245095396414,1577395562.0,-27.70934506709652,-51.1083430105317,23.613302
13257,1577395562.99,0.6808875940834603,-0.0923227518221226,10.696884251441023,0.7562173536347175,0.2802383845631661,9.626909690000952,0.5125343407607656,0.916745655190072,9.448862839712747,0.6101654797065549,4.070002858231708,-2.702852574790396,2.1818207531440548,10.761912276105184,-2.8079893530868905,0.3088974371189026,0.5282890505907012,-2.2754203982469514,24.16100104252826,-15.520291990995116,4.251170852956559,-16.39762031949532,-18.44564149930529,-9.18177831783601,36.047773085332615,34.46631922604607,33.891245095396414,1577395562.0,-27.70934506709652,-51.1083430105317,23.613302
13258,1577395563.0,0.170922640470179,-0.3293487161775913,9.46865879978087,2.33160204601753,-0.3733786686594892,7.852806259825171,-0.337407248594702,-0.5676593741068018,7.816017307486185,-2.533145067168445,3.612239186356707,-2.733370152915396,0.3507660656440549,2.216990401105183,-2.6859190405868905,6.320860327743903,-4.629181652534299,-1.7566215701219514,22.84162897194652,-15.885475331959707,2.8341139019710444,-16.39762031949532,-18.44564149930529,-9.18177831783601,35.95192739689101,34.46631922604607,33.891245095396414,1577395563.0,-27.70913766055876,-51.10840235372208,23.740713
13259,1577395563.01,0.7491223413979134,-0.229989347281107,9.217267625464464,0.1756234510468274,-0.2572598881419115,9.661625614073218,0.0444679162002192,1.3524903573385094,10.784827366079936,0.6254242687690549,2.925593678544208,-3.023287145102896,-1.602358934355945,1.2251691120426829,-2.0145323218368905,2.948667944931403,2.7865898318407014,-2.2906791873094514,23.33639349841467,-16.433250343406595,4.074038734083374,-18.246867368742368,-13.872341954022987,-18.02349077204846,35.99985024111181,34.70593344715009,33.86728367328601,1577395563.0,-27.70913766055876,-51.10840235372208,23.740713
13260,1577395563.02,0.0967023890053343,-0.0204967020174351,10.366484422339465,-0.2038575120879376,1.1038437556569158,9.911819687559548,2.186081301209984,-0.1726161001810205,9.26211511022056,0.7932709484565549,2.177913014481707,-2.977510777915396,-0.5647612781059451,5.146677901105183,-3.2657530249618905,-4.787538109756097,8.7680351443407,-2.0312797732469514,23.00655048076923,-15.33770032051282,4.782567209576139,-16.744354141229145,-4.115969590754073,-25.504939771766697,36.19154161799503,34.70593344715009,33.891245095396414,1577395563.0,-27.70913766055876,-51.10840235372208,23.740713
13261,1577395563.03,-0.2672162633384146,0.9012709371427202,9.415986363257431,0.6819971021698739,0.069548638469416,9.222289609434544,0.6825226586318595,-2.8924291861185205,10.566955015005718,-0.3358794421684451,4.985530201981708,-2.733370152915396,0.2897309093940549,7.160838057355183,-1.3736631812118902,-2.040956078506097,2.0846855349657014,-2.0923149294969514,22.6767074631238,-16.798433684371187,5.491095685068893,-16.744354141229145,-4.420856227106227,-90.79758558748944,35.99985024111181,34.562164914487674,33.891245095396414,1577395563.0,-27.70913766055876,-51.10840235372208,23.740713
13262,1577395563.04,0.5635717127358041,-0.4682124124666538,7.784337931860947,0.1361191236542488,0.0958848567311348,7.742672983457983,0.4838039208388907,-0.6801868521341455,9.793627878775249,-2.044863817168445,1.5828202410442072,-2.779146520102896,-1.2666655749809452,0.9352521198551828,-3.4183409155868905,2.841856421493903,-1.5774238400342988,-4.167510241996951,21.687178410187485,-17.528800366300366,4.782567209576139,-16.802143111518113,-4.26841290893015,-91.137651451113,36.14361877377422,34.46631922604607,33.891245095396414,1577395563.0,-27.70913766055876,-51.10840235372208,23.740713
13263,1577395563.05,0.4342848230873665,-0.0348619119783726,11.053620298804306,0.6568579847382332,-0.1363527043040209,9.170814273741186,-0.1614334265732181,0.9311108651510096,9.150784733023292,-1.6481353015434452,-3.284733469893293,-3.130098668540396,0.4575775890815548,2.659495283917683,-3.1589415015243905,-1.9036269769435972,-0.0973213009717988,-4.762603015434451,22.34686444547836,-16.798433684371187,4.782567209576139,-19.98053647741148,-1.981763136288998,-24.824808044519585,35.856081708449395,34.63404918081888,33.819360829065204,1577395563.0,-27.70913766055876,-51.10840235372208,23.740713
13264,1577395563.06,0.4749862513100228,0.3218741353849076,11.307405674780869,0.6101710523651863,0.2730557795826973,9.425796750547828,-0.1195348975204833,-1.2164880240091456,12.501469956411968,-1.9227935046684448,-1.1179854230182926,-3.038545934165396,3.0363129406440548,-13.163868973894816,-1.2210752905868902,-10.189149437881095,6.540251941215701,-3.984404773246952,23.666236516060103,-16.068067002442003,4.074038734083371,-19.98053647741148,-1.981763136288998,-24.824808044519585,36.14361877377422,34.562164914487674,34.61008775870848,1577395563.0,-27.70913766055876,-51.10840235372208,23.740713
13265,1577395563.07,0.3169689417397103,-0.3413197244783726,9.504571824683213,0.8424086134003426,-0.0621324528391767,10.625291782286109,-0.2344565772079833,2.870414209877572,10.164729136099467,0.3660248547065549,1.5370438738567074,-2.641817418540396,-4.837222215605945,6.825144697980183,-2.5638487280868905,-7.595155297256097,-1.4858711056592988,-0.8716118044969513,22.84162897194652,-16.2506586729243,3.542642377463798,-17.322243844118844,-20.274961317418214,-11.222173499577346,35.95192739689101,34.61008775870848,33.84332225117561,1577395563.0,-27.70913766055876,-51.10840235372208,23.740713
13266,1577395563.08,-0.0816656346763052,-0.9171252237459506,8.987424266089462,-0.1080894456816876,-0.9982653019602704,9.638880698301731,-1.0149663184189208,-1.393658946860708,11.448021225943217,-0.5342436999809451,2.696711842606708,-2.565523473227896,2.4564789562690548,-4.832570145769817,-3.8455870093368905,-5.642030297256097,-13.2046211056593,1.1425483517530486,22.84162897194652,-17.711392036782662,4.605435090702943,-16.975510022385023,-20.274961317418214,-12.582436954071568,36.02381166322221,34.753856291370894,33.747476562734,1577395563.0,-27.70913766055876,-51.10840235372208,23.740713
13267,1577395563.09,-0.0493439122641959,0.0010511129239701,11.139811558569932,0.6484782789276868,-0.2416975773508959,10.50318749761814,0.2994503930068594,0.6773254891744476,10.144378421988138,-1.6481353015434452,-1.0874678448932926,-2.550264684165396,-0.0764800281059451,-4.802052567644817,-2.8842832983993905,-5.016419945693597,-8.5201728634718,0.6084907345655486,22.6767074631238,-17.16361702533578,4.074038734083371,-17.091087962962966,-20.579847953770365,-19.383754226542685,36.14361877377422,34.61008775870848,33.7235151406236,1577395563.0,-27.70913766055876,-51.10840235372208,23.740713
13268,1577395563.1,0.630609359220179,0.2428654805997513,8.582804185523056,0.7801593702362801,-0.1124106877024579,10.127297836973607,0.2683257714248282,-3.012139269126333,9.633216367544778,1.0984467297065548,1.2318680926067074,-2.550264684165396,-3.555483934355945,12.501414229230184,-1.9840147437118905,-5.519959984756097,3.3969413943407014,1.5392768673780486,22.511785954301075,-17.711392036782662,4.605435090702943,-17.264454873829877,-3.963526272577997,-25.164873908143136,36.047773085332615,34.370473537604454,33.747476562734,1577395563.0,-27.70913766055876,-51.10840235372208,23.740713
13269,1577395563.11,-0.0206134923423209,-0.0348619119783726,7.383309153784775,-0.953242631716844,-0.7133553044016766,8.164052475645484,0.1941055199599844,-2.619490196860708,6.602157065786967,2.3801850109565548,2.849299733231707,-2.489229527915396,-0.4121733874809451,-1.4451189738948171,-2.6554014624618905,-6.069276391006097,9.5004570193407,-4.350615710746951,24.490844060173693,-17.711392036782662,2.47984966422466,-17.148876933251934,-4.26841290893015,-91.137651451113,35.856081708449395,34.46631922604607,33.699553718513194,1577395563.0,-27.70913766055876,-51.10840235372208,23.740713
13270,1577395563.12,0.5336441919838509,-0.4107515726229038,9.104740147437118,0.4964464735077649,-0.4452047184641766,8.502832010557594,0.6573835412002188,0.7706993539205409,11.279230008902202,1.2662934093940548,2.238948170731707,-2.870699254477896,-3.433413621855945,-0.0565691692073162,-3.7235166968368905,-3.856751976943597,11.4993583865282,-6.944609851371951,23.336393498414665,-17.528800366300366,4.782567209576139,-18.13128942816443,-10.5185889541493,-56.11086749788673,36.02381166322221,34.514242070266874,33.91520651750682,1577395563.0,-27.70913766055876,-51.10840235372208,23.740713
13271,1577395563.13,0.0105111292397093,-0.1162647684236851,10.241985936011336,0.2055509717987801,1.4270609797780096,10.998787241270485,0.4383140892959219,0.9239282601705407,11.31873433629478,-1.4039946765434452,0.4384110613567073,-2.763887731040396,-2.121157762480945,2.003367354230183,-1.1600401343368902,-9.456727562881095,2.9391777224657014,-6.792021960746951,23.83115802488282,-18.07657537774725,4.605435090702943,-19.17149089336589,-16.61632168119237,-0.3400658636235519,35.80815886422859,34.562164914487674,33.939167939617214,1577395563.0,-27.70913766055876,-51.10840235372208,23.740713
13272,1577395563.14,0.247537093595179,-0.8776208963533725,9.904403501929306,0.4521537427948738,0.1389804866139473,9.770561789610326,0.2084707299209219,0.8449196053853847,11.38816618443931,-1.6481353015434452,0.4078934832317073,-2.824922887290396,-0.7783843249809451,-2.848927567644817,-3.0826475562118905,-4.543397484756097,0.2231132693407012,-4.472686023246951,22.6767074631238,-16.798433684371187,4.782567209576139,-17.322243844118844,-16.61632168119237,-4.420856227106225,35.99985024111181,34.562164914487674,34.08293647227963,1577395563.0,-27.70913766055876,-51.10840235372208,23.740713
13273,1577395563.15,0.2235950769936165,-0.9901483743807162,9.420774766577743,0.5144029859589363,-1.2400796696360517,8.305310373594702,0.4000068627334219,2.3412956429830407,9.642793174185403,0.2134369640815548,3.581721608231707,-3.160616246665396,-5.050845262480945,11.341746260480184,-3.7845518530868905,1.6211532964939026,-10.6106269650343,-0.1391899294969513,23.501315007237384,-16.2506586729243,4.959699328449328,-17.091087962962966,-23.93360095364406,-12.582436954071568,36.14361877377422,34.46631922604607,33.939167939617214,1577395563.0,-27.70913766055876,-51.10840235372208,23.740713
13274,1577395563.16,0.352881966642054,-0.4550443033357949,10.1126990463629,0.9238114698456552,-0.3673931645090985,10.49720199346775,-0.7504070349716557,-0.3677435354837549,11.821516684927593,-0.9309722156059452,-0.1871992902057926,-3.130098668540396,-2.563662645293445,5.009348799542684,-2.9300596655868905,0.2326034918064026,-10.0918281369093,0.6390083126905486,24.078540288116898,-17.43750453105922,4.694001150139537,-17.091087962962966,-19.0554147720096,-15.302963863060016,36.14361877377422,34.65801060292928,33.819360829065204,1577395563.0,-27.70913766055876,-51.10840235372208,23.740713
13275,1577395563.17,0.601878939298304,0.2883553121427201,8.946722837866808,1.04830995617378,-0.0693150578196454,10.17757607183689,0.5747835839248282,1.6182467416158532,10.327534848990092,3.4483002453315548,-0.0803877667682926,-3.343721715415396,-3.921694871855945,16.895945479230182,-2.7469541968368905,-3.475282250381097,-2.9507148556592986,1.6613471798780486,24.16100104252826,-17.711392036782662,4.251170852956559,-16.975510022385023,-19.0554147720096,-7.141383136094671,35.99985024111181,34.562164914487674,33.891245095396414,1577395563.0,-27.70913766055876,-51.10840235372208,23.740713
13276,1577395563.18,0.1062791956459593,-0.8177658548494663,8.917992417944932,0.2965306348847176,-0.4140800968821455,9.428190952207984,-1.1849546362900143,-1.6115312979349268,11.213389463247903,3.3872650890815548,2.757746998856707,-3.252168981040396,3.5245941906440548,-17.009083817644818,-1.8314268530868905,-3.963563500381097,-12.4416816525343,1.1425483517530486,24.16100104252826,-17.711392036782662,4.251170852956559,-15.472996794871795,-4.115969590754073,-90.11745386024232,35.99985024111181,34.562164914487674,33.891245095396414,1577395563.0,-27.70913766055876,-51.10840235372208,23.740713
13277,1577395563.19,0.324151546720179,-0.3149835062166539,10.040872996558212,-0.6635442308379377,-0.0453730412180829,10.82161631841892,-0.1219290991806395,-3.955454723227896,7.078603196158061,-0.3358794421684451,2.605159108231707,-3.069063512290396,-3.158755418730945,-1.1704607707698171,-3.5709288062118905,-1.2780166253810974,-10.7326972775343,-3.4656059451219514,23.336393498414665,-17.528800366300366,5.136831447322516,-18.940335012210014,-4.420856227106227,-26.185071499013805,35.99985024111181,34.70593344715009,33.939167939617214,1577395563.0,-27.70913766055876,-51.10840235372208,23.740713
13278,1577395563.2,0.2630994043861946,0.0992133809903768,9.854125267066024,0.5958058424042488,-0.3326772404368329,9.895060275938452,1.731182985780297,-1.4104183584818015,9.181909354605326,-0.793643114043445,-2.033512766768293,-3.145357457602896,3.0210541515815548,-7.884327958269816,-3.9981748999618905,1.1786484136814028,3.4732353396532014,-7.081938952934451,23.336393498414665,-17.346208695818067,4.428302971829755,-19.720486111111114,-12.881460385878489,-25.67497270357847,36.095695929553415,34.562164914487674,33.91520651750682,1577395563.0,-27.70913766055876,-51.10840235372208,23.740713
13279,1577395563.21,0.6258209558998665,-1.06436862584556,10.639423411597274,0.1720321485565926,0.2562963679616035,9.310875070860329,-0.6127404395126708,1.1322238046041346,12.25726138707603,2.2275971203315548,-0.8738447980182926,-3.191133824790396,5.264096143769055,-12.461964677019816,-1.1295225562118902,1.1939072027439026,-4.385041027534299,-5.449248523246951,23.666236516060103,-16.43325034340659,4.428302971829755,-16.859932081807084,-19.0554147720096,-18.023490772048465,35.95192739689101,34.70593344715009,33.84332225117561,1577395563.0,-27.70913766055876,-51.10840235372208,23.740713
13280,1577395563.22,0.6641281824623665,-0.4299051859041539,10.696884251441023,-0.1176662523223126,-0.1986019474680829,10.778520688536108,-1.1945314429306395,2.2239797616353845,11.19663005162681,0.8237885265815549,2.116877858231707,-2.855440465415396,-3.189272996855945,8.717234541730184,-2.6554014624618905,-1.4306045160060974,-0.8450019650342988,-3.831816882621952,23.666236516060103,-16.43325034340659,4.428302971829755,-15.93530855718356,-19.0554147720096,-7.141383136094671,36.047773085332615,34.70593344715009,33.747476562734,1577395563.0,-27.70913766055876,-51.10840235372208,23.740713
13281,1577395563.23,0.295421126798304,0.0848481710294389,10.598721983374618,1.938952973751905,-0.8905262272532392,9.066666501524388,-0.097987082579077,-0.0098103872903955,9.69546561070884,0.8543061047065549,0.8656571551067074,-3.160616246665396,-4.654116746855945,22.785838057355186,-3.9676573218368905,-3.933045922256097,6.051970691215701,-1.7871391482469514,23.99607953370554,-18.259167048229543,4.074038734083371,-19.402646774521777,-20.884734590122523,-26.185071499013805,36.047773085332615,34.562164914487674,33.84332225117561,1577395563.0,-27.70913766055876,-51.10840235372208,23.740713
13282,1577395563.24,0.7515165430580697,-0.8297368631502475,9.4614761948004,0.2354784925507337,-0.3410569462473803,10.397842624571265,0.4933807274795156,-0.0995929495462554,11.972351389517437,3.1889008312690548,0.9724686785442074,-2.992769566977896,1.2357758312690548,-5.046193192644817,-2.7164366187118905,0.0189804449314026,-0.936554699409299,-1.0394584841844514,23.74869727047146,-16.524546178647743,3.4540763180272034,-17.90013354700855,-20.57984795377037,-19.04368836291913,36.11965735166382,34.58612633659808,33.84332225117561,1577395563.0,-27.70913766055876,-51.10840235372208,23.740713
13283,1577395563.25,0.2762675135170541,0.4415842183927201,11.04404349216368,0.6077768507050301,0.0767312434498848,11.800844797422828,1.2379774437881093,2.247921778236947,12.183041135611186,-0.3358794421684451,-0.7212569073932926,-3.130098668540396,-0.1069976062309451,2.735789229230183,-1.7703916968368902,3.513243140243903,-6.368683605659299,-0.9936821169969512,24.16100104252826,-16.61584201388889,4.605435090702943,-17.322243844118844,-20.274961317418214,-24.14467631727247,36.047773085332615,34.61008775870848,33.939167939617214,1577395563.0,-27.70913766055876,-51.10840235372208,23.740713
