,timestamp,acc_x_dashboard,acc_y_dashboard,acc_z_dashboard,acc_x_above_suspension,acc_y_above_suspension,acc_z_above_suspension,acc_x_below_suspension,acc_y_below_suspension,acc_z_below_suspension,gyro_x_dashboard,gyro_y_dashboard,gyro_z_dashboard,gyro_x_above_suspension,gyro_y_above_suspension,gyro_z_above_suspension,gyro_x_below_suspension,gyro_y_below_suspension,gyro_z_below_suspension,mag_x_dashboard,mag_y_dashboard,mag_z_dashboard,mag_x_above_suspension,mag_y_above_suspension,mag_z_above_suspension,temp_dashboard,temp_above_suspension,temp_below_suspension,timestamp_gps,latitude,longitude,speed
44057,1577399445.97,0.2548627667236328,-0.5943605621337891,10.403883604125976,0.0327596861304303,-1.0721935776128992,11.330121392971131,3.2924263163248697,2.509066335042317,11.904711716715497,2.6630401611328125,-4.326629638671875,1.787567138671875,3.0199376548208843,-4.50860000238186,2.144418111661585,1.9040788922991072,-1.5818277994791667,-3.3921741303943453,1.807648473385084,-9.873909366096864,-1.951549145299146,-6.255786189119516,-56.67692307692308,9.477739970125754,29.86572618084883,33.31617096474676,31.73471710546021,1577399445.0,-27.689271431992825,-51.12794202231595,3.5286279
44058,1577399445.98,0.5493495709228515,-2.2367829010009763,10.664851585083008,1.4836458921851177,-1.1344428207769617,7.757972516018007,1.441708433024088,0.5146963521321606,11.765848020426432,1.9306182861328125,-4.021453857421875,1.543426513671875,1.0973302329458845,-4.87481093988186,1.2899259241615852,2.728053501674107,2.782185872395833,-7.481529599144345,2.7114727100776186,-8.181239189051688,-1.138403668091164,-6.255786189119516,-56.67692307692308,9.329069539221818,29.72195764818641,33.22032527630515,31.5909485727978,1577399445.0,-27.689271431992825,-51.12794202231595,3.5286279
44059,1577399445.99,0.8342595684814452,-1.4778209747314452,8.069536985473633,0.7725679991187115,-0.1815505600347742,10.346104510646912,0.4337495340983066,3.076492128499348,10.781831138102213,1.5949249267578125,-4.540252685546875,1.482391357421875,1.9518224204458845,-4.53911758050686,0.9237149866615852,4.314967564174108,7.756551106770833,-10.319664364769343,3.434532099431656,-8.93353704551621,-1.138403668091164,-4.645330800886364,-55.25250305250305,9.403404754673788,29.67403480396561,33.36409380896756,31.6388714170186,1577399445.0,-27.689271431992825,-51.12794202231595,3.5286279
44060,1577399446.0,0.7289146954345702,0.1298854400634765,8.423878831176756,0.7318665708960553,0.7174721633538966,10.833324548488708,0.106941007486979,-4.889016794840495,8.355307755533854,3.929519653320313,-4.387664794921875,1.329803466796875,4.332193514195884,-4.49334121331936,-0.0070711461509147,3.384181431361607,5.208333333333333,-2.812340146019345,3.615296946770161,-8.93353704551621,-1.3010327635327583,-6.255786189119516,-61.424989824989815,8.214041307442319,29.91364902506964,33.17240243208435,31.73471710546021,1577399446.0,-27.68924734823921,-51.12795062332304,2.8132746
44061,1577399446.01,0.2740163800048828,-1.0109516510009764,9.36001168029785,0.9569215269507428,-0.5358924057378992,8.998168975978944,0.5127581888834629,1.2952060933430989,7.896818137613932,4.8908233642578125,-4.326629638671875,1.482391357421875,4.423746248570884,-3.2878968773818595,-0.2969881383384147,3.643580845424107,-2.6194254557291665,10.096595400855657,3.615296946770161,-9.873909366096864,-0.9757745726495664,-1.9612384871644155,-34.83581603581603,7.0990130756628185,29.86572618084883,33.17240243208434,31.447180040135382,1577399446.0,-27.68924734823921,-51.12795062332304,2.8132746
44062,1577399446.02,0.1351526837158203,-1.1546037506103517,9.43662613342285,-0.4963588807640999,-0.9524834946050867,9.369270233303164,0.8287928080240878,-1.0223811136881509,9.99892719523112,4.8603057861328125,-4.235076904296875,1.818084716796875,4.515298982945884,-4.08135390863186,0.3133634241615852,3.948756626674107,0.4628499348958333,4.847571963355655,2.1691781680620985,-9.12161150963234,-1.6262909544159505,-1.9612384871644155,-57.62653642653642,8.139706091990352,29.86572618084883,33.17240243208434,31.5909485727978,1577399446.0,-27.68924734823921,-51.12795062332304,2.8132746
44063,1577399446.03,0.534984360961914,-1.6932991241455078,8.407119419555663,-0.0486431703148811,-2.221410374487899,9.790649725490663,0.4433263407389316,-0.0958250712076821,11.840068271891276,4.4025421142578125,-4.601287841796875,1.360321044921875,4.942545076695884,-3.98980117425686,0.0692227991615852,4.314967564174108,5.711873372395833,4.817054385230655,0.903824236692542,-9.30968597374847,-0.4878872863247798,-1.4244200244200351,-53.35327635327634,8.214041307442319,29.72195764818641,33.31617096474676,31.73471710546021,1577399446.0,-27.68924734823921,-51.12795062332304,2.8132746
44064,1577399446.04,1.0245986004638672,-1.9147627777099607,9.055948069458006,1.008396862644102,-0.4880083725347742,9.137032672268006,1.0945491923014317,3.367387630208333,10.243135764567056,4.9213409423828125,-4.235076904296875,1.436614990234375,6.331094881383384,-3.86773086175686,-0.6174227086509148,6.176539829799108,12.791951497395834,-4.002525692894345,3.524914523100908,-8.839499813458144,-0.7318309294871731,-5.987376957747332,-51.21664631664632,-5.426470727993572,29.98553329140084,33.19636385419474,31.83056279390182,1577399446.0,-27.68924734823921,-51.12795062332304,2.8132746
44065,1577399446.05,1.7967286358642578,0.7152677459716796,10.42064301574707,2.786091595310117,1.0730111098870996,10.530458038478944,1.5374764994303378,-0.7733841410319009,8.473820737711588,8.583450317382812,-3.441619873046875,1.299285888671875,6.895670076695884,-2.5249574242568595,-0.6937166539634148,6.512233189174108,10.167439778645834,-5.528404599144345,4.157591488785688,-8.93353704551621,-0.162629095441591,-6.255786189119516,-47.18078958078958,-5.537973551171519,29.86572618084883,33.31617096474676,31.6388714170186,1577399446.0,-27.68924734823921,-51.12795062332304,2.8132746
44066,1577399446.06,1.854189475708008,0.3681085052490234,10.01841713684082,1.7972863096655864,-0.0307158554449304,8.148227386623475,1.1615868387858066,-0.6680392679850259,10.599871811930338,7.0270538330078125,-3.166961669921875,0.963592529296875,6.682047029820884,-5.60723281488186,-0.6021639195884148,6.329127720424108,10.136922200520834,-2.2630237397693453,3.615296946770161,-6.488569012006511,-0.3252581908831888,-6.255786189119516,-49.08001628001628,-5.2406326893636574,29.86572618084883,33.41201665318837,32.30979123610986,1577399446.0,-27.68924734823921,-51.12795062332304,2.8132746
44067,1577399446.07,1.406473765258789,-1.781884585571289,9.309733445434569,1.2897155577124615,-0.4904025741949304,9.000563177639101,0.4816335673014316,1.7692580220540364,10.858445591227213,5.0434112548828125,-3.105926513671875,0.536346435546875,6.743082186070884,-3.2268617211318595,-1.8533846227134148,6.207057407924108,8.580525716145834,-4.643394833519345,2.7114727100776186,-8.55738811728395,-2.114178240740737,-5.718967726375147,-44.806756206756205,-6.355660921143159,29.86572618084883,33.02863389942193,31.39925719591458,1577399446.0,-27.68924734823921,-51.12795062332304,2.8132746
44068,1577399446.08,1.9643227520751956,-0.4770446807861327,7.875606651000975,1.6153269834937114,-0.1839447616949304,9.050841412502384,0.8036536905924473,-3.621287015787761,9.498539048258465,6.4472198486328125,-2.846527099609375,-0.089263916015625,6.773599764195884,-1.6399476586318595,-1.2125154820884148,6.191798618861608,14.577229817708332,1.5364147367931549,3.3441496757624005,-8.839499813458147,-1.2197182158119628,-6.255786189119516,-43.85714285714285,-6.058320059335292,30.009494713511245,33.19636385419474,31.51906430646659,1577399446.0,-27.68924734823921,-51.12795062332304,2.8132746
44069,1577399446.09,2.0505140118408205,-0.364517202758789,8.6896352154541,2.4437207579077738,1.843944044457412,9.953455438381289,1.992374814860025,2.370202638753255,8.045258640543619,7.9730987548828125,-2.312469482421875,0.048065185546875,6.773599764195884,-2.3113343773818595,-2.1890779820884148,5.596705845424108,13.280232747395834,5.641028994605655,4.338356336124197,-9.497760437864605,-1.951549145299146,-6.255786189119516,-46.23117623117623,-5.389303120267588,29.817803336628028,33.31617096474676,30.96795159792734,1577399446.0,-27.68924734823921,-51.12795062332304,2.8132746
44070,1577399446.1,1.2269086407470704,0.6314706878662109,9.1493219342041,0.0471248960913678,0.7402170791253809,8.600731500393007,-0.4425282735188798,0.4380818990071605,6.95350268351237,8.186721801757812,-1.427459716796875,-0.012969970703125,9.550699373570884,-1.7315003930068598,-1.8228670445884148,6.451198032924108,6.871541341145833,2.3146129789806547,3.0730024047546407,-8.55738811728395,-0.8131454772079686,-1.4244200244200351,-45.75636955636956,-4.720286181199891,29.86572618084883,33.41201665318837,31.447180040135382,1577399446.0,-27.68924734823921,-51.12795062332304,2.8132746
44071,1577399446.11,0.5134365460205077,-1.552041226196289,8.887156852416991,-0.9177383729516,-1.1488080307378992,9.374058636623475,1.5709953226725253,0.835519374593098,8.442696116129557,6.9660186767578125,-1.213836669921875,-0.424957275390625,7.353433748570884,-0.4497621117568597,-3.5623689977134148,7.824489048549108,0.2187093098958333,-0.7066272553943452,3.524914523100908,-8.839499813458147,-1.2197182158119628,-2.4980569499088072,-45.75636955636956,-4.868956612103822,29.96157186929044,33.41201665318837,31.5909485727978,1577399446.0,-27.68924734823921,-51.12795062332304,2.8132746
44072,1577399446.12,0.6044162091064452,-1.2599486236572266,8.725548240356444,1.353161901706602,-0.984805217017196,9.899585901027772,0.8240044047037753,4.351404512532552,10.322144419352211,9.254837036132812,-1.457977294921875,-0.623321533203125,8.543619295445884,-2.99797988519436,-3.0435701695884148,10.204860142299108,3.728230794270833,-12.074425106956843,2.530707862739113,-7.617015796703295,-1.951549145299146,13.06967846967846,-43.38233618233618,-5.9096496284313575,30.009494713511245,33.148441009973936,31.73471710546021,1577399446.0,-27.68924734823921,-51.12795062332304,2.8132746
44073,1577399446.13,0.9060856182861328,0.0927753143310546,9.86518823059082,0.0327596861304303,2.148007655297256,7.688540667873475,0.4385379374186191,-2.5498817728678382,9.57754770304362,10.750198364257812,-1.183319091796875,-0.653839111328125,7.841714998570884,0.3131773413681402,-3.837027200838415,10.204860142299108,2.934773763020833,-9.983971005394343,2.530707862739113,-7.617015796703295,-1.951549145299146,-5.182149263630755,-42.43272283272283,-6.578666567499058,29.86572618084883,33.17240243208434,31.6388714170186,1577399446.0,-27.68924734823921,-51.12795062332304,2.8132746
44074,1577399446.14,1.313099900512695,2.4247277313232423,9.719141929321289,1.7134892515601177,1.247787831078506,9.879235186916445,0.2158771830240878,-4.0294983988444,8.787461155192057,12.276077270507812,-0.5729675292968749,-0.501251220703125,7.414468904820884,2.9071714819931405,-3.623404153963415,8.526393345424108,0.8595784505208333,-5.589439755394345,4.699886030801212,-8.745462581400078,-0.9757745726495664,-4.645330800886364,-41.95791615791616,-7.099013075662825,29.5302662713032,33.22032527630515,31.73471710546021,1577399446.0,-27.68924734823921,-51.12795062332304,2.8132746
44075,1577399446.15,1.4842853192138672,-0.3214215728759765,8.379586100463866,2.922561089939024,-0.6627850937261806,10.94704912734613,-0.6604006245930986,-4.517915537516275,9.340521738688151,7.439041137695312,-1.335906982421875,-0.882720947265625,8.940347811070884,-1.91460586175686,-3.3487459508384148,7.916041782924108,0.3102620442708333,5.702064150855655,3.796061794108672,-8.369313653167819,-0.4878872863247798,-6.255786189119516,-49.08001628001628,-2.564564933092851,29.74591907029682,33.41201665318837,31.782639949681013,1577399446.0,-27.68924734823921,-51.12795062332304,2.8132746
44076,1577399446.16,0.8917204083251953,0.0305260711669921,9.479721763305664,-0.1264547242699597,-0.8507299240484465,8.625870617824647,0.4122017191569004,1.3227394124348952,9.760704130045571,9.315872192382812,-0.2677917480468749,-0.562286376953125,9.962686678258384,-1.68572402581936,-3.4250398961509148,9.106227329799108,2.263387044270833,6.144569033668155,4.519121183462703,-7.052792404354904,-1.138403668091164,-5.987376957747332,-49.31741961741962,2.230056463559001,29.96157186929044,33.17240243208435,31.638871417018603,1577399446.0,-27.68924734823921,-51.12795062332304,2.8132746
44077,1577399446.17,1.8733430889892575,-2.1793220611572264,8.531617905883788,1.612932781833555,-2.652366673316025,11.368428619533631,1.3555171732584628,2.2696461690266925,12.611001206461587,9.010696411132812,-0.0541687011718748,-0.409698486328125,8.116373201695884,0.1300718726181402,-3.5318514195884148,9.991237095424108,6.596883138020833,-1.5000842866443451,4.519121183462703,-7.052792404354904,-1.138403668091164,-5.182149263630755,-48.13040293040292,6.9503426447588845,29.86572618084883,33.36409380896756,31.6388714170186,1577399446.0,-27.68924734823921,-51.12795062332304,2.8132746
44078,1577399446.18,0.9036914166259764,-0.354940396118164,9.295368235473632,0.8180578306616804,0.1033594375238185,10.051617706447692,0.1392627298990879,3.5146310323079417,11.524033652750653,11.909866333007812,0.0984191894531251,0.719451904296875,9.215006014195884,0.8319761694931402,-1.7923494664634148,10.662623814174108,12.029012044270834,-5.833580380394345,2.7114727100776186,-9.30968597374847,-0.162629095441591,2.333309214790685,-50.029629629629625,8.437046953798218,29.86572618084883,33.17240243208434,31.543025728577,1577399446.0,-27.68924734823921,-51.12795062332304,2.8132746
44079,1577399446.19,0.3685873455810546,1.0516530792236327,11.407054099731443,0.5104029173316026,0.0566725051507721,10.50771312270746,0.5486712137858066,-3.673959452311198,14.338417704264325,11.711502075195312,0.4341125488281252,0.811004638671875,10.283121248570884,0.9998228491806403,-1.9449373570884148,9.197780064174108,31.10249837239584,-2.293541317894345,4.3383563361241935,-9.497760437864605,-0.813145477207972,-3.840103106769776,-45.99377289377289,7.136180683388801,29.86572618084883,33.24428669841555,31.75867852757061,1577399446.0,-27.68924734823921,-51.12795062332304,2.8132746
44080,1577399446.2,0.4416104962158202,-0.125097036743164,10.272202512817382,0.0423364927710553,-0.3443562729253992,10.844098455959411,-0.1288878560384111,0.7780585347493479,11.86161608683268,8.552932739257812,-0.3288269042968749,1.207733154296875,9.733804842320884,-0.0835511742568597,-1.3651033727134148,8.495875767299108,45.53731282552084,4.359290713355655,4.699886030801212,-7.993164724935555,0.0,-1.4244200244200351,-41.95791615791616,7.024677860210852,29.86572618084883,33.50786234162997,31.782639949681013,1577399446.0,-27.68924734823921,-51.12795062332304,2.8132746
44081,1577399446.21,1.0569203228759765,-0.699705435180664,9.8388520123291,0.0040292662085553,-0.2126751816168054,10.41074795547113,-0.3156355855305986,-2.8156381571451816,9.223205857340496,8.736038208007812,0.0984191894531251,1.696014404296875,9.001382967320884,2.1747496069931405,-1.9754549352134148,7.671901157924108,51.97652180989584,1.6737438383556549,4.157591488785688,-8.55738811728395,-1.4636618589743595,3.406946140279458,-46.23117623117623,7.693694799278552,29.72195764818641,33.31617096474676,31.447180040135382,1577399446.0,-27.68924734823921,-51.12795062332304,2.8132746
44082,1577399446.22,1.461540403442383,-0.5201403106689453,10.628938560180664,2.02473546738043,-1.4145644150152428,11.871210968166444,0.4600857523600253,-2.6600150492350254,9.613460727945965,12.184524536132812,1.227569580078125,2.275848388671875,9.794839998570884,2.2357847632431405,-1.2735506383384148,8.526393345424108,44.98799641927084,7.380530947730655,3.434532099431656,-9.685834901980732,-0.4878872863247798,2.870127677535077,-0.1749287749287778,-0.1115028231779525,29.86572618084883,33.31617096474676,31.543025728577,1577399446.0,-27.68924734823921,-51.12795062332304,2.8132746
44083,1577399446.23,0.8797494000244139,0.5141548065185546,10.791744273071288,0.2123248106421491,-0.3874519028082117,11.842480548244568,0.3499524759928379,5.106775136311849,9.529663669840495,12.031936645507812,1.349639892578125,2.733612060546875,13.029703279820884,-1.4873597680068598,-1.1819979039634148,9.350367954799108,37.11446126302084,4.603431338355655,3.434532099431656,-9.685834901980732,-0.4878872863247798,5.554219991257025,-0.6497354497354497,-0.1858380386299179,29.67403480396561,33.12447958786354,31.6388714170186,1577399446.0,-27.68924734823921,-51.12795062332304,2.8132746
44084,1577399446.24,1.109592759399414,-0.2364274139404296,11.44895262878418,0.8408027464331645,-0.6759532028570399,11.62460819717035,-0.1456472676595049,0.677502065022786,8.789855356852213,11.375808715820312,2.051544189453125,2.993011474609375,11.244424959508384,2.2510435523056405,-0.4495760289634147,10.998317173549108,23.82405598958333,-3.910972958519345,4.3383563361241935,-9.497760437864605,-1.3010327635327583,3.943764603023855,-53.82808302808303,7.099013075662818,29.86572618084883,33.19636385419474,31.782639949681013,1577399446.0,-27.68924734823921,-51.12795062332304,2.8132746
44085,1577399446.25,0.5373785626220703,-1.2791022369384766,11.385506284790038,2.2737324400366803,-1.3331615585699303,11.361246014553162,-0.8232063374837236,-0.0024512064615884,11.8496450785319,10.078811645507812,2.082061767578125,2.916717529296875,12.358316561070884,2.0526792944931405,0.4659513147865852,10.937282017299108,19.627888997395832,-0.3709338960193452,3.79606179410867,-9.30968597374847,0.4878872863247865,2.333309214790685,-63.32421652421653,6.9503426447588845,29.86572618084883,33.17240243208434,31.73471710546021,1577399446.0,-27.68924734823921,-51.12795062332304,2.8132746
44086,1577399446.26,0.8725667950439452,-0.8577227447509765,10.813292088012696,0.1596523741187115,0.979637245141006,11.768260296779724,-1.9508753194173167,3.739685988362629,11.14096138712565,11.970901489257812,2.265167236328125,3.099822998046875,13.395914217320884,-0.7854554711318598,-0.5411287633384148,12.402125767299108,16.240437825520832,-5.070640927269345,3.9768266414471753,-8.369313653167819,-0.6505163817663776,-4.645330800886364,-64.74863654863654,7.322018722018717,29.72195764818641,33.36409380896756,31.73471710546021,1577399446.0,-27.68924734823921,-51.12795062332304,2.8132746
44087,1577399446.27,1.305917295532227,0.6697779144287109,11.8691350201416,2.0582542906226178,-0.0378984604253997,11.756289288478944,0.6839436075846348,-4.073791129557292,9.949846061197915,13.374710083007812,3.394317626953125,3.160858154296875,10.817178865758384,6.4014341773056405,-0.6326814977134148,11.639186314174108,6.642659505208334,1.9941784086681549,3.9768266414471753,-8.369313653167819,-0.6505163817663776,30.247869277498904,-61.42498982498982,8.585717384702155,29.86572618084883,33.17240243208434,31.68679426123941,1577399446.0,-27.68924734823921,-51.12795062332304,2.8132746
44088,1577399446.28,0.9144653240966796,-0.5799953521728515,11.270584605102538,1.4477328672827738,0.7090924575433497,10.77466660781488,0.1775699564615878,1.5442030659993489,9.086736362711587,12.306594848632812,2.890777587890625,3.054046630859375,13.365396639195884,-1.7925355492568598,0.1607755335365852,11.822291782924108,-1.7344156901041667,5.671546572730655,4.157591488785687,-9.12161150963234,-0.162629095441591,33.46878005396522,-64.27382987382987,-0.9291901931495864,29.841764758738428,33.17240243208434,31.782639949681013,1577399446.0,-27.68924734823921,-51.12795062332304,2.8132746
44089,1577399446.29,0.5900509991455077,-0.7906850982666015,10.181222849731444,-0.8770369447289437,0.2110985122308497,7.853740582424256,0.7545725565592442,-1.996821189371745,9.682892576090495,10.231399536132812,2.509307861328125,2.367401123046875,13.762125154820884,3.700628513243141,-1.2125154820884148,12.371608189174108,-5.396525065104167,4.054114932105655,3.0730024047546407,-7.052792404354904,-1.138403668091164,29.17423235201012,-63.32421652421653,-1.8212127785731853,29.86572618084883,33.31617096474676,31.782639949681013,1577399446.0,-27.68924734823921,-51.12795062332304,2.8132746
44090,1577399446.3,0.0130483990478515,-0.2831143463134765,10.379941587524414,2.6496221006812117,-2.633213060034775,10.537640643459412,1.4871982645670565,0.3423138326009106,11.277430881754556,10.811233520507812,3.028106689453125,1.634979248046875,10.435709139195884,7.2711851538681405,-1.7007967320884148,11.944362095424108,-6.647745768229167,3.4742809477306547,2.530707862739113,-9.497760437864605,0.0,-1.4244200244200351,-47.65559625559625,-1.8955479940251536,30.009494713511245,33.12447958786354,31.5909485727978,1577399446.0,-27.68924734823921,-51.12795062332304,2.8132746
44091,1577399446.31,0.1842338177490239,0.0233434661865234,11.226291874389648,0.121345147556212,0.1500463698968658,9.299838385158631,-0.2988761739095049,-1.4497461100260416,11.405520670572916,11.803054809570312,3.028106689453125,1.940155029296875,10.206827303258384,0.0232603491806404,-1.0446688024009148,10.952540806361608,0.722249348958333,0.8345104399181548,3.524914523100908,-8.651425349342015,-0.2439436431623899,-1.9612384871644155,-63.79902319902319,2.490229717640881,29.86572618084883,33.22032527630515,31.6388714170186,1577399446.0,-27.68924734823921,-51.12795062332304,2.8132746
44092,1577399446.32,0.2117671368408203,1.3425485809326172,13.310444419555663,1.0909968199194928,0.4696722915277247,11.370822821193787,0.4241727274576816,-0.1724395243326822,10.827320969645182,11.757278442382812,2.845001220703125,1.696014404296875,7.658609529820884,7.0880796851181405,-1.9144197789634148,9.655543736049108,6.566365559895833,5.641028994605655,3.615296946770161,-7.240866868471033,-0.6505163817663776,-6.255786189119516,-57.62653642653642,6.9503426447588845,29.72195764818641,33.41201665318837,31.73471710546021,1577399446.0,-27.68924734823921,-51.12795062332304,2.8132746
44093,1577399446.33,-0.3724180682373036,1.1055226165771483,12.57303030822754,2.02473546738043,0.2829245620355373,11.70122265029535,0.0027932352701816,-1.2570128763834634,10.630996433512369,9.743118286132812,2.265167236328125,1.665496826171875,10.527261873570884,3.3038999976181405,-0.3275057164634147,8.678981236049108,0.4628499348958333,5.885169619605655,4.338356336124197,-9.12161150963234,-0.3252581908831888,-5.182149263630755,-53.82808302808303,6.9503426447588845,29.67403480396561,33.31617096474676,31.543025728577,1577399446.0,-27.68924734823921,-51.12795062332304,2.8132746
44094,1577399446.34,0.3793612530517578,-0.527322915649414,11.265796201782225,0.5834260679663679,0.4409418716058497,8.591154693752381,-0.7968701192220048,-0.7518363260904946,11.60783071085612,7.0880889892578125,1.746368408203125,1.207733154296875,9.489664217320884,-0.6023500023818598,-0.2969881383384147,8.617946079799108,-1.3682047526041667,5.183265322730655,4.338356336124197,-9.497760437864605,-1.951549145299146,28.10059542652133,-61.42498982498982,-1.9698832094771224,29.96157186929044,33.17240243208434,31.782639949681013,1577399446.0,-27.68924734823921,-51.12795062332304,2.8132746
44095,1577399446.35,0.2117671368408208,-0.2699462371826172,11.33881935241699,1.0191707701148058,-0.1240897201910247,11.002115765529725,0.4876190714518222,3.959952541097005,11.241517856852212,7.1949005126953125,2.127838134765625,0.200653076171875,7.765421053258384,3.5938169898056405,-1.6855379430259148,8.617946079799108,2.477010091145833,-0.8286975678943449,4.338356336124197,-8.93353704551621,-1.301032763532762,18.437863097122342,-55.72730972730972,-2.564564933092851,29.79384191451762,33.26824812052595,31.6149099949082,1577399446.0,-27.68924734823921,-51.12795062332304,2.8132746
44096,1577399446.36,1.674624351196289,0.1861491790771484,9.80772739074707,-0.2928517396508187,-1.3594977768316492,8.545664862209414,1.0251173441569004,-0.4669263285319009,9.833727280680336,6.4167022705078125,3.028106689453125,-0.043487548828125,5.858072420445884,2.1747496069931405,-1.7618318883384148,8.862086704799108,-0.3000895182291667,-14.744713192894343,2.530707862739113,-8.369313653167819,-1.3010327635327552,29.17423235201012,-49.08001628001628,-2.564564933092851,29.86572618084883,33.22032527630515,31.926408482343422,1577399446.0,-27.68924734823921,-51.12795062332304,2.8132746
44097,1577399446.37,0.5325901593017578,1.4718354705810546,10.276990916137697,1.5482893370093365,1.0538574966058496,10.415536358791442,-0.0881864278157548,-4.687903855387369,9.651767954508465,6.9355010986328125,2.753448486328125,-0.257110595703125,3.935464998570884,6.5082457007431405,-2.0975252477134148,7.366725376674108,-0.8799235026041667,-9.709312802269343,4.699886030801212,-7.240866868471033,0.3252581908831954,28.10059542652133,-50.029629629629625,-1.8212127785731853,29.96157186929044,33.17240243208434,31.447180040135382,1577399446.0,-27.68924734823921,-51.12795062332304,2.8132746
44098,1577399446.38,-0.1306037005615224,2.721608737182617,10.944973179321288,0.3906928343237901,1.2884892593011623,10.189284301906678,-1.3020466695149735,-3.2789161783854164,9.23278266398112,6.9049835205078125,3.302764892578125,-0.043487548828125,5.339273592320884,0.8624937476181402,-1.4719148961509148,5.154200962611608,-4.816691080729167,1.7347789946056549,4.699886030801212,-8.745462581400078,-0.3252581908831888,13.338087701050656,-48.84261294261295,-8.325544130620273,30.009494713511245,33.26824812052595,31.782639949681013,1577399446.0,-27.68924734823921,-51.12795062332304,2.8132746
44099,1577399446.39,0.314717808227539,1.370081900024414,11.399871494750975,0.6217332945288678,0.4002404433831935,9.000563177639101,-2.465628676350911,-0.2203235575358072,10.769860129801431,4.1278839111328125,2.158355712890625,-0.394439697265625,3.4777013266958843,0.0690367163681402,-0.6937166539634148,2.422877720424107,-4.938761393229167,13.300941103980657,3.79606179410867,-7.617015796703295,3.302913498259841e-15,-36.31762010280528,-50.029629629629625,-7.024677860210856,29.841764758738428,33.22032527630515,32.40563692455147,1577399446.0,-27.68924734823921,-51.12795062332304,2.8132746
44100,1577399446.4,0.573291587524414,-0.3884592193603515,10.066301170043944,-0.3072169496117561,-0.1743679550543054,10.81297383437738,0.6204972635904942,6.51695991414388,11.935836338297523,1.4728546142578125,2.265167236328125,-0.959014892578125,4.271158357945884,2.2357847632431405,-1.0599275914634148,3.521510532924107,2.263387044270833,6.068275088355655,5.242180572816732,-7.428941332587162,-0.162629095441591,-40.61216780476041,-50.029629629629625,-2.564564933092851,29.86572618084883,33.41201665318837,31.73471710546021,1577399446.0,-27.68924734823921,-51.12795062332304,2.8132746
44101,1577399446.41,0.8797494000244139,-1.3365630767822263,11.0263760357666,0.8036926207007429,-0.5646228256597742,10.470602996975035,2.1958819559733067,2.489912721761067,10.403547275797523,3.0902862548828125,3.638458251953125,-0.836944580078125,2.4706212485708843,4.0058042944931405,-2.5247713414634148,2.758571079799107,-1.1240641276041667,-3.3006213960193453,5.422945420155245,-8.369313653167819,0.0,-40.61216780476041,-50.029629629629625,-2.564564933092851,29.72195764818641,33.31617096474676,31.6388714170186,1577399446.0,-27.68924734823921,-51.12795062332304,2.8132746
44102,1577399446.42,0.8749609967041014,1.1079168182373047,11.411842503051757,2.44611495956793,-1.0482515610113368,8.919160321193788,-0.1576182759602861,-0.5866364115397135,9.78823744913737,4.3415069580078125,4.340362548828125,-1.020050048828125,-1.801839688929116,6.4166929663681405,-0.5716463414634148,2.697535923549107,1.5614827473958333,-8.030846005394345,3.615296946770161,-7.617015796703295,0.0,-32.02307240085019,-50.029629629629625,9.923751262837555,29.86572618084883,33.17240243208434,31.73471710546021,1577399446.0,-27.68924734823921,-51.12795062332304,2.8132746
44103,1577399446.43,1.2676100689697265,0.1047463226318359,10.915045658569335,-0.5753675355492566,0.5702287612542878,10.051617706447692,-0.0810038228352865,-0.4274220011393232,11.188845420328777,2.2357940673828125,4.233551025390625,-0.775909423828125,2.6689855063833843,1.2897398413681402,-1.1667391149009148,2.102443150111607,5.589803059895833,-7.954552060081845,3.705679370439415,-7.3349041005291,0.4065727386039876,-18.065792369496087,-50.029629629629625,10.369762555549354,29.91364902506964,33.148441009973936,31.68679426123941,1577399446.0,-27.68924734823921,-51.12795062332304,2.8132746
44104,1577399446.44,0.285987388305664,3.0783447845458984,10.959338389282223,1.8571413511694923,-1.1152892074957117,10.87043467422113,-1.704272548421223,-7.517850217692057,9.630220139567058,0.1300811767578124,4.706573486328125,-0.684356689453125,-0.4590662514291157,6.5692808569931405,-0.6326814977134148,-0.6593976702008928,2.507527669270833,2.4366832914806547,4.157591488785688,-8.55738811728395,-0.162629095441591,-4.108512338141983,-50.029629629629625,7.247683506566751,30.009494713511245,33.17240243208434,31.73471710546021,1577399446.0,-27.68924734823921,-51.12795062332304,2.8132746
44105,1577399446.45,0.4918887310791015,1.6274585784912108,9.652104282836913,-0.0318837586937874,-0.677150303687118,10.451449383693786,-0.2701457539876298,3.687013551839192,9.55839408976237,-2.0061492919921875,4.859161376953125,-1.111602783203125,-2.015462735804116,3.975286716368141,1.0763028772865852,-0.2626691545758928,1.2563069661458333,3.687903994605655,4.157591488785688,-9.30968597374847,0.4878872863247865,-6.255786189119516,-50.029629629629625,7.545024368374619,29.86572618084883,33.12447958786354,31.543025728577,1577399446.0,-27.68924734823921,-51.12795062332304,2.8132746
44106,1577399446.46,0.525407554321289,-0.5512649322509765,9.0727074810791,0.0495190977515241,2.088152613793349,8.569606878810976,-0.2222617207845048,3.555332460530598,8.433119309488932,-1.3042449951171875,4.737091064453125,-0.348663330078125,-1.832357267054116,4.5856382788681405,-0.1444002477134147,-0.1405988420758928,-1.8259684244791667,-3.819420224144345,4.699886030801212,-8.369313653167819,0.0,2.333309214790685,-55.72730972730972,6.9503426447588845,29.96157186929044,33.41201665318837,31.6388714170186,1577399446.0,-27.68924734823921,-51.12795062332304,2.8132746
44107,1577399446.47,0.0082599957275395,1.6885107208251953,10.281779319458009,0.4708985899390241,-0.1923244675054778,9.72720338149652,1.041876755777994,0.8630526936848956,8.708452500406901,-0.8769989013671875,4.645538330078125,-0.547027587890625,-0.3064783608041157,4.2041685523056405,0.3896573694740852,-0.8272443498883928,-10.798136393229166,-3.727867489769345,4.42873875979345,-7.522978564645229,-0.2439436431623899,-6.255786189119516,-42.43272283272283,7.693694799278552,29.841764758738428,33.17240243208434,31.638871417018603,1577399446.0,-27.68924734823921,-51.12795062332304,2.8132746
44108,1577399446.48,0.400909067993164,-1.1953051788330078,9.13016832092285,0.3056986753882428,-0.1384549301519617,9.151397882228943,-0.5047775166829424,-4.333562009684244,7.61669654337565,-2.4028778076171875,3.821563720703125,-0.592803955078125,-2.992025235804116,2.8156187476181405,0.4354337366615852,-1.3918195452008928,-18.152872721354168,-5.650474911644345,3.253767252093146,-9.497760437864605,0.9757745726495798,0.1860353638131292,-50.029629629629625,7.545024368374619,30.009494713511245,33.17240243208434,31.782639949681013,1577399446.0,-27.68924734823921,-51.12795062332304,2.8132746
44109,1577399446.49,-0.8464699969482412,-0.3477577911376953,10.645697971801756,0.8300288389624616,0.318837586937881,7.710088482814882,-0.5766035664876299,-4.1444200785319,8.303832419840495,-2.3723602294921875,2.478790283203125,-0.012969970703125,-4.090658048304116,2.0221617163681405,0.6185392054115852,-0.9035382952008928,-25.812784830729168,3.3827282133556547,4.699886030801212,-7.993164724935555,-0.3252581908831888,-4.108512338141983,-42.43272283272283,7.0990130756628185,29.67403480396561,33.17240243208434,31.782639949681013,1577399446.0,-27.68924734823921,-51.12795062332304,2.8132746
44110,1577399446.5,-0.6046556292724599,1.4047978240966796,10.020811338500977,-1.1356107240258186,-0.5478634140386804,9.457855694728943,0.9556854960123692,2.0014955830891927,9.496144846598307,-1.0906219482421875,1.471710205078125,-0.440216064453125,-1.0999353920541155,0.3131773413681402,0.8931974085365852,-0.7814679827008928,-29.535929361979168,2.6197887602306547,4.338356336124197,-8.745462581400078,1.3010327635327683,-6.255786189119516,-50.029629629629625,8.139706091990352,29.72195764818641,33.17240243208434,31.782639949681013,1577399446.0,-27.68924734823921,-51.12795062332304,2.8132746
44111,1577399446.51,-0.2120065570068349,0.2890998504638671,8.765052567749022,-0.4137589234887097,-0.7537647568121184,8.588760492092225,-0.4904123067220048,-1.5455141764322915,9.139408799235026,-2.7233123779296875,0.113677978515625,0.368499755859375,-3.373494962366616,0.8624937476181402,1.3509610804115852,-1.6969953264508928,-29.139200846354168,4.054114932105655,5.242180572816732,-8.55738811728395,0.8131454772079753,-5.18214926363075,-51.92885632885633,7.545024368374618,29.93761044718004,33.340132386857164,31.71075568334981,1577399446.0,-27.68924734823921,-51.12795062332304,2.8132746
44112,1577399446.52,-0.1545457171630849,0.5500678314208984,8.347264378051756,-0.2928517396508187,1.757752784691787,8.629461920314881,-0.8232063374837236,4.975094045003255,10.513680552164711,-3.745651245117188,0.4341125488281251,0.383758544921875,-1.7408045326791155,-1.88408828363186,1.6866544397865852,-1.7885480608258928,-23.371378580729168,3.809974307105655,5.242180572816732,-8.55738811728395,0.8131454772079753,-6.255786189119516,-59.52576312576312,7.247683506566751,29.67403480396561,33.36409380896756,31.926408482343422,1577399446.0,-27.68924734823921,-51.12795062332304,2.8132746
44113,1577399446.53,0.4727351177978515,-0.1562216583251953,9.592249241333008,-0.3551009828148811,0.2661651504144435,9.247165948635194,0.0530714701334628,1.0797279439290357,11.828097263590497,-1.6399383544921875,1.013946533203125,0.688934326171875,-1.7102869545541155,-1.1211488305068598,1.7171720179115852,-1.4528547014508928,-15.864054361979166,-2.0188831147693453,4.8806508781397175,-7.805090260819425,0.4878872863247865,-21.2867031459624,-57.62653642653642,6.9503426447588845,29.62611195974481,33.22032527630515,31.782639949681013,1577399446.0,-27.68924734823921,-51.12795062332304,2.8132746
44114,1577399446.54,-0.1329979022216787,1.2970587493896484,10.818080491333006,-0.3000343446312874,-0.2414056015386804,9.67812224746332,-0.7058904561360674,-3.277719077555338,11.93823053995768,-1.6094207763671875,0.9529113769531252,0.719451904296875,-1.893392423304116,0.4352476538681402,0.9237149866615852,-3.161839076450893,-9.028116861979166,3.0470348539806547,3.79606179410867,-8.93353704551621,0.4878872863247865,-4.108512338141983,-55.72730972730972,11.41045557187689,29.86572618084883,33.41201665318837,31.782639949681013,1577399446.0,-27.68924734823921,-51.12795062332304,2.8132746
44115,1577399446.55,0.9898826763916014,-0.460285269165039,8.43465273864746,0.6767999327124616,-0.4556866501226653,10.349695813137146,-0.5394934407552084,1.0928960530598952,8.949069767252604,-4.233932495117188,2.097320556640625,0.368499755859375,-3.053060392054116,0.93878769293064,1.5645841272865852,-2.993992396763393,-8.692423502604166,4.099891299293155,4.338356336124197,-9.12161150963234,0.0,-4.108512338141983,-55.72730972730972,11.41045557187689,29.79384191451762,33.41201665318837,31.6149099949082,1577399446.0,-27.68924734823921,-51.12795062332304,2.8132746
44116,1577399446.56,-0.4131194964599599,0.1669955657958984,10.054330161743165,-0.5346661073265999,-0.9333298813238368,8.459473602443788,-0.3180297871907548,0.7038382832845043,9.591912913004558,-4.478073120117188,2.295684814453125,0.749969482421875,-1.893392423304116,5.4401304663681405,3.029427877286585,-2.551487513950893,-17.817179361979168,-0.2183460053943452,4.338356336124197,-9.12161150963234,0.0,-6.255786189119516,-57.62653642653642,7.247683506566751,29.817803336628028,33.31617096474676,31.782639949681013,1577399446.0,-27.68924734823921,-51.12795062332304,2.8132746
44117,1577399446.57,0.3578134381103515,-0.0125695587158203,8.557954124145507,-0.0223069520531624,-0.2940780380621179,9.9582438417016,-1.1464235616048173,1.44125239461263,10.516074753824867,-1.8230438232421875,2.173614501953125,1.055145263671875,-4.334798673304116,2.9682066382431405,2.297006002286585,-1.4223371233258928,-13.209025065104166,-3.3616565522693453,5.242180572816732,-8.181239189051688,0.4878872863247865,1.7964907520463047,-64.74863654863654,11.782131649136725,29.86572618084883,33.31617096474676,31.73471710546021,1577399446.0,-27.68924734823921,-51.12795062332304,2.8132746
44118,1577399446.58,0.2500743634033203,1.6897078216552734,10.004051926879882,2.2833092466773053,3.2948302505121,9.673333844143007,1.3124215433756503,-0.4405901102701822,10.130608286539712,-1.3347625732421875,2.631378173828125,0.627899169921875,-3.663411954554116,6.3556578101181405,2.358041158536585,-1.5138898577008928,-11.774698893229166,-2.7818225678943453,5.242180572816732,-9.685834901980732,-0.8131454772079686,29.17423235201012,-62.374603174603166,9.477739970125754,30.009494713511245,33.22032527630515,31.782639949681013,1577399446.0,-27.68924734823921,-51.12795062332304,2.8132746
44119,1577399446.59,-0.7231686114501944,-0.5668272430419922,9.535985502319337,-0.1683532533226936,-0.0450810654058679,6.963097564846132,0.8694942362467442,-1.168427414957682,7.729224021402994,-3.944015502929688,1.654815673828125,0.063323974609375,-1.801839688929116,1.3812925757431402,1.1678556116615852,-2.124241420200893,-16.016642252604168,3.2911754789806547,4.067209065116431,-8.087201956993622,0.2439436431623998,30.78468774024328,-60.0005698005698,8.808723031058054,29.91364902506964,33.22032527630515,30.96795159792734,1577399446.0,-27.68924734823921,-51.12795062332304,2.8132746
44120,1577399446.6,-1.143351002807616,-1.0133458526611328,7.995316734008788,-0.912949969631288,-1.6276483627691491,8.118299865871522,-0.3323949971516928,-0.9445695597330732,9.239965268961589,-3.0132293701171875,-0.0541687011718748,0.475311279296875,-2.137533048304116,-1.5331361351943598,1.503548971036585,-2.200535365513393,-14.856974283854168,8.204505557105655,4.157591488785688,-8.93353704551621,-0.8131454772079686,30.247869277498904,-53.82808302808303,8.139706091990352,30.009494713511245,33.22032527630515,31.75867852757061,1577399446.0,-27.68924734823921,-51.12795062332304,2.8132746
44121,1577399446.61,-0.9996989031982412,-0.8577227447509765,9.36719428527832,-1.7557089540062871,0.0722348159417872,7.298285797268007,0.3523466776529941,-2.1069544657389323,10.1258198832194,-1.5178680419921875,-0.7255554199218749,1.024627685546875,-3.053060392054116,0.6183531226181402,0.1607755335365852,-2.643040248325893,-9.699503580729166,6.922767275855655,3.9768266414471753,-7.617015796703295,-0.6505163817663776,-5.182149263630755,-50.029629629629625,7.247683506566751,30.009494713511245,33.36409380896756,31.73471710546021,1577399446.0,-27.68924734823921,-51.12795062332304,2.8132746
44122,1577399446.62,-0.0827196673583974,0.8038532073974609,8.371206394653319,0.4397739683569928,-0.6412372787847742,12.584683062893005,0.2254539896647128,2.492306923421223,9.898370725504558,-0.5413055419921875,-0.0541687011718748,1.238250732421875,-2.747884610804116,1.7475035132431402,2.358041158536585,-1.8495832170758928,-6.800333658854167,5.152747744605655,4.338356336124197,-8.369313653167819,0.0,-1.9612384871644155,-50.029629629629625,-3.7539283803243206,30.009494713511245,33.22032527630515,31.782639949681013,1577399446.0,-27.68924734823921,-51.12795062332304,2.8132746
44123,1577399446.63,0.8689754925537109,-0.0951695159912109,8.517252695922851,0.0986002317847277,-0.127681022681259,8.744383600002381,0.2613670145670566,2.1738781026204417,8.603107627360025,-2.4181365966796875,0.1899719238281251,1.573944091796875,-1.252523282679116,0.7099058569931405,2.831063619474085,-1.0103498186383928,-6.434122721354167,-1.8662952241443451,4.42873875979345,-8.275276421109751,-0.0813145477207921,-5.18214926363075,-41.95791615791616,-4.051269242132188,29.86572618084883,33.17240243208434,31.5909485727978,1577399446.0,-27.68924734823921,-51.12795062332304,2.8132746
44124,1577399446.64,0.6355408306884764,-0.1945288848876953,9.59703764465332,1.3208401792944926,0.443336073266006,10.343710308986756,0.4217785257975254,-0.2538423807779947,11.5048800394694,-2.7385711669921875,1.166534423828125,0.902557373046875,-1.1914881264291155,5.4706480444931405,2.510629049161585,-0.9645734514508928,-3.687540690104168,-1.927330380394345,4.157591488785688,-8.55738811728395,-0.4878872863247798,-4.108512338141983,-42.43272283272283,-4.6459509657479225,29.86572618084883,33.36409380896756,31.6388714170186,1577399446.0,-27.68924734823921,-51.12795062332304,2.8132746
44125,1577399446.65,0.2141613385009765,-1.1282675323486326,8.170093455200194,0.9736809385718366,-0.2677418198003992,9.247165948635194,-0.6795542378743487,-1.1420911966959633,10.06357064005534,-2.1892547607421875,1.258087158203125,0.566864013671875,-0.5811365639291157,-3.3794496117568595,0.5880216272865852,-1.6359601702008928,0.7985432942708333,-0.9507678803943452,4.157591488785688,-8.55738811728395,-1.138403668091164,-4.108512338141983,-34.83581603581603,-4.94329182755579,29.86572618084883,33.17240243208434,31.782639949681013,1577399446.0,-27.68924734823921,-51.12795062332304,2.8132746
44126,1577399446.66,0.5038597393798827,-0.2388216156005859,9.575489829711913,-0.4341096376000374,0.4648838882074122,9.922330816799256,0.1608105448404941,-0.1077960795084634,8.22961216837565,0.2063751220703124,1.670074462890625,0.460052490234375,-1.2830408608041155,1.3507749976181402,0.6185392054115852,-0.5373273577008928,-3.1992594401041665,-1.0423206147693451,4.157591488785687,-8.369313653167817,0.6505163817663876,-4.108512338141983,-34.83581603581603,-3.7539283803243206,29.96157186929044,33.17240243208434,31.782639949681013,1577399446.0,-27.68924734823921,-51.12795062332304,2.8132746
44127,1577399446.67,0.4176684796142577,0.2388216156005859,7.844482029418945,1.0119881651343363,0.2865158645257721,8.482218518215273,0.849143522135416,1.5334291585286453,7.009766422526042,-0.9990692138671876,1.044464111328125,0.505828857421875,-0.3522547279916156,3.761663669493141,1.2746671350990852,0.1950945172991072,-12.354532877604166,-1.0728381928943451,5.60371026749375,-8.55738811728395,0.8131454772079753,-4.645330800886364,-48.60520960520961,7.024677860210852,29.72195764818641,33.26824812052595,31.68679426123941,1577399446.0,-27.68924734823921,-51.12795062332304,2.8132746
44128,1577399446.68,0.5206191510009766,1.1366472381591797,8.0384123638916,-0.4652342591820686,1.7314165664300685,7.3916596620141,3.3929827860514323,-4.165967893473307,9.52726946818034,-0.4497528076171875,0.5561828613281251,0.383758544921875,2.4401036704458843,0.1911070288681402,1.8697599085365848,-0.1405988420758928,-13.025919596354166,1.6127086821056549,5.60371026749375,-8.55738811728395,0.8131454772079753,-8.403060040097083,-50.029629629629625,-4.199939673036125,29.96157186929044,33.31617096474676,31.83056279390182,1577399446.0,-27.68924734823921,-51.12795062332304,2.8132746
44129,1577399446.69,-1.354040748901367,-0.0317231719970703,8.308957151489256,-0.3048227479515999,-1.3571035751714928,5.528970770412538,0.8527348246256503,3.6941961568196606,7.918365952555338,-0.7549285888671875,-0.3898620605468749,0.139617919921875,-0.0928553139291157,1.3202574194931402,0.1302579554115852,0.7138933454241072,-11.988321940104166,-1.7747424897693451,4.699886030801212,-8.745462581400078,-0.9757745726495664,-1.4244200244200351,-49.55482295482295,-4.720286181199891,29.86572618084883,33.12447958786354,31.97433132656424,1577399446.0,-27.68924734823921,-51.12795062332304,2.8132746
44130,1577399446.7,-0.3065775225830068,-0.7751227874755859,7.959403709106445,0.7438375791968366,0.7450054824456934,7.719665289455507,0.7952739847819004,1.122823573811848,6.352558066813151,0.3284454345703125,-2.693939208984375,-0.272369384765625,-3.175130704554116,-1.1821839867568598,-0.8157869664634148,1.2326921735491072,-16.077677408854168,-4.704429989769345,4.69988603080121,-7.993164724935555,-0.162629095441591,-1.4244200244200351,-49.55482295482295,-4.720286181199891,29.98553329140084,33.17240243208434,31.5909485727978,1577399446.0,-27.68924734823921,-51.12795062332304,2.8132746
44131,1577399446.71,0.2788047833251953,-0.2902969512939453,7.923490684204101,-0.042657666164491,0.3056694778070216,7.67297835708246,0.8527348246256503,-3.3698958414713536,8.24996288248698,-0.2666473388671875,-3.655242919921875,-0.745391845703125,0.9600011313833844,-5.36309218988186,-0.3580232945884147,-0.0643048967633928,-13.086954752604166,0.6514049711681549,3.615296946770161,-8.745462581400078,-0.6505163817663776,-25.58125084791753,-48.13040293040292,-3.7539283803243206,29.817803336628028,33.38805523107796,31.71075568334981,1577399446.0,-27.68924734823921,-51.12795062332304,2.8132746
44132,1577399446.72,1.052131919555664,0.8852560638427733,6.752726072387694,0.3128812803687116,1.3914399306878809,10.09231913467035,0.8479464213053378,0.6511658467610667,9.94625475870768,0.6183624267578125,-3.624725341796875,-0.592803955078125,-0.6726892983041157,-1.4263246117568598,-0.0528475133384147,-0.1100812639508928,-9.882609049479166,6.770179385230655,3.615296946770161,-8.745462581400078,-0.6505163817663776,-1.9612384871644155,-46.23117623117623,7.247683506566751,29.86572618084883,33.41201665318837,31.73471710546021,1577399446.0,-27.68924734823921,-51.12795062332304,2.8132746
44133,1577399446.73,0.1734599102783203,1.6154875701904297,10.595419736938476,0.5451188414038678,-2.38661028903868,8.413983770900819,-0.3419718037923174,3.0932515401204417,10.68845727335612,1.6254425048828125,-3.289031982421875,-0.501251220703125,0.9142247641958844,-3.65410781488186,0.2828458460365852,-0.4762922014508928,-4.542032877604167,4.878089541480655,3.9768266414471753,-9.873909366096864,0.9757745726495798,-6.255786189119516,-44.33194953194953,6.9503426447588845,29.817803336628028,33.22032527630515,31.6388714170186,1577399446.0,-27.68924734823921,-51.12795062332304,2.8132746
44134,1577399446.74,0.3314772198486332,-1.4155717315673828,9.80653028991699,0.6720115293921491,0.2015217055902247,8.631856121975037,3.0697655619303386,3.825877248128254,9.541634678141277,-0.3582000732421875,-4.082489013671875,-0.135040283203125,-1.1304529701791155,-6.88897109613186,-0.7852693883384148,0.5918230329241072,-1.2766520182291667,0.4530407133556547,4.790268454470467,-7.711053028761359,0.0813145477208022,-1.4244200244200351,-43.85714285714285,7.470689152922654,29.98553329140084,33.17240243208434,31.5909485727978,1577399446.0,-27.68924734823921,-51.12795062332304,2.8132746
44135,1577399446.75,0.975517466430664,0.1669955657958984,8.840469920043944,0.7175013609351177,-0.5550460190191493,8.163789697414492,0.3487553751627598,1.03902651570638,10.950622355143228,0.2216339111328124,-4.357147216796875,-0.287628173828125,1.0973302329458845,-3.44048476800686,0.2218106897865852,0.7291521344866072,5.208333333333333,-9.983971005394343,4.519121183462703,-7.805090260819425,0.8131454772079753,0.7228538265575211,-45.75636955636956,7.470689152922654,29.67403480396561,33.26824812052595,31.6388714170186,1577399446.0,-27.68924734823921,-51.12795062332304,2.8132746
44136,1577399446.76,0.1399410870361328,0.5764040496826172,10.475709653930664,1.0191707701148054,3.2852534438714747,11.15773887343988,0.6300740702311192,-2.3870760599772134,9.57754770304362,2.2052764892578125,-4.326629638671875,-0.318145751953125,-2.137533048304116,-3.74566054925686,-2.4332186070884148,0.1035417829241072,8.031209309895834,-1.2864612397693451,4.519121183462703,-7.805090260819425,0.8131454772079753,28.10059542652133,-49.08001628001628,7.247683506566751,29.86572618084883,33.31617096474676,31.782639949681013,1577399446.0,-27.68924734823921,-51.12795062332304,2.8132746
44137,1577399446.77,-0.6740874774169913,2.6904841156005856,10.231501084594726,0.1285277525366803,1.1472313613519434,11.38758223281488,-0.3515486104329424,-0.1149786844889321,8.756336533610027,2.5409698486328125,-3.777313232421875,-0.135040283203125,2.1044103110708843,-6.30913711175686,-0.6326814977134148,-0.0185285295758927,5.040486653645833,1.3990856352306549,4.157591488785688,-9.30968597374847,-0.162629095441591,28.10059542652133,-4.448188848188844,7.545024368374619,30.009494713511245,33.36409380896756,31.73471710546021,1577399446.0,-27.68924734823921,-51.12795062332304,2.8132746
44138,1577399446.78,0.4595670086669921,0.2531868255615234,8.110238413696289,-1.0362513551293342,-0.831576310767196,7.605940710598085,0.6540160868326816,1.863828987630208,8.094339774576822,-1.0601043701171875,-4.433441162109375,-0.623321533203125,0.5022374595083843,-6.18706679925686,-0.5869051305259148,0.6223406110491072,4.994710286458333,3.367469424293155,4.067209065116431,-9.215648741690408,-1.0570891203703652,-5.18214926363075,-50.029629629629625,7.024677860210852,29.93761044718004,33.36409380896757,31.71075568334981,1577399446.0,-27.68924734823921,-51.12795062332304,2.8132746
44139,1577399446.79,0.2548627667236328,-1.006163247680664,9.917860667114256,1.3567532041968364,-1.0171269394293054,12.352445501857847,1.0706071756998692,5.549702443440754,10.695639878336587,0.7099151611328125,-4.814910888671875,0.200653076171875,1.4635411704458845,-2.0366761742568595,0.9542325647865852,1.8430437360491072,1.0121663411458333,-6.504967099144345,3.615296946770161,-8.369313653167819,-0.3252581908831888,-6.255786189119516,-50.029629629629625,7.0990130756628185,30.201186090394465,33.31617096474676,31.782639949681013,1577399446.0,-27.68924734823921,-51.12795062332304,2.8132746
44140,1577399446.8,1.195784019165039,0.0688332977294921,9.005669834594725,0.4637159849585553,-0.0402926620855554,10.384411737209412,-0.5263253316243486,-5.801207627360026,10.468190720621743,2.6325225830078125,-4.113006591796875,0.597381591796875,4.149088045445884,-5.66826797113186,0.4354337366615852,1.4768327985491072,0.3407796223958333,-4.918053036644345,3.615296946770161,-8.369313653167819,-0.3252581908831888,-6.255786189119516,-49.08001628001628,8.139706091990352,30.009494713511245,33.41201665318837,31.83056279390182,1577399446.0,-27.68924734823921,-51.12795062332304,2.8132746
44141,1577399446.81,0.8079233502197265,1.256357321166992,9.810121592407226,2.5059700010718364,1.6715615249261622,12.093871722560976,0.7378131449381503,-1.063082541910807,11.298978696695965,3.4259796142578125,-3.289031982421875,0.444793701171875,0.8226720298208843,1.0150816382431402,0.5269864710365852,2.178737095424107,1.6530354817708333,0.2699352446056547,1.807648473385084,-8.745462581400078,-0.6505163817663776,-1.4244200244200351,-64.74863654863654,7.619359583826587,29.67403480396561,33.22032527630515,31.926408482343422,1577399446.0,-27.68924734823921,-51.12795062332304,2.8132746
44142,1577399446.82,0.736097300415039,-0.0365115753173828,9.501269578247069,0.9317824095191026,0.4732635940179596,11.243930133205506,-0.4856239034016927,-0.3017264139811197,11.937033439127603,4.4940948486328125,-1.915740966796875,0.475311279296875,2.9741612876333843,-7.4382875023818595,-0.3275057164634147,1.6599382672991072,5.956013997395833,2.451942080543155,1.807648473385084,-8.745462581400078,-0.6505163817663776,-0.350783098931257,-64.27382987382987,7.768030014730519,30.009494713511245,33.17240243208434,31.926408482343422,1577399446.0,-27.68924734823921,-51.12795062332304,2.8132746
44143,1577399446.83,0.295564194946289,-1.4335282440185546,10.306918436889648,-0.6950776185570686,-2.2764770126714926,9.800226532131289,1.8702705301920568,-0.9337956522623696,10.72676449991862,0.6946563720703125,-3.517913818359375,0.307464599609375,5.034097811070884,-0.5413148461318598,0.3133634241615852,1.9651140485491072,11.876424153645834,5.885169619605655,3.3441496757623987,-7.711053028761361,0.8944600249287774,28.637413889265726,-63.7990231990232,7.768030014730519,29.91364902506964,33.17240243208434,31.73471710546021,1577399446.0,-27.68924734823921,-51.12795062332304,2.8132746
44144,1577399446.84,0.8198943585205077,-1.3102268585205077,9.077495884399411,2.165993365329649,-4.373797666968368,11.524051727443789,0.4074133158365879,5.887284877522786,9.129831992594402,3.3954620361328125,-3.380584716796875,1.390838623046875,3.935464998570884,-3.2573792992568595,-0.2664705602134147,3.613063267299107,10.686238606770834,0.4530407133556547,4.8806508781397175,-9.30968597374847,-1.138403668091164,-6.255786189119516,-63.32421652421653,8.139706091990352,29.817803336628028,33.36409380896756,31.782639949681013,1577399446.0,-27.68924734823921,-51.12795062332304,2.8132746
44145,1577399446.85,0.6546944439697265,0.3250128753662109,10.633726963500976,-1.5641728211937873,1.2429994277581935,8.543270660549256,0.1320801249186191,-2.02555160929362,8.059623850504558,4.7687530517578125,-3.197479248046875,1.634979248046875,4.240640779820884,-7.6519105492568595,1.0457852991615852,4.131862095424108,3.239949544270833,-1.988365536644345,4.8806508781397175,-9.30968597374847,-1.138403668091164,-4.645330800886364,-49.55482295482295,7.024677860210852,29.86572618084883,33.12447958786354,31.782639949681013,1577399446.0,-27.68924734823921,-51.12795062332304,2.8132746
44146,1577399446.86,0.3230975140380863,2.066794583129883,8.961377103881835,1.3735126158179305,1.6164948867425684,10.790228918605896,-0.4568934834798173,-1.3288389261881512,8.291861411539713,5.7300567626953125,-1.137542724609375,1.589202880859375,3.1725255454458843,0.8777525366806407,-0.5258699742759148,4.345485142299108,-11.149088541666666,1.4296032133556549,4.428738759793447,-7.899127492877491,-0.0813145477207921,-6.255786189119516,-60.47537647537648,7.024677860210852,29.86572618084883,33.24428669841555,31.782639949681013,1577399446.0,-27.68924734823921,-51.12795062332304,2.8132746
44147,1577399446.87,0.5900509991455077,0.5189432098388671,8.86920033996582,-1.6072684510765998,0.347568006859756,8.358917132717226,-0.4377398701985673,7.0269248677571605,11.921471128336588,-1.1211395263671875,-8.080291748046875,1.573944091796875,5.919107576695884,-9.39141250238186,1.7476895960365852,4.223414829799108,-5.610148111979167,2.0094371977306547,4.338356336124197,-8.369313653167819,0.3252581908831954,-6.255786189119516,-63.32421652421653,7.0990130756628185,29.817803336628028,33.41201665318837,31.782639949681013,1577399446.0,-27.68924734823921,-51.12795062332304,2.8132746
44148,1577399446.88,0.7696161236572265,-1.0372878692626952,8.253890513305663,-0.4125618226586311,0.9844256484613184,8.5408764588891,-0.1336762593587236,-1.9561197611490884,11.93823053995768,2.6630401611328125,-2.037811279296875,1.787567138671875,2.5316564048208843,0.6488707007431402,0.1302579554115852,3.094264439174107,6.963094075520833,0.8802868071056548,4.338356336124197,-7.993164724935555,-1.3010327635327552,-11.08715235381902,-57.15172975172975,-2.4902297176408887,29.96157186929044,33.36409380896756,31.782639949681013,1577399446.0,-27.68924734823921,-51.12795062332304,2.8132746
44149,1577399446.89,0.7480683087158202,-0.8457517364501953,11.330439646606443,1.5387125303687117,-2.3506972641363366,13.970925824123476,0.4576915506998691,-2.094983457438151,13.070687925211589,5.3180694580078125,-1.213836669921875,1.970672607421875,3.782877107945884,0.6183531226181402,0.2523282679115852,2.850123814174107,16.850789388020832,3.1385875883556547,4.338356336124197,-7.993164724935555,-1.3010327635327552,28.10059542652133,-57.62653642653642,-2.564564933092851,30.009494713511245,33.12447958786354,31.97433132656424,1577399446.0,-27.68924734823921,-51.12795062332304,2.8132746
44150,1577399446.9,1.1634622967529298,-0.3812766143798828,10.57985742614746,1.5387125303687117,-0.0642346786871185,10.604678289943786,-0.0678357137044272,0.4392789998372391,10.040825724283854,5.5927276611328125,-0.4508972167968749,2.397918701171875,4.301675936070884,0.4047300757431403,1.4882901819740852,3.506251743861607,16.759236653645832,2.2383190336681547,3.163384828423893,-9.027574277574276,-0.5692018340455788,8.77513076772334,-53.82808302808302,-3.4565875185164536,29.79384191451762,33.26824812052595,31.75867852757061,1577399446.0,-27.68924734823921,-51.12795062332304,2.8132746
44151,1577399446.91,0.774404526977539,0.2076969940185546,10.7965326763916,0.3416117002905866,1.2453936294183496,13.183233477932069,2.090537082926432,-0.3304568339029947,10.599871811930338,5.1959991455078125,0.0373840332031251,2.245330810546875,5.827554842320884,-1.1211488305068598,0.6490567835365852,4.589625767299108,7.756551106770833,4.481361025855655,3.79606179410867,-7.805090260819425,0.1626290954415977,-11.623970816563412,-57.62653642653642,-6.727336998402988,29.86572618084883,33.50786234162997,31.73471710546021,1577399446.0,-27.68924734823921,-51.12795062332304,2.8132746
44152,1577399446.92,1.435204185180664,-0.7428010650634765,10.250654697875976,1.842776141208555,-1.117683409155868,7.961479657131288,1.039482554117838,3.385344142659504,13.06350532023112,3.5785675048828125,-0.1762390136718749,1.360321044921875,5.461343904820884,0.6488707007431402,0.9237149866615852,5.016871861049108,12.303670247395834,-3.5447620210193453,3.79606179410867,-7.805090260819425,0.1626290954415977,-5.182149263630755,-57.62653642653642,-7.024677860210856,29.96157186929044,33.41201665318837,31.5909485727978,1577399446.0,-27.68924734823921,-51.12795062332304,2.8132746
44153,1577399446.93,1.1646593975830075,-0.556053335571289,10.813292088012696,1.093391021579649,-0.4915996750250091,9.518907837062928,-0.8866526814778642,-2.2494094645182297,10.602266013590494,3.2733917236328125,-0.0236511230468748,1.818084716796875,4.255899568883384,1.3812925757431402,0.5880216272865852,3.704616001674107,21.703084309895832,1.1854625883556549,3.79606179410867,-7.805090260819425,0.1626290954415977,-5.718967726375147,-48.6052096052096,-7.17334829111479,29.86572618084883,33.24428669841555,31.75867852757061,1577399446.0,-27.68924734823921,-51.12795062332304,2.8132746
44154,1577399446.94,1.280778178100586,0.6530185028076172,8.547180216674803,0.5738492613257429,-0.3778750961675867,8.366099737697695,0.5199407938639317,-0.1341322977701821,8.433119309488932,4.4330596923828125,1.792144775390625,1.787567138671875,4.667886873570884,1.5949156226181402,0.7711270960365852,3.155299595424107,19.719441731770832,1.2464977446056549,4.428738759793448,-8.275276421109751,0.5692018340455888,-39.53853087927163,-44.33194953194953,-5.983984843883323,29.79384191451762,33.36409380896756,31.782639949681013,1577399446.0,-27.68924734823921,-51.12795062332304,2.8132746
44155,1577399446.95,1.1407173809814453,1.4071920257568358,10.880329734497067,-0.6807124085961311,0.4074230483636622,11.35645761123285,-0.3994326436360673,-3.210681431070963,8.971814683024089,3.670120239257813,2.448272705078125,2.153778076171875,3.813394686070884,2.8461363257431405,1.4425138147865852,2.331324986049107,15.630086263020834,5.183265322730655,3.615296946770161,-6.864717940238773,-0.6505163817663776,-40.61216780476041,-55.72730972730972,7.693694799278552,29.72195764818641,33.36409380896756,31.73471710546021,1577399446.0,-27.68924734823921,-51.12795062332304,2.8132746
44156,1577399446.96,2.2540211529541017,-0.6183025787353515,10.11418520324707,1.524347320407774,-1.1727500473394616,8.3110330995141,0.5031813822428379,4.929604213460286,9.187292832438152,2.2357940673828125,2.539825439453125,2.519989013671875,2.8368321860708843,3.670110935118141,2.419076314786585,3.246852329799107,13.158162434895834,1.3990856352306549,4.8806508781397175,-8.55738811728395,0.8131454772079753,-6.255786189119516,-50.029629629629625,9.923751262837555,29.817803336628028,33.36409380896756,31.782639949681013,1577399446.0,-27.68924734823921,-51.12795062332304,2.8132746
44157,1577399446.97,2.476681907348633,-1.226429800415039,10.016022935180665,3.487592681735898,0.6396606093988184,11.861634161525815,0.8982246561686191,-3.1364611796061195,10.089906858317056,2.7240753173828125,3.485870361328125,2.245330810546875,3.5692540610708843,5.7758238257431405,1.5645841272865852,3.094264439174107,9.007771809895834,-7.451012021019345,3.0730024047546407,-7.052792404354904,1.1384036680911775,-6.255786189119516,-50.029629629629625,9.923751262837555,29.817803336628028,33.17240243208434,31.73471710546021,1577399446.0,-27.68924734823921,-51.12795062332304,2.8132746
44158,1577399446.98,1.577659183959961,0.6853402252197265,12.49402165344238,2.55505113510504,1.228634217797256,10.543626147609803,1.4069925089518225,-1.1133607767740887,9.3872086710612,3.807449340820313,4.111480712890625,1.787567138671875,2.8215733970083843,3.4107115210556405,0.4049161585365852,3.323146275111607,-2.710978190104167,-1.3017200288318451,2.982619981085384,-7.52297856464523,0.7318309294871865,-5.987376957747332,-48.84261294261295,10.55560059417927,29.841764758738428,33.24428669841555,31.27945008536257,1577399446.0,-27.68924734823921,-51.12795062332304,2.8132746
44159,1577399446.99,0.9827000714111328,2.482188571166992,10.212347471313477,0.6552521177710553,4.4512296523675685,8.392435955959414,-0.1217052510579423,-2.901829416910807,9.002939304606121,3.853225708007813,4.553985595703125,1.299285888671875,1.0973302329458845,3.2428648413681405,0.8931974085365852,2.056666782924107,-7.837931315104167,3.657386416480655,4.519121183462703,-8.181239189051688,-0.4878872863247798,-6.255786189119516,-48.13040293040292,9.626410401029688,29.86572618084883,33.12447958786354,31.73471710546021,1577399446.0,-27.68924734823921,-51.12795062332304,2.8132746
44160,1577399447.0,0.4176684796142577,2.075174288940429,10.22910688293457,-0.3551009828148811,-1.7282048324957116,6.627909332424257,2.00195162150065,1.6423653340657551,8.9382958597819,-0.5718231201171875,1.593780517578125,0.536346435546875,4.515298982945884,4.6771910132431405,0.8931974085365852,1.3852800641741072,-5.884806315104167,4.847571963355655,4.699886030801212,-7.617015796703295,-0.6505163817663776,-6.255786189119516,-47.18078958078958,10.815773848261154,29.67403480396561,33.17240243208434,31.30341150747297,1577399447.0,-27.689221314448734,-51.12796092505787,3.0710733
44161,1577399447.01,1.3083114971923828,-0.776319888305664,7.7199835430908195,2.1348687437476177,-0.6603908920660243,8.727624188381288,2.8423164042154947,4.204161110432942,8.397206284586588,-0.4497528076171875,3.028106689453125,0.292205810546875,-1.5271814858041155,4.4330503882431405,0.3438810022865852,1.8125261579241072,-4.877726236979167,-3.5752795991443453,4.157591488785688,-7.052792404354904,-0.162629095441591,-5.182149263630755,-40.53349613349613,10.518432986453288,29.86572618084883,33.50786234162997,31.782639949681013,1577399447.0,-27.689221314448734,-51.12796092505787,3.0710733
44162,1577399447.02,1.6135722088623048,0.949899508666992,8.560348325805663,0.892278082126524,1.210677705346084,6.611149920803163,1.4596649454752595,-0.4070712870279951,5.94434668375651,0.6183624267578124,3.577423095703125,0.292205810546875,1.4482823813833845,3.4870054663681405,0.8779386194740852,0.9122576032366072,-15.192667643229168,-4.139854794456845,4.157591488785688,-7.617015796703296,-0.4878872863247798,-1.961238487164421,-48.13040293040292,6.9503426447588845,29.79384191451762,33.26824812052595,31.782639949681013,1577399447.0,-27.689221314448734,-51.12796092505787,3.0710733
44163,1577399447.03,1.1790246075439452,2.048838070678711,8.079113792114256,1.0407185850562115,2.148007655297256,9.680516449123475,-0.4018268452962236,-2.1668095072428386,5.694152610270182,1.1676788330078125,3.974151611328125,0.017547607421875,-4.029622892054116,3.2428648413681405,-0.2359529820884147,-0.0795636858258928,-27.460734049479168,-1.5000842866443451,3.615296946770161,-7.993164724935555,-0.3252581908831888,-1.4244200244200351,-44.33194953194953,6.9503426447588845,29.817803336628028,33.17240243208434,31.447180040135382,1577399447.0,-27.689221314448734,-51.12796092505787,3.0710733
44164,1577399447.04,0.5972336041259765,3.095104196166992,10.645697971801756,1.3064749693335551,2.313207569848037,8.832969061428162,0.5438828104654941,-2.327221018473307,6.211300168863932,1.3202667236328125,4.340362548828125,-0.348663330078125,-1.4966639076791155,5.0739195288681405,1.3814786585365852,-1.3307843889508928,-35.425821940104164,4.725501650855655,3.434532099431656,-7.052792404354904,0.1626290954415977,-6.255786189119516,-47.18078958078958,6.9503426447588845,29.5302662713032,33.36409380896756,31.97433132656424,1577399447.0,-27.689221314448734,-51.12796092505787,3.0710733
44165,1577399447.05,0.2728192791748046,-0.7739256866455078,9.470144956665038,0.1596523741187115,-1.6635613876714928,6.041329925685976,2.411360105387369,2.0086781880696614,6.606343442789713,-5.866622924804688,3.089141845703125,-1.279449462890625,-0.8557947670541157,0.3742124976181402,0.1912931116615852,-2.063206263950893,-42.01761881510416,2.5892711821056547,3.615296946770161,-8.745462581400078,-1.3010327635327552,-1.4244200244200351,-59.05095645095645,7.024677860210852,29.841764758738428,33.31617096474676,31.782639949681013,1577399447.0,-27.689221314448734,-51.12796092505787,3.0710733
44166,1577399447.06,0.621175620727539,1.9961656341552731,9.439020335083006,1.180779382175352,0.8443648513421779,7.439543695217226,2.362278971354166,-0.975694181315104,7.889635532633463,-2.0671844482421875,2.570343017578125,-1.691436767578125,-4.884115079554116,5.0891783179306405,-0.2206941930259147,-1.3918195452008928,-50.242106119791664,-0.4319690522693452,4.519121183462703,-9.30968597374847,0.8131454772079753,-10.818743122446833,-55.48990638990638,11.29895274869894,29.96157186929044,33.36409380896757,31.71075568334981,1577399447.0,-27.689221314448734,-51.12796092505787,3.0710733
44167,1577399447.07,0.822288560180664,2.345719076538086,8.402331016235351,-0.0989214051781624,2.7441638686761625,9.603901995998475,-0.3635196187337236,2.006283986409505,13.199974814860026,0.2521514892578124,1.502227783203125,-1.142120361328125,-5.036702970179116,-0.1140687523818597,-0.6326814977134148,-2.246311732700893,-38.87430826822917,2.0704723539806547,5.061415725478226,-9.12161150963234,-0.6505163817663776,-3.034875412653199,-50.029629629629625,11.41045557187689,30.009494713511245,33.41201665318837,31.73471710546021,1577399447.0,-27.689221314448734,-51.12796092505787,3.0710733
44168,1577399447.08,-0.8081627703857412,4.797381576538085,9.920254868774412,-1.054207867580506,5.839866615258193,11.34209240127191,-2.0011535542805983,-1.838803879801432,14.2246931254069,3.944778442382813,7.880401611328125,-1.874542236328125,-4.762044767054116,-3.95928359613186,-0.7852693883384148,-4.199436732700892,-19.373575846354168,6.434486025855655,4.519121183462703,-8.55738811728395,0.1626290954415977,-12.697607742052195,-61.42498982498982,10.518432986453288,29.96157186929044,33.41201665318837,31.73471710546021,1577399447.0,-27.689221314448734,-51.12796092505787,3.0710733
44169,1577399447.09,0.0058657940673832,1.082777700805664,8.92666117980957,-1.475587359768006,-1.1105008041753992,6.678187567287538,0.8311870096842441,-2.1644153055826822,13.219128428141277,-9.376144409179688,-1.290130615234375,-1.981353759765625,-3.815999845179116,4.0973570288681405,1.5951017054115852,-4.565647670200892,-2.1921793619791665,10.096595400855657,4.519121183462703,-7.052792404354904,0.1626290954415977,-11.623970816563412,-59.52576312576312,11.261785140972956,29.91364902506964,33.31617096474676,31.782639949681013,1577399447.0,-27.689221314448734,-51.12796092505787,3.0710733
44170,1577399447.1,1.0305841046142576,-1.9446902984619137,7.011299851684569,0.1620465757788683,-1.896996049536728,12.12739054580316,0.5199407938639322,4.802711525472005,13.871548380533854,-9.788131713867188,2.234649658203125,-1.081085205078125,-6.379476407679116,1.8695738257431405,0.6490567835365852,-6.579807826450892,25.807698567708336,1.3685680571056549,3.9768266414471753,-7.993164724935555,0.3252581908831954,-5.987376957747338,-64.03642653642653,10.555600594179271,29.817803336628028,33.24428669841555,31.782639949681013,1577399447.0,-27.689221314448734,-51.12796092505787,3.0710733
44171,1577399447.11,0.841442173461914,0.0329202728271484,9.850823020629882,0.298516070407774,-1.9173467636480552,9.927119220119568,0.2996742411295566,5.2073316060384105,13.48488481241862,-2.7690887451171875,4.309844970703125,-0.775909423828125,-3.663411954554116,10.47553085699314,1.3509610804115852,-6.091526576450892,44.01143391927084,-12.547447567894343,4.8806508781397175,-7.805090260819425,0.4878872863247865,35.616053904942774,-61.42498982498982,9.626410401029688,29.86572618084883,33.22032527630515,31.6388714170186,1577399447.0,-27.689221314448734,-51.12796092505787,3.0710733
44172,1577399447.12,0.956363853149414,3.0352491546630858,10.468527048950197,2.2354252134741803,-0.9285414780035244,14.258230023342223,0.0530714701334628,-5.334338303629557,14.808878330485026,-4.233932495117188,7.483673095703125,-1.844024658203125,-11.536947110804116,4.9518492163681405,-1.4871736852134148,-8.136204310825892,55.69966634114584,-10.380699521019343,5.061415725478226,-7.993164724935555,0.3252581908831954,28.10059542652133,-57.62653642653642,9.626410401029688,29.817803336628028,33.31617096474676,31.782639949681013,1577399447.0,-27.689221314448734,-51.12796092505787,3.0710733
44173,1577399447.13,-0.0922964739990224,0.7056909393310546,14.529093064575196,-0.7321877442894905,0.5666374587640535,11.006904168850037,-1.231417720540365,0.4428703023274739,9.460231821695965,-3.806686401367188,8.399200439453125,-1.630401611328125,-6.318441251429116,4.9365904273056405,1.778207174161585,-8.792332240513392,55.08931477864584,-1.3322376069568451,3.253767252093146,-8.369313653167819,0.3252581908831954,-4.108512338141966,-57.62653642653642,7.099013075662818,30.009494713511245,33.22032527630515,31.68679426123941,1577399447.0,-27.689221314448734,-51.12796092505787,3.0710733
44174,1577399447.14,0.5313930584716796,-0.9247603912353516,10.871950028686522,2.3814715147437115,-0.7465821518316492,14.219922796779723,-0.8375715474446611,-7.807548618570963,6.759572349039713,-9.727096557617188,4.950714111328125,-1.248931884765625,-8.363118985804116,4.4635679663681405,0.1912931116615852,-9.845188685825892,38.45723470052084,3.779456728980655,4.157591488785688,-7.428941332587162,1.1384036680911775,-1.9612384871644155,-61.42498982498982,6.9503426447588845,29.76988049240722,33.22032527630515,31.782639949681013,1577399447.0,-27.689221314448734,-51.12796092505787,3.0710733
44175,1577399447.15,0.0010773907470703,1.457470260620117,10.626544358520508,1.0622663999976178,-0.7417937485113367,11.131402655178162,0.2182713846842441,0.3542848409016918,8.524098972574869,-6.217575073242188,6.751251220703125,-1.111602783203125,-3.236165860804116,4.9213316382431405,2.846322408536585,-8.044651576450892,20.665486653645832,11.408851260230657,3.434532099431656,-8.181239189051688,0.4878872863247865,-6.255786189119516,-50.029629629629625,-3.60525794942039,29.86572618084883,33.31617096474676,31.73471710546021,1577399447.0,-27.689221314448734,-51.12796092505787,3.0710733
44176,1577399447.16,-0.6836642840576163,0.1765723724365234,11.0263760357666,-0.5011472840844123,1.3698921157464747,12.302167266994568,0.0674366800944003,4.807499928792317,8.509733762613932,-5.210494995117188,10.474395751953123,-1.081085205078125,-8.820882657679116,1.93060898199314,0.8321622522865852,-6.030491420200892,6.596883138020833,-3.4532092866443453,3.434532099431656,-9.30968597374847,-0.162629095441591,-0.8876015616756432,-38.63426943426943,-2.4158945021889204,30.05741755773205,33.17240243208434,31.782639949681013,1577399447.0,-27.689221314448734,-51.12796092505787,3.0710733
44177,1577399447.17,-0.9829394915771474,1.5484499237060545,11.960114683227538,-2.098079791408631,1.017944471703506,8.993380572658632,-1.3212002827962237,-0.9242188456217446,7.951884775797525,-4.661178588867188,8.551788330078125,-0.501251220703125,-1.4051111733041155,7.66791366949314,3.334603658536585,-6.640842982700892,-2.3752848307291665,-3.3311389741443453,3.615296946770161,-9.12161150963234,0.6505163817663843,-0.8876015616756432,-46.23117623117623,6.9503426447588845,29.67403480396561,33.22032527630515,31.6388714170186,1577399447.0,-27.689221314448734,-51.12796092505787,3.0710733
44178,1577399447.18,-1.0392032305908196,-0.4135983367919921,8.3448701763916,-0.1755358583031629,-0.2162664841070407,8.012954992824646,1.3267867533365878,2.950796541341145,7.28509961344401,-10.749435424804688,3.028106689453125,-0.058746337890625,-10.316243985804116,7.1033384741806405,1.5493253382240852,-5.389622279575892,-9.653727213541666,-11.631920224144343,4.157591488785688,-7.428941332587162,-0.162629095441591,-4.645330800886358,-50.029629629629625,7.024677860210852,29.841764758738428,33.36409380896756,31.87848563812262,1577399447.0,-27.689221314448734,-51.12796092505787,3.0710733
44179,1577399447.19,-0.958997474975585,2.422333529663086,9.374376890258787,-0.1420170350609749,0.6779678359613185,9.098725445705506,-1.835953639729817,-9.11238852335612,8.162574521891276,-4.539108276367188,4.462432861328125,0.261688232421875,-0.8252771889291157,3.822698825743141,3.609261861661585,-5.908421107700892,-19.709269205729168,-1.5000842866443451,4.157591488785688,-7.428941332587162,-0.162629095441591,-5.182149263630755,-50.029629629629625,6.9503426447588845,29.86572618084883,33.17240243208434,31.447180040135382,1577399447.0,-27.689221314448734,-51.12796092505787,3.0710733
44180,1577399447.2,-0.0659602557373037,1.036090768432617,9.369588486938476,-2.7253606263695684,-0.9979733261480556,4.413272796779726,-0.9524932271321612,-4.288072178141276,7.671763181559244,-3.776168823242188,6.537628173828125,-0.104522705078125,-6.318441251429116,-3.4404847680068595,2.174935689786585,-6.854466029575892,-21.662394205729168,8.204505557105655,2.892237557416128,-7.617015796703295,0.6505163817663843,-6.255786189119516,-49.08001628001628,-2.564564933092851,29.86572618084883,33.17240243208434,31.5909485727978,1577399447.0,-27.689221314448734,-51.12796092505787,3.0710733
44181,1577399447.21,-0.5112817645263662,-0.6769605194091797,9.680834702758789,2.8148220152319925,2.1168830337152245,11.84726895156488,0.4313553324381504,-5.731775779215495,10.71958189493815,-7.3772430419921875,0.3883361816406251,0.582122802734375,-8.485189298304116,5.1654722632431405,1.9613126429115848,-7.312229701450892,-24.195353190104168,17.451331728980655,3.8864442177779246,-8.839499813458144,0.0813145477208022,-6.255786189119516,-44.33194953194953,-1.9698832094771224,29.817803336628028,33.36409380896756,31.73471710546021,1577399447.0,-27.689221314448734,-51.12796092505787,3.0710733
44182,1577399447.22,-0.5615599993896474,-0.1274912384033203,7.286633042602538,-0.778874676662538,-1.928120671118759,7.15583079848871,3.032655436197916,3.192610909016927,10.556776182047525,-5.759811401367188,0.2204895019531251,0.353240966796875,-4.243245938929116,-2.76909804925686,2.480111471036585,-6.274632045200892,-17.832438151041668,14.216468447730652,4.519121183462703,-8.55738811728395,0.8131454772079753,-1.4244200244200296,-47.18078958078958,-1.5982071322172864,29.86572618084883,33.22032527630515,31.75867852757061,1577399447.0,-27.689221314448734,-51.12796092505787,3.0710733
44183,1577399447.23,-1.1050437762451162,-0.4243722442626952,9.94180268371582,-1.3486946717797248,0.2302521255120997,11.955008026271912,1.223836081949869,10.081926186116538,11.45460180460612,-4.661178588867188,-1.488494873046875,1.177215576171875,-5.860677579554116,-1.0906312523818598,2.846322408536585,-2.826145717075893,-10.920206705729166,-10.991051083519343,4.519121183462703,-8.55738811728395,0.8131454772079753,-5.182149263630755,-45.28156288156288,6.9503426447588845,29.86572618084883,33.31617096474676,32.40563692455147,1577399447.0,-27.689221314448734,-51.12796092505787,3.0710733
44184,1577399447.24,-0.5711368060302724,-0.3429693878173828,10.906665952758788,-0.4987530824242561,-1.2014804672613368,8.375676544338319,0.4552973490397128,0.5218789571126293,12.371581040445962,-6.980514526367188,-1.000213623046875,0.841522216796875,-5.250326017054116,0.4962828101181402,3.304086080411585,-4.046848842075892,-3.2297770182291665,-16.880943661644345,3.253767252093146,-7.993164724935555,-0.6505163817663776,-5.182149263630755,-45.28156288156288,6.9503426447588845,30.009494713511245,33.41201665318837,31.926408482343422,1577399447.0,-27.689221314448734,-51.12796092505787,3.0710733
44185,1577399447.25,0.0286107098388676,0.7068880401611328,9.858005625610351,1.9983992491187117,0.558257752953506,10.465814593654724,0.8766768412272129,-5.497144016520182,9.160956614176431,-5.790328979492188,-0.7865905761718749,0.765228271484375,-7.233968595179116,0.7709410132431402,2.968392721036585,-5.755833217075892,-3.1382242838541665,-9.434654599144343,4.067209065116431,-8.275276421109751,-0.4065727386039843,-4.645330800886364,-45.75636955636956,7.024677860210852,29.817803336628028,33.36409380896756,31.73471710546021,1577399447.0,-27.689221314448734,-51.12796092505787,3.0710733
44186,1577399447.26,0.353025034790039,2.798223190307617,10.054330161743165,-0.0977243043480847,2.604103071557022,8.210476629787538,-0.7920817159016927,-5.335535404459636,8.283481705729166,-4.661178588867188,-0.8781433105468749,0.841522216796875,-3.144613126429116,-2.09771133050686,2.831063619474085,-5.877903529575892,-10.203043619791666,5.152747744605656,4.157591488785688,-7.805090260819425,0.1626290954415977,-6.255786189119516,-55.72730972730972,8.808723031058054,29.86572618084883,33.24428669841555,31.806601371791416,1577399447.0,-27.689221314448734,-51.12796092505787,3.0710733
44187,1577399447.27,-0.0180762225341787,1.1677718597412108,8.093479002075194,0.4780811949194928,1.324402284203506,10.880011480861755,1.532688096110025,7.49379419148763,10.269471982828776,-7.194137573242188,-0.6645202636718749,-0.012969970703125,-6.165853360804116,-1.94512343988186,1.3204435022865852,-5.694798060825892,-13.025919596354166,6.678626650855655,4.157591488785688,-7.805090260819425,0.1626290954415977,-1.9612384871644155,-50.029629629629625,6.9503426447588845,29.96157186929044,33.41201665318837,31.5909485727978,1577399447.0,-27.689221314448734,-51.12796092505787,3.0710733
44188,1577399447.28,-0.0851138690185537,-1.6334440826416017,7.863635642700195,1.141275054782774,-0.7657357651128992,9.735583087307068,0.6827465067545566,-0.7063464945475258,7.983009397379557,-10.215377807617188,-6.432342529296875,0.078582763671875,-5.921712735804116,-3.2878968773818595,1.3509610804115852,-6.030491420200892,-12.232462565104166,-1.0118030366443451,3.434532099431656,-8.181239189051688,-0.162629095441591,-5.182149263630755,-4.448188848188844,6.9503426447588845,29.817803336628028,33.41201665318837,31.73471710546021,1577399447.0,-27.689221314448734,-51.12796092505787,3.0710733
44189,1577399447.29,-0.2778471026611323,1.2958616485595702,9.14333643005371,0.537936236423399,1.508755812035537,7.089990252834413,0.1153207132975253,1.6615189473470051,6.6925347025553386,-3.5015106201171875,-1.930999755859375,-0.302886962890625,-7.600179532679116,-4.69170547113186,1.3814786585365852,-4.809788295200892,-16.871134440104168,0.7582164946056548,3.976826641447179,-7.617015796703296,-0.162629095441591,-5.182149263630755,-4.448188848188844,6.9503426447588845,29.86572618084883,33.12447958786354,31.926408482343422,1577399447.0,-27.689221314448734,-51.12796092505787,3.0710733
44190,1577399447.3,0.1159990704345703,1.282693539428711,9.537182603149413,-1.1990570680199597,1.5686108535394434,12.874381463771911,-0.3910529378255209,0.1376095906575518,14.679591440836589,-3.5320281982421875,-0.8171081542968749,-0.287628173828125,-4.517904142054116,-0.0530335961318595,1.885018697599085,-5.206516810825892,-11.179606119791668,-1.5000842866443451,3.434532099431656,-8.181239189051688,0.1626290954415977,0.7228538265575212,-34.83581603581603,7.099013075662818,29.72195764818641,33.29220954263636,31.782639949681013,1577399447.0,-27.689221314448734,-51.12796092505787,3.0710733
44191,1577399447.31,0.4751293194580077,0.5620388397216797,11.926595859985351,2.405413531345274,-1.4792078598394616,12.95817852187738,-2.180718678792317,-3.3184205057779943,14.756205893961589,-6.919479370117188,-5.638885498046875,0.078582763671875,-10.011068204554116,3.761663669493141,2.693734517911585,-6.305149623325892,13.036092122395834,6.007239932105655,3.434532099431656,-8.181239189051688,0.1626290954415977,-1.9612384871644155,-59.52576312576312,7.842365230182486,29.86572618084883,33.17240243208434,31.97433132656424,1577399447.0,-27.689221314448734,-51.12796092505787,3.0710733
44192,1577399447.32,0.8701725933837889,-2.816179702758789,10.272202512817382,1.9505152159155863,0.7330344741449122,14.562293634182067,1.3507287699381505,10.385989796956382,15.09378832804362,-6.980514526367188,-0.3898620605468749,-0.196075439453125,0.3954259360708843,-5.14946914300686,0.8016446741615852,-4.016331263950892,30.492146809895832,5.946204775855655,3.615296946770161,-6.864717940238773,-0.6505163817663776,-6.255786189119516,-57.62653642653642,7.247683506566751,29.72195764818641,33.17240243208434,31.782639949681013,1577399447.0,-27.689221314448734,-51.12796092505787,3.0710733
44193,1577399447.33,0.849821879272461,0.2076969940185546,9.910678062133789,0.8827012754858995,0.764159095726944,10.2263944276391,1.6667633890787756,1.5238523518880205,11.829294364420573,-1.8230438232421875,-0.0694274902343748,-0.577545166015625,-3.617635587366616,2.4494078101181405,-0.4648348180259147,-4.199436732700892,35.77168782552084,-6.169273739769345,3.79606179410867,-7.8050902608194255,-0.6505163817663776,2.870127677535077,-63.32421652421652,7.024677860210852,29.91364902506964,33.340132386857164,31.782639949681013,1577399447.0,-27.689221314448734,-51.12796092505787,3.0710733
44194,1577399447.34,-0.3053804217529287,-0.8672995513916015,10.86117612121582,0.911431695407774,0.0626580093011622,12.90071768203363,2.0594124613444005,2.887350197347004,9.476991233317058,-0.4497528076171875,0.4035949707031251,-0.440216064453125,-4.639974454554116,-2.4639222680068595,0.2828458460365852,-2.398899623325893,28.569539388020832,-11.326744442894343,4.8806508781397175,-7.805090260819425,-0.4878872863247798,-10.55033389107465,-64.27382987382987,8.139706091990352,29.67403480396561,33.50786234162997,31.926408482343422,1577399447.0,-27.689221314448734,-51.12796092505787,3.0710733
44195,1577399447.35,-0.0875080706787099,0.8613140472412109,10.636121165161132,-1.418126519924256,1.518332618676162,7.880076800685975,-2.49196489461263,-6.605659385172526,5.516981687418619,-2.2808074951171875,0.4341125488281251,-0.714874267578125,3.0809728110708843,-4.08135390863186,0.1912931116615852,-2.429417201450893,20.390828450520832,-4.490806942894345,4.8806508781397175,-7.805090260819425,-0.4878872863247798,-13.77124466754098,-57.62653642653642,6.9503426447588845,30.009494713511245,33.22032527630515,31.73471710546021,1577399447.0,-27.689221314448734,-51.12796092505787,3.0710733
44196,1577399447.36,-0.4203021014404287,2.891597055053711,10.755831248168944,-1.2409555970726935,3.835919825707412,8.141044781643007,-1.7784927998860671,-1.838803879801432,4.968709507242838,-2.1587371826171875,0.4341125488281251,-0.775909423828125,-2.442708829554116,3.853216403868141,-0.9683748570884148,-1.5749250139508928,3.423055013020833,8.143470400855655,2.349943015400604,-7.805090260819425,-0.4878872863247798,-16.99215544400731,-57.62653642653642,6.9503426447588845,29.96157186929044,33.36409380896756,31.782639949681013,1577399447.0,-27.689221314448734,-51.12796092505787,3.0710733
44197,1577399447.37,-0.4262876055908198,0.5380968231201172,9.2259363873291,0.1692291807593371,-0.5993387497320403,8.504963433986756,3.2206002665201825,4.365769722493488,7.8764674235026035,-1.1669158935546875,-1.229095458984375,-0.150299072265625,1.0668126548208845,-1.4263246117568598,0.9694913538490852,-0.9493146623883928,-15.391031901041668,5.213782900855655,2.1691781680620967,-6.676643476122642,-0.9757745726495696,-4.108512338141966,-63.32421652421652,2.564564933092849,29.841764758738428,33.19636385419474,31.830562793901816,1577399447.0,-27.689221314448734,-51.12796092505787,3.0710733
44198,1577399447.38,-0.0396240374755849,-1.121084927368164,10.039964951782226,-0.2306024964867561,-0.3874519028082117,7.291103192287538,2.0139226298014314,6.969464027913411,10.33650962931315,-1.4263153076171875,-2.739715576171875,0.139617919921875,-3.541341642054116,-4.60015273675686,0.7100919397865852,1.7514910016741072,-16.352335611979168,-9.831383114769343,2.7114727100776186,-8.55738811728395,0.8131454772079753,28.10059542652133,-50.029629629629625,-2.2672240712849896,29.86572618084883,33.36409380896756,31.782639949681013,1577399447.0,-27.689221314448734,-51.12796092505787,3.0710733
44199,1577399447.39,-0.0420182391357412,-2.17692785949707,9.036794456176755,0.4852637998999616,2.6196653823480376,10.753118792873474,2.3012268290201816,0.6511658467610667,9.725988205973309,0.7404327392578125,-3.746795654296875,0.170135498046875,-0.3369959389291157,-2.3113343773818595,-1.0599275914634148,2.758571079799107,-17.267862955729168,-9.526207333519343,2.7114727100776186,-8.55738811728395,0.8131454772079753,28.10059542652133,-50.029629629629625,-2.2672240712849896,30.009494713511245,33.36409380896756,31.97433132656424,1577399447.0,-27.689221314448734,-51.12796092505787,3.0710733
44200,1577399447.4,-0.3173514300537099,1.081580599975586,11.239459983520506,1.4118198423804302,-0.4233649277105554,11.368428619533631,-0.6580064229329423,-5.980772751871744,13.27419506632487,4.0973663330078125,-3.777313232421875,0.048065185546875,2.8063146079458843,-2.1282289086318595,-1.5787264195884148,1.2326921735491072,-14.338175455729166,-3.880455380394345,3.0730024047546407,-7.052792404354904,-0.162629095441591,28.10059542652133,-50.029629629629625,-2.2672240712849896,29.86572618084883,33.41201665318837,31.73471710546021,1577399447.0,-27.689221314448734,-51.12796092505787,3.0710733
44201,1577399447.41,0.7779958294677733,1.1725602630615233,10.294947428588866,0.2985160704077745,1.5961441726312402,9.336948510891052,0.6001465494791669,-5.416938260904946,10.626208030192055,0.7099151611328125,-5.776214599609375,0.139617919921875,0.0444737876333845,-3.76091933831936,0.1607755335365852,0.9732927594866072,-7.303873697916666,9.837195986793157,3.524914523100908,-6.582606244064575,0.8944600249287809,-20.749884683218013,-47.18078958078958,-2.564564933092851,29.76988049240722,33.29220954263636,31.68679426123941,1577399447.0,-27.689221314448734,-51.12796092505787,3.0710733
44202,1577399447.42,0.908479819946289,-0.9247603912353516,9.43662613342285,1.6296921934546489,-0.9524834946050867,10.899165094143006,0.4624799540201816,-0.8835174173990883,8.54325258585612,-0.8159637451171875,-5.394744873046875,-0.196075439453125,6.071695467320884,-6.09551406488186,1.2288907679115852,-0.7509504045758928,-11.347452799479166,17.451331728980655,3.79606179410867,-8.93353704551621,0.4878872863247865,-6.255786189119516,-48.13040293040292,-6.727336998402988,29.817803336628028,33.12447958786354,31.782639949681013,1577399447.0,-27.689221314448734,-51.12796092505787,3.0710733
44203,1577399447.43,0.7504625103759764,-2.078765591430664,7.526053208618163,-0.3862256043969124,-2.1471901230230555,7.796279742580507,0.6204972635904942,10.328528957112631,13.065899521891277,-0.6023406982421875,-5.486297607421875,0.383758544921875,1.3109532798208845,-4.96636367425686,0.4659513147865852,2.300807407924107,-4.084269205729167,3.5658336821056547,3.615296946770161,-8.369313653167819,-0.9757745726495664,-40.61216780476041,-50.029629629629625,-3.7539283803243206,30.15326324617366,33.22032527630515,31.926408482343422,1577399447.0,-27.689221314448734,-51.12796092505787,3.0710733
44204,1577399447.44,0.7815871319580078,0.6793547210693359,9.654498484497068,0.7079245542944929,0.2972897719964747,11.576724163967224,2.124055906168619,4.55610875447591,13.4202413675944,2.7545928955078125,-3.044891357421875,0.902557373046875,-1.3440760170541155,0.1911070288681402,-0.9378572789634148,3.368922642299107,8.916219075520834,-11.906578427269343,3.615296946770161,-8.369313653167819,-0.9757745726495664,-40.61216780476041,-50.029629629629625,-3.7539283803243206,29.62611195974481,33.41201665318837,31.782639949681013,1577399447.0,-27.689221314448734,-51.12796092505787,3.0710733
44205,1577399447.45,1.0341754071044922,2.407968319702148,10.069892472534178,0.0435335936011339,1.3950312331781158,9.490177417141052,-1.5031596089680983,-1.8974618204752605,12.703177970377604,4.2652130126953125,-1.641082763671875,0.460052490234375,-0.0928553139291157,-4.98162246331936,0.2370694788490852,0.5613054547991072,27.79134114583333,-9.159996396019343,3.524914523100908,-7.711053028761361,-0.2439436431623899,-20.749884683218028,-48.6052096052096,2.9362410103526826,30.10534040195285,33.48390091951957,31.75867852757061,1577399447.0,-27.689221314448734,-51.12796092505787,3.0710733
44206,1577399447.46,1.9164387188720704,0.1502361541748046,8.577107737426758,1.543500933689024,1.185538587914443,13.54475792861566,-0.6364586079915361,-11.264775815836584,10.9685788675944,-4.111862182617188,-5.699920654296875,0.444793701171875,0.2733556235708843,7.24066757574314,1.0152677210365852,-1.8801007952008928,39.18965657552084,5.396888369605655,3.253767252093146,-8.745462581400078,-0.9757745726495664,-5.718967726375147,-49.55482295482295,9.403404754673788,30.15326324617366,33.31617096474676,31.782639949681013,1577399447.0,-27.689221314448734,-51.12796092505787,3.0710733
44207,1577399447.47,1.892496702270508,-2.155380044555664,10.099819993286133,3.643215789646055,-2.2549291977300867,11.895152984768004,0.8503406229654941,3.303941286214192,10.29341399943034,-0.2971649169921875,-1.061248779296875,0.170135498046875,1.3719884360708845,-1.85357070550686,0.3743985804115852,-2.185276576450893,42.27193196614584,12.110755557105657,3.434532099431656,-8.55738811728395,-0.4878872863247798,-5.718967726375147,-48.60520960520961,10.444097771001324,29.817803336628028,33.22032527630515,31.782639949681013,1577399447.0,-27.689221314448734,-51.12796092505787,3.0710733
44208,1577399447.48,1.8086996441650391,-2.615066763305664,10.28656772277832,0.7031361509741804,-0.5203300949468836,10.422718963771912,1.432131626383463,3.3135180928548174,8.763519138590494,0.4047393798828124,0.8003234863281251,0.200653076171875,0.7311192954458844,1.8848326148056405,-0.5563875524009148,0.8664812360491072,28.706868489583336,-3.636314755394345,3.434532099431656,-8.55738811728395,-0.4878872863247798,-5.718967726375147,-48.13040293040293,10.518432986453288,29.817803336628028,33.19636385419474,31.854524216012216,1577399447.0,-27.689221314448734,-51.12796092505787,3.0710733
44209,1577399447.49,0.5744886883544921,1.1653776580810546,11.056303556518554,1.5961733702124614,1.745781776391006,13.116195831447692,-0.5789977681477861,3.074097926839192,9.44347241007487,5.0739288330078125,3.623199462890625,0.154876708984375,-0.8557947670541157,-1.3958070336318598,-1.6092439977134148,2.850123814174107,12.730916341145834,-8.824303036644345,3.615296946770161,-7.805090260819425,-0.6505163817663776,-5.182149263630755,-41.48310948310948,9.329069539221818,29.93761044718004,33.31617096474676,31.73471710546021,1577399447.0,-27.689221314448734,-51.12796092505787,3.0710733
44210,1577399447.5,0.7576451153564452,2.884414450073242,10.705553013305662,0.0519132994116803,3.0482274795160063,10.887194085842223,-1.670753725179036,3.5385730489095044,6.924772263590494,2.5714874267578125,3.485870361328125,0.170135498046875,2.5621739829458843,-1.6399476586318598,0.6490567835365852,2.178737095424107,3.239949544270833,-9.556724911644343,5.061415725478226,-8.369313653167819,0.0,-5.718967726375147,-49.55482295482295,9.552075185577722,29.86572618084883,33.31617096474676,31.6388714170186,1577399447.0,-27.689221314448734,-51.12796092505787,3.0710733
44211,1577399447.51,0.898903013305664,2.489371176147461,10.200376463012692,-0.8291529115258186,1.4058051406488183,8.6557981385766,-0.7633512959798173,-6.995914255777994,5.7731612650553386,-1.7314910888671875,0.1289367675781251,-0.043487548828125,5.613931795445884,5.5927183569931405,-0.0528475133384147,1.5378679547991072,-12.659708658854166,-0.9202503022693452,3.79606179410867,-7.428941332587162,-0.162629095441591,-5.718967726375147,-49.55482295482295,9.552075185577722,29.817803336628028,33.22032527630515,32.07017701500584,1577399447.0,-27.689221314448734,-51.12796092505787,3.0710733
44212,1577399447.52,0.429639487915039,0.5883750579833984,7.820540012817382,0.4804753965796495,0.457701283226944,9.047250110012149,0.4648741556803378,0.993536684163411,9.113072580973308,-3.1963348388671875,-0.5424499511718749,-0.074005126953125,0.6548253501333843,2.3273374976181405,1.0763028772865852,1.2174333844866072,-18.961588541666668,2.848670596168155,3.79606179410867,-7.428941332587162,-0.162629095441591,-4.108512338141966,-53.35327635327636,8.660052600154119,29.86572618084883,33.26824812052595,31.806601371791416,1577399447.0,-27.689221314448734,-51.12796092505787,3.0710733
44213,1577399447.53,0.6582857464599609,-1.2012906829833985,8.963771305541991,1.3471763975562114,-1.7114454208746177,10.307797284084412,0.4959987772623691,-1.3623577494303385,10.516074753824867,0.3437042236328125,1.990509033203125,0.246429443359375,1.2804357016958845,3.3344175757431405,-0.6021639195884148,1.0190691266741072,-10.828653971354166,1.9789196196056549,3.4345320994316557,-7.993164724935556,0.6505163817663808,-16.99215544400731,-57.62653642653642,6.9503426447588845,29.79384191451763,33.41201665318837,31.5909485727978,1577399447.0,-27.689221314448734,-51.12796092505787,3.0710733
44214,1577399447.54,0.7025784771728515,-0.5799953521728515,9.197205967407225,2.5251236143530864,1.5686108535394434,7.465879913478944,1.7673198588053378,4.041355397542317,9.783449045817058,2.8461456298828125,2.906036376953125,0.505828857421875,-1.0083826576791155,4.4635679663681405,-0.3580232945884147,1.5989031110491072,-3.3213297526041665,-2.4156116303943453,5.061415725478226,-8.369313653167819,-0.3252581908831888,-10.55033389107465,-57.62653642653642,6.9503426447588845,29.86572618084883,33.31617096474676,31.73471710546021,1577399447.0,-27.689221314448734,-51.12796092505787,3.0710733
44215,1577399447.55,0.4344278912353515,1.4311340423583985,12.204323252563476,1.8786891661108989,0.8192257339105372,9.668545440822694,2.0498356547037755,-0.3017264139811197,10.678880466715494,6.5998077392578125,5.133819580078125,-0.226593017578125,-0.6421717201791157,0.4047300757431402,-0.1138826695884147,1.7514910016741072,-0.9409586588541669,-2.0494006928943453,4.157591488785688,-8.55738811728395,0.4878872863247865,-3.571693875397591,-64.74863654863654,11.187449925520989,29.817803336628028,33.17240243208434,31.926408482343422,1577399447.0,-27.689221314448734,-51.12796092505787,3.0710733
44216,1577399447.56,0.5373785626220703,2.1589713470458984,11.440572922973631,-0.0510373719750374,3.1679375625238184,10.382017535549256,-0.2845109639485674,-2.2769427836100258,12.74986490275065,2.4494171142578125,1.349639892578125,-0.196075439453125,1.3414708579458845,-2.0061585961318595,-0.7242342320884148,0.1340593610491072,1.0121663411458333,4.115150088355655,4.157591488785688,-8.55738811728395,0.4878872863247865,-3.571693875397591,-64.74863654863654,11.187449925520989,29.96157186929044,33.41201665318837,31.782639949681013,1577399447.0,-27.689221314448734,-51.12796092505787,3.0710733
44217,1577399447.57,0.396120664672852,0.8780734588623046,11.266993302612304,0.512797118991759,-1.2266195846929773,10.231182830959412,0.3942452067057285,1.7477102071126294,9.125043589274089,-1.914596557617188,-2.312469482421875,-0.241851806640625,1.4025060141958845,-0.8464906273818597,-0.1444002477134147,0.8054460797991072,2.934773763020833,1.353309268043155,3.796061794108672,-7.805090260819426,3.3584246494910985e-15,8.506721536351158,-56.91432641432641,10.258259732371403,29.841764758738428,33.36409380896757,31.83056279390182,1577399447.0,-27.689221314448734,-51.12796092505787,3.0710733
44218,1577399447.58,0.630752427368164,-1.599925259399414,9.403107310180664,-0.3742545960961311,0.0913884292230372,8.215265033107851,-0.0091777730305986,1.122823573811848,9.685286777750653,-0.1140594482421875,-0.1762390136718749,0.597381591796875,1.7381993735708845,0.2216246069931402,0.5575040491615852,1.6904558454241072,-6.312052408854167,-3.758385067894345,3.615296946770161,-7.617015796703295,-0.3252581908831888,28.10059542652133,-52.87846967846967,7.99103566108642,29.817803336628028,33.22032527630515,31.782639949681013,1577399447.0,-27.689221314448734,-51.12796092505787,3.0710733
44219,1577399447.59,0.4703409161376952,2.316988656616211,8.476551267700195,0.5355420347632428,2.274900343285537,12.17288037734613,-0.6005455830891924,1.7860174336751302,13.70036296183268,2.8156280517578125,1.227569580078125,0.811004638671875,0.2733556235708843,1.5338804663681402,0.6795743616615852,1.5378679547991072,-0.4831949869791667,-3.910972958519345,2.1691781680620985,-7.240866868471033,-0.3252581908831888,-10.55033389107465,-60.47537647537647,-4.348610103940056,29.72195764818641,33.17240243208434,31.83056279390182,1577399447.0,-27.689221314448734,-51.12796092505787,3.0710733
44220,1577399447.6,1.909256113891601,3.1956606658935547,11.221503471069337,2.0965615171851177,3.5222794082269435,13.3675870057641,-0.6029397847493486,-4.709451670328775,13.67642094523112,4.0821075439453125,1.700592041015625,0.444793701171875,-0.4590662514291157,4.4635679663681405,0.3743985804115852,0.2561296735491072,13.097127278645834,0.4225231352306547,2.892237557416128,-8.745462581400078,0.3252581908831954,-10.55033389107465,-60.47537647537647,-4.348610103940056,29.841764758738428,33.65163087429239,31.73471710546021,1577399447.0,-27.689221314448734,-51.12796092505787,3.0710733
44221,1577399447.61,0.8151059552001952,-0.9654618194580078,11.586619224243163,1.3567532041968364,0.2613767470941315,10.23836543593988,0.0686337809244789,2.7520778035481768,11.176874412027994,-2.9216766357421875,-0.7560729980468749,0.749969482421875,1.7229405845083845,0.0690367163681402,1.0610440882240852,-0.3542218889508928,27.654012044270832,5.320594424293155,3.434532099431656,-7.428941332587162,-0.4878872863247798,-8.403060040097083,-42.43272283272283,-4.348610103940056,29.817803336628028,33.340132386857164,31.75867852757061,1577399447.0,-27.689221314448734,-51.12796092505787,3.0710733
44222,1577399447.62,1.909256113891601,-2.3636755889892576,10.092637388305665,1.31605177597418,-2.046633653296493,9.922330816799256,1.9564617899576813,3.2033848164876293,11.603042307535809,-2.7996063232421875,3.058624267578125,0.322723388671875,3.813394686070884,6.9354917944931405,0.5575040491615852,0.4087175641741072,24.236043294270832,-1.2559436616443451,3.434532099431656,-7.428941332587162,0.4878872863247865,-6.255786189119516,-42.43272283272283,-4.051269242132188,29.86572618084883,33.17240243208434,31.73471710546021,1577399447.0,-27.689221314448734,-51.12796092505787,3.0710733
44223,1577399447.63,1.4471751934814454,0.7559691741943358,10.751042844848632,1.1340924498023053,2.2677177383050684,12.788190204006286,-0.962070033772786,-1.1516680033365885,11.564735080973309,2.9376983642578125,3.913116455078125,1.268768310546875,2.2569982016958843,4.8908140601181405,-0.2969881383384147,1.7820085797991072,25.487263997395832,-0.7676624116443452,2.7114727100776186,-7.428941332587162,-0.4878872863247798,-15.381700055774132,-49.55482295482295,7.768030014730519,29.817803336628028,33.17240243208434,31.782639949681013,1577399447.0,-27.689221314448734,-51.12796092505787,3.0710733
44224,1577399447.64,0.9587580548095704,2.440290042114257,11.082639774780272,-0.1156808167992561,2.962036219750381,12.704393145900818,-2.9037675801595046,3.318306496175129,8.69648149210612,5.2875518798828125,7.178497314453125,0.749969482421875,0.0902501548208842,2.0221617163681405,0.4049161585365852,1.7820085797991072,26.769002278645832,-1.2559436616443451,2.7114727100776186,-7.805090260819425,0.1626290954415977,-15.381700055774132,-49.55482295482295,7.768030014730519,29.91364902506964,33.17240243208434,31.926408482343422,1577399447.0,-27.689221314448734,-51.12796092505787,3.0710733
44225,1577399447.65,1.7296909893798829,0.8684966522216796,10.499651670532224,0.8886867796362896,1.0203386733636628,11.358851812893006,-0.4126007527669267,-0.3352452372233077,10.143776395670573,2.1747589111328125,5.561065673828125,1.238250732421875,4.515298982945884,7.74420761480564,1.366219869474085,2.071925571986607,20.80281575520833,2.345130557105655,3.253767252093146,-7.993164724935555,-0.9757745726495664,-0.8876015616756432,-43.382336182336175,-2.7132353639967874,30.201186090394465,33.31617096474676,31.83056279390182,1577399447.0,-27.689221314448734,-51.12796092505787,3.0710733
44226,1577399447.66,0.9204508282470704,-1.7220295440673827,10.20995326965332,1.244225726169493,-0.0618404770269617,7.604743609768007,3.6922579935709634,6.493017897542317,6.376500083414713,0.6183624267578125,6.751251220703125,1.146697998046875,5.186685701695884,6.4472105444931405,0.6490567835365852,3.613063267299107,5.040486653645833,-0.5540393647693452,5.78447511483226,-8.369313653167819,-1.6262909544159505,-0.8876015616756432,-36.73504273504273,-2.564564933092851,29.817803336628028,33.36409380896756,31.83056279390182,1577399447.0,-27.689221314448734,-51.12796092505787,3.0710733
44227,1577399447.67,0.736097300415039,-1.6454150909423828,9.005669834594725,3.669552007907774,-1.2589413071050866,12.158515167385191,-1.086568520100911,-1.359963547770182,7.0325113382975255,1.0761260986328125,6.568145751953125,0.658416748046875,3.965982576695884,11.29950546636814,-0.4190584508384147,3.582545689174107,-5.121866861979167,-5.589439755394345,3.253767252093146,-6.864717940238773,-0.3252581908831888,3.406946140279458,-36.73504273504273,-2.564564933092851,30.009494713511245,33.17240243208434,31.782639949681013,1577399447.0,-27.689221314448734,-51.12796092505787,3.0710733
44228,1577399447.68,-1.1732785235595695,1.6609774017333985,10.053133060913083,-1.5498076112328498,2.637621894799209,8.934722631984803,-0.3072558797200521,2.236127345784505,9.927101145426432,10.124588012695312,10.810089111328123,1.024627685546875,5.980142732945884,4.2804624976181405,-0.9683748570884148,6.283351353236608,-10.264078776041666,3.275916689918155,4.8806508781397175,-7.805090260819425,0.1626290954415977,-5.718967726375147,-46.70598290598291,2.861905794900715,29.86572618084883,33.24428669841555,31.75867852757061,1577399447.0,-27.689221314448734,-51.12796092505787,3.0710733
44229,1577399447.69,0.0202310040283203,2.4869769744873045,10.15249242980957,2.314433868259336,2.090546815453506,10.348498712307068,-2.0466433858235678,0.327948622639973,6.757178147379557,6.1725616455078125,4.248809814453125,1.024627685546875,3.752359529820884,5.8978941382431405,0.7100919397865852,4.406520298549108,-11.927286783854166,5.061195010230655,4.8806508781397175,-7.805090260819425,0.1626290954415977,0.1860353638131292,-50.029629629629625,8.139706091990352,29.67403480396561,33.22032527630515,31.97433132656424,1577399447.0,-27.689221314448734,-51.12796092505787,3.0710733
44230,1577399447.7,-0.6453570574951162,-0.9415198028564452,9.431837730102538,-2.7947924745141,-2.463224742163681,8.622279315334413,1.1544042338053375,2.37977944539388,6.80027377726237,-1.0295867919921875,-1.335906982421875,0.811004638671875,9.001382967320884,-1.2127015648818598,0.9847501429115852,6.023951939174108,-20.624796549479168,2.0399547758556547,3.434532099431656,-7.805090260819425,0.1626290954415977,-1.9612384871644155,-50.029629629629625,8.139706091990352,30.009494713511245,33.22032527630515,31.73471710546021,1577399447.0,-27.689221314448734,-51.12796092505787,3.0710733
44231,1577399447.71,0.918056626586914,-0.9558850128173828,7.923490684204101,1.409425640720274,-2.9013636459722747,8.916766119533632,1.9301255716959629,3.5816686787923167,8.691693088785806,3.792190551757813,5.347442626953125,0.688934326171875,2.5316564048208843,11.39105820074314,-0.6937166539634148,6.298610142299108,-24.897257486979168,-3.1480335053943453,3.253767252093146,-7.617015796703295,0.6505163817663843,-1.9612384871644155,-50.029629629629625,8.139706091990352,29.96157186929044,33.36409380896756,31.782639949681013,1577399447.0,-27.689221314448734,-51.12796092505787,3.0710733
44232,1577399447.72,1.2747926739501954,2.7263971405029297,10.55471830871582,0.970089636081602,2.9081666823968653,7.775929028469179,-0.529916634114583,-3.301661094156901,7.273128605143229,10.628128051757812,4.828643798828125,1.421356201171875,5.278238436070884,6.5082457007431405,0.2065519007240852,5.978175571986608,-31.809488932291664,3.031776064918155,2.892237557416128,-7.993164724935555,-0.3252581908831888,-4.108512338141966,-48.6052096052096,3.9769340266802167,29.86572618084883,33.29220954263636,31.73471710546021,1577399447.0,-27.689221314448734,-51.12796092505787,3.0710733
44233,1577399447.73,1.0222043988037108,2.779069577026367,7.928279087524413,0.4038609434546491,-0.0067738388433679,8.629461920314881,1.422554819742838,-2.5163629496256505,14.562275559488931,6.8439483642578125,6.369781494140624,0.215911865234375,3.2945958579458843,6.9354917944931405,0.3743985804115852,2.850123814174107,-16.382853190104168,0.4835582914806547,4.247973912454941,-7.899127492877492,1.0570891203703718,-1.9612384871644155,-50.029629629629625,7.0990130756628185,29.93761044718004,33.50786234162997,31.782639949681013,1577399447.0,-27.689221314448734,-51.12796092505787,3.0710733
44234,1577399447.74,0.4559757061767577,0.1215057342529296,10.96891519592285,-0.3263705628930061,-0.3730866928472742,8.900006707912539,0.2733380228678378,4.821865138753254,9.790631650797527,3.1208038330078125,6.232452392578125,0.261688232421875,0.4259435141958843,2.7851011694931405,-0.9073397008384148,3.338405064174107,4.582722981770833,11.805579775855657,1.9884133207235888,-7.805090260819425,-0.162629095441591,-4.645330800886364,-64.74863654863654,9.552075185577722,29.86572618084883,33.36409380896756,31.782639949681013,1577399447.0,-27.689221314448734,-51.12796092505787,3.0710733
44235,1577399447.75,-0.7818265521240224,-0.6661866119384765,10.77019645812988,-0.9440745912133186,0.0818116225824122,10.18090459609613,2.124055906168619,4.539349342854817,12.0028739847819,1.8085479736328125,6.171417236328125,0.109100341796875,1.2194005454458845,5.1654722632431405,-1.0294100133384148,2.331324986049107,4.155476888020833,-6.169273739769345,3.253767252093146,-8.745462581400078,-1.951549145299146,-14.84488159302974,-62.374603174603166,7.842365230182486,30.009494713511245,33.41201665318837,31.15964297481056,1577399447.0,-27.689221314448734,-51.12796092505787,3.0710733
44236,1577399447.76,0.6451176373291015,0.6913257293701172,11.100596287231443,0.9712867369116804,-1.0267037460699304,9.972609051662538,0.1703873514811191,-4.683115452067057,12.816902549235026,1.7780303955078125,5.957794189453125,0.872039794921875,2.4401036704458843,12.45917343511814,1.1678556116615852,2.117701939174107,7.878621419270833,-4.979088192894345,3.253767252093146,-8.745462581400078,-1.951549145299146,-6.255786189119516,-65.22344322344321,7.0990130756628185,29.96157186929044,33.17240243208434,32.07017701500584,1577399447.0,-27.689221314448734,-51.12796092505787,3.0710733
44237,1577399447.77,1.4304157818603516,3.190872262573242,12.019969724731444,1.160428668064024,6.093651991234755,9.790649725490663,-0.2725399556477861,3.347036916097004,9.639796946207683,6.3556671142578125,11.328887939453123,0.353240966796875,0.2733556235708843,8.67499374761814,1.5951017054115852,2.972194126674107,3.7892659505208335,-2.2630237397693453,3.253767252093146,-8.745462581400078,-1.951549145299146,-11.623970816563412,-63.32421652421653,6.9503426447588845,29.86572618084883,33.31617096474676,31.73471710546021,1577399447.0,-27.689221314448734,-51.12796092505787,3.0710733
44238,1577399447.78,0.1830367169189453,4.105457296752929,10.81568628967285,2.06304269394293,7.448770130883193,9.309415191799255,-0.1767718892415361,2.042197011311849,6.541699997965495,4.0668487548828125,6.659698486328125,-0.104522705078125,0.2123204673208842,5.3485777319931405,-1.0294100133384148,2.209254673549107,-3.1077067057291665,-3.0259631928943453,3.9768266414471753,-9.497760437864605,0.3252581908831954,-6.255786189119516,-61.42498982498982,6.9503426447588845,29.817803336628028,33.17240243208434,31.6388714170186,1577399447.0,-27.689221314448734,-51.12796092505787,3.0710733
44239,1577399447.79,-1.248695875854492,1.9003975677490232,10.004051926879882,0.8204520323218366,-2.1878915512457118,10.159356781154724,-0.3946442403157548,-2.9425308451334637,9.802602659098309,0.6183624267578125,6.049346923828125,-1.203155517578125,6.376871248570884,5.3790953101181405,-1.3956209508384148,1.2021745954241072,-2.1921793619791665,6.587073916480655,2.892237557416128,-8.369313653167819,-0.9757745726495664,-5.718967726375147,-62.84940984940984,7.024677860210852,29.96157186929044,33.22032527630515,31.97433132656424,1577399447.0,-27.689221314448734,-51.12796092505787,3.0710733
44240,1577399447.8,-1.0571597430419917,-3.296217135620117,6.261914732055663,-2.0657580689965216,-1.3367528610601656,6.342999334865663,1.9229429667154945,3.591245485432942,8.733591617838542,-3.837203979492188,0.632476806640625,-0.547027587890625,2.8368321860708843,1.04559921636814,-2.8909822789634148,3.704616001674107,-5.564371744791667,-3.468468075706845,2.892237557416128,-8.369313653167819,-0.3252581908831888,-5.450558495002952,-63.08681318681318,-3.122079048982608,29.841764758738428,33.26824812052595,32.02225417078504,1577399447.0,-27.689221314448734,-51.12796092505787,3.0710733
44241,1577399447.81,0.0992396588134765,3.2148142791748047,8.85004672668457,2.84834083847418,2.2772945449456934,10.619043499904723,-0.3108471822102861,-1.3647519510904946,9.163350815836589,11.879348754882812,7.178497314453125,-1.264190673828125,1.5550939048208845,7.60687851324314,0.1912931116615852,3.338405064174107,-2.7720133463541665,0.8497692289806548,2.892237557416128,-8.369313653167819,-0.3252581908831888,-8.939878502841475,-60.95018315018314,-4.274274888488087,29.86572618084883,33.31617096474676,31.782639949681013,1577399447.0,-27.689221314448734,-51.12796092505787,3.0710733
44242,1577399447.82,-0.4705803363037099,3.957016793823242,10.097425791625977,-3.577696417385193,1.968442530785537,9.213647125393006,-0.3707022237141923,2.8322835591634106,9.958225767008464,9.560012817382812,4.492950439453125,0.170135498046875,4.332193514195884,-9.57451797113186,-0.9683748570884148,2.544948032924107,-1.2766520182291667,-1.0728381928943451,3.615296946770161,-7.240866868471033,-0.6505163817663776,-8.939878502841475,-59.05095645095645,-4.274274888488087,29.817803336628028,33.17240243208434,31.97433132656424,1577399447.0,-27.689221314448734,-51.12796092505787,3.0710733
44243,1577399447.83,-0.7123947039794912,0.9427169036865234,10.93060796936035,-1.820352398830506,2.4281292495355373,9.75473670058832,1.1424332255045566,-5.298425278727214,8.265525193277995,0.6793975830078125,1.227569580078125,0.292205810546875,4.515298982945884,7.97308945074314,-0.4495760289634147,1.6294206891741072,-2.4973551432291665,-0.2488635835193452,3.2537672520931444,-7.617015796703296,-0.162629095441591,-10.01351542833026,-59.05095645095645,-6.058320059335285,29.86572618084883,33.22032527630515,31.73471710546021,1577399447.0,-27.689221314448734,-51.12796092505787,3.0710733
44244,1577399447.84,0.1088164654541015,-1.35332248840332,7.751108164672851,1.161625768894102,-0.7597502609625094,9.177734100490664,0.9496999918619784,2.5198402425130206,10.13300248819987,-5.942916870117188,-5.150604248046875,-0.135040283203125,1.5245763266958845,1.1066343726181405,-0.2054354039634147,3.063746861049107,-0.9562174479166669,-0.8744739350818451,3.79606179410867,-8.181239189051688,-0.4878872863247798,-26.118069310661923,-52.87846967846968,-6.058320059335285,29.62611195974481,33.31617096474676,31.83056279390182,1577399447.0,-27.689221314448734,-51.12796092505787,3.0710733
44245,1577399447.85,-0.4897339495849599,-0.2950853546142578,8.457397654418944,1.1963416929663675,4.719380238305068,10.075559723049256,-2.28127514851888,1.7046145772298176,7.542476291910807,3.1208038330078125,0.5256652832031251,-0.226593017578125,1.2194005454458845,1.0150816382431402,-2.6773592320884148,3.643580845424107,-6.769816080729167,-0.0352405366443452,3.79606179410867,-8.181239189051688,-0.4878872863247798,-10.55033389107465,-50.029629629629625,-3.456587518516453,29.72195764818641,33.41201665318837,31.83056279390182,1577399447.0,-27.689221314448734,-51.12796092505787,3.0710733
44246,1577399447.86,-2.2111649432373044,3.7319618377685546,11.632109055786133,-2.1794826478539435,1.4656601821527246,12.043593487697692,2.107296494547525,2.109234657796224,12.560722971598306,12.886428833007812,7.941436767578125,-0.562286376953125,3.2945958579458843,2.7545835913681405,-2.0059725133384148,4.711696079799108,-6.800333658854167,-1.0423206147693451,3.9768266414471753,-8.369313653167819,0.9757745726495798,-40.61216780476041,-50.029629629629625,-4.6459509657479225,29.86572618084883,33.41201665318837,31.73471710546021,1577399447.0,-27.689221314448734,-51.12796092505787,3.0710733
44247,1577399447.87,-0.2239775653076166,2.087145297241211,8.756672861938476,0.5499072447241804,0.4505186782464747,10.32934509902582,-0.8399657491048174,3.124376161702473,9.101101572672526,3.654861450195313,-1.000213623046875,-0.165557861328125,4.179605623570884,-4.96636367425686,-0.9683748570884148,4.955836704799108,-11.255900065104166,1.8263317289806549,4.157591488785686,-9.12161150963234,0.6505163817663842,-6.255786189119516,-61.42498982498982,9.329069539221818,29.91364902506964,33.17240243208434,31.73471710546021,1577399447.0,-27.689221314448734,-51.12796092505787,3.0710733
44248,1577399447.88,-1.5192406634521485,-1.293467446899414,10.45895024230957,-1.4707989564476935,0.4062259475335847,7.980633270412537,-0.5107630208333334,-0.4657292277018233,8.476214939371744,-4.569625854492188,-9.148406982421877,-0.196075439453125,4.271158357945884,-1.2127015648818598,-0.1138826695884147,4.269191196986608,-14.338175455729166,1.0023571196056549,4.338356336124197,-9.497760437864605,0.0,-5.987376957747332,-48.84261294261294,9.737913224207638,29.86572618084883,33.340132386857164,31.782639949681013,1577399447.0,-27.689221314448734,-51.12796092505787,3.0710733
44249,1577399447.89,-0.8775946185302724,-0.8672995513916015,6.6689290142822255,-0.0701909852562874,-1.1009239975347742,10.556794256740664,-1.4361219624837234,2.41808667195638,8.464243931070962,0.5878448486328125,-1.549530029296875,0.048065185546875,2.9283849204458843,3.0597593726181405,-1.7923494664634148,4.742213657924108,-15.467325846354166,-1.805260067894345,4.338356336124197,-9.497760437864605,0.0,-6.255786189119516,-48.13040293040292,10.072421693741486,29.72195764818641,33.17240243208434,31.83056279390182,1577399447.0,-27.689221314448734,-51.12796092505787,3.0710733
44250,1577399447.9,-0.0922964739990224,1.505354293823242,8.342475974731444,-1.4013671083031622,2.1551902602777244,9.86726417861566,0.9700507059733066,0.5362441670735668,14.040339597574867,5.2875518798828125,-0.6950378417968749,0.505828857421875,4.149088045445884,-1.88408828363186,-0.1749178258384147,4.681178501674108,-7.624308268229167,-2.4156116303943453,2.7114727100776186,-9.30968597374847,-0.162629095441591,-1.9612384871644155,-50.029629629629625,10.518432986453288,29.86572618084883,33.31617096474676,31.782639949681013,1577399447.0,-27.689221314448734,-51.12796092505787,3.0710733
44251,1577399447.91,0.0381875164794926,4.112639901733398,12.29769711730957,1.12451564316168,3.528264912377334,11.053591101223084,-0.5095659200032548,-1.0044246012369795,9.766689634195965,11.360549926757812,3.562164306640625,0.612640380859375,3.0351964438833843,0.2979185523056404,0.1607755335365852,2.895900181361608,-2.1006266276041665,0.6208873930431547,3.163384828423892,-8.463350885225884,0.0813145477208056,-0.0823738675590554,-48.84261294261294,8.920225854236003,29.817803336628025,33.12447958786354,31.68679426123941,1577399447.0,-27.689221314448734,-51.12796092505787,3.0710733
44252,1577399447.92,-1.468962428588867,-0.3525461944580078,10.609784946899412,-1.6000858460961311,-1.7066570175543052,6.59439050918207,0.4912103739420566,0.5817339986165355,9.125043589274089,0.6793975830078125,-1.457977294921875,0.078582763671875,4.027017732945884,-4.66118789300686,1.1373380335365852,1.8430437360491072,-4.633585611979167,4.847571963355655,4.519121183462703,-8.55738811728395,-0.4878872863247798,-4.645330800886364,-62.84940984940984,8.065370876538386,29.96157186929044,33.50786234162997,31.782639949681013,1577399447.0,-27.689221314448734,-51.12796092505787,3.0710733
44253,1577399447.93,-1.5623362933349607,-3.338115664672851,7.3249402691650385,-1.6312104676781622,-2.1807089462652427,10.164145184475036,-0.8615135640462236,2.817918349202473,9.623037534586588,-11.771774291992188,-14.916229248046877,1.238250732421875,-0.1844080483041157,-0.7244203148818598,-2.3721834508384148,3.552028111049107,-9.699503580729166,-0.9202503022693452,4.519121183462703,-8.55738811728395,-0.4878872863247798,-4.645330800886364,-62.84940984940984,8.065370876538386,29.96157186929044,33.17240243208434,31.73471710546021,1577399447.0,-27.689221314448734,-51.12796092505787,3.0710733
44254,1577399447.94,-0.8524555010986327,2.769492770385742,7.970177616577147,-0.9967470277367562,2.3850336196527246,11.7203762635766,0.3643176859537754,0.4668123189290356,9.778660642496746,7.561111450195312,1.151275634765625,0.933074951171875,2.2875157798208843,1.3507749976181402,0.3438810022865852,4.467555454799108,-13.666788736979166,-2.9344104585193453,3.796061794108672,-7.993164724935555,0.3252581908831921,-5.182149263630755,-48.13040293040292,7.693694799278552,29.86572618084883,33.17240243208434,31.782639949681013,1577399447.0,-27.689221314448734,-51.12796092505787,3.0710733
44255,1577399447.95,0.5086481427001952,3.995324020385742,9.553942014770508,0.2853479612769151,3.5893170547113185,8.539679358059022,0.7138711283365878,-0.7099377970377604,9.839712784830729,6.7218780517578125,-3.990936279296875,1.207733154296875,2.7147618735708843,-2.92168593988186,0.5269864710365852,2.468654087611607,-7.471720377604166,4.099891299293155,3.9768266414471753,-8.369313653167819,0.3252581908831954,-2.2296477185366173,-63.08681318681317,8.697220207880104,30.009494713511245,33.340132386857164,31.75867852757061,1577399447.0,-27.689221314448734,-51.12796092505787,3.0710733
44256,1577399447.96,-0.3221398333740224,1.215655892944336,9.266637815551755,0.4014667417944929,-0.0259274521246179,7.602349408107851,-1.2948640645345046,2.7628517110188797,10.3939704691569,-2.1892547607421875,-6.279754638671875,0.902557373046875,4.118570467320884,-6.09551406488186,1.6561368616615852,2.331324986049107,1.1342366536458333,3.1080700102306547,4.519121183462703,-7.805090260819425,-0.162629095441591,-11.623970816563412,-59.52576312576312,6.9503426447588845,29.62611195974481,33.22032527630515,31.782639949681013,1577399447.0,-27.689221314448734,-51.12796092505787,3.0710733
44257,1577399447.97,-0.3245340350341786,-2.607884158325195,7.33691127746582,-4.724519012600037,-4.19423254245665,8.861699481350039,0.2278481913248691,2.4444228902180987,13.288560276285809,-10.734176635742188,-14.885711669921877,1.238250732421875,1.6466466391958845,-11.98540664300686,-1.5176912633384148,1.8430437360491072,7.634480794270833,-1.3780139741443451,4.519121183462703,-7.805090260819425,-0.162629095441591,-11.623970816563412,-59.52576312576312,6.9503426447588845,30.009494713511245,33.36409380896756,31.83056279390182,1577399447.0,-27.689221314448734,-51.12796092505787,3.0710733
44258,1577399447.98,-0.1832761370849599,0.4327519500732422,8.972151011352539,1.7613732847632426,1.1376545547113184,12.778613397365662,-0.4353456685384111,-0.5507233866373696,11.174480210367838,3.883743286132813,-1.839447021484375,1.543426513671875,-0.2759607826791157,2.9682066382431405,-1.1819979039634148,1.6904558454241072,15.111287434895834,-2.2935413178943453,4.609503607131957,-7.899127492877492,0.4065727386039943,28.637413889265726,-62.84940984940984,8.957393461961988,29.841764758738428,33.36409380896756,31.73471710546021,1577399447.0,-27.689221314448734,-51.12796092505787,3.0710733
44259,1577399447.99,0.1495178936767578,5.642534762573242,13.320021226196287,-0.6866979127465217,2.084561311303116,10.383214636379334,0.8323841105143228,2.8741820882161453,10.869219498697916,10.567092895507812,5.988311767578125,1.634979248046875,4.835733553258384,-5.56145644769436,2.159676900724085,1.9345964704241072,12.212117513020834,1.3227916899181549,4.519121183462703,-7.805090260819425,0.1626290954415977,7.969903073606765,-56.43951973951973,8.028203268812403,29.817803336628028,33.38805523107796,31.71075568334981,1577399447.0,-27.689221314448734,-51.12796092505787,3.0710733
